time,seconds_elapsed,z,y,x
1761379064261142000,0.12514208984375,0.46989948520660396,-0.12191256148815155,0.3861193782359361
1761379064271197200,0.135197265625,0.6590953385032713,-0.03444821304678917,0.3909364231288433
1761379064281253000,0.145253173828125,0.679229633384943,0.05787117421030998,0.42437195200175043
1761379064291308300,0.155308349609375,0.7105290270119905,0.12624854486584663,0.41805122454762456
1761379064301363200,0.16536328125,0.8316580369070172,0.28798925887346266,0.34743162792325016
1761379064311419100,0.175419189453125,1.0260254476226867,0.36740123376250267,0.2837351085603237
1761379064321474000,0.18547412109375,1.248412499642372,0.32017420316338535,0.2920052165165543
1761379064331530000,0.195530029296875,1.4502994922079144,0.22016309235990048,0.3173378106936812
1761379064341585200,0.205585205078125,1.5306462637290357,0.0649766223013401,0.3613622458592057
1761379064351640300,0.215640380859375,1.4960314619436859,0.029275194323062893,0.41981794195920225
1761379064361696000,0.225696044921875,1.3117547987401486,-0.01429156020283699,0.4014963955879211
1761379064371751200,0.235751220703125,1.1409610097050666,-0.01803074673116207,0.3751788820266723
1761379064381806000,0.24580615234375,1.0668858657993376,0.09599836803078651,0.28308278213143345
1761379064391862300,0.2558623046875,1.1858058213427662,0.22620646417737006,0.17828326800763605
1761379064401917200,0.265917236328125,1.3018736023254691,0.2738204482674598,0.14987024347186087
1761379064411972000,0.27597216796875,1.4226568675227462,0.19332710788249968,0.1671601087078452
1761379064422028000,0.286028076171875,1.5552252630598842,0.12080664607286452,0.1884282299250364
1761379064432083200,0.296083251953125,1.6749045125380158,0.08607552443146706,0.13703911121040582
1761379064442138000,0.30613818359375,1.7859087265208362,-0.004318447721004486,0.14378829320967196
1761379064452194300,0.3161943359375,1.6882459324091672,-0.21687398768663405,0.11811726085841655
1761379064462249000,0.3262490234375,1.4977819588728247,-0.31032910097539423,0.032418460784852506
1761379064472305200,0.33630517578125,1.3446546133011579,-0.19786065965890884,0.04246873015612364
1761379064482360000,0.346360107421875,1.2294319048404694,-0.19376140764653682,0.042705753782391546
1761379064492415200,0.356415283203125,1.091946218906343,-0.28253566964268684,0.0972404770463705
1761379064502471200,0.36647119140625,1.0209412762261927,-0.3928372883141041,0.09223024766892195
1761379064512526000,0.376526123046875,1.0297527975827454,-0.4247323097467422,0.09024813394099473
1761379064522581000,0.3865810546875,1.0184839462019502,-0.4005056309849024,0.0925499811425805
1761379064532637200,0.39663720703125,1.0832482409268618,-0.3672936817348003,0.11751987948715686
1761379064542692000,0.406692138671875,1.1654514539696275,-0.34065175852477547,0.17938129237741232
1761379064552747000,0.4167470703125,1.314500882577896,-0.36813890038728714,0.1915051531523466
1761379064562803000,0.426802978515625,1.4183154773175715,-0.3745300627291202,0.13752894055396317
1761379064572858000,0.436858154296875,1.2909727074742317,-0.471152700138092,0.113161099755764
1761379064582913300,0.446913330078125,1.0629226612567901,-0.6231237152814865,0.08951105183809994
1761379064592969200,0.45696923828125,0.8087330883935093,-0.7087398055076599,0.08002338478565216
1761379064603024100,0.467024169921875,0.588982083965838,-0.7498264336556196,0.06893500453829765
1761379064613079000,0.4770791015625,0.3916906024970114,-0.8050918092817068,0.10146306317746638
1761379064623135000,0.487135009765625,0.29697423710077997,-0.8990174626916646,0.2114344269812107
1761379064633190100,0.497190185546875,0.2682254047393799,-0.9266472278952598,0.25727409487515684
1761379064643245300,0.507245361328125,0.3045809127122164,-0.9248094910740852,0.24062018945515154
1761379064653301000,0.517301025390625,0.4190158317960799,-0.8391092296957969,0.27404110528081654
1761379064663356200,0.527356201171875,0.5190791111782193,-0.8709265097171067,0.27239333807379007
1761379064673412000,0.537412109375,0.5941128709830343,-1.0080635283440351,0.2748530061855912
1761379064683467300,0.54746728515625,0.6337275268822908,-1.094980764296651,0.31158173138499257
1761379064693522200,0.557522216796875,0.6119288059197366,-1.1655384016007184,0.32495442317724227
1761379064703578000,0.567578125,0.4915045832931995,-1.2280816592752932,0.2947290885224938
1761379064713633000,0.577633056640625,0.18423896154165267,-1.1896972758233546,0.26849311576485635
1761379064723688200,0.587688232421875,-0.12052476039156317,-1.1463695907503366,0.2718473946288228
1761379064733744000,0.597744140625,-0.3818101367346942,-1.1114888315051794,0.1825333266675472
1761379064743799300,0.60779931640625,-0.5114765272200107,-1.1179214949011802,0.041458384069800375
1761379064753854000,0.61785400390625,-0.7210648879431187,-1.0343336956322193,-0.011404907983774318
1761379064763910100,0.62791015625,-0.9316789384521543,-0.8301450019955634,-0.0336722511050757
1761379064773965000,0.637965087890625,-0.9554394610069692,-0.6156926884979009,-0.15815730256289243
1761379064784020200,0.648020263671875,-0.9030442339897156,-0.32644963017106055,-0.3625038171097636
1761379064794076200,0.658076171875,-0.8710016207799315,-0.09771510882079601,-0.5307426609650254
1761379064804131000,0.668131103515625,-0.9645556643985211,0.12309154213964939,-0.5326455719769001
1761379064814186000,0.67818603515625,-1.199448123856634,0.3229524357050657,-0.4129027557432651
1761379064824242200,0.6882421875,-1.324096393918991,0.39417876605093477,-0.22554566218107938
1761379064834297000,0.698297119140625,-1.352349990109354,0.36735330296754837,-0.08770456867171451
1761379064844352000,0.70835205078125,-1.263231152459234,0.4474456613361835,0.01799098097635433
1761379064854408000,0.718407958984375,-1.2075823304735123,0.6793249104529618,0.04192569105429574
1761379064864463000,0.728463134765625,-0.9648527476489543,0.8859808709859848,0.06178221017420291
1761379064874518300,0.738518310546875,-0.6854686739049851,1.049659275057912,0.041883313217293466
1761379064884574200,0.74857421875,-0.45861236751675605,1.156221707201004,-0.0014680267259478568
1761379064894629000,0.758629150390625,-0.23631050956249236,1.1786942357718944,-0.06699146925508975
1761379064904685000,0.76868505859375,-0.11346870440021156,1.1686568258821963,-0.22489066887106746
1761379064914740000,0.778739990234375,-0.11333411823511123,1.1037304724633692,-0.3449102927520871
1761379064924795100,0.788795166015625,-0.20448329266905785,1.0751508591890335,-0.39722266379147764
1761379064934851000,0.79885107421875,-0.24130758719742296,1.0160334843099117,-0.4714151504665613
1761379064944906200,0.80890625,-0.36078671099357307,0.9549269814401864,-0.5877806357542052
1761379064954961200,0.818961181640625,-0.6227074626307935,0.952009048166871,-0.62984980866611
1761379064965017000,0.82901708984375,-0.969303297317028,0.9392904363691806,-0.6018325054496526
1761379064975075800,0.839075927734375,-1.1678257818855344,0.9348556687921286,-0.6419882824882864
1761379064985130800,0.849130859375,-1.1713356166373938,0.9078659550577401,-0.6928408101081848
1761379064995186700,0.859186767578125,-0.9682721276383847,0.8755530004739761,-0.7335144735410809
1761379065005241600,0.86924169921875,-0.6153150873571634,0.8992658844947814,-0.8109341055691242
1761379065015296800,0.879296875,-0.22277298259735107,0.8523924896389246,-0.7847089464664458
1761379065025352700,0.889352783203125,0.04913834411315619,0.8400970716893672,-0.6691346480891108
1761379065035408000,0.899407958984375,0.12446465712375938,0.8891618391096592,-0.6009046134823933
1761379065045462800,0.909462890625,-0.06063121350817382,0.8605950853168964,-0.6012275618264451
1761379065055518700,0.919518798828125,-0.04073701099269092,0.9470791905492544,-0.5709081191474571
1761379065065573600,0.92957373046875,-0.23993447221331296,0.9618547348767519,-0.7368719672754407
1761379065075628800,0.93962890625,-0.3394991544235498,0.9371943408727645,-0.6842492151126265
1761379065085684700,0.949684814453125,-0.28785715692639346,1.0349287389159203,-0.6431321918264031
1761379065095740000,0.959739990234375,-0.2920084313869476,1.0436790316045284,-0.6358969798758626
1761379065105794600,0.969794677734375,0.09369133319742977,1.0654413660794495,-0.5093570873806252
1761379065115850800,0.979850830078125,0.5178980847001076,1.0502975729614497,-0.6532999500975012
1761379065125905700,0.98990576171875,0.9140683168292045,0.9650590838760137,-0.8103118820175528
1761379065135960800,0.9999609375,1.2492226469814776,0.848501327419281,-0.8601505564197898
1761379065146016800,1.010016845703125,1.4477952543020247,0.6804267342150211,-0.8058566561743616
1761379065156071700,1.02007177734375,1.5446119529783724,0.46155543523132797,-0.728885352435708
1761379065166126800,1.030126953125,1.642687711805105,0.42028818981945515,-0.6603709113970399
1761379065176182800,1.040182861328125,1.580553327192366,0.35489947958588597,-0.7192484131056815
1761379065186237700,1.05023779296875,1.3405880945146083,0.26304186462163925,-0.6503700341254472
1761379065196292600,1.060292724609375,1.007218894213438,0.2771002005904913,-0.4959975107982754
1761379065206348500,1.0703486328125,0.8112671369157731,0.187457339066267,-0.32580223564561456
1761379065216403700,1.08040380859375,0.7858392656706273,-0.08128244493603706,-0.30414190024044363
1761379065226459000,1.090458984375,1.0278175186712295,-0.0975409212976694,-0.28579850736353546
1761379065236514800,1.100514892578125,1.0927058781672268,0.05337678540050983,-0.3059387935945764
1761379065246569700,1.11056982421875,1.3076596383810042,0.13467851955890656,-0.2829872128024697
1761379065256625700,1.120625732421875,1.4600094237089156,0.2092161664098501,-0.2230278341412544
1761379065266680800,1.130680908203125,1.3481450857654214,0.08460837448835372,-0.23571290899552402
1761379065276735700,1.14073583984375,1.3935820180773735,-0.21041677437126635,-0.30680330146942286
1761379065286791700,1.150791748046875,1.3051101000286638,-0.6409089628189801,-0.35164606728050857
1761379065296846600,1.1608466796875,1.1987376374997198,-1.0878455055892466,-0.280331181868352
1761379065306901800,1.17090185546875,0.879841783709079,-1.6654419799268245,-0.3710162459218874
1761379065316957700,1.180957763671875,0.38217210191488266,-2.057352216523886,-0.2909200516283512
1761379065327012900,1.191012939453125,-0.4414379453539848,-2.001416978812218,-0.2922951393738389
1761379065337067800,1.20106787109375,-0.7607143228948116,-1.8819056332468986,-0.32389789986163375
1761379065347124000,1.2111240234375,-0.7635599215842783,-1.512676599535346,-0.37765721830632537
1761379065357178600,1.2211787109375,-0.6019384500421583,-1.2123083360821008,-0.38453707748055455
1761379065367233800,1.23123388671875,-0.3238015998803079,-1.1127063906013965,-0.389935429392755
1761379065377289700,1.241289794921875,0.017482099872455,-1.190737140265107,-0.4754846283951774
1761379065387345000,1.251344970703125,0.015473463463783263,-1.1515046155512332,-0.5185162165984512
1761379065397399600,1.261399658203125,-0.5233562770407647,-1.1035714825093745,-0.32879882364571095
1761379065407455700,1.271455810546875,-0.7287205172628164,-1.1029939748823643,-0.38398791916519404
1761379065417510700,1.2815107421875,-1.0967103645682335,-1.0030442388772964,-0.426482076023519
1761379065427565800,1.29156591796875,-1.3109995964586734,-1.102317098534107,-0.10364742147922515
1761379065437621800,1.301621826171875,-1.2566150953203439,-1.3746633825957775,0.12069120299965143
1761379065447676700,1.3116767578125,-0.9550269346833229,-1.3322422909736633,0.2688479205518961
1761379065457731800,1.32173193359375,-0.8508890993386506,-1.0874585520982742,0.3294669321656227
1761379065467787800,1.331787841796875,-0.5375156622312963,-0.9797481189638375,0.259466910478007
1761379065477842700,1.3418427734375,-0.3565852407157421,-0.972363853931427,0.15699878017753363
1761379065487897600,1.351897705078125,-0.5493208124458789,-0.8396037352144717,-0.0016845920860767364
1761379065497953500,1.36195361328125,-0.893781242538616,-0.7821165918856858,-0.03959843998339493
1761379065508008700,1.3720087890625,-1.410121649467945,-0.757194332075119,0.08436492112129926
1761379065518063900,1.38206396484375,-1.6614961649104951,-0.461712087097764,0.050964751256140875
1761379065528119800,1.392119873046875,-1.4270521798722444,-0.04130991550981998,-0.1161719720095396
1761379065538174700,1.4021748046875,-1.4009819190703332,0.31138883916139604,-0.03164689189046621
1761379065548229600,1.412229736328125,-1.047080875937268,0.525463551518321,0.16168138503581284
1761379065558285800,1.422285888671875,-0.6295312442362309,1.0447019449114798,0.11440905399024486
1761379065568340700,1.4323408203125,-0.9282559782661497,1.1087374869704245,-0.05405015461742878
1761379065578396000,1.44239599609375,0.23620047331675886,0.899908274051547,0.20310557457506656
1761379065588451800,1.452451904296875,0.6670167060870676,1.3956196613848209,0.21098668321371078
1761379065598506800,1.4625068359375,0.8539017982233316,1.5588193420290946,0.2351975798845291
1761379065608561700,1.472561767578125,0.8020045107908547,1.3621616284191607,0.5306377392858267
1761379065618617900,1.482617919921875,0.4114877013135701,1.1272054560750722,0.837855722503364
1761379065628672800,1.4926728515625,0.05375789367258548,0.7802928835898637,1.1505910078376531
1761379065638727700,1.502727783203125,-0.1971381906032562,0.5631845026254654,1.3012348660305142
1761379065648783600,1.51278369140625,-0.2958135958235711,0.4397036689072847,1.1807666581317782
1761379065658838800,1.5228388671875,-0.2840132679145783,0.42010348090231414,0.9313964682489633
1761379065668893700,1.532893798828125,-0.24862623964771627,0.47920390464663504,0.6370704075694084
1761379065678950000,1.542949951171875,-0.08879705834984779,0.4170294802844524,0.39019028093665836
1761379065689004500,1.553004638671875,-0.0431645304005593,0.2518751584410667,0.32947336190640925
1761379065699059700,1.563059814453125,0.15772285666838287,0.2683504924237728,0.39622430040389295
1761379065709115600,1.57311572265625,0.30699031194150445,0.16971651519238948,0.37259471075236794
1761379065719170800,1.5831708984375,0.5270534510582685,0.062415247380733486,0.46918519945740694
1761379065729225700,1.593225830078125,0.6392746396154165,-0.08783551984131335,0.4660261509045958
1761379065739281700,1.60328173828125,0.7382092072285711,-0.20761866808533666,0.5156108505457639
1761379065749336800,1.6133369140625,0.7589942211039364,-0.18542320289015768,0.4972103937193751
1761379065759391700,1.623391845703125,0.7359983993113041,-0.03425765891075134,0.4400225255981087
1761379065769447700,1.63344775390625,0.7463762932017445,0.15179741214215756,0.3068973729610443
1761379065779502600,1.643502685546875,0.7596732894092798,0.27948914155364035,0.22798282620012758
1761379065789557800,1.653557861328125,0.8507968910105526,0.27968554090857506,0.2602192084163427
1761379065799612700,1.66361279296875,0.9267337371349335,0.2160042191147804,0.3442620579764247
1761379065809668900,1.6736689453125,0.9647662384092808,0.2720686361640692,0.5130623351067304
1761379065819723800,1.683723876953125,1.0406664057850836,0.24106851774454116,0.6050494216695428
1761379065829779700,1.69377978515625,1.1217771474160254,0.11838789449334144,0.6735474960952997
1761379065839834600,1.703834716796875,1.0731459491074085,0.06745499511361122,0.7969178551763295
1761379065849889800,1.713889892578125,0.8689544059265405,-0.1493809986501932,0.7567635394424199
1761379065859945700,1.72394580078125,0.46286556798182427,-0.2660211726933718,0.7253814359679818
1761379065870001000,1.7340009765625,0.1400398273963481,-0.22016192331612108,0.6361909943863749
1761379065880055600,1.7440556640625,-0.017265023055672644,0.031197102296352384,0.4524912542879581
1761379065890110700,1.75411083984375,0.10923720431029796,0.3280015357881784,0.25088702418655157
1761379065900166700,1.764166748046875,0.42034708039984103,0.5590963565289974,0.17192105776565147
1761379065910221800,1.774221923828125,0.7067957587677985,0.6974217081576586,0.22970013324571772
1761379065920276700,1.78427685546875,0.8830101846121251,0.6481845067799091,0.3758233174100518
1761379065930332700,1.794332763671875,0.9444682043332606,0.3263619518876076,0.48061026431322096
1761379065940387800,1.804387939453125,0.7344130298160017,0.0009375731110572815,0.47221072129104286
1761379065950442800,1.81444287109375,0.21900047832131384,-0.24408465069532392,0.3849862825527787
1761379065960498700,1.824498779296875,-0.051849429702758784,-0.37696050474643705,0.05932809502035379
1761379065970553600,1.8345537109375,-0.47518699715547263,-0.2449438978731632,-0.15403761055069043
1761379065980604700,1.844604736328125,-0.8506371704041957,-0.20339608195424078,0.0105853991612792
1761379065990660600,1.85466064453125,-0.9195745130300521,-0.1895832451790571,0.2233051897779107
1761379066000715800,1.8647158203125,-0.35458442228734494,-0.024607202512025833,0.2098123787373304
1761379066010770700,1.874770751953125,0.09891111367233096,0.0813718767851591,0.2350143140058033
1761379066020827000,1.884826904296875,0.34809447574615476,-0.245563491076231,0.47432285460680723
1761379066030881500,1.894881591796875,0.37031098372936244,-0.8513140467524528,0.6198027541652321
1761379066040936700,1.904936767578125,0.18266900881119072,-1.3951198951691388,0.5571931167235598
1761379066050992600,1.91499267578125,-0.03864559167139232,-1.5907050111114978,0.27951160911377515
1761379066061047800,1.9250478515625,-0.3491032874625176,-1.4610042799651621,0.03644168841894716
1761379066071103000,1.93510302734375,-0.6241103882312774,-1.44407418795228,-0.06228899065256118
1761379066081158700,1.94515869140625,-0.684587287960574,-1.4057617006927727,-0.17699998673144726
1761379066091213800,1.9552138671875,-0.7333340754728764,-1.3378338273704051,-0.18088179660085588
1761379066101268700,1.965268798828125,-0.7168435439210384,-1.2121534377813339,-0.15145583216287195
1761379066111324700,1.97532470703125,-0.7287409755289554,-1.1017723241329191,-0.12689414929300546
1761379066121379800,1.9853798828125,-0.8296271156013011,-0.9597001871913671,-0.08240710158441215
1761379066131434800,1.995434814453125,-0.9567137917917221,-0.676081398487091,-0.14684892288930712
1761379066141490700,2.00549072265625,-0.9721382284820079,-0.40064533171653743,-0.3248737591564655
1761379066151545900,2.0155458984375,-1.0224982964098452,-0.06325871246755123,-0.4226286519983783
1761379066161600800,2.025600830078125,-1.0914560973018408,0.2943652236461639,-0.46228637985438104
1761379066171657000,2.035656982421875,-1.1335656387567519,0.7060019049763679,-0.5697984043398872
1761379066181711600,2.045711669921875,-1.369693777489662,1.0411538970410823,-0.6426356404811143
1761379066191766800,2.055766845703125,-1.6237147157877683,1.0611579896718264,-0.6058023223960772
1761379066201822700,2.06582275390625,-1.755727815529704,0.982442180353403,-0.49296325766891236
1761379066211878000,2.0758779296875,-1.752426435896754,1.2431056254059076,-0.34654903640244156
1761379066221932500,2.0859326171875,-1.4669336700141429,1.0784972470074892,-0.2608645571151748
1761379066231988700,2.09598876953125,-0.8921452388346195,1.0024544562906026,-0.09535455370191484
1761379066242043600,2.106043701171875,-0.2439250031542033,1.098223691740632,-0.23032157134599981
1761379066252098800,2.116098876953125,0.06480937597565352,1.0299883599042892,-0.2141684550549835
1761379066262153700,2.12615380859375,0.2695475932538509,0.9964712902277707,-0.26469606156945225
1761379066272209700,2.136209716796875,0.2785445541799068,1.0564414825439452,-0.3715326344788074
1761379066282264800,2.146264892578125,0.24197920284867286,1.0459335325330494,-0.4392228996530175
1761379066292319700,2.15631982421875,0.20535415721945463,0.9129179777503013,-0.5789323260512202
1761379066302375700,2.166375732421875,0.04976151751279831,0.7174012508690357,-0.6905883550062775
1761379066312430800,2.176430908203125,-0.05326631076335907,0.5775555578052998,-0.7295739192217588
1761379066322485800,2.18648583984375,0.02111176161170006,0.42966333640813825,-0.877061943732202
1761379066332541700,2.196541748046875,0.10660502917580306,0.23694646937847136,-0.8825373794686049
1761379066342596900,2.206596923828125,0.12280578400082885,-0.06807809544801711,-0.7186690788477659
1761379066352651800,2.21665185546875,0.20858605181276796,-0.34759938570559024,-0.5880392501577735
1761379066362708000,2.2267080078125,0.37989356252364814,-0.5059153859615325,-0.5596159599563106
1761379066372762600,2.2367626953125,0.5408026480127126,-0.5830570778310299,-0.5984659881586208
1761379066382817800,2.24681787109375,0.43612332620248195,-0.5625444511562585,-0.7276260000243783
1761379066392873700,2.256873779296875,0.15276128873825073,-0.4765197801291942,-0.8349874735906719
1761379066402929000,2.266928955078125,-0.07584171518683433,-0.24314415497481823,-0.8970061228692531
1761379066412983600,2.276983642578125,-0.2543242320936173,-0.014946224719285963,-0.9408978715658187
1761379066423039700,2.287039794921875,-0.25938100402653214,0.1694943968743086,-0.9131117467567325
1761379066433094700,2.2970947265625,-0.011796674647182226,0.30784079129099845,-0.8820052453532814
1761379066443149800,2.30714990234375,0.34001528725214303,0.43983986250758167,-0.8541998313218354
1761379066453205800,2.317205810546875,0.6089952366858721,0.5309124645739793,-0.7339736154854297
1761379066463260700,2.3272607421875,0.860570681528002,0.5998410393714905,-0.6315797011986375
1761379066473315800,2.33731591796875,1.0107575897336005,0.6420528721570968,-0.6054930737838149
1761379066483370800,2.347370849609375,0.9868513020325451,0.5663415053516626,-0.5728796749487519
1761379066493426700,2.3574267578125,0.8382568506501614,0.45795068873763084,-0.5963546220278367
1761379066503481600,2.367481689453125,0.6509312482047825,0.38783962615728373,-0.5830757825314998
1761379066513536800,2.377536865234375,0.4733810437120497,0.329555779492855,-0.5627052312085404
1761379066523592700,2.3875927734375,0.4575520448088646,0.2775233944386244,-0.5391480857387185
1761379066533648000,2.39764794921875,0.5370774169445037,0.2188508407175541,-0.4702884845241904
1761379066543702800,2.407702880859375,0.5804267293274402,0.22220599636435506,-0.3843555834338069
1761379066553759000,2.417759033203125,0.6348305927533656,0.19801789604723452,-0.34440760392695663
1761379066563813600,2.427813720703125,0.6697955231506377,0.2196422833561897,-0.2594599327479489
1761379066573868800,2.437868896484375,0.7233961804348975,0.17287117983102798,-0.21869712972687555
1761379066583924700,2.4479248046875,0.771799196010828,0.03401800493597984,-0.24563363370299338
1761379066593980000,2.45797998046875,0.7268600571531803,-0.049854456493258474,-0.23122898678081108
1761379066604034600,2.46803466796875,0.5741372737944126,-0.195605574208498,-0.24608166973143814
1761379066614090800,2.4780908203125,0.33459435818195343,-0.4291220691382885,-0.3554875086069107
1761379066624145700,2.488145751953125,0.06971358769536018,-0.5931845040917396,-0.4751809327408671
1761379066634200800,2.498200927734375,-0.20537629598602652,-0.5681763195633888,-0.5588111098468304
1761379066644255700,2.508255859375,-0.3033120618201792,-0.49766778209805485,-0.5841580248102546
1761379066654311700,2.518311767578125,-0.24590134472846983,-0.45101475199460983,-0.5603948719069362
1761379066664366800,2.528366943359375,-0.033413024780154225,-0.4049070808142423,-0.5049444951027632
1761379066674421800,2.538421875,0.30408465362787246,-0.4439812000960111,-0.44093613331168885
1761379066684477700,2.548477783203125,0.579022707748413,-0.6045557929337024,-0.4340869980692863
1761379066694532600,2.55853271484375,0.6825065361637622,-0.8243728483349084,-0.4301829763680696
1761379066704587800,2.568587890625,0.4559036930799484,-1.0312649557113647,-0.5095528656810522
1761379066714643700,2.578643798828125,-0.015751549752801654,-1.0823515843480824,-0.5592775583148002
1761379066724699000,2.588698974609375,-0.6192809222482144,-1.0272948830366133,-0.5505754886820912
1761379066734753800,2.59875390625,-1.036193644285202,-0.9266460588514804,-0.5031634569048882
1761379066744809700,2.608809814453125,-1.1438503014057875,-0.7313859370797872,-0.5082467515185475
1761379066754864600,2.61886474609375,-1.0280056616544724,-0.5699392375826835,-0.4590279625803232
1761379066764919800,2.628919921875,-0.807446847975254,-0.58857730255723,-0.3656573127046227
1761379066774975700,2.638975830078125,-0.5602876121401786,-0.568545152875781,-0.22238398327976464
1761379066785031000,2.649031005859375,-0.3342471521794796,-0.5557715960204601,-0.12002893969863652
1761379066795085600,2.65908544921875,-0.2808802305858582,-0.6449655447334051,-0.08807049764096736
1761379066805140700,2.669140625,-0.3457901443265378,-0.6332008726596832,-0.06939239291697741
1761379066815196700,2.67919677734375,-0.41754729361347853,-0.583757919576764,-0.027802199161052702
1761379066825251800,2.689251953125,-0.5603494983952492,-0.6148147366195916,-0.007327271864877548
1761379066835306800,2.699306640625,-0.7972994018398225,-0.7151297988057136,-0.012444758725794963
1761379066845362700,2.70936279296875,-0.9971918595872818,-0.7336679105371237,0.03322657143049873
1761379066855417900,2.71941796875,-1.1799041230183094,-0.6033528468847275,0.04476152640157379
1761379066865472800,2.72947265625,-1.3207073360025883,-0.3162584910243749,0.07809768655323424
1761379066875528700,2.73952880859375,-1.3188117315143346,0.07185293781161307,0.03237462164312601
1761379066885583600,2.74958349609375,-1.2396820806980133,0.4946428813189268,-0.004983341370522976
1761379066895638800,2.759638671875,-1.0829396133691072,0.8723837227880954,-0.051958443035185334
1761379066905694700,2.76969482421875,-0.9395089744906872,1.1967045242369174,-0.1010983032519929
1761379066915750000,2.77975,-0.8546556122653186,1.378756204867363,-0.11045269931359215
1761379066925804800,2.7898046875,-0.7544341466467828,1.371663616257906,0.006945891881454736
1761379066935859700,2.799859619140625,-0.6336853682409972,1.2764824098289012,0.22392860063957049
1761379066945915600,2.80991552734375,-0.4614255252413451,1.0744576162278652,0.33923107807189223
1761379066955970800,2.819970703125,-0.2907200720768422,0.9431360058814287,0.40097880145460363
1761379066966025700,2.830025634765625,-0.3091981972493231,0.9323311187505722,0.37714755175113673
1761379066976085200,2.840085205078125,-0.34358488936722276,0.935557679581642,0.27627894733548164
1761379066986140200,2.85014013671875,-0.582788197761774,0.8803986869394779,0.16438246068805457
1761379066996195000,2.860195068359375,-0.6255893747426569,0.7488654796689749,0.21210543984426183
1761379067006251000,2.8702509765625,-0.5754664765715599,0.5407248335361481,0.24882103156745433
1761379067016306200,2.88030615234375,-0.35780097318105397,0.3051812166929245,0.24457420604424548
1761379067026361300,2.890361328125,-0.0876501533370465,0.13788579116761684,0.3104793231010437
1761379067036417300,2.900417236328125,0.08567746502459049,0.043265141230821605,0.38578532397598025
1761379067046472200,2.91047216796875,0.13039236667230725,0.031954058143496514,0.4112093958288431
1761379067056527000,2.920527099609375,0.09756978206597268,0.06133680449426174,0.4073021957898512
1761379067066582300,2.930582275390625,-0.054255906322598454,-0.004479775762557983,0.37766543814539905
1761379067076638200,2.94063818359375,-0.36042664550952613,-0.0911976897507906,0.3670829615935683
1761379067086693000,2.950693115234375,-0.5403506664615124,0.004522445860505104,0.3614838264122605
1761379067096748000,2.960748046875,-0.5416645986042916,0.06691431236565112,0.2930678955783136
1761379067106804200,2.97080419921875,-0.4312380383789539,0.04431143541336059,0.21355507239699362
1761379067116859100,2.980859130859375,-0.2306954461596906,0.13145546585917472,0.16581397306220605
1761379067126914300,2.990914306640625,0.050434959794953466,0.3505418688982725,0.10970366191142238
1761379067136970000,3.000969970703125,0.34856450441069897,0.5667313814520836,0.0971215359749738
1761379067147025200,3.011025146484375,0.6433249379195273,0.7117845800310373,0.1479679261150304
1761379067157080000,3.021080078125,0.8856675672531127,0.8154360931634902,0.23693565572351216
1761379067167136300,3.03113623046875,1.0574937680758536,0.7772831803798675,0.3287535231992602
1761379067177191200,3.041191162109375,1.1789527405776083,0.6803735427230596,0.4080263818785548
1761379067187246000,3.05124609375,1.273162179365009,0.5319534980595112,0.4076853133559227
1761379067197301200,3.06130126953125,1.1353542757391928,0.30928163774907586,0.3185539084851742
1761379067207357200,3.071357177734375,0.8255481757245957,0.07358429164886474,0.172451493114233
1761379067217412400,3.081412353515625,0.5357132159192115,-0.06190145263969898,0.05322247162163257
1761379067227467000,3.091467041015625,0.34271585144773126,-0.11567980457842349,0.022767714408470783
1761379067237523200,3.101523193359375,0.34297874016761776,-0.1839373482465744,0.05488777448534965
1761379067247578000,3.111578125,0.5612176595319062,-0.20409926178753374,0.053038054965436454
1761379067257633300,3.12163330078125,0.8614269330311566,-0.11405366468131542,0.015010229866206645
1761379067267689200,3.131689208984375,1.090452546282485,-0.02928103954195976,0.018429097257339162
1761379067277744000,3.141744140625,1.1828911029398441,0.07175240004658699,0.022490941010415554
1761379067287799000,3.151799072265625,1.1235213607348502,0.17982056057751178,0.021420966841478366
1761379067297855200,3.161855224609375,0.9843722716331481,0.26560207049846646,0.11448533409684895
1761379067307910100,3.17191015625,0.8965151975471526,0.352786432954669,0.23523498928546904
1761379067317965300,3.18196533203125,0.9936028951846062,0.37812896400392054,0.3062695964515209
1761379067328020000,3.19202001953125,1.0778397329468279,0.28416297858357425,0.3161345723837614
1761379067338076200,3.202076171875,1.0715764347683638,0.14410568859577177,0.33721476981341836
1761379067348131000,3.212131103515625,0.9791116476912051,0.08898995057344436,0.23495617234408855
1761379067358186200,3.222186279296875,0.7643454459387808,0.08376900105476379,0.16173866818100213
1761379067368242200,3.2322421875,0.47231947889514264,0.05914777001738548,0.14651449417001566
1761379067378297000,3.242297119140625,0.2913147500343621,-0.05003215114772319,0.11968083864701912
1761379067388352300,3.252352294921875,0.1880488752186298,-0.14546353294551373,0.17146978860050438
1761379067398408200,3.262408203125,0.19580431165099144,-0.21424948440194128,0.2688277545467019
1761379067408463400,3.27246337890625,0.19618651590161024,-0.29917466975450513,0.40333237884342665
1761379067418518000,3.28251806640625,0.17158523167371748,-0.4799591069281101,0.5446963675156236
1761379067428574200,3.29257421875,0.1492033770609647,-0.7862672818243504,0.6530597116008401
1761379067438629000,3.302629150390625,0.13311726159155368,-1.0763140577495098,0.7157666354045271
1761379067448684300,3.312684326171875,0.12168452488593756,-1.2225626035928725,0.6122396254345774
1761379067458740200,3.322740234375,0.11416991147212684,-1.2493588405817746,0.4617684934601187
1761379067468795100,3.332795166015625,-0.06415595356822014,-1.2638298490047455,0.29039456644952294
1761379067478850000,3.34285009765625,-0.2827091995786875,-1.3960007696568966,0.05010198324723169
1761379067488906200,3.35290625,-0.5880863041698933,-1.4371540333002806,-0.1705991432458162
1761379067498961200,3.362961181640625,-0.8047824510715902,-1.272327628237009,-0.2912044580603018
1761379067509016300,3.373016357421875,-0.8528735511541367,-1.0911878017544745,-0.3569254324555397
1761379067519071000,3.383071044921875,-0.7792167787909507,-0.9698089087516069,-0.38048984791636464
1761379067529127200,3.393127197265625,-0.7647065343361348,-0.9934317764014005,-0.3462506014451384
1761379067539182000,3.40318212890625,-0.8581225577235221,-1.0706418573319911,-0.2506286655113101
1761379067549237200,3.4132373046875,-0.9912294440515339,-0.9658131171137094,-0.13696162552740423
1761379067559293200,3.423293212890625,-1.0623135163825004,-0.860937030622363,-0.061188664727844295
1761379067569348000,3.43334814453125,-1.0779900281377135,-0.8149380805134773,-0.06176785285528749
1761379067579403300,3.4434033203125,-0.999217958587408,-0.582698765912652,-0.22387831349074838
1761379067589459200,3.453459228515625,-0.9658803371310234,-0.22199790657162666,-0.4425456143349409
1761379067599514400,3.463514404296875,-0.9436891097195446,0.18862170667052267,-0.6076712580731138
1761379067609569000,3.473569091796875,-0.9410790733516216,0.5679027633190155,-0.6016428280964493
1761379067619625200,3.483625244140625,-0.6993149745583533,1.0411293471217156,-0.5638172475710511
1761379067629680000,3.49368017578125,-0.4345885178506374,1.2607131782889365,-0.4237789545446634
1761379067639735300,3.5037353515625,-0.032969299600645895,1.3565952264636754,-0.31467885715011507
1761379067649791200,3.513791259765625,0.19262049398310482,1.3550094185769557,-0.30960433036480095
1761379067659846100,3.52384619140625,0.28431670784056184,1.2338695950269698,-0.33387831886708735
1761379067669901000,3.533901123046875,0.13279986620545386,1.1481903764367103,-0.4601283250376582
1761379067679957200,3.543957275390625,-0.19868724667616186,1.0177291823118924,-0.665031304423511
1761379067690012200,3.55401220703125,-0.46883455938883123,0.7576210330545902,-0.8138543769299984
1761379067700067000,3.564067138671875,-0.7991839734774082,0.5634107125967741,-0.867908623200655
1761379067710123000,3.574123046875,-1.089535869828984,0.42116731074154373,-0.8228957615196705
1761379067720178200,3.58417822265625,-1.1312286471765487,0.3415285413593054,-0.6864590001165867
1761379067730233000,3.594233154296875,-1.0577061687175184,0.2504676297307014,-0.6275819367993622
1761379067740289300,3.604289306640625,-0.9117885353289544,0.15617548109591006,-0.6075234836328774
1761379067750344200,3.61434423828125,-0.8016763748150318,0.1845294689208269,-0.6346566244259476
1761379067760399000,3.624399169921875,-0.6298918211769312,0.351514513322711,-0.7013534946486354
1761379067770455000,3.634455078125,-0.3337782925587147,0.540193503138423,-0.9014902825459837
1761379067780510200,3.64451025390625,-0.0176934045355767,0.6741413703352213,-1.1249950865492224
1761379067790565400,3.6545654296875,0.21296594739742575,0.7014122390985489,-1.172628067600727
1761379067800621300,3.664621337890625,0.35371180417127907,0.6813391728848218,-1.1282213551193474
1761379067810676200,3.67467626953125,0.3635219081111252,0.5530430478394032,-1.0194766105011106
1761379067820731100,3.684731201171875,0.29706235377565027,0.3798825296729803,-0.9196578804645686
1761379067830786300,3.694786376953125,0.20509762517511843,0.36957857780158515,-0.8703107159063219
1761379067840842200,3.70484228515625,0.20429171561971304,0.41596798853278155,-0.8010992325142026
1761379067850897200,3.714897216796875,0.3088916155181825,0.4966413616597652,-0.7331266432672738
1761379067860952000,3.7249521484375,0.564000568248704,0.5274380664616823,-0.692323800496757
1761379067871008300,3.73500830078125,0.777148886475712,0.47499768512845036,-0.6036147492239251
1761379067881063200,3.745063232421875,0.9518997425734996,0.38404958622455593,-0.48907092640548944
1761379067891118000,3.7551181640625,1.0291806967832147,0.2902016742259264,-0.4447746885612607
1761379067901174000,3.765174072265625,0.9995524512387811,0.23168518784940242,-0.4442538795575499
1761379067911229200,3.775229248046875,0.8540368227798492,0.25075462997853754,-0.5021192085489631
1761379067921284000,3.7852841796875,0.7331716514527797,0.2440413960754871,-0.5996607143685221
1761379067931340300,3.79534033203125,0.5934804182983935,0.20419629242122173,-0.7188412205442786
1761379067941395000,3.80539501953125,0.5225170497376471,0.1980447840541601,-0.7862050302430987
1761379067951450000,3.8154501953125,0.5640390736281872,0.2222925056040287,-0.7352610249474644
1761379067961506000,3.825506103515625,0.6607083266578614,0.15869301687479018,-0.6040814534202218
1761379067971561200,3.835561279296875,0.8042553584575652,0.03930442090630531,-0.3860594647422433
1761379067981613600,3.845613525390625,0.8137200830258429,-0.09980945075154304,-0.21416708508180454
1761379067991669500,3.85566943359375,0.7448433845460415,-0.23750351873934267,-0.18940584278553724
1761379068001724400,3.865724365234375,0.5819792194664478,-0.3174544228106737,-0.2698033215805888
1761379068011779600,3.875779541015625,0.34658801670596,-0.44883565438985823,-0.41538726603537796
1761379068021835500,3.88583544921875,0.17838110235892235,-0.5300339281737804,-0.5827955408180132
1761379068031890700,3.895890625,0.017937953881174324,-0.4789940612882375,-0.6395718689963221
1761379068041945300,3.9059453125,-0.10959551622867583,-0.4964040457725525,-0.5615478413343429
1761379068052001500,3.91600146484375,-0.09483531560078262,-0.6080997491508722,-0.427235524739325
1761379068062056400,3.926056396484375,-0.06591653349995613,-0.6467237865775823,-0.32325054186880586
1761379068072111600,3.936111572265625,-0.06906126126646996,-0.7018740113914013,-0.22825375209599733
1761379068082167600,3.94616748046875,0.07241882806606591,-0.8040285639643668,-0.27359774542748927
1761379068092222500,3.956222412109375,0.2821920438367873,-0.8821002301603555,-0.40462884839475155
1761379068102277600,3.966277587890625,0.3238369634546339,-1.061210596641898,-0.5082987739667296
1761379068112333600,3.97633349609375,0.10909399644732475,-1.3043763789266347,-0.5696969532594084
1761379068122388500,3.986388427734375,-0.3070411653459072,-1.505332081991434,-0.483942915867269
1761379068132443400,3.996443359375,-0.7649814788199961,-1.5919424439519643,-0.3489399866595864
1761379068142498600,4.00649853515625,-1.1231500432044268,-1.6096259846806524,-0.3051730333864689
1761379068152554500,4.016554443359375,-1.3675380607604979,-1.5704314538896083,-0.2876309469550848
1761379068162609700,4.026609619140625,-1.405530960676819,-1.3730179534763096,-0.29889176115989685
1761379068172662500,4.03666259765625,-1.2542413519263267,-1.0800392157524823,-0.3670768241137266
1761379068182717400,4.046717529296875,-0.9657868136286735,-0.8136229062616824,-0.42908261391073466
1761379068192772600,4.056772705078125,-0.7926765643447637,-0.6656359923183918,-0.3991626919433474
1761379068202828500,4.06682861328125,-0.7127069555729627,-0.636981560242176,-0.2625397603183985
1761379068212883500,4.076883544921875,-0.703821638327837,-0.6266518894076347,-0.09395195689499378
1761379068222938600,4.086938720703125,-0.7556878730349242,-0.5569301184058189,-0.01367311777723953
1761379068232994600,4.09699462890625,-0.8141874813418835,-0.4339227474182844,0.005764573142398148
1761379068243049700,4.1070498046875,-0.9300806364100426,-0.24095044432282448,-0.0005970708440057933
1761379068253104400,4.1171044921875,-1.095603280109167,0.025907179194688795,0.01896802758127451
1761379068263160600,4.12716064453125,-1.2455099100686609,0.41063597985506056,0.07301025462057441
1761379068273215500,4.137215576171875,-1.2066313864242284,0.8225807042211294,0.09098728013681247
1761379068283270700,4.147270751953125,-0.9820447054684162,1.1216168422877788,0.09348287807852029
1761379068293325300,4.1573251953125,-0.6539579025495798,1.3770055618077515,0.1498968026852235
1761379068303381500,4.167381591796875,-0.2818669766008854,1.5268500863164662,0.23104367507547138
1761379068313436400,4.1774365234375,0.01841419309079647,1.4570277775496243,0.26838497921526433
1761379068323491600,4.18749169921875,0.1646177307486534,1.3891490040659904,0.34674802957326173
1761379068333547500,4.197547607421875,0.11685410905480384,1.349346570509672,0.3925137554481625
1761379068343602400,4.2076025390625,0.03668101360015571,1.2268038944244384,0.4122255506014451
1761379068353657600,4.21765771484375,-0.0695597853731364,1.2067676530897617,0.46486912635657934
1761379068363713500,4.227713623046875,-0.20908581802845,1.1872855385065078,0.5444879854619503
1761379068373768400,4.2377685546875,-0.244611816374585,1.083496078208089,0.6318722544044256
1761379068383823600,4.24782373046875,-0.272708687633276,0.9246469939887523,0.6439630896925926
1761379068393879600,4.257879638671875,-0.29943887364864347,0.7373574127048254,0.6449015395864844
1761379068403934500,4.2679345703125,-0.37333873405270274,0.5519359633803367,0.6385553854301571
1761379068413989600,4.27798974609375,-0.46276422649919985,0.40285423993766306,0.6281055953472853
1761379068424045600,4.288045654296875,-0.506612136054039,0.3100760029971599,0.6168810214996338
1761379068434100700,4.298100830078125,-0.48070495685935016,0.30283728391528125,0.5947749881535768
1761379068444155400,4.3081552734375,-0.45806306307092304,0.318695947304368,0.6217211550071835
1761379068454211600,4.318211669921875,-0.43454950101450085,0.3313233736872673,0.6828443167507648
1761379068464266500,4.3282666015625,-0.3608130144786089,0.4234755876839161,0.7057654658719897
1761379068474321700,4.33832177734375,-0.24704101628288624,0.4682248299926519,0.6568950519800186
1761379068484377600,4.348377685546875,-0.19249051092788577,0.40754269001483917,0.5088248802000657
1761379068494432500,4.3584326171875,-0.1447511468924582,0.39415246256589886,0.23780768931768834
1761379068504487400,4.3684873046875,-0.15237565042153,0.4276736238956451,0.03748005502335727
1761379068514542600,4.37854248046875,-0.13401961725875736,0.4491349295973778,-0.02526592214908451
1761379068524598500,4.3885986328125,-0.15469605619311333,0.3840916718006134,0.020471417881548402
1761379068534653400,4.3986533203125,-0.12482903345674276,0.2635357856184244,0.24794578310288487
1761379068544708600,4.40870849609375,0.05773688030615449,0.21691899587213992,0.43142190704587846
1761379068554764500,4.4187646484375,0.3737098323874175,0.19332476979494093,0.4326779715215787
1761379068564819500,4.4288193359375,0.6160907479047775,0.10199673166275024,0.4061769546195864
1761379068574874600,4.43887451171875,0.7127285828828811,0.08001052530407905,0.3534516188651323
1761379068584930300,4.448930419921875,0.7375229785300791,0.07922726597189902,0.2371493350068107
1761379068594985500,4.4589853515625,0.7152361817896365,0.11063947232365608,0.11433686553686856
1761379068605040600,4.46904052734375,0.7223645723648369,0.232387198638916,0.017222097229398787
1761379068615096600,4.4790966796875,0.7502298998899758,0.28685236379802226,0.026882198239304125
1761379068625151700,4.48915185546875,0.7818857057392596,0.24915596261024472,0.08471592651605606
1761379068635206400,4.499206298828125,0.7417721604071557,0.16208908905386923,0.1727071849083528
1761379068645262600,4.5092626953125,0.7746070930384099,0.08955752132833003,0.29124793187584724
1761379068655317500,4.5193173828125,0.9421477254964411,-0.023223639199137686,0.22822894644830374
1761379068665372700,4.52937255859375,0.8941142008200287,-0.15775369019806385,0.1939003046605736
1761379068675428600,4.5394287109375,0.9020002778947352,-0.24227847805619238,0.16047463959455488
1761379068685483500,4.5494833984375,0.8030582576274872,-0.2413409049451351,0.11413140609264373
1761379068695538400,4.559538330078125,0.6742724493689835,-0.3219669317990541,0.12115651895646005
1761379068705593600,4.569593505859375,0.5655934634633362,-0.3235112386316061,0.09231445535365491
1761379068715649500,4.5796494140625,0.5174129315316677,-0.2710071444123983,-0.0018806991800665853
1761379068725704400,4.589704345703125,0.5756022317804396,-0.2545598674803972,-0.03675733023937791
1761379068735759600,4.599759521484375,0.6126503981925546,-0.23295067774057387,-0.044550760594569146
1761379068745815600,4.609815673828125,0.6474900947749614,-0.23307810351252556,-0.029503742381930348
1761379068755870500,4.619870361328125,0.5783338487014175,-0.2517284434467554,0.02999481383450329
1761379068765925600,4.629925537109375,0.47528643894195555,-0.238784206199646,0.10967910285890102
1761379068775981300,4.639981201171875,0.2987970686137676,-0.2887853776872158,0.16077888323813677
1761379068786036500,4.650036376953125,0.24274609556794166,-0.3398609004080295,0.22506693875342607
1761379068796091600,4.660091552734375,0.21055238344967364,-0.31752456543743607,0.2061445038795471
1761379068806147600,4.670147705078125,0.2356558450460434,-0.39472997019290923,0.21270313174277541
1761379068816202800,4.68020263671875,0.24563480274677274,-0.44468204184174537,0.21842384747713803
1761379068826257400,4.69025732421875,0.18489253007955847,-0.5899830777019262,0.21205082358019425
1761379068836313600,4.700313720703125,0.18091259359791872,-0.8815607164561748,0.2048442714685574
1761379068846368500,4.710368408203125,0.12056363109722733,-1.0494225436925888,0.14497841630969197
1761379068856423700,4.720423583984375,0.03074124828763306,-1.115648289272189,0.04097850986467674
1761379068866478300,4.730478271484375,-0.12092457336410879,-1.1464268738955259,-0.0339194947312586
1761379068876534500,4.740534423828125,-0.3154487820766866,-1.1920786180019378,-0.032970815704297274
1761379068886589400,4.75058935546875,-0.5318798483014107,-1.2488947302013635,-0.014061550839245318
1761379068896644600,4.76064453125,-0.7660951391503215,-1.196576513943076,-0.011586940886639058
1761379068906700500,4.770700439453125,-0.892638575309515,-1.084006950339675,0.06685147626250981
1761379068916755500,4.78075537109375,-0.9287889160990714,-1.0000912342905999,0.14985329233705996
1761379068926810600,4.790810546875,-0.9327448141179978,-0.9338391852259635,0.21218497135387732
1761379068936866600,4.800866455078125,-0.9762583771519362,-0.8186287517249584,0.311424202735722
1761379068946921500,4.81092138671875,-1.0019003295391797,-0.6752139680027961,0.3369230933904648
1761379068956976600,4.8209765625,-0.9974318058229982,-0.5029202957987785,0.23197715653330087
1761379068967032300,4.8310322265625,-0.9102969815969466,-0.2366390108644962,0.07944237002730369
1761379068977090000,4.841090087890625,-0.7952747641444206,0.08744330565333366,-0.04054711444377899
1761379068987145200,4.851145263671875,-0.6992546957384794,0.3448345971673727,-0.07195581366419791
1761379068997200100,4.8612001953125,-0.48656880739144975,0.6033487552314997,-0.08277443705946207
1761379069007256000,4.871256103515625,-0.40319969237446784,0.8024304811179638,-0.04568944576829671
1761379069017311000,4.88131103515625,-0.35629283364042635,0.8544850780040025,0.06365384013182483
1761379069027366100,4.8913662109375,-0.2908755548994988,0.8987064970463514,0.11108486887044272
1761379069037422000,4.901422119140625,-0.27955862659327685,0.9891904855698347,0.12217178781307302
1761379069047477000,4.91147705078125,-0.17363807255029678,1.0328910956084727,0.19293927760869264
1761379069057532200,4.9215322265625,-0.026486951844021677,1.0536305167764424,0.2129980230361223
1761379069067588000,4.931588134765625,0.21254399565830825,1.0045821159690618,0.09680849710358307
1761379069077643300,4.941643310546875,0.31193076401837166,0.9372487014085054,-0.11395635091983712
1761379069087698200,4.9516982421875,0.23179398198612033,0.9251695565581322,-0.3259916572704911
1761379069097754000,4.961754150390625,-0.03928279359638691,0.8480839787900447,-0.5008540109187364
1761379069107809000,4.97180908203125,-0.44369171563014387,0.6834510504722595,-0.611942103792727
1761379069117864200,4.9818642578125,-0.7976980457685887,0.603234188941121,-0.7250017890006303
1761379069127919000,4.991919189453125,-1.0666577561318873,0.587765986174345,-0.8148857658043503
1761379069137975300,5.001975341796875,-1.2378162868261338,0.517567245310545,-0.8798603422790765
1761379069148030000,5.012030029296875,-1.2236444805454463,0.43483460156619547,-0.8628907950386404
1761379069158085000,5.022085205078125,-0.9837269594669341,0.2682633986622095,-0.7583017087951303
1761379069168141000,5.03214111328125,-0.7305892337441444,0.08638064485788345,-0.5945020164310931
1761379069178196200,5.0421962890625,-0.5398737696647644,-0.10576982046067714,-0.46974838629812
1761379069188251100,5.052251220703125,-0.48413493130803104,-0.18663550128936768,-0.3730903853148222
1761379069198307000,5.06230712890625,-0.4408516698986292,-0.0649158320248127,-0.3181090873271227
1761379069208362000,5.072362060546875,-0.4507669147133827,0.06557575723826885,-0.33833179114460943
1761379069218417200,5.082417236328125,-0.23509178142249582,0.22596681020259857,-0.42969051667600866
1761379069228472300,5.092472412109375,0.060444312633946534,0.6939940717965364,-0.33352263729721304
1761379069238528000,5.102528076171875,-0.04426058200895786,0.5080389539867639,-0.2703516031131148
1761379069248583200,5.112583251953125,0.1425322287339717,0.19175649756491184,-0.3029492198571563
1761379069258638000,5.12263818359375,0.4215086715251207,0.38240707971453664,-0.3524094163358211
1761379069268694300,5.1326943359375,0.49888482973761855,0.5007873754233122,-0.4345294811397791
1761379069278749200,5.142749267578125,0.5405342794001102,0.4734644842118024,-0.4800982231378555
1761379069288804000,5.15280419921875,0.5067293326929211,0.45167058555483813,-0.46657826836202293
1761379069298860000,5.162860107421875,0.4191935264505446,0.4254758215904236,-0.4125798073992133
1761379069308915200,5.172915283203125,0.34090734072104095,0.410756391364336,-0.38613516032695766
1761379069318970000,5.18297021484375,0.3148440941818058,0.37894729464948174,-0.4238154871627688
1761379069329025000,5.19302490234375,0.3950532107979059,0.3688894264936447,-0.45191491570472714
1761379069339081000,5.2030810546875,0.47644160032644867,0.3350011854171753,-0.4884045714512467
1761379069349136100,5.21313623046875,0.5107996508717536,0.3727361650496721,-0.43633390021324153
