time,seconds_elapsed,z,y,x
1761379064261142000,0.12514208984375,-0.03160614147782326,0.059497714042663574,-0.07233988493680954
1761379064271197200,0.135197265625,-0.00012997444719076157,0.040133602917194366,-0.06234636902809143
1761379064281253000,0.145253173828125,0.018941320478916168,0.02052624151110649,-0.04134686291217804
1761379064291308300,0.155308349609375,0.017013724893331528,0.002226861659437418,-0.013806578703224659
1761379064301363200,0.16536328125,-0.00797313079237938,-0.008855345658957958,-0.0063101425766944885
1761379064311419100,0.175419189453125,-0.03928631171584129,-0.015650134533643723,-0.0356813482940197
1761379064321474000,0.18547412109375,-0.07647668570280075,-0.028507184237241745,-0.10080607235431671
1761379064331530000,0.195530029296875,-0.08863907307386398,-0.04229490086436272,-0.16591662168502808
1761379064341585200,0.205585205078125,-0.07423394173383713,-0.05395868420600891,-0.21989575028419495
1761379064351640300,0.215640380859375,-0.04367656260728836,-0.08046672493219376,-0.24674122035503387
1761379064361696000,0.225696044921875,-0.014871381223201752,-0.10595270991325378,-0.23528318107128143
1761379064371751200,0.235751220703125,0.008720497600734234,-0.1326437145471573,-0.18584586679935455
1761379064381806000,0.24580615234375,0.002615701872855425,-0.13529811799526215,-0.12104805558919907
1761379064391862300,0.2558623046875,-0.024410322308540344,-0.1320280283689499,-0.07690376043319702
1761379064401917200,0.265917236328125,-0.04735935851931572,-0.13585081696510315,-0.06787174940109253
1761379064411972000,0.27597216796875,-0.05019029974937439,-0.13906152546405792,-0.07674486935138702
1761379064422028000,0.286028076171875,-0.04359009116888046,-0.13711245357990265,-0.10129476338624954
1761379064432083200,0.296083251953125,-0.0436585359275341,-0.11822797358036041,-0.13594594597816467
1761379064442138000,0.30613818359375,-0.02859412133693695,-0.0957869440317154,-0.16355617344379425
1761379064452194300,0.3161943359375,-0.0023409449495375156,-0.06348706036806107,-0.16415804624557495
1761379064462249000,0.3262490234375,0.008181883953511715,-0.026163233444094658,-0.12066298723220825
1761379064472305200,0.33630517578125,0.00412322673946619,0.0026364559307694435,-0.05181654542684555
1761379064482360000,0.346360107421875,0.0028979540802538395,0.002368627581745386,0.015971120446920395
1761379064492415200,0.356415283203125,0.005740878637880087,-0.01414297055453062,0.07239098846912384
1761379064502471200,0.36647119140625,0.004130862187594175,-0.03148296847939491,0.1173342764377594
1761379064512526000,0.376526123046875,-0.0071574789471924305,-0.0643668845295906,0.14969567954540253
1761379064522581000,0.3865810546875,-0.01783750392496586,-0.10290993005037308,0.16145949065685272
1761379064532637200,0.39663720703125,-0.01639726758003235,-0.14765529334545135,0.16735492646694183
1761379064542692000,0.406692138671875,-0.01579965278506279,-0.18448840081691742,0.14941667020320892
1761379064552747000,0.4167470703125,-0.018727000802755356,-0.2051611989736557,0.11395029723644257
1761379064562803000,0.426802978515625,-0.018750397488474846,-0.22409681975841522,0.07935319095849991
1761379064572858000,0.436858154296875,-0.019473178312182426,-0.22468510270118713,0.06819641590118408
1761379064582913300,0.446913330078125,-0.02154543623328209,-0.21099112927913666,0.08252062648534775
1761379064592969200,0.45696923828125,-0.025000087916851044,-0.19698476791381836,0.12175245583057404
1761379064603024100,0.467024169921875,-0.03942868858575821,-0.20089763402938843,0.17287836968898773
1761379064613079000,0.4770791015625,-0.05747612938284874,-0.2268272340297699,0.21370916068553925
1761379064623135000,0.487135009765625,-0.08060194551944733,-0.2638978958129883,0.24329644441604614
1761379064633190100,0.497190185546875,-0.11258117854595184,-0.2891499996185303,0.2748892605304718
1761379064643245300,0.507245361328125,-0.1474660187959671,-0.297836035490036,0.31697115302085876
1761379064653301000,0.517301025390625,-0.16922910511493683,-0.29329293966293335,0.3279593586921692
1761379064663356200,0.527356201171875,-0.17809893190860748,-0.27973994612693787,0.2933613955974579
1761379064673412000,0.537412109375,-0.17519555985927582,-0.2623412609100342,0.24205957353115082
1761379064683467300,0.54746728515625,-0.15518972277641296,-0.25327757000923157,0.17253240942955017
1761379064693522200,0.557522216796875,-0.129987433552742,-0.24198336899280548,0.0949942097067833
1761379064703578000,0.567578125,-0.11414230614900589,-0.2503224015235901,0.04144907742738724
1761379064713633000,0.577633056640625,-0.10246700793504715,-0.2651878893375397,0.01834269054234028
1761379064723688200,0.587688232421875,-0.09307058155536652,-0.290548712015152,0.00028895167633891106
1761379064733744000,0.597744140625,-0.08868569135665894,-0.27672290802001953,-0.006866695825010538
1761379064743799300,0.60779931640625,-0.08299798518419266,-0.2613447308540344,-0.0010264799930155277
1761379064753854000,0.61785400390625,-0.06918790191411972,-0.2502356171607971,0.022584306076169014
1761379064763910100,0.62791015625,-0.05409034714102745,-0.2120457887649536,0.05001408979296684
1761379064773965000,0.637965087890625,-0.06377999484539032,-0.15299098193645477,0.06632355600595474
1761379064784020200,0.648020263671875,-0.09432718902826309,-0.07761918008327484,0.08658108115196228
1761379064794076200,0.658076171875,-0.13454598188400269,-0.020956967025995255,0.12474817782640457
1761379064804131000,0.668131103515625,-0.18035788834095,-0.019212298095226288,0.1865079700946808
1761379064814186000,0.67818603515625,-0.2175249606370926,-0.057828933000564575,0.2653295397758484
1761379064824242200,0.6882421875,-0.23946316540241241,-0.11683141440153122,0.3446064889431
1761379064834297000,0.698297119140625,-0.2477937936782837,-0.17748785018920898,0.4191124141216278
1761379064844352000,0.70835205078125,-0.25762858986854553,-0.24401333928108215,0.49988439679145813
1761379064854408000,0.718407958984375,-0.24750752747058868,-0.28676506876945496,0.5863865613937378
1761379064864463000,0.728463134765625,-0.22718636691570282,-0.30619296431541443,0.6340983510017395
1761379064874518300,0.738518310546875,-0.20070309937000275,-0.31176188588142395,0.6359050869941711
1761379064884574200,0.74857421875,-0.17439554631710052,-0.29800283908843994,0.6005351543426514
1761379064894629000,0.758629150390625,-0.13417568802833557,-0.26395753026008606,0.5417075753211975
1761379064904685000,0.76868505859375,-0.0919543132185936,-0.2163751870393753,0.4747767448425293
1761379064914740000,0.778739990234375,-0.058419253677129745,-0.17700807750225067,0.41221269965171814
1761379064924795100,0.788795166015625,-0.036031242460012436,-0.12593622505664825,0.3505922853946686
1761379064934851000,0.79885107421875,-0.02371891401708126,-0.081955187022686,0.28627559542655945
1761379064944906200,0.80890625,-0.01342899352312088,-0.05817049741744995,0.2414143979549408
1761379064954961200,0.818961181640625,-0.00730585353448987,-0.06572854518890381,0.23244087398052216
1761379064965017000,0.82901708984375,-0.005461348686367273,-0.08309368789196014,0.26078274846076965
1761379064975075800,0.839075927734375,-0.005313543137162924,-0.10931943356990814,0.2839200496673584
1761379064985130800,0.849130859375,-0.008276320993900299,-0.12894906103610992,0.2852001190185547
1761379064995186700,0.859186767578125,-0.01857423409819603,-0.14841915667057037,0.2476961463689804
1761379065005241600,0.86924169921875,-0.04099526256322861,-0.16123689711093903,0.15821221470832825
1761379065015296800,0.879296875,-0.06323345750570297,-0.17583952844142914,0.044674478471279144
1761379065025352700,0.889352783203125,-0.06765016913414001,-0.1952231526374817,-0.06360208243131638
1761379065035408000,0.899407958984375,-0.0437949001789093,-0.2472357600927353,-0.12399298697710037
1761379065045462800,0.909462890625,-0.037368956953287125,-0.23410743474960327,-0.14154401421546936
1761379065055518700,0.919518798828125,-0.05997120961546898,-0.2596932351589203,-0.12206432968378067
1761379065065573600,0.92957373046875,-0.06655379384756088,-0.2850034832954407,-0.0633837953209877
1761379065075628800,0.93962890625,-0.10252058506011963,-0.3074951767921448,0.035698052495718
1761379065085684700,0.949684814453125,-0.13693001866340637,-0.36966437101364136,0.12176775932312012
1761379065095740000,0.959739990234375,-0.16708073019981384,-0.4019504189491272,0.1700090616941452
1761379065105794600,0.969794677734375,-0.19309848546981812,-0.4047834873199463,0.15118637681007385
1761379065115850800,0.979850830078125,-0.19977609813213348,-0.35980695486068726,0.07908954471349716
1761379065125905700,0.98990576171875,-0.1930299550294876,-0.3003136217594147,-0.029317811131477356
1761379065135960800,0.9999609375,-0.17608025670051575,-0.2634615898132324,-0.17181237041950226
1761379065146016800,1.010016845703125,-0.13116766512393951,-0.2376534640789032,-0.3196779787540436
1761379065156071700,1.02007177734375,-0.07683279365301132,-0.2017868161201477,-0.4397023916244507
1761379065166126800,1.030126953125,-0.04215504229068756,-0.16326667368412018,-0.5130288600921631
1761379065176182800,1.040182861328125,-0.03113195300102234,-0.10430747270584106,-0.5342198610305786
1761379065186237700,1.05023779296875,-0.03853810951113701,-0.07424958795309067,-0.48605501651763916
1761379065196292600,1.060292724609375,-0.037730902433395386,-0.06793070584535599,-0.38901156187057495
1761379065206348500,1.0703486328125,0.013815272599458694,-0.05969344824552536,-0.27016013860702515
1761379065216403700,1.08040380859375,0.05085158720612526,-0.012413816526532173,-0.16037720441818237
1761379065226459000,1.090458984375,0.06802282482385635,-0.015886573120951653,-0.08299286663532257
1761379065236514800,1.100514892578125,0.0961865559220314,-0.02705959975719452,-0.03895989805459976
1761379065246569700,1.11056982421875,0.11424427479505539,-0.025226127356290817,-0.03200677037239075
1761379065256625700,1.120625732421875,0.10035988688468933,-0.04228261113166809,-0.038020454347133636
1761379065266680800,1.130680908203125,0.10928061604499817,-0.013137808069586754,-0.049463387578725815
1761379065276735700,1.14073583984375,0.15457218885421753,0.012286058627068996,-0.0740174651145935
1761379065286791700,1.150791748046875,0.19711081683635712,0.08718076348304749,-0.13374795019626617
1761379065296846600,1.1608466796875,0.23595274984836578,0.1583164632320404,-0.2013980895280838
1761379065306901800,1.17090185546875,0.2889852821826935,0.2336292564868927,-0.19269320368766785
1761379065316957700,1.180957763671875,0.2935110628604889,0.2638401389122009,-0.10880123823881149
1761379065327012900,1.191012939453125,0.2646447718143463,0.2867864668369293,0.053026020526885986
1761379065337067800,1.20106787109375,0.2289876937866211,0.2648220360279083,0.22510378062725067
1761379065347124000,1.2111240234375,0.1948470175266266,0.2139870822429657,0.32525306940078735
1761379065357178600,1.2211787109375,0.1613875925540924,0.1473981887102127,0.3024683892726898
1761379065367233800,1.23123388671875,0.14592157304286957,0.14252033829689026,0.19259482622146606
1761379065377289700,1.241289794921875,0.1130581647157669,0.1877911537885666,0.053266771137714386
1761379065387345000,1.251344970703125,0.07634397596120834,0.14231117069721222,-0.02012350782752037
1761379065397399600,1.261399658203125,0.07474448531866074,0.18815723061561584,-0.030919162556529045
1761379065407455700,1.271455810546875,0.042821887880563736,0.20544639229774475,0.039347417652606964
1761379065417510700,1.2815107421875,0.0392034538090229,0.19457057118415833,0.12498483061790466
1761379065427565800,1.29156591796875,0.06448666006326675,0.1529301404953003,0.14653733372688293
1761379065437621800,1.301621826171875,0.12389113754034042,0.12700986862182617,0.14917652308940887
1761379065447676700,1.3116767578125,0.19920317828655243,0.09511473774909973,0.11407553404569626
1761379065457731800,1.32173193359375,0.21497787535190582,0.028896840289235115,0.007634572684764862
1761379065467787800,1.331787841796875,0.23840302228927612,-0.0022403046023100615,-0.1201973631978035
1761379065477842700,1.3418427734375,0.21168431639671326,-0.010619408451020718,-0.25283876061439514
1761379065487897600,1.351897705078125,0.17173923552036285,0.010323569178581238,-0.32487785816192627
1761379065497953500,1.36195361328125,0.1534411758184433,0.0015468564815819263,-0.3029451370239258
1761379065508008700,1.3720087890625,0.15755519270896912,0.024653512984514236,-0.20156539976596832
1761379065518063900,1.38206396484375,0.17934970557689667,0.11157882213592529,-0.02910735085606575
1761379065528119800,1.392119873046875,0.175856813788414,0.14670491218566895,0.12599770724773407
1761379065538174700,1.4021748046875,0.16341213881969452,0.1503843367099762,0.23401419818401337
1761379065548229600,1.412229736328125,0.08925887197256088,0.21732643246650696,0.3783739507198334
1761379065558285800,1.422285888671875,0.08817709237337112,0.1749107986688614,0.3734572231769562
1761379065568340700,1.4323408203125,0.10908582806587219,0.2043246179819107,0.30958092212677
1761379065578396000,1.44239599609375,0.07569937407970428,0.25029638409614563,0.18594954907894135
1761379065588451800,1.452451904296875,0.02264963462948799,0.31312695145606995,0.062049008905887604
1761379065598506800,1.4625068359375,-0.01499974075704813,0.3726102411746979,-0.041579119861125946
1761379065608561700,1.472561767578125,-0.03175583481788635,0.39007413387298584,-0.12462728470563889
1761379065618617900,1.482617919921875,-0.002377705182880163,0.37958183884620667,-0.17118120193481445
1761379065628672800,1.4926728515625,0.07450633496046066,0.3322645127773285,-0.1840583086013794
1761379065638727700,1.502727783203125,0.14236395061016083,0.2674309313297272,-0.17873091995716095
1761379065648783600,1.51278369140625,0.16920654475688934,0.19302842020988464,-0.17962981760501862
1761379065658838800,1.5228388671875,0.14199569821357727,0.1218213364481926,-0.16235922276973724
1761379065668893700,1.532893798828125,0.08248970657587051,0.08227464556694031,-0.13080723583698273
1761379065678950000,1.542949951171875,0.03925301879644394,0.03656068816781044,-0.10173563659191132
1761379065689004500,1.553004638671875,-0.06664997339248657,0.008845483884215355,-0.08380584418773651
1761379065699059700,1.563059814453125,-0.12638361752033234,-0.009722341783344746,-0.07030761241912842
1761379065709115600,1.57311572265625,-0.1476764678955078,-0.020841915160417557,-0.06481966376304626
1761379065719170800,1.5831708984375,-0.13234438002109528,-0.030159782618284225,-0.09283877909183502
1761379065729225700,1.593225830078125,-0.10729552060365677,-0.02492617629468441,-0.12631145119667053
1761379065739281700,1.60328173828125,-0.06914707273244858,-0.022362085059285164,-0.1475333869457245
1761379065749336800,1.6133369140625,-0.04099476709961891,-0.0004309569485485554,-0.14501425623893738
1761379065759391700,1.623391845703125,-0.047388751059770584,0.038030412048101425,-0.10151658207178116
1761379065769447700,1.63344775390625,-0.07905606925487518,0.07786180078983307,-0.024902042001485825
1761379065779502600,1.643502685546875,-0.10350628942251205,0.12173711508512497,0.04985129088163376
1761379065789557800,1.653557861328125,-0.12980806827545166,0.1424553245306015,0.08674097806215286
1761379065799612700,1.66361279296875,-0.17202183604240417,0.14014023542404175,0.10357881337404251
1761379065809668900,1.6736689453125,-0.1965421736240387,0.10800778865814209,0.09948018193244934
1761379065819723800,1.683723876953125,-0.206998810172081,0.07284501194953918,0.08563467860221863
1761379065829779700,1.69377978515625,-0.20757842063903809,0.028087276965379715,0.0699235051870346
1761379065839834600,1.703834716796875,-0.16619795560836792,-0.008293632417917252,0.07710285484790802
1761379065849889800,1.713889892578125,-0.1159394159913063,-0.057520948350429535,0.1262483447790146
1761379065859945700,1.72394580078125,-0.07266571372747421,-0.11013408750295639,0.21639901399612427
1761379065870001000,1.7340009765625,-0.051549702882766724,-0.16348883509635925,0.3225949704647064
1761379065880055600,1.7440556640625,-0.06316640973091125,-0.20237737894058228,0.4157174527645111
1761379065890110700,1.75411083984375,-0.10128768533468246,-0.23781608045101166,0.46429958939552307
1761379065900166700,1.764166748046875,-0.14948636293411255,-0.2778036892414093,0.43743282556533813
1761379065910221800,1.774221923828125,-0.17229454219341278,-0.3375139534473419,0.35351115465164185
1761379065920276700,1.78427685546875,-0.1488398164510727,-0.37434840202331543,0.2304275631904602
1761379065930332700,1.794332763671875,-0.11698013544082642,-0.38038766384124756,0.12314686179161072
1761379065940387800,1.804387939453125,-0.08094916492700577,-0.4031273126602173,0.06808120757341385
1761379065950442800,1.81444287109375,-0.04767805337905884,-0.3404911160469055,0.08504390716552734
1761379065960498700,1.824498779296875,-0.06842008233070374,-0.2752218246459961,0.1760832667350769
1761379065970553600,1.8345537109375,-0.09586553275585175,-0.26533934473991394,0.2993340492248535
1761379065980604700,1.844604736328125,-0.12610653042793274,-0.3390228748321533,0.4181259274482727
1761379065990660600,1.85466064453125,-0.1811138242483139,-0.35739973187446594,0.4889891743659973
1761379066000715800,1.8647158203125,-0.2565300166606903,-0.3756610155105591,0.4869454801082611
1761379066010770700,1.874770751953125,-0.29675787687301636,-0.4232378602027893,0.403094083070755
1761379066020827000,1.884826904296875,-0.27361100912094116,-0.5010961890220642,0.27010539174079895
1761379066030881500,1.894881591796875,-0.2133505940437317,-0.5812448263168335,0.13894318044185638
1761379066040936700,1.904936767578125,-0.16730241477489471,-0.6234838962554932,0.058253396302461624
1761379066050992600,1.91499267578125,-0.18030506372451782,-0.6369081139564514,0.04746244102716446
1761379066061047800,1.9250478515625,-0.20776624977588654,-0.6393020153045654,0.07636067271232605
1761379066071103000,1.93510302734375,-0.24992752075195312,-0.6110117435455322,0.11129120737314224
1761379066081158700,1.94515869140625,-0.2762318253517151,-0.5618168115615845,0.13602611422538757
1761379066091213800,1.9552138671875,-0.2611887454986572,-0.492437481880188,0.14192849397659302
1761379066101268700,1.965268798828125,-0.1952698975801468,-0.4123043119907379,0.14158548414707184
1761379066111324700,1.97532470703125,-0.11234085261821747,-0.335773766040802,0.12787246704101562
1761379066121379800,1.9853798828125,-0.04680817946791649,-0.28732791543006897,0.11732473969459534
1761379066131434800,1.995434814453125,-0.008468147367238998,-0.24909362196922302,0.09097197651863098
1761379066141490700,2.00549072265625,0.0015703723765909672,-0.2386268675327301,0.04738881438970566
1761379066151545900,2.0155458984375,-0.020087245851755142,-0.2384449541568756,0.0017982618883252144
1761379066161600800,2.025600830078125,-0.067949578166008,-0.22206012904644012,-0.03327823430299759
1761379066171657000,2.035656982421875,-0.13718479871749878,-0.2198491394519806,-0.04964103177189827
1761379066181711600,2.045711669921875,-0.1896144449710846,-0.20645876228809357,-0.021204594522714615
1761379066191766800,2.055766845703125,-0.1754264235496521,-0.18507008254528046,0.04486389458179474
1761379066201822700,2.06582275390625,-0.23202206194400787,-0.20730161666870117,0.1427137553691864
1761379066211878000,2.0758779296875,-0.19589859247207642,-0.19685502350330353,0.21693778038024902
1761379066221932500,2.0859326171875,-0.11026252806186676,-0.1702316701412201,0.24093899130821228
1761379066231988700,2.09598876953125,-0.04892542213201523,-0.10790388286113739,0.18470048904418945
1761379066242043600,2.106043701171875,0.008398317731916904,-0.05206857994198799,0.08416137099266052
1761379066252098800,2.116098876953125,0.08483804017305374,0.006999106612056494,-0.017325611785054207
1761379066262153700,2.12615380859375,0.13038289546966553,0.0429573729634285,-0.1105349212884903
1761379066272209700,2.136209716796875,0.14596465229988098,0.03065129555761814,-0.18767204880714417
1761379066282264800,2.146264892578125,0.1442975252866745,-0.003648090176284313,-0.2655165195465088
1761379066292319700,2.15631982421875,0.11978562921285629,-0.0573575422167778,-0.32728326320648193
1761379066302375700,2.166375732421875,0.08903729915618896,-0.0992400124669075,-0.35401925444602966
1761379066312430800,2.176430908203125,0.07780753076076508,-0.1090836226940155,-0.3488830626010895
1761379066322485800,2.18648583984375,0.07963765412569046,-0.08936131745576859,-0.35007935762405396
1761379066332541700,2.196541748046875,0.09873591363430023,-0.0640123263001442,-0.3459967076778412
1761379066342596900,2.206596923828125,0.1460842490196228,-0.03986065462231636,-0.3444696366786957
1761379066352651800,2.21665185546875,0.19371040165424347,-0.011644955724477768,-0.3574451804161072
1761379066362708000,2.2267080078125,0.23001594841480255,0.014545902609825134,-0.3917219340801239
1761379066372762600,2.2367626953125,0.25490713119506836,0.02555164508521557,-0.4254847764968872
1761379066382817800,2.24681787109375,0.25811171531677246,0.03565434738993645,-0.3980156183242798
1761379066392873700,2.256873779296875,0.22193782031536102,0.05972593277692795,-0.30714693665504456
1761379066402929000,2.266928955078125,0.1617000550031662,0.07585270702838898,-0.18761147558689117
1761379066412983600,2.276983642578125,0.1082264706492424,0.0802280530333519,-0.06129498779773712
1761379066423039700,2.287039794921875,0.07650396227836609,0.09391803294420242,0.040670525282621384
1761379066433094700,2.2970947265625,0.06840796768665314,0.11001873761415482,0.09789853543043137
1761379066443149800,2.30714990234375,0.07041040062904358,0.10985548049211502,0.09526680409908295
1761379066453205800,2.317205810546875,0.08847300708293915,0.11641988158226013,0.05002434551715851
1761379066463260700,2.3272607421875,0.10909918695688248,0.13141827285289764,-0.007005117833614349
1761379066473315800,2.33731591796875,0.12437862157821655,0.15872347354888916,-0.06351780146360397
1761379066483370800,2.347370849609375,0.13054144382476807,0.17821380496025085,-0.10177277773618698
1761379066493426700,2.3574267578125,0.12158835679292679,0.19593387842178345,-0.10048756003379822
1761379066503481600,2.367481689453125,0.11511154472827911,0.1917756199836731,-0.06905613839626312
1761379066513536800,2.377536865234375,0.09957824647426605,0.18471649289131165,-0.033603645861148834
1761379066523592700,2.3875927734375,0.07519140839576721,0.18181391060352325,-0.007176034618169069
1761379066533648000,2.39764794921875,0.05973697453737259,0.16739889979362488,0.004722748417407274
1761379066543702800,2.407702880859375,0.05659950524568558,0.1638087034225464,0.007280182559043169
1761379066553759000,2.417759033203125,0.045439667999744415,0.14761283993721008,0.007251095958054066
1761379066563813600,2.427813720703125,0.04121056944131851,0.14323273301124573,-0.009016557596623898
1761379066573868800,2.437868896484375,0.04954206943511963,0.15270113945007324,-0.048528362065553665
1761379066583924700,2.4479248046875,0.06244215369224548,0.163945272564888,-0.07939200103282928
1761379066593980000,2.45797998046875,0.08907627314329147,0.17232130467891693,-0.10116524994373322
1761379066604034600,2.46803466796875,0.1130220890045166,0.1884150505065918,-0.10211387276649475
1761379066614090800,2.4780908203125,0.1060236245393753,0.2255725860595703,-0.06662977486848831
1761379066624145700,2.488145751953125,0.09051337838172913,0.2574812173843384,0.017458736896514893
1761379066634200800,2.498200927734375,0.07334323227405548,0.2771969139575958,0.1295490860939026
1761379066644255700,2.508255859375,0.059512898325920105,0.2741478681564331,0.2315441519021988
1761379066654311700,2.518311767578125,0.05234771594405174,0.2505462169647217,0.2806432247161865
1761379066664366800,2.528366943359375,0.07668394595384598,0.22571943700313568,0.2525293231010437
1761379066674421800,2.538421875,0.11384806782007217,0.20879553258419037,0.15175531804561615
1761379066684477700,2.548477783203125,0.1519150286912918,0.2053009420633316,0.0040742456912994385
1761379066694532600,2.55853271484375,0.18399696052074432,0.22518934309482574,-0.1319306492805481
1761379066704587800,2.568587890625,0.20054824650287628,0.2618730366230011,-0.1984121948480606
1761379066714643700,2.578643798828125,0.20257095992565155,0.27855727076530457,-0.1692490428686142
1761379066724699000,2.588698974609375,0.20008888840675354,0.2817719876766205,-0.08713607490062714
1761379066734753800,2.59875390625,0.18229562044143677,0.27939146757125854,0.009229406714439392
1761379066744809700,2.608809814453125,0.1530407965183258,0.27219057083129883,0.08177817612886429
1761379066754864600,2.61886474609375,0.13098372519016266,0.26021063327789307,0.106629878282547
1761379066764919800,2.628919921875,0.11371152848005295,0.22794164717197418,0.07748876512050629
1761379066774975700,2.638975830078125,0.10828790068626404,0.1941917985677719,-0.0010262303985655308
1761379066785031000,2.649031005859375,0.11564621329307556,0.16704300045967102,-0.08789961040019989
1761379066795085600,2.65908544921875,0.12483219802379608,0.14264892041683197,-0.16651439666748047
1761379066805140700,2.669140625,0.14135897159576416,0.13209907710552216,-0.21267470717430115
1761379066815196700,2.67919677734375,0.15534934401512146,0.15448108315467834,-0.22589591145515442
1761379066825251800,2.689251953125,0.17627832293510437,0.18429170548915863,-0.19749301671981812
1761379066835306800,2.699306640625,0.2108733206987381,0.22496217489242554,-0.14667874574661255
1761379066845362700,2.70936279296875,0.23910149931907654,0.23876029253005981,-0.0854196548461914
1761379066855417900,2.71941796875,0.25068172812461853,0.21616947650909424,-0.02593832090497017
1761379066865472800,2.72947265625,0.24063681066036224,0.1811390519142151,0.028770197182893753
1761379066875528700,2.73952880859375,0.20444457232952118,0.13441213965415955,0.06494003534317017
1761379066885583600,2.74958349609375,0.15716519951820374,0.09534384310245514,0.0796007364988327
1761379066895638800,2.759638671875,0.10286227613687515,0.08066663146018982,0.08432038873434067
1761379066905694700,2.76969482421875,0.04533480480313301,0.09109290689229965,0.0946691632270813
1761379066915750000,2.77975,0.00795317068696022,0.10975401848554611,0.10923486948013306
1761379066925804800,2.7898046875,0.01379188522696495,0.1150670275092125,0.11951228231191635
1761379066935859700,2.799859619140625,0.057816967368125916,0.13021227717399597,0.10030556470155716
1761379066945915600,2.80991552734375,0.10117216408252716,0.14572465419769287,0.04854410141706467
1761379066955970800,2.819970703125,0.13361549377441406,0.1462923288345337,-0.013968287967145443
1761379066966025700,2.830025634765625,0.1235777735710144,0.1556040644645691,-0.051007263362407684
1761379066976085200,2.840085205078125,0.08093509078025818,0.1332581639289856,-0.059686195105314255
1761379066986140200,2.85014013671875,0.026396481320261955,0.09340181201696396,-0.04599675163626671
1761379066996195000,2.860195068359375,-0.05332629382610321,0.0422411747276783,-0.04082776606082916
1761379067006251000,2.8702509765625,-0.10814293473958969,0.005676239263266325,-0.040659718215465546
1761379067016306200,2.88030615234375,-0.12532249093055725,0.00023083481937646866,-0.058716148138046265
1761379067026361300,2.890361328125,-0.11543764173984528,-0.0019127435516566038,-0.09841376543045044
1761379067036417300,2.900417236328125,-0.08593563735485077,-0.006805197335779667,-0.14388863742351532
1761379067046472200,2.91047216796875,-0.051545437425374985,-0.012718213722109795,-0.17421086132526398
1761379067056527000,2.920527099609375,-0.02552403323352337,-0.02311021089553833,-0.1865977644920349
1761379067066582300,2.930582275390625,-0.009212706238031387,-0.046128176152706146,-0.15985271334648132
1761379067076638200,2.94063818359375,-0.0038240808062255383,-0.06961327791213989,-0.0875530019402504
1761379067086693000,2.950693115234375,-0.016280217096209526,-0.09258197247982025,0.003425371367484331
1761379067096748000,2.960748046875,-0.030106227844953537,-0.0988030657172203,0.07524415850639343
1761379067106804200,2.97080419921875,-0.04755339398980141,-0.09350790083408356,0.12753398716449738
1761379067116859100,2.980859130859375,-0.06972802430391312,-0.08551344275474548,0.15880869328975677
1761379067126914300,2.990914306640625,-0.09215876460075378,-0.07478995621204376,0.17186030745506287
1761379067136970000,3.000969970703125,-0.10386411845684052,-0.06734718382358551,0.15565267205238342
1761379067147025200,3.011025146484375,-0.11227332055568695,-0.07904458045959473,0.118213951587677
1761379067157080000,3.021080078125,-0.12098588049411774,-0.10505944490432739,0.060639627277851105
1761379067167136300,3.03113623046875,-0.12377820909023285,-0.14080944657325745,-0.012674537487328053
1761379067177191200,3.041191162109375,-0.11788855493068695,-0.16875632107257843,-0.076322041451931
1761379067187246000,3.05124609375,-0.11419607698917389,-0.19839172065258026,-0.13074399530887604
1761379067197301200,3.06130126953125,-0.12439731508493423,-0.22170449793338776,-0.13138209283351898
1761379067207357200,3.071357177734375,-0.13967080414295197,-0.2209063470363617,-0.07474412024021149
1761379067217412400,3.081412353515625,-0.14386360347270966,-0.23281750082969666,0.023196794092655182
1761379067227467000,3.091467041015625,-0.13966485857963562,-0.2572903633117676,0.11748041957616806
1761379067237523200,3.101523193359375,-0.13239148259162903,-0.27688002586364746,0.17303547263145447
1761379067247578000,3.111578125,-0.12912245094776154,-0.2804550528526306,0.18734385073184967
1761379067257633300,3.12163330078125,-0.12355078011751175,-0.28011488914489746,0.16394197940826416
1761379067267689200,3.131689208984375,-0.11941222101449966,-0.26707980036735535,0.12443239241838455
1761379067277744000,3.141744140625,-0.12006328999996185,-0.25209516286849976,0.10039377212524414
1761379067287799000,3.151799072265625,-0.123451367020607,-0.24641862511634827,0.10448598861694336
1761379067297855200,3.161855224609375,-0.11074813455343246,-0.2420995533466339,0.13257867097854614
1761379067307910100,3.17191015625,-0.08848623186349869,-0.23411354422569275,0.14733871817588806
1761379067317965300,3.18196533203125,-0.07034499943256378,-0.22960849106311798,0.12489549070596695
1761379067328020000,3.19202001953125,-0.05443767458200455,-0.22447417676448822,0.07825368642807007
1761379067338076200,3.202076171875,-0.04750164970755577,-0.22565093636512756,0.03046855702996254
1761379067348131000,3.212131103515625,-0.06603032350540161,-0.22329218685626984,0.0059517621994018555
1761379067358186200,3.222186279296875,-0.09459903091192245,-0.2367650419473648,0.017411738634109497
1761379067368242200,3.2322421875,-0.11779490113258362,-0.24536865949630737,0.05098860710859299
1761379067378297000,3.242297119140625,-0.14621688425540924,-0.25955042243003845,0.08850431442260742
1761379067388352300,3.252352294921875,-0.18644259870052338,-0.27713021636009216,0.12135253846645355
1761379067398408200,3.262408203125,-0.2087356448173523,-0.29959237575531006,0.14497505128383636
1761379067408463400,3.27246337890625,-0.20849809050559998,-0.32714545726776123,0.13753977417945862
1761379067418518000,3.28251806640625,-0.1887558400630951,-0.37009692192077637,0.09978365153074265
1761379067428574200,3.29257421875,-0.14816713333129883,-0.4209483861923218,0.04026280343532562
1761379067438629000,3.302629150390625,-0.10378273576498032,-0.456915020942688,-0.030471399426460266
1761379067448684300,3.312684326171875,-0.0704687163233757,-0.44770342111587524,-0.0847380980849266
1761379067458740200,3.322740234375,-0.05238782614469528,-0.42671409249305725,-0.1345963180065155
1761379067468795100,3.332795166015625,-0.046079594641923904,-0.37121835350990295,-0.172776460647583
1761379067478850000,3.34285009765625,-0.06088788062334061,-0.31136488914489746,-0.18060262501239777
1761379067488906200,3.35290625,-0.09818331897258759,-0.2627108097076416,-0.14778155088424683
1761379067498961200,3.362961181640625,-0.15097448229789734,-0.22395288944244385,-0.10640930384397507
1761379067509016300,3.373016357421875,-0.199079692363739,-0.18421879410743713,-0.08630882948637009
1761379067519071000,3.383071044921875,-0.23558978736400604,-0.14799636602401733,-0.08721136301755905
1761379067529127200,3.393127197265625,-0.2450040578842163,-0.1291600912809372,-0.09214060753583908
1761379067539182000,3.40318212890625,-0.22815068066120148,-0.15071724355220795,-0.07912248373031616
1761379067549237200,3.4132373046875,-0.1828111708164215,-0.20571525394916534,-0.05366665497422218
1761379067559293200,3.423293212890625,-0.13315533101558685,-0.27081847190856934,-0.0332532562315464
1761379067569348000,3.43334814453125,-0.08944593369960785,-0.3088018000125885,-0.005130276083946228
1761379067579403300,3.4434033203125,-0.08508036285638809,-0.2988654375076294,0.03614441677927971
1761379067589459200,3.453459228515625,-0.1104309931397438,-0.24070864915847778,0.11180055886507034
1761379067599514400,3.463514404296875,-0.1120830848813057,-0.18453633785247803,0.204122394323349
1761379067609569000,3.473569091796875,-0.14442159235477448,-0.13051757216453552,0.2895488739013672
1761379067619625200,3.483625244140625,-0.1301184892654419,-0.09664049744606018,0.3180815279483795
1761379067629680000,3.49368017578125,-0.08838889002799988,-0.08082345128059387,0.2816164791584015
1761379067639735300,3.5037353515625,-0.0322071798145771,-0.07425671070814133,0.17485511302947998
1761379067649791200,3.513791259765625,0.03423815220594406,-0.0706995278596878,0.04470935836434364
1761379067659846100,3.52384619140625,0.07859475165605545,-0.05936480313539505,-0.07435601204633713
1761379067669901000,3.533901123046875,0.0873219296336174,-0.053802527487277985,-0.14938710629940033
1761379067679957200,3.543957275390625,0.08124201744794846,-0.03619629517197609,-0.18683210015296936
1761379067690012200,3.55401220703125,0.05593053251504898,-0.021916955709457397,-0.17574909329414368
1761379067700067000,3.564067138671875,0.03688404709100723,-0.02254154533147812,-0.11125660687685013
1761379067710123000,3.574123046875,0.04194085672497749,-0.042796749621629715,-0.03303717076778412
1761379067720178200,3.58417822265625,0.06638191640377045,-0.09260009974241257,0.014827810227870941
1761379067730233000,3.594233154296875,0.09751613438129425,-0.14658184349536896,0.03297512233257294
1761379067740289300,3.604289306640625,0.13404244184494019,-0.20968464016914368,0.040098872035741806
1761379067750344200,3.61434423828125,0.14671535789966583,-0.28088000416755676,0.04184670373797417
1761379067760399000,3.624399169921875,0.12311133742332458,-0.31961292028427124,0.030865807086229324
1761379067770455000,3.634455078125,0.06876686960458755,-0.32975316047668457,0.0065261139534413815
1761379067780510200,3.64451025390625,0.01031181588768959,-0.3152594268321991,-0.020583800971508026
1761379067790565400,3.6545654296875,-0.03413420915603638,-0.2973094582557678,-0.053551338613033295
1761379067800621300,3.664621337890625,-0.049735177308321,-0.28147077560424805,-0.07919484376907349
1761379067810676200,3.67467626953125,-0.029732970520853996,-0.24260352551937103,-0.08666741847991943
1761379067820731100,3.684731201171875,-0.006288482807576656,-0.19444888830184937,-0.053869470953941345
1761379067830786300,3.694786376953125,0.019267477095127106,-0.14160005748271942,0.004177586641162634
1761379067840842200,3.70484228515625,0.04035123065114021,-0.10503961145877838,0.04824377968907356
1761379067850897200,3.714897216796875,0.04266178980469704,-0.08170393109321594,0.05879228934645653
1761379067860952000,3.7249521484375,0.042221710085868835,-0.07885047048330307,0.03449408710002899
1761379067871008300,3.73500830078125,0.051851168274879456,-0.08651185035705566,-0.01769028790295124
1761379067881063200,3.745063232421875,0.05703852325677872,-0.09284001588821411,-0.07567872852087021
1761379067891118000,3.7551181640625,0.06542721390724182,-0.08237912505865097,-0.12279989570379257
1761379067901174000,3.765174072265625,0.08065328747034073,-0.05793769657611847,-0.13575024902820587
1761379067911229200,3.775229248046875,0.09076344966888428,-0.004234517924487591,-0.10840092599391937
1761379067921284000,3.7852841796875,0.0945764034986496,0.05751364678144455,-0.05425581336021423
1761379067931340300,3.79534033203125,0.07654094696044922,0.130748450756073,0.007626995909959078
1761379067941395000,3.80539501953125,0.05677167698740959,0.18083228170871735,0.06903798133134842
1761379067951450000,3.8154501953125,0.05123576149344444,0.20690862834453583,0.10545750707387924
1761379067961506000,3.825506103515625,0.06249462068080902,0.2020636349916458,0.09226470440626144
1761379067971561200,3.835561279296875,0.08590460568666458,0.17051929235458374,0.03929176926612854
1761379067981613600,3.845613525390625,0.11667126417160034,0.14507804811000824,-0.029247747734189034
1761379067991669500,3.85566943359375,0.12047798931598663,0.1308024376630783,-0.07845497131347656
1761379068001724400,3.865724365234375,0.10947462171316147,0.13687048852443695,-0.09213218092918396
1761379068011779600,3.875779541015625,0.09596627205610275,0.17112618684768677,-0.07178536802530289
1761379068021835500,3.88583544921875,0.06715405732393265,0.2153509110212326,-0.03222660720348358
1761379068031890700,3.895890625,0.044509731233119965,0.24057210981845856,0.02157164178788662
1761379068041945300,3.9059453125,0.04995402693748474,0.26694801449775696,0.07857735455036163
1761379068052001500,3.91600146484375,0.08749793469905853,0.2914331257343292,0.14019782841205597
1761379068062056400,3.926056396484375,0.15165157616138458,0.2955862581729889,0.173705592751503
1761379068072111600,3.936111572265625,0.21596185863018036,0.2988121509552002,0.15881586074829102
1761379068082167600,3.94616748046875,0.26236897706985474,0.333164244890213,0.0893377885222435
1761379068092222500,3.956222412109375,0.2785402238368988,0.37476813793182373,-0.01769864745438099
1761379068102277600,3.966277587890625,0.2727987468242645,0.40719857811927795,-0.1253577470779419
1761379068112333600,3.97633349609375,0.2453088015317917,0.41829994320869446,-0.19725802540779114
1761379068122388500,3.986388427734375,0.23147901892662048,0.40544942021369934,-0.20208437740802765
1761379068132443400,3.996443359375,0.23579999804496765,0.3893905580043793,-0.14966058731079102
1761379068142498600,4.00649853515625,0.24422170221805573,0.3673291802406311,-0.07211652398109436
1761379068152554500,4.016554443359375,0.23041881620883942,0.343456894159317,0.018962252885103226
1761379068162609700,4.026609619140625,0.22201144695281982,0.32780835032463074,0.0985504612326622
1761379068172662500,4.03666259765625,0.19264289736747742,0.3253023326396942,0.13648080825805664
1761379068182717400,4.046717529296875,0.16391132771968842,0.3130733072757721,0.11501573771238327
1761379068192772600,4.056772705078125,0.1399514079093933,0.2873309254646301,0.06349954754114151
1761379068202828500,4.06682861328125,0.1443886011838913,0.2623668313026428,0.004018179140985012
1761379068212883500,4.076883544921875,0.16774852573871613,0.2532747983932495,-0.03596625477075577
1761379068222938600,4.086938720703125,0.20014381408691406,0.26457491517066956,-0.05095401406288147
1761379068232994600,4.09699462890625,0.2338133603334427,0.287626177072525,-0.04091363027691841
1761379068243049700,4.1070498046875,0.25279727578163147,0.3109297454357147,-0.008548488840460777
1761379068253104400,4.1171044921875,0.24880573153495789,0.31054383516311646,0.06287483125925064
1761379068263160600,4.12716064453125,0.2283788025379181,0.296548992395401,0.14567312598228455
1761379068273215500,4.137215576171875,0.18931902945041656,0.27403998374938965,0.21045291423797607
1761379068283270700,4.147270751953125,0.1364099532365799,0.24780404567718506,0.24546168744564056
1761379068293325300,4.1573251953125,0.09123048931360245,0.21284924447536469,0.23087607324123383
1761379068303381500,4.167381591796875,0.07605434954166412,0.1995818018913269,0.15491610765457153
1761379068313436400,4.1774365234375,0.08300333470106125,0.19704967737197876,0.06526798754930496
1761379068323491600,4.18749169921875,0.09831105172634125,0.19237278401851654,-0.013685474172234535
1761379068333547500,4.197547607421875,0.11167426407337189,0.19346147775650024,-0.0756756067276001
1761379068343602400,4.2076025390625,0.10345705598592758,0.18834815919399261,-0.11256969720125198
1761379068353657600,4.21765771484375,0.096290223300457,0.16310539841651917,-0.14364080131053925
1761379068363713500,4.227713623046875,0.08701835572719574,0.1363607943058014,-0.16243314743041992
1761379068373768400,4.2377685546875,0.08749265968799591,0.12277467548847198,-0.18698669970035553
1761379068383823600,4.24782373046875,0.09530401974916458,0.10986398160457611,-0.21616116166114807
1761379068393879600,4.257879638671875,0.09169570356607437,0.103278249502182,-0.24035198986530304
1761379068403934500,4.2679345703125,0.08518446236848831,0.08639266341924667,-0.2557799816131592
1761379068413989600,4.27798974609375,0.07660935074090958,0.06913910806179047,-0.26716017723083496
1761379068424045600,4.288045654296875,0.05980232357978821,0.06041637808084488,-0.27300846576690674
1761379068434100700,4.298100830078125,0.05284454673528671,0.04075106233358383,-0.27528253197669983
1761379068444155400,4.3081552734375,0.05584739148616791,0.01611321233212948,-0.2748168706893921
1761379068454211600,4.318211669921875,0.06300783157348633,-0.012435341253876686,-0.2722543776035309
1761379068464266500,4.3282666015625,0.07625049352645874,-0.0416618287563324,-0.273088276386261
1761379068474321700,4.33832177734375,0.08954019844532013,-0.06768011301755905,-0.2914113700389862
1761379068484377600,4.348377685546875,0.06789802759885788,-0.06408590823411942,-0.2978989779949188
1761379068494432500,4.3584326171875,0.025976411998271942,-0.06056308001279831,-0.27124473452568054
1761379068504487400,4.3684873046875,-0.0323692262172699,-0.03989805281162262,-0.21808291971683502
1761379068514542600,4.37854248046875,-0.09194041043519974,-0.04265974834561348,-0.16039031744003296
1761379068524598500,4.3885986328125,-0.12190431356430054,-0.06974078714847565,-0.10325784236192703
1761379068534653400,4.3986533203125,-0.119757279753685,-0.11024133861064911,-0.07025808095932007
1761379068544708600,4.40870849609375,-0.10587447881698608,-0.13784153759479523,-0.06733355671167374
1761379068554764500,4.4187646484375,-0.07878614217042923,-0.15724985301494598,-0.10571156442165375
1761379068564819500,4.4288193359375,-0.06055889651179314,-0.18942508101463318,-0.15283994376659393
1761379068574874600,4.43887451171875,-0.04929053410887718,-0.2227145880460739,-0.1912861466407776
1761379068584930300,4.448930419921875,-0.05689094588160515,-0.2334202378988266,-0.1978643536567688
1761379068594985500,4.4589853515625,-0.08781343698501587,-0.2383476197719574,-0.1736903041601181
1761379068605040600,4.46904052734375,-0.12223003059625626,-0.2369457632303238,-0.13448360562324524
1761379068615096600,4.4790966796875,-0.1416442096233368,-0.22428590059280396,-0.09468746930360794
1761379068625151700,4.48915185546875,-0.13902471959590912,-0.2349044382572174,-0.057722948491573334
1761379068635206400,4.499206298828125,-0.11752794682979584,-0.2603866457939148,-0.03110252320766449
1761379068645262600,4.5092626953125,-0.09289205074310303,-0.26448625326156616,-0.02688613161444664
1761379068655317500,4.5193173828125,-0.07545047998428345,-0.28360775113105774,-0.04321157559752464
1761379068665372700,4.52937255859375,-0.06586360931396484,-0.28476381301879883,-0.05128026381134987
1761379068675428600,4.5394287109375,-0.07139872014522552,-0.29153117537498474,-0.04455072432756424
1761379068685483500,4.5494833984375,-0.07005398720502853,-0.2916732430458069,-0.024753570556640625
1761379068695538400,4.559538330078125,-0.07036478072404861,-0.286126971244812,0.01860242523252964
1761379068705593600,4.569593505859375,-0.07702712714672089,-0.2685934603214264,0.06613241881132126
1761379068715649500,4.5796494140625,-0.07791529595851898,-0.2353459894657135,0.10923541337251663
1761379068725704400,4.589704345703125,-0.08397874981164932,-0.20394356548786163,0.13241715729236603
1761379068735759600,4.599759521484375,-0.08506105840206146,-0.16760046780109406,0.14470018446445465
1761379068745815600,4.609815673828125,-0.08732888847589493,-0.15258225798606873,0.15333101153373718
1761379068755870500,4.619870361328125,-0.08436957746744156,-0.16156616806983948,0.1516958326101303
1761379068765925600,4.629925537109375,-0.08755283057689667,-0.19653929769992828,0.1409948617219925
1761379068775981300,4.639981201171875,-0.08581485599279404,-0.23910753428936005,0.1403959095478058
1761379068786036500,4.650036376953125,-0.08430962264537811,-0.27785250544548035,0.13975973427295685
1761379068796091600,4.660091552734375,-0.08372772485017776,-0.29573431611061096,0.1358526200056076
1761379068806147600,4.670147705078125,-0.0919036716222763,-0.3033640384674072,0.13412046432495117
1761379068816202800,4.68020263671875,-0.09854958951473236,-0.31608784198760986,0.10981671512126923
1761379068826257400,4.69025732421875,-0.0985562801361084,-0.33222290873527527,0.061199821531772614
1761379068836313600,4.700313720703125,-0.10711488127708435,-0.34784021973609924,0.0019303751178085804
1761379068846368500,4.710368408203125,-0.12577900290489197,-0.34348610043525696,-0.04397537559270859
1761379068856423700,4.720423583984375,-0.15547218918800354,-0.3297678828239441,-0.07752375304698944
1761379068866478300,4.730478271484375,-0.17520080506801605,-0.2996770143508911,-0.10209842026233673
1761379068876534500,4.740534423828125,-0.1940232217311859,-0.27739089727401733,-0.11069963127374649
1761379068886589400,4.75058935546875,-0.21354086697101593,-0.26453274488449097,-0.09357982873916626
1761379068896644600,4.76064453125,-0.2381758987903595,-0.2688007354736328,-0.058649275451898575
1761379068906700500,4.770700439453125,-0.26122143864631653,-0.2888304889202118,-0.031135190278291702
1761379068916755500,4.78075537109375,-0.27233773469924927,-0.31532999873161316,-0.016155973076820374
1761379068926810600,4.790810546875,-0.27600887417793274,-0.35001736879348755,0.001318288967013359
1761379068936866600,4.800866455078125,-0.26143205165863037,-0.3852163851261139,0.023859549313783646
1761379068946921500,4.81092138671875,-0.24252232909202576,-0.4028119444847107,0.07025706768035889
1761379068956976600,4.8209765625,-0.23657655715942383,-0.3931228518486023,0.12953263521194458
1761379068967032300,4.8310322265625,-0.24420969188213348,-0.3620589077472687,0.20220085978507996
1761379068977090000,4.841090087890625,-0.2558996379375458,-0.3240763545036316,0.26980119943618774
1761379068987145200,4.851145263671875,-0.26537081599235535,-0.2738261818885803,0.32696768641471863
1761379068997200100,4.8612001953125,-0.280042439699173,-0.23985008895397186,0.3568778932094574
1761379069007256000,4.871256103515625,-0.28986456990242004,-0.23359869420528412,0.35898837447166443
1761379069017311000,4.88131103515625,-0.28185537457466125,-0.22768782079219818,0.35039302706718445
1761379069027366100,4.8913662109375,-0.26525768637657166,-0.22565601766109467,0.32900241017341614
1761379069037422000,4.901422119140625,-0.2174166589975357,-0.2120182365179062,0.2925274968147278
1761379069047477000,4.91147705078125,-0.14347657561302185,-0.19428282976150513,0.22703416645526886
1761379069057532200,4.9215322265625,-0.057890843600034714,-0.1651393324136734,0.12058334797620773
1761379069067588000,4.931588134765625,0.022037619724869728,-0.12936101853847504,-0.016539065167307854
1761379069077643300,4.941643310546875,0.07739302515983582,-0.0901222676038742,-0.14809364080429077
1761379069087698200,4.9516982421875,0.11044886708259583,-0.07201874256134033,-0.2571762800216675
1761379069097754000,4.961754150390625,0.12573912739753723,-0.05553803965449333,-0.32764139771461487
1761379069107809000,4.97180908203125,0.111402228474617,-0.03687731549143791,-0.3286862075328827
1761379069117864200,4.9818642578125,0.07812736183404922,-0.007542327046394348,-0.27111637592315674
1761379069127919000,4.991919189453125,0.022679412737488747,0.012297278270125389,-0.17995381355285645
1761379069137975300,5.001975341796875,-0.038761310279369354,0.017700565978884697,-0.0896846354007721
1761379069148030000,5.012030029296875,-0.09717897325754166,0.002832249738276005,-0.0345056876540184
1761379069158085000,5.022085205078125,-0.14226016402244568,-0.026086216792464256,-0.03104836866259575
1761379069168141000,5.03214111328125,-0.14011932909488678,-0.05536242946982384,-0.05980462208390236
1761379069178196200,5.0421962890625,-0.11328745633363724,-0.08186061680316925,-0.09914696961641312
1761379069188251100,5.052251220703125,-0.08425810933113098,-0.08894187957048416,-0.11275281757116318
1761379069198307000,5.06230712890625,-0.053174227476119995,-0.08044905960559845,-0.09987350553274155
1761379069208362000,5.072362060546875,-0.006958696525543928,-0.04167519509792328,-0.041680075228214264
1761379069218417200,5.082417236328125,0.008460739627480507,0.013697251677513123,0.047610919922590256
1761379069228472300,5.092472412109375,-0.0072228373028337955,-0.010194454342126846,0.025613781064748764
1761379069238528000,5.102528076171875,0.000004715286195278168,-0.04397185891866684,-0.07343609631061554
1761379069248583200,5.112583251953125,0.0031054799910634756,-0.04671061038970947,-0.14640933275222778
1761379069258638000,5.12263818359375,-0.007300288882106543,-0.020248111337423325,-0.1895086169242859
1761379069268694300,5.1326943359375,-0.01076081208884716,0.042307671159505844,-0.2131989747285843
1761379069278749200,5.142749267578125,0.014375699684023857,0.10675829648971558,-0.22664126753807068
1761379069288804000,5.15280419921875,0.05376236513257027,0.16585661470890045,-0.21514376997947693
1761379069298860000,5.162860107421875,0.09426452219486237,0.20143485069274902,-0.20032194256782532
1761379069308915200,5.172915283203125,0.11371366679668427,0.22247657179832458,-0.1782350391149521
1761379069318970000,5.18297021484375,0.10529807955026627,0.2282029092311859,-0.15233606100082397
1761379069329025000,5.19302490234375,0.07983424514532089,0.23144181072711945,-0.12504546344280243
1761379069339081000,5.2030810546875,0.04877220094203949,0.2078520655632019,-0.11214005947113037
1761379069349136100,5.21313623046875,0.03597185015678406,0.1874673068523407,-0.102630615234375
