time,seconds_elapsed,z,y,x
1761380396320829700,0.05182958984375,-0.0013294219970703125,0.012015285901725292,0.008029206655919552
1761380396330911700,0.061911865234375,-0.0001035686582326889,-0.02306067757308483,-0.014376233331859112
1761380396340993500,0.07199365234375,0.00004397053271532059,-0.004728540778160095,-0.005805914290249348
1761380396351076600,0.08207666015625,0.00017578806728124619,0.016440153121948242,0.010814948007464409
1761380396361158700,0.09215869140625,-0.0009949374943971634,-0.003228621557354927,-0.0013913846341893077
1761380396371240700,0.10224072265625,-0.00004059821367263794,-0.01650555059313774,-0.014252068474888802
1761380396381322500,0.112322509765625,-0.001119445078074932,0.00855905469506979,0.0066992854699492455
1761380396391405600,0.122405517578125,0.0005688359960913658,0.011448388919234276,0.005273905117064714
1761380396401487600,0.132487548828125,0.00009026657789945602,-0.012413267977535725,-0.007294350769370794
1761380396411569700,0.142569580078125,-0.0012516146525740623,-0.005520389415323734,-0.00282158050686121
1761380396421652500,0.152652587890625,0.00017077941447496414,0.009970152750611305,0.006528245285153389
1761380396431734500,0.162734619140625,0.0003498811274766922,-0.0004949970170855522,0.0005119112320244312
1761380396441816600,0.172816650390625,0.0007725255563855171,-0.011061887256801128,-0.00588873028755188
1761380396451899600,0.182899658203125,0.000624203123152256,0.001949199941009283,-0.0009236808400601149
1761380396461981400,0.1929814453125,0.00212223082780838,0.00633915513753891,0.0038971733301877975
1761380396472063500,0.2030634765625,0.00046082399785518646,-0.00595425721257925,-0.0030587241053581238
1761380396482145500,0.2131455078125,-0.0000885864719748497,-0.005887944251298904,0.0006382761057466269
1761380396492228900,0.223228759765625,0.0008595408871769905,0.006200585514307022,0.002912876894697547
1761380396502310700,0.233310546875,-0.001785777509212494,0.0009267274290323257,0.0003975215367972851
1761380396512392700,0.243392822265625,0.0009571267291903496,-0.0067522041499614716,-0.005761798471212387
1761380396522475800,0.253475830078125,0.001963535323739052,-0.0002612816169857979,0.000564806628972292
1761380396532557800,0.263557861328125,-0.000761096365749836,0.0058950502425432205,0.006031230092048645
1761380396542639600,0.2736396484375,-0.001573626883327961,0.0003831060603260994,-0.00035742728505283594
1761380396552722700,0.28372265625,-0.001110210083425045,-0.003854823298752308,-0.0038252519443631172
1761380396562804700,0.2938046875,-0.001973074860870838,0.0014824182726442814,-0.001197510864585638
1761380396572886800,0.30388671875,-0.001727461814880371,0.0006449916400015354,0.0003182338550686836
1761380396582968800,0.31396875,0.0014302488416433334,-0.005605180747807026,-0.0008812538580968976
1761380396593051600,0.3240517578125,-0.0011227959766983986,-0.00007726531475782394,0.0024306399282068014
1761380396603133700,0.3341337890625,0.00082344189286232,0.0011624358594417572,0.001409850548952818
1761380396613215700,0.3442158203125,-0.000380074605345726,0.00026475079357624054,-0.0011612348025664687
1761380396623298600,0.354298583984375,0.0008511040359735489,-0.006899152882397175,-0.0022781644947826862
1761380396633380600,0.364380615234375,0.000020096078515052795,0.00160212442278862,-0.0008490546606481075
1761380396643462700,0.374462646484375,-0.00046113692224025726,0.00010995566844940186,0.0034924305509775877
1761380396653544700,0.384544677734375,-0.0013528577983379364,-0.001308509148657322,-0.0010327310301363468
1761380396663627500,0.39462744140625,-0.0005866661667823792,-0.0014619072899222374,0.0008610428776592016
1761380396673709600,0.40470947265625,0.00001012161374092102,0.0016122208908200264,-0.00018465775065124035
1761380396683791600,0.41479150390625,0.000691891647875309,-0.0007377518340945244,0.003039631526917219
1761380396693874700,0.424874755859375,-0.0015657218173146248,-0.003070834092795849,-0.0016812761314213276
1761380396703956500,0.43495654296875,-0.0010962067171931267,0.0009084613993763924,0.0035664825700223446
1761380396714038500,0.44503857421875,0.0006028814241290092,0.002600128762423992,-0.00043537525925785303
1761380396724121600,0.45512158203125,-0.0006709080189466476,-0.0037094326689839363,-0.000010334653779864311
1761380396734203600,0.46520361328125,-0.0011624926701188087,-0.000008264556527137756,-0.0015073261456564069
1761380396744285700,0.47528564453125,-0.00138087198138237,-0.00037072040140628815,0.0006631501019001007
1761380396754368500,0.485368408203125,0.00002894364297389984,-0.0014568930491805077,0.0007466580718755722
1761380396764450600,0.495450439453125,-0.0012589609250426292,-0.0012033600360155106,-0.0013537772465497255
1761380396774532600,0.50553271484375,-0.0012908494099974632,0.000707860104739666,0.0010445390362292528
1761380396784614700,0.51561474609375,0.00007455330342054367,0.002067403867840767,-0.0006710693705826998
1761380396794697500,0.525697509765625,0.0006225286051630974,0.0006127147935330868,-0.0017040526727214456
1761380396804779500,0.535779541015625,0.0001735202968120575,-0.0015889201313257217,0.0022336971014738083
1761380396814861600,0.545861572265625,0.0002448922023177147,0.0018822439014911652,0.00046296161599457264
1761380396824944600,0.555944580078125,0.0005455631762742996,-0.00008183717727661133,0.0011322139762341976
1761380396835026700,0.566026611328125,-0.0018287310376763344,-0.0034359078854322433,-0.0005676733562722802
1761380396845108700,0.576108642578125,0.002753504551947117,0.00035270489752292633,-0.0001737917773425579
1761380396855190800,0.586190673828125,-0.0020805709064006805,0.0016670376062393188,0.0007438512984663248
1761380396865273600,0.596273681640625,-0.0014840234071016312,0.0004078950732946396,-0.0028492857236415148
1761380396875355600,0.606355712890625,0.0006067296490073204,0.000446980819106102,0.0011900130193680525
1761380396885437700,0.616437744140625,-0.000635368749499321,0.0014035888016223907,-0.0003570172702893615
1761380396895520800,0.626520751953125,0.0009101582691073418,0.00012959446758031845,0.00015103165060281754
1761380396905602800,0.636602783203125,-0.00031196605414152145,0.00047287624329328537,0.001208306523039937
1761380396915684600,0.6466845703125,0.0006470559164881706,-0.003685666248202324,0.00112010701559484
1761380396925767700,0.656767578125,0.0009421342983841896,0.0008590174838900566,0.002113732509315014
1761380396935849700,0.666849609375,0.001480373553931713,0.0009438446722924709,0.0002485946752130985
1761380396945931800,0.676931884765625,-0.0012842537835240364,0.0007542273961007595,-0.00039695564191788435
1761380396956013600,0.687013671875,0.0022374335676431656,-0.0005710143595933914,0.0007730766665190458
1761380396966097000,0.697096923828125,-0.003015385940670967,0.00012513529509305954,-0.0012352131307125092
1761380396976179000,0.707178955078125,-0.0015139738097786903,-0.0017691180109977722,-0.000033434247598052025
1761380396986261000,0.717260986328125,-0.0008652275428175926,0.0029199100099503994,0.0011261061299592257
1761380396996343800,0.72734375,-0.0005730893462896347,-0.0006724316626787186,-0.00007821177132427692
1761380397006425900,0.73742578125,0.001171015202999115,0.0025289547629654408,0.0007915766909718513
1761380397016508000,0.7475078125,0.000685838982462883,-0.001681664027273655,-0.002899209503084421
1761380397026590700,0.7575908203125,-0.00113682821393013,0.0036068414337933064,0.00046862405724823475
1761380397036672800,0.7676728515625,-0.0008438639342784882,-0.00006365776062011719,0.0023364382795989513
1761380397046754800,0.7777548828125,0.0009721452370285988,0.0010346299968659878,0.0013590583112090826
1761380397056836900,0.7878369140625,0.001485389657318592,-0.0017376802861690521,-0.001376151805743575
1761380397066919700,0.797919677734375,0.00144171342253685,0.00028019677847623825,0.0006278767250478268
1761380397077001700,0.808001708984375,0.0007783658802509308,-0.001990237273275852,-0.0006256771739572287
1761380397087083800,0.818083740234375,-0.001313813030719757,-0.00044906605035066605,0.0020950082689523697
1761380397097166800,0.828166748046875,0.0015230225399136543,-0.0002393629401922226,0.00351693551056087
1761380397107249000,0.838248779296875,-0.000026671215891838074,-0.00018609967082738876,0.0018665746320039034
1761380397117330700,0.84833056640625,-0.0004217401146888733,-0.0016858791932463646,0.0021595999132841825
1761380397127414000,0.8584140625,0.00018625985831022263,0.0035909083671867847,-0.00018504681065678596
1761380397137496000,0.86849609375,0.0028934692963957787,-0.00030183419585227966,0.0007196289952844381
1761380397147578000,0.878578125,-0.00018248148262500763,-0.0015407372266054153,-0.0005147461779415607
1761380397157660000,0.888659912109375,-0.00006736628711223602,-0.001340600661933422,0.0004885818343609571
1761380397167743000,0.898742919921875,0.002979555167257786,0.002306864131242037,0.0019197643268853426
1761380397177825000,0.908824951171875,-0.0001978762447834015,-0.0004507172852754593,0.0007717309053987265
1761380397187907000,0.918906982421875,0.0002591218799352646,-0.0024685943499207497,0.000017257407307624817
1761380397197990000,0.928989990234375,-0.00011275336146354675,0.0003745872527360916,0.0006039622239768505
1761380397208072000,0.939072021484375,-0.00006934348493814468,0.0006704647094011307,0.0028061300981789827
1761380397218154000,0.949154052734375,-0.000709819607436657,-0.0023861806839704514,0.0005236857105046511
1761380397228236800,0.95923681640625,0.002924863249063492,-0.004747872240841389,0.0011758939363062382
1761380397238318800,0.96931884765625,-0.0014980779960751534,0.000040976330637931824,0.0006506347563117743
1761380397248401000,0.97940087890625,-0.0023526865988969803,-0.0003571668639779091,-0.0016157153295353055
1761380397258484000,0.98948388671875,0.0016405396163463593,-0.0012737680226564407,-0.003165915608406067
1761380397268566000,0.99956591796875,-0.0003778701648116112,0.0012892582453787327,-0.0008276600856333971
1761380397278647800,1.009647705078125,0.0004185140132904053,-0.00106720719486475,0.0013346979394555092
1761380397288729900,1.019729736328125,-0.0003447476774454117,-0.0035631218925118446,-0.00024748616851866245
1761380397298813000,1.02981298828125,-0.00106841791421175,0.0016904599033296108,-0.003415069542825222
1761380397308895000,1.03989501953125,-0.00035282596945762634,-0.001351136714220047,-0.00037400610744953156
1761380397318976800,1.049976806640625,-0.0016172118484973907,0.0008919788524508476,-0.0022573471069335938
1761380397329059800,1.060059814453125,-0.00004887674003839493,-0.00132084172219038,-0.0010930130956694484
1761380397339142000,1.070141845703125,-0.0002516787499189377,-0.0006766468286514282,-0.002580267144367099
1761380397349224000,1.080223876953125,-0.0001488812267780304,-0.0024279411882162094,0.00035293842665851116
1761380397359306800,1.090306640625,0.0012225229293107986,-0.0014083432033658028,-0.002965517807751894
1761380397369388800,1.100388916015625,0.0009902957826852798,-0.001084769144654274,-0.003790298942476511
1761380397379470800,1.110470947265625,0.00026303716003894806,0.0008387244306504726,-0.0009156849700957537
1761380397389553000,1.120552978515625,-0.0012379204854369164,-0.0023794397711753845,-0.00036494340747594833
1761380397399635700,1.1306357421875,0.0005009546875953674,-0.0013968311250209808,-0.0004698988050222397
1761380397409717800,1.1407177734375,-0.0004258248955011368,0.0002814922481775284,0.00037592113949358463
1761380397419799800,1.1507998046875,0.0016885213553905487,0.0033083008602261543,-0.0020671337842941284
1761380397429883000,1.1608828125,-0.0010763723403215408,-0.0013522310182452202,-0.002015468431636691
1761380397439965000,1.17096484375,-0.0005959616973996162,0.001007727812975645,-0.0018646689131855965
1761380397450046700,1.181046630859375,0.00006183981895446777,0.0007382160983979702,0.0007542835082858801
1761380397460130000,1.191130126953125,0.0006627552211284637,-0.0003102123737335205,-0.00369443092495203
1761380397470212000,1.201212158203125,0.0012284107506275177,-0.0009208759292960167,-0.0012946565402671695
1761380397480294000,1.2112939453125,-0.0014830231666564941,-0.00044215843081474304,-0.0005728306714445353
1761380397490376000,1.2213759765625,0.0002056872472167015,0.00017596129328012466,0.0008596836123615503
1761380397500459000,1.231458984375,-0.0007924512028694153,-0.0008788397535681725,-0.00241386191919446
1761380397510541000,1.241541015625,0.0008499203249812126,0.0009273155592381954,0.0005387847777456045
1761380397520622800,1.251622802734375,0.0013297004625201225,0.001841884572058916,0.00021065096370875835
1761380397530706000,1.261705810546875,0.0016972171142697334,-0.002613583579659462,-0.001620272290892899
1761380397540788000,1.2717880859375,0.0011246614158153534,-0.0026164138689637184,-0.0030552810057997704
1761380397550870000,1.2818701171875,-0.0018615415319800377,0.000799090601503849,0.002452402375638485
1761380397560952800,1.291952880859375,-0.000060935504734516144,-0.0004640761762857437,-0.0012051559751853347
1761380397571035000,1.302034912109375,-0.0007501617074012756,-0.0011924505233764648,-0.0022818720899522305
1761380397581117000,1.312116943359375,-0.0005247974768280983,0.001176103949546814,0.0004436580929905176
1761380397591200000,1.322199951171875,0.00018360279500484467,-0.0003088749945163727,0.00023033889010548592
1761380397601281800,1.33228173828125,-0.00022838357836008072,-0.003718344494700432,-0.0009635784663259983
1761380397611363800,1.34236376953125,-0.000014797784388065338,0.0005672145634889603,-0.0014277674490585923
1761380397621446000,1.35244580078125,0.001927655190229416,0.0029772138223052025,-0.0005989114288240671
1761380397631529000,1.362529052734375,-0.00024069007486104965,-0.0006393585354089737,-0.0004564323462545872
1761380397641610800,1.37261083984375,-0.0016561541706323624,-0.001988186500966549,-0.0003243291284888983
1761380397651692800,1.38269287109375,0.00020672660320997238,0.00001664087176322937,-0.0003139427863061428
1761380397661776000,1.39277587890625,0.001383436843752861,-0.002347692847251892,-0.0004312237724661827
1761380397671858000,1.40285791015625,-0.0006195260211825371,-0.0012358231469988823,0.0024292776361107826
1761380397681940000,1.41293994140625,-0.00002047419548034668,0.00016801338642835617,-0.0020870338194072247
1761380397692022800,1.423022705078125,-0.001255914568901062,-0.0012684958055615425,-0.0012196421157568693
1761380397702104800,1.433104736328125,0.0029345620423555374,-0.0005399174988269806,-0.0017411942826583982
1761380397712187000,1.443186767578125,-0.00037228502333164215,-0.0023756343871355057,-0.000857291161082685
1761380397722269700,1.453269775390625,-0.0011189458891749382,-0.00009208358824253082,-0.0005679528694599867
1761380397732351700,1.463351806640625,-0.0010361215099692345,0.0012775799259543419,-0.00030749570578336716
1761380397742433800,1.473433837890625,-0.0006456654518842697,-0.00038257427513599396,-0.0005973645020276308
1761380397752515800,1.483515869140625,-0.0008011944591999054,0.0020938990637660027,0.0008697707671672106
1761380397762599000,1.493598876953125,-0.0002450784668326378,0.00008134730160236359,-0.0022517251782119274
1761380397772681000,1.503680908203125,0.000009786337614059448,-0.0013679442927241325,-0.002089538611471653
1761380397782763000,1.513762939453125,-0.0000489652156829834,0.0008465568535029888,0.00010025710798799992
1761380397792846000,1.52384619140625,-0.000364815816283226,0.00319945951923728,-0.0014960416592657566
1761380397802927900,1.533927978515625,-0.0010026432573795319,-0.0010996032506227493,0.0006351126357913017
1761380397813010000,1.544010009765625,-0.0011350028216838837,-0.000542735680937767,0.00008224043995141983
1761380397823093000,1.554093017578125,0.0012065647169947624,-0.000332866795361042,-0.0033267722465097904
1761380397833175000,1.564175048828125,0.0005255946889519691,0.0018133744597434998,-0.000015663914382457733
1761380397843256800,1.5742568359375,0.000681326724588871,-0.0014921734109520912,-0.0007669405313208699
1761380397853340000,1.58433984375,0.0007034307345747948,-0.0005531422793865204,-0.0005642739124596119
1761380397863422000,1.594421875,0.0020391857251524925,0.00018391944468021393,0.002489462960511446
1761380397873504000,1.60450390625,0.0010365061461925507,0.0005359891802072525,-0.0016099411295726895
1761380397883586800,1.6145869140625,0.001154901459813118,-0.0013898788020014763,-0.0017589488998055458
1761380397893668900,1.6246689453125,-0.00032501667737960815,0.0010826000943779945,-0.00024147960357367992
1761380397903751000,1.6347509765625,-0.0002724612131714821,0.00015905965119600296,0.0018664640374481678
1761380397913833000,1.6448330078125,-0.0001451624557375908,-0.0014750566333532333,-0.001353031606413424
1761380397923915800,1.654915771484375,0.0010902220383286476,-0.0011952044442296028,0.002781459828838706
1761380397933997800,1.664997802734375,-0.0010293880477547646,0.0013350648805499077,0.0008666471112519503
1761380397944080000,1.675079833984375,-0.002116817981004715,-0.002344716340303421,-0.0026616225950419903
1761380397954163000,1.685162841796875,0.00013568438589572906,0.0004076603800058365,-0.0032991834450513124
1761380397964244200,1.695244140625,0.001341850496828556,0.0023898486979305744,-0.0009582488564774394
1761380397974326000,1.705325927734375,0.001322142779827118,0.0015741228125989437,0.00014669657684862614
1761380397984409000,1.7154091796875,0.001520337536931038,-0.0005619917064905167,-0.0016338502755388618
1761380397994491100,1.7254912109375,-0.0004682447761297226,-0.002477869391441345,-0.001682586153037846
1761380398004573200,1.7355732421875,0.0008858591318130493,0.0014164731837809086,-0.0015326949069276452
1761380398014656000,1.745656005859375,0.0019226279109716415,-0.000932435505092144,-0.00029219454154372215
1761380398024738000,1.755738037109375,0.00003413483500480652,-0.00022575631737709045,0.0008528709877282381
1761380398034820000,1.765820068359375,0.0020741159096360207,0.0015343264676630497,0.0021706032566726208
1761380398044902100,1.775902099609375,0.0008637364953756332,0.0033078216947615147,0.002105108927935362
1761380398054985000,1.78598486328125,0.0004967525601387024,-0.0036001522094011307,-0.0015301058301702142
1761380398065067000,1.79606689453125,0.003761235624551773,0.004195951856672764,0.0022076070308685303
1761380398075149000,1.806149169921875,-0.0014617564156651497,0.00005100853741168976,0.0013689775951206684
1761380398085232000,1.816232177734375,0.00001594237983226776,0.0008556093089282513,0.0016091184224933386
1761380398095314000,1.82631396484375,-0.00013266224414110184,0.0013014222495257854,0.0015577191952615976
1761380398105396000,1.83639599609375,0.00034457258880138397,0.0012609348632395267,-0.0008798812050372362
1761380398115479000,1.84647900390625,-0.0010165693238377571,0.0014316434971988201,0.0014099047984927893
1761380398125561000,1.85656103515625,-0.0029685264453291893,-0.0016208244487643242,0.0003189914859831333
1761380398135643000,1.866642822265625,-0.0003647543489933014,0.00014218781143426895,0.00006172992289066315
1761380398145726000,1.876725830078125,0.0023922622203826904,0.002514272928237915,0.0013299398124217987
1761380398155808000,1.88680810546875,0.001770148053765297,-0.0016439873725175858,-0.0008714293362572789
1761380398165890000,1.89689013671875,-0.0017133848741650581,-0.0019775936380028725,-0.0006085713393986225
1761380398175972900,1.906972900390625,-0.00029019173234701157,0.0009020818397402763,0.0024506018962711096
1761380398186055000,1.917054931640625,0.0005626305937767029,-0.0005798405036330223,-0.0017790686106309295
1761380398196137000,1.927136962890625,0.0005501136183738708,-0.0021817320957779884,-0.0007753231329843402
1761380398206219000,1.937218994140625,0.00010291486978530884,0.0031285593286156654,0.0037137733306735754
1761380398216301800,1.9473017578125,0.0007340842857956886,0.000278976745903492,0.004014444537460804
1761380398226384000,1.9573837890625,-0.0009546549990773201,0.0009405855089426041,-0.0006278242217376828
1761380398236466000,1.9674658203125,0.0013255439698696136,-0.0011151088401675224,-0.0026140096597373486
1761380398246549200,1.97754931640625,0.0022959355264902115,0.002523114439100027,0.0005019109230488539
1761380398256630800,1.987630859375,-0.0021012090146541595,-0.00045137014240026474,0.0004867308307439089
1761380398266712800,1.997712890625,-0.0002540880814194679,-0.00042001716792583466,-0.002183839911594987
1761380398276796200,2.007796142578125,-0.0018152333796024323,0.0006143548525869846,0.001795987831428647
1761380398286878200,2.017878173828125,0.0003216005861759186,0.0008985563181340694,0.0008648461662232876
1761380398296960000,2.0279599609375,0.00005235522985458374,-0.0036099087446928024,-0.000576989259570837
1761380398307043000,2.03804296875,0.002198697067797184,0.0027372026816010475,0.0010794647969305515
1761380398317125000,2.048125,0.0009246412664651871,0.0005664601922035217,0.001417686464264989
1761380398327207200,2.058207275390625,0.0008785221725702286,0.0012290561571717262,0.0000707672443240881
1761380398337290000,2.0682900390625,0.0003096712753176689,0.002626416739076376,-0.00035533844493329525
1761380398347372000,2.0783720703125,0.0006159888580441475,-0.0008788686245679855,0.002009114483371377
1761380398357454000,2.0884541015625,0.0019249320030212402,-0.0013776784762740135,-0.00028147012926638126
1761380398367536000,2.0985361328125,-0.0009755883365869522,-0.002940249629318714,-0.0001696213148534298
1761380398377619000,2.108618896484375,0.0001823538914322853,0.0014260029420256615,-0.0023909639567136765
1761380398387701000,2.118700927734375,0.0007873261347413063,-0.0003872830420732498,-0.0009235622128471732
1761380398397783000,2.128782958984375,0.001231275498867035,0.00012963637709617615,-0.005828306078910828
1761380398407866000,2.1388662109375,0.0004931595176458359,0.001459847204387188,-0.0002096341922879219
1761380398417948000,2.148947998046875,-0.0006607882678508759,0.0018880832940340042,-0.00004371930845081806
1761380398428030000,2.159030029296875,-0.0008060215041041374,-0.0010483460500836372,-0.0011788711417466402
1761380398438113000,2.169113037109375,-0.0013178810477256775,0.0005831066519021988,-0.0030353607144206762
1761380398448195000,2.179195068359375,0.0018485235050320625,0.0009772786870598793,0.002131762681528926
1761380398458276900,2.18927685546875,0.0015720874071121216,0.0016127093695104122,0.0002883225679397583
1761380398468360000,2.19935986328125,0.0003865957260131836,-0.0019960924983024597,0.0006125813815742731
1761380398478442000,2.20944189453125,-0.0006333952769637108,-0.0002711629495024681,-0.0011645460035651922
1761380398488524000,2.21952392578125,-0.0018434897065162659,0.0008091907948255539,-0.001400461420416832
1761380398498606800,2.22960693359375,0.000654289498925209,-0.000580180436372757,0.004201231524348259
1761380398508689000,2.23968896484375,0.0002490850165486336,-0.0023961225524544716,-0.0024908764753490686
1761380398518771000,2.24977099609375,0.000943903811275959,0.0019360417500138283,-0.0010445135412737727
1761380398528854000,2.25985400390625,-0.0008585993200540543,-0.0011396612972021103,0.0009407829493284225
1761380398538935800,2.269935791015625,-0.00016005244106054306,-0.0008605625480413437,-0.0005857411306351423
1761380398549017900,2.280017822265625,-0.0003509689122438431,-0.0006646774709224701,0.0035814158618450165
1761380398559100000,2.290099853515625,-0.0013717589899897575,-0.0008287280797958374,-0.000010123243555426598
1761380398569183200,2.300183349609375,0.000051526352763175964,0.0009592818096280098,-0.002154744230210781
1761380398579265000,2.31026513671875,0.0008672522380948067,-0.0025987010449171066,-0.0018040058203041553
1761380398589347000,2.32034716796875,0.00035603437572717667,0.001693930011242628,0.002700637560337782
1761380398599430100,2.33043017578125,-0.001874096691608429,0.0005442434921860695,-0.0019191480241715908
1761380398609512200,2.34051220703125,0.00030704494565725327,0.00016580987721681595,-0.0022299333941191435
1761380398619594000,2.350593994140625,-0.0006255945190787315,0.00023691635578870773,0.00020392960868775845
1761380398629677000,2.360677001953125,-0.000057806260883808136,0.0029214289970695972,-0.000006339512765407562
1761380398639759000,2.370759033203125,-0.0005568824708461761,0.00044735241681337357,-0.00200690608471632
1761380398649841200,2.380841064453125,-0.0020660078153014183,-0.0026717642322182655,-0.003820182755589485
1761380398659924000,2.390924072265625,0.0018200771883130074,0.001861201599240303,0.0031900564208626747
1761380398670006000,2.401006103515625,-0.00009548850357532501,-0.000514637678861618,-0.000493260333314538
1761380398680088000,2.411088134765625,-0.0008251946419477463,-0.0011338219046592712,-0.002930052811279893
1761380398690171000,2.4211708984375,-0.0007594991475343704,0.0006348378956317902,0.0006766696460545063
1761380398700253000,2.4312529296875,-0.0008505787700414658,0.0013568210415542126,-0.00001921434886753559
1761380398710335000,2.4413349609375,0.0009601907804608345,-0.0013619083911180496,-0.0028873549308627844
1761380398720417000,2.4514169921875,-0.000684843398630619,-0.00045217201113700867,-0.001645522890612483
1761380398730500000,2.4615,0.0008973833173513412,0.00023386161774396896,-0.00126068911049515
1761380398740582000,2.471581787109375,-0.0026507461443543434,0.0023454823531210423,0.001443484565243125
1761380398750664000,2.481663818359375,-0.0019327085465192795,-0.001949423924088478,-0.0026896274648606777
1761380398760747000,2.4917470703125,0.0012817271053791046,-0.0014876313507556915,-0.001279483549296856
1761380398770829000,2.5018291015625,-0.0002706404775381088,0.0007021459750831127,0.0026031252928078175
1761380398780910800,2.511910888671875,-0.0016618752852082253,-0.0007415534928441048,0.0008779296185821295
1761380398790994000,2.521993896484375,-0.0020874151960015297,-0.001505809836089611,0.0007346104830503464
1761380398801076000,2.532075927734375,-0.0017755590379238129,-0.00047969352453947067,0.0023769817780703306
1761380398811158000,2.542157958984375,0.0017758756875991821,0.000604195985943079,-0.00033172196708619595
1761380398821240800,2.55224072265625,-0.0012015383690595627,-0.0023255478590726852,-0.002092604059726
1761380398831323000,2.562322998046875,-0.0007160501554608345,0.004119134973734617,-0.004222542513161898
1761380398841405000,2.572405029296875,-0.000532291829586029,0.0012306701391935349,-0.0016145086847245693
1761380398851488000,2.582488037109375,0.0009908294305205345,-0.0016759289428591728,-0.0007154972990974784
1761380398861570000,2.592570068359375,0.0025256089866161346,-0.0025350647047162056,-0.0008340079803019762
1761380398871652000,2.602652099609375,-0.0009358124807476997,0.003077924717217684,0.0018087700009346008
1761380398881735200,2.612735107421875,0.00045595597475767136,-0.00039057619869709015,0.0003352430649101734
1761380398891817200,2.622817138671875,0.0006500566378235817,-0.00024396181106567383,-0.0015965118072926998
1761380398901899000,2.63289892578125,0.0010399427264928818,0.0010101208463311195,-0.0009432383812963963
1761380398911982000,2.642982177734375,-0.0003507845103740692,0.0013364017941057682,0.0006433485541492701
1761380398922064100,2.653064208984375,-0.0021114004775881767,-0.003618142567574978,-0.0010102081578224897
1761380398932146200,2.663146240234375,0.00014492683112621307,0.0006253290921449661,-0.00022283964790403843
1761380398942228000,2.67322802734375,-0.000902228057384491,0.0012575634755194187,-0.001697165542282164
1761380398952311000,2.68331103515625,-0.0006311628967523575,-0.0004005320370197296,-0.00002834736369550228
1761380398962393000,2.69339306640625,-0.0015765847638249397,-0.002371803857386112,0.0009096181020140648
1761380398972475400,2.703475341796875,-0.002124912105500698,0.0037925252690911293,-0.00031983968801796436
1761380398982558500,2.713558349609375,0.00020641926676034927,0.002066797111183405,0.002302042208611965
1761380398992640500,2.723640625,-0.0016820505261421204,-0.0005931463092565536,-0.00037197256460785866
1761380399002722600,2.73372265625,0.0005893595516681671,0.0009767874144017696,0.0010453618597239256
1761380399012805400,2.743805419921875,-0.0013632578775286674,0.0013088090345263481,0.0011075360234826803
1761380399022887400,2.753887451171875,0.00021679513156414032,0.00033249426633119583,-0.004010260570794344
1761380399032969500,2.763969482421875,0.0003987187519669533,-0.00014922674745321274,0.00039508077315986156
1761380399043052500,2.774052490234375,-0.0007515009492635727,0.0005868705920875072,0.0017964360304176807
1761380399053134300,2.78413427734375,-0.0006023477762937546,-0.0007076552137732506,0.001184836495667696
1761380399063216400,2.79421630859375,0.00005518738180398941,-0.002170795574784279,0.0010159919038414955
1761380399073299500,2.804299560546875,-0.00027213525027036667,0.0019384347833693027,-0.00001787557266652584
1761380399083381500,2.814381591796875,-0.0017342111095786095,0.0027501662261784077,0.0011115709785372019
1761380399093463300,2.82446337890625,0.0005544787272810936,-0.0014319801703095436,0.00014881370589137077
1761380399103546400,2.83454638671875,0.0036773020401597023,0.0012327786535024643,0.0001791736576706171
1761380399113628400,2.84462841796875,-0.00028457213193178177,0.0032851723954081535,0.001973048783838749
1761380399123710500,2.85471044921875,0.00025818031281232834,-0.0004509761929512024,0.002809015102684498
1761380399133793300,2.864793212890625,-0.00048231054097414017,-0.0011842185631394386,-0.0017837207997217774
1761380399143875300,2.874875244140625,0.001003200188279152,-0.0002808747813105583,0.001365733565762639
1761380399153957400,2.884957275390625,-0.00040511228144168854,0.0009518098086118698,-0.001680803019553423
1761380399164039400,2.895039306640625,0.0014604320749640465,-0.0010980255901813507,0.00029632775112986565
1761380399174122200,2.905122314453125,0.0007025543600320816,-0.0014980193227529526,-0.0003709876909852028
1761380399184204300,2.915204345703125,0.00025594234466552734,0.0011449018493294716,0.001094549661502242
1761380399194286300,2.925286376953125,-0.0007051406428217888,0.00003564823418855667,0.00011782604269683361
1761380399204369400,2.935369384765625,-0.0023219455033540726,0.001466298010200262,0.0031607537530362606
1761380399214451200,2.945451171875,0.0005434993654489517,-0.0015159491449594498,0.00001364806666970253
1761380399224533200,2.955533203125,0.00037705153226852417,-0.0012376485392451286,0.0014032854232937098
1761380399234616300,2.9656162109375,-0.00023595057427883148,-0.0006768731400370598,0.0017809439450502396
1761380399244698400,2.975698486328125,-0.0003033280372619629,-0.0013296138495206833,-0.0006169661646708846
1761380399254780400,2.985780517578125,-0.001183750107884407,-0.0005105147138237953,0.003030680352821946
1761380399264863500,2.995863525390625,-0.000025008805096149445,0.0015638219192624092,0.0010892357677221298
1761380399274945500,3.005945556640625,0.00007016398012638092,-0.002750590443611145,0.003016007598489523
1761380399285027600,3.016027587890625,0.00017775502055883408,0.002442840486764908,0.0009760260581970215
1761380399295110400,3.0261103515625,-0.0007772538810968399,0.00005051214247941971,0.0001235450617969036
1761380399305192400,3.0361923828125,-0.0006219912320375443,0.0005719587206840515,-0.00031268084421753883
1761380399315274500,3.0462744140625,-0.0007522525265812874,0.001283923164010048,-0.000002339482307434082
1761380399325357300,3.056357421875,0.0002403073012828827,0.00036060530692338943,0.0021769250743091106
1761380399335439400,3.066439453125,0.001847764477133751,-0.0007861945778131485,0.0006229623686522245
1761380399345521400,3.076521484375,-0.0003418857231736183,0.00041888561099767685,-0.0020220892038196325
1761380399355604500,3.0866044921875,0.00044994428753852844,-0.0006367731839418411,0.0012229676358401775
1761380399365686500,3.0966865234375,0.00009361375123262405,-0.00036513060331344604,-0.0036679275799542665
1761380399375768300,3.106768310546875,-0.00040534231811761856,-0.000804518349468708,-0.0005457511870190501
1761380399385850400,3.116850341796875,-0.0008671339601278305,-0.0018540704622864723,-0.004006795585155487
1761380399395933400,3.126933349609375,0.0008610254153609276,0.0022140764631330967,0.001185038359835744
1761380399406015500,3.137015380859375,-0.0015517985448241234,-0.002410503104329109,0.00024307845160365105
1761380399416097300,3.14709716796875,0.0003251936286687851,0.00039300043135881424,0.0002747990656644106
1761380399426180400,3.157180419921875,0.000540642999112606,-0.00113778468221426,-0.0001228107139468193
1761380399436262400,3.167262451171875,0.00018968433141708374,0.001995210535824299,0.001408708281815052
1761380399446344400,3.177344482421875,-0.0007682554423809052,-0.0015412010252475739,0.001500320853665471
1761380399456427300,3.18742724609375,-0.0018506459891796112,-0.0007137376815080643,0.0020031696185469627
1761380399466509300,3.19750927734375,-0.0016154889017343521,0.002164340578019619,0.0026569757610559464
1761380399476591400,3.20759130859375,-0.0002350611612200737,-0.002040417864918709,0.0016083582304418087
1761380399486674400,3.21767431640625,-0.0008742203935980797,-0.0013621104881167412,-0.00018128613010048866
1761380399496756200,3.227756103515625,-0.00038769375532865524,-0.0005269311368465424,0.0011288735549896955
1761380399506838300,3.23783837890625,-0.0029943957924842834,-0.0006236033514142036,0.0009272722527384758
1761380399516921300,3.24792138671875,0.0023608654737472534,0.00045668240636587143,0.00028448435477912426
1761380399527003400,3.25800341796875,-0.0012767473235726357,-0.0002328101545572281,-0.0030354121699929237
1761380399537085200,3.268085205078125,0.0005667610093951225,0.0021721641533076763,0.0005862333346158266
1761380399547168500,3.27816845703125,0.0009625060483813286,-0.0002371976152062416,-0.00021537812426686287
1761380399557250600,3.28825048828125,0.0008237045258283615,-0.002656654454767704,-0.0008527924073860049
1761380399567332600,3.29833251953125,-0.00016805622726678848,-0.001079264096915722,0.0020013172179460526
1761380399577415400,3.30841552734375,0.0003860360011458397,0.0006071808747947216,0.0015910523943603039
1761380399587497500,3.31849755859375,-0.0004978664219379425,-0.0012202803045511246,-0.004404256120324135
1761380399597579500,3.32857958984375,0.0011266879737377167,-0.0016096476465463638,-0.0005314666777849197
1761380399607662300,3.338662353515625,0.0004912577569484711,-0.0015156380832195282,0.0003923838958144188
1761380399617744400,3.348744384765625,-0.0006518419831991196,-0.0023813126608729362,-0.0009179404005408287
1761380399627826400,3.358826416015625,0.0009686918929219246,-0.0028652092441916466,-0.0004074124153703451
1761380399637908500,3.368908447265625,0.00003618840128183365,0.0008566174656152725,-0.001908136997371912
1761380399647991300,3.3789912109375,0.0004777396097779274,-0.0010856259614229202,0.00172148528508842
1761380399658073300,3.3890732421875,-0.0008383821696043015,-0.000990208238363266,-0.0019911564886569977
1761380399668155400,3.3991552734375,0.00011636130511760712,0.0001307167112827301,0.0007391162216663361
1761380399678238500,3.409238525390625,0.0005547143518924713,0.00397481769323349,0.0007288106717169285
1761380399688320500,3.419320556640625,-0.0012141577899456024,-0.00002391822636127472,0.0008686266373842955
1761380399698402300,3.42940234375,-0.000658462755382061,-0.0005864091217517853,0.001386820338666439
1761380399708485400,3.4394853515625,0.0011002887040376663,0.0008263974450528622,0.0026129395700991154
1761380399718567400,3.4495673828125,0.0024378905072808266,0.000679804477840662,-0.0008090947521850467
1761380399728649500,3.4596494140625,0.001060502603650093,-0.0025402233004570007,-0.0008319979533553123
1761380399738732300,3.469732177734375,0.0015504071488976479,-0.0013651838526129723,0.0020163313020020723
1761380399748814300,3.479814453125,0.0020047426223754883,0.0003703981637954712,0.0007007294334471226
1761380399758896400,3.489896484375,0.00026448164135217667,0.003738673869520426,-0.0005261274054646492
1761380399768979200,3.499979248046875,-0.00022154487669467926,-0.0004419563338160515,0.0009106479119509459
1761380399779061200,3.510061279296875,0.0013498496264219284,-0.0025793742388486862,-0.0008972790092229843
1761380399789143300,3.520143310546875,-0.0014155767858028412,0.0007437183521687984,0.0014596185646951199
1761380399799226400,3.530226318359375,0.00010866206139326096,-0.002855135127902031,-0.0015961008612066507
1761380399809308400,3.540308349609375,0.0008484888821840286,-0.00016507599502801895,-0.003729825373739004
1761380399819390200,3.55039013671875,0.001568811945617199,0.0007073511369526386,0.0014481029938906431
1761380399829473500,3.5604736328125,0.0016561634838581085,0.0012666149996221066,-0.0005292943678796291
1761380399839555600,3.5705556640625,0.0025027794763445854,0.0003077946603298187,-0.0050028529949486256
1761380399849637600,3.5806376953125,0.00032218266278505325,0.0019871843978762627,0.002330693881958723
1761380399859720400,3.590720458984375,-0.0010383892804384232,0.0006460901349782944,-0.0006806226447224617
1761380399869802500,3.600802490234375,-0.0006104195490479469,-0.0022660763934254646,-0.0013911540154367685
1761380399879884500,3.610884521484375,-0.0008662892505526543,-0.0002868911251425743,0.000628393841907382
1761380399889966600,3.620966552734375,-0.0008314019069075584,0.003652723506093025,0.0012686178088188171
1761380399900049400,3.63104931640625,0.000994998961687088,0.0002623824402689934,0.0010096514597535133
1761380399910131500,3.64113134765625,0.0017755711451172829,-0.0005837045609951019,-0.00183913204818964
1761380399920213500,3.651213623046875,-0.0009216936305165291,0.001983362715691328,-0.0012094153789803386
1761380399930296300,3.66129638671875,0.00021600909531116486,0.0009279521182179451,0.0014148636255413294
1761380399940378400,3.67137841796875,-0.0000793924555182457,-0.0034525487571954727,0.0007293545641005039
1761380399950460400,3.68146044921875,-0.001757982186973095,-0.0007329285144805908,0.0009490654338151217
1761380399960543500,3.69154345703125,-0.0011776089668273926,0.0014813044108450413,-0.0006725962739437819
1761380399970625500,3.70162548828125,0.0007680961862206459,0.0013446840457618237,-0.0017373280134052038
1761380399980707600,3.71170751953125,-0.0003093285486102104,0.0001327795907855034,0.0024154847487807274
1761380399990790700,3.721790771484375,-0.0019357213750481606,0.0018635676242411137,-0.0006372969364747405
1761380400000872700,3.731872802734375,-0.0009706877171993256,0.0008267820812761784,0.0004442173521965742
1761380400010954500,3.74195458984375,0.00007833167910575867,-0.0012094704434275627,-0.0006679185898974538
1761380400021037600,3.75203759765625,0.0016614114865660667,-0.0020660096779465675,-0.0008056954247877002
1761380400031119600,3.76211962890625,-0.00006112083792686462,0.0037186425179243088,0.00027954275719821453
1761380400041201700,3.77220166015625,0.000048694200813770294,-0.0005362899973988533,0.001710857730358839
1761380400051284500,3.782284423828125,0.00002792198210954666,-0.002454032190144062,-0.0019176991190761328
1761380400061366500,3.792366455078125,-0.0019643548876047134,0.0024450384080410004,-0.0011345333186909556
1761380400071448600,3.802448486328125,-0.0008705947548151016,0.0016085393726825714,0.0017944113351404667
1761380400081531600,3.81253173828125,-0.0007093353196978569,0.00042042508721351624,-0.0009954184060916305
1761380400091613400,3.822613525390625,0.0008107973262667656,-0.001271214336156845,-0.0010276426328346133
1761380400101695500,3.832695556640625,0.0028622420504689217,0.002686901483684778,-0.0012420759303495288
1761380400111778800,3.84277880859375,0.00007018446922302246,-0.0016247564926743507,-0.00174541340675205
1761380400121860900,3.85286083984375,-0.0008703861385583878,-0.0017929142341017723,-0.0031129212584346533
1761380400131942700,3.862942626953125,-0.00013428833335638046,0.002669212408363819,0.001451736781746149
1761380400142025700,3.873025634765625,0.0016607260331511497,0.0010117781348526478,-0.0016504856757819653
1761380400152107800,3.883107666015625,0.0019355649128556252,-0.0028026681393384933,0.0008398364298045635
1761380400162189800,3.89318994140625,-0.0014527039602398872,-0.00014742929488420486,-0.00042918091639876366
1761380400172272600,3.903272705078125,-0.0006201993674039841,0.0010291552171111107,-0.000042489729821681976
1761380400182354700,3.913354736328125,0.0008055474609136581,-0.0008351923897862434,0.0018618153408169746
1761380400192436700,3.923436767578125,0.0037973420694470406,-0.0028810324147343636,-0.0008684572530910373
1761380400202518800,3.933518798828125,0.001965360715985298,0.0004639113321900368,-0.00056676403619349
1761380400212601600,3.9436015625,0.002186669036746025,-0.0004849722608923912,0.00012405985035002232
1761380400222683600,3.95368359375,-0.002159811556339264,-0.0004996629431843758,-0.0009470251388847828
1761380400232765700,3.963765625,0.00005673803389072418,-0.0027843890711665154,0.0000031907111406326294
1761380400242848500,3.9738486328125,0.0005456451326608658,0.001298033632338047,0.0007845067884773016
1761380400252930600,3.9839306640625,-0.0041071632876992226,0.0015097549185156822,0.0020015717018395662
1761380400263012600,3.9940126953125,-0.0029543694108724594,-0.002680249512195587,-0.0016762351151555777
1761380400273095700,4.004095703125,-0.0028105583041906357,0.0015866667963564396,0.0003331198822706938
1761380400283177700,4.014177734375,-0.0003445185720920563,0.00354319391772151,0.002089707413688302
1761380400293259500,4.024259521484375,-0.0002092299982905388,-0.0008217273280024529,0.0008843608666211367
1761380400303342600,4.034342529296875,-0.001545771025121212,-0.0001066550612449646,0.0005228696390986443
1761380400313424600,4.044424560546875,-0.0016264645382761955,-0.0008454155176877975,0.0008986417669802904
1761380400323506700,4.054506591796875,-0.0014751730486750603,0.0005770958960056305,0.0002493716310709715
1761380400333589500,4.064589599609375,0.0008151456713676453,-0.0014983061701059341,-0.0031932967249304056
1761380400343671600,4.074671630859375,-0.0010545933619141579,0.0015707924030721188,0.0012411184143275023
1761380400353753600,4.084753662109375,-0.0003413986414670944,-0.0007165968418121338,-0.001065711840055883
1761380400363836400,4.09483642578125,0.0002168836072087288,0.000052883289754390717,-0.0008144122548401356
1761380400373918500,4.10491845703125,-0.0009690215811133385,-0.0020363666117191315,0.00010597635991871357
1761380400384000500,4.11500048828125,0.00002596154808998108,0.003288723062723875,-0.0018859757110476494
1761380400394083800,4.125083740234375,0.0015085432678461075,-0.0006852457299828529,0.0006488210055977106
1761380400404165600,4.13516552734375,-0.00005567353218793869,-0.0028330450877547264,-0.001927166827954352
1761380400414247700,4.14524755859375,0.00008414220064878464,0.0007297317497432232,-0.0018864204175770283
1761380400424330800,4.155330810546875,0.0004463009536266327,0.002526872791349888,-0.0003039920702576637
1761380400434412800,4.165412841796875,-0.0006021857261657715,-0.0013813162222504616,0.00006032828241586685
1761380400444494800,4.175494873046875,-0.0001633092761039734,-0.0007952908053994179,-0.0016664465656504035
1761380400454577700,4.18557763671875,-0.0013667913153767586,0.0012521473690867424,0.000816418556496501
1761380400464659700,4.19565966796875,-0.0009707026183605194,0.0005707815289497375,0.00047440663911402225
1761380400474741800,4.20574169921875,-0.0002260832116007805,-0.0014822492375969887,-0.0020263015758246183
1761380400484823800,4.21582373046875,0.0005710497498512268,-0.0007294220849871635,-0.002743687480688095
1761380400494906600,4.22590673828125,-0.00026118848472833633,0.002034140285104513,-0.0001681444700807333
1761380400504988700,4.23598876953125,-0.0009675156325101852,-0.0007286518812179565,-0.0021284217946231365
1761380400515070700,4.24607080078125,-0.0006242347881197929,0.00009373296052217484,-0.0016487864777445793
1761380400525153500,4.256153564453125,0.000006151385605335236,-0.0013434579595923424,-0.00019258190877735615
1761380400535235600,4.266235595703125,-0.0001123594120144844,-4.2654573917388916e-7,-0.0023801024071872234
1761380400545317600,4.276317626953125,-0.00173130352050066,-0.0013067694380879402,-0.00047194655053317547
1761380400555400700,4.286400634765625,-0.000986151397228241,0.0005092397332191467,-0.0006288067670539021
1761380400565482500,4.296482421875,0.0016536209732294083,-0.0005241446197032928,0.00019916286692023277
1761380400575564500,4.306564453125,-0.0008601369336247444,-0.0012181643396615982,0.0007032991852611303
1761380400585647600,4.316647705078125,0.001995566301047802,-0.0031510842964053154,-0.0006199349882081151
1761380400595729700,4.326729736328125,0.0009441506117582321,-0.00016754493117332458,-0.0006143423961475492
1761380400605811700,4.336811767578125,0.0005394434556365013,-0.000058292411267757416,0.0008257771842181683
1761380400615894500,4.34689453125,0.00025448575615882874,-0.0016569877043366432,0.0013911663554608822
1761380400625976600,4.3569765625,0.0021736333146691322,-0.0017518168315291405,-0.0004497535992413759
1761380400636058600,4.36705859375,-0.0007166946306824684,0.004591566976159811,0.0006168424151837826
1761380400646141400,4.377141357421875,-0.0011157486587762833,-0.002358594909310341,-0.0012547385413199663
1761380400656223500,4.387223388671875,0.000019290484488010406,-0.0014235591515898705,-0.0004549913574010134
1761380400666305500,4.397305419921875,-0.0017982646822929382,0.00011589191854000092,-0.0017917067743837833
1761380400676388900,4.407388916015625,-0.0018033245578408241,-0.00018211547285318375,0.0020126185845583677
1761380400686470700,4.417470703125,0.0008506495505571365,-0.0005918871611356735,0.002120304387062788
1761380400696552700,4.427552734375,-0.00010622385889291763,0.0004763063043355942,0.002153061330318451
1761380400706635800,4.4376357421875,0.0007109278813004494,0.0012383186258375645,0.0003607498947530985
1761380400716717800,4.4477177734375,-0.0017314571887254715,-0.0004077814519405365,0.002222832292318344
1761380400726799600,4.457799560546875,0.0005297400057315826,0.00013224128633737564,0.0010311238002032042
1761380400736882700,4.467882568359375,0.0006463862955570221,-0.0012147855013608932,-0.00041816849261522293
1761380400746964700,4.47796484375,-0.0007453504949808121,-0.0008430341258645058,0.0028309556655585766
1761380400757046800,4.488046875,-0.00020925607532262802,0.000649135559797287,-0.0015078664291650057
1761380400767129600,4.498129638671875,-0.0007539410144090652,-0.003446596674621105,-0.0004109058063477278
1761380400777211600,4.508211669921875,-0.0006074672564864159,0.0006203167140483856,0.0004929711576551199
1761380400787293700,4.518293701171875,0.0011279676109552383,0.0008399868384003639,-0.0019392563262954354
1761380400797375700,4.528375732421875,-0.0005106758326292038,-0.0037236064672470093,-0.0010939689818769693
1761380400807458600,4.53845849609375,0.000393107533454895,-0.0010407865047454834,0.001037535723298788
1761380400817540600,4.54854052734375,-0.00014751404523849487,0.0029459651559591293,0.0004306014161556959
1761380400827622700,4.55862255859375,0.0007873112335801125,-0.0018590698018670082,-0.0003047350328415632
1761380400837705700,4.568705810546875,-0.0009123180061578751,0.002343131694942713,-0.002104765735566616
1761380400847787500,4.57878759765625,0.0010048765689134598,-0.0004352964460849762,0.0005220258608460426
1761380400857869600,4.58886962890625,0.00009673833847045898,-0.002865697257220745,0.0006027196068316698
1761380400867952600,4.59895263671875,0.002770320512354374,-0.0018645897507667542,-0.0006005492759868503
1761380400878034700,4.60903466796875,-0.0007463842630386353,0.0006094863638281822,0.0019496935419738293
1761380400888116500,4.619116455078125,0.0007099993526935577,-0.0008984999731183052,-0.0004073020536452532
1761380400898199600,4.629199462890625,0.0015512919053435326,0.0009763650596141815,-0.00012181117199361324
1761380400908281600,4.639281494140625,0.00024525169283151627,0.0009071254171431065,0.0007663264404982328
1761380400918363600,4.64936376953125,0.0007938621565699577,-0.0001698564738035202,-0.000373240327462554
1761380400928446500,4.659446533203125,-0.001967671327292919,-0.0007992573082447052,-0.0007677986286580563
1761380400938528500,4.669528564453125,-0.0025474410504102707,0.002279889304190874,-0.0003419590648263693
1761380400948610600,4.679610595703125,-0.0008469037711620331,-0.0003846762701869011,-0.0009123025229200721
1761380400958693600,4.689693603515625,0.003240516409277916,-0.0016749780625104904,-0.0005543737206608057
1761380400968775200,4.699775146484375,0.0016114488244056702,0.0005263695493340492,-0.0018775947391986847
1761380400978857200,4.709857177734375,0.0015744306147098541,-0.0007359692826867104,0.0002745056990534067
1761380400988940500,4.7199404296875,-0.00021798629313707352,0.0019935881718993187,0.00402597151696682
1761380400999022600,4.730022705078125,-0.0015112170949578285,0.0025765541940927505,-0.003546194639056921
1761380401009104400,4.7401044921875,-0.00045628007501363754,-0.0013479609042406082,-0.0017078006640076637
1761380401019187500,4.7501875,0.002014600671827793,-0.0012574130669236183,0.0008248654194176197
1761380401029269500,4.76026953125,-0.00045846402645111084,-0.00008765514940023422,0.0021828075405210257
1761380401039351600,4.7703515625,0.004263320006430149,-0.0014232303947210312,-0.0019735880196094513
1761380401049434400,4.780434326171875,0.00038727838546037674,-0.0019572721794247627,-0.0019588121213018894
1761380401059516400,4.790516357421875,-0.0013309931382536888,-0.001868588849902153,-0.0015928938519209623
1761380401069598500,4.800598388671875,-0.0012832451611757278,0.0008392673917114735,-0.0009964940836653113
1761380401079681300,4.810681396484375,0.002268346957862377,-0.001423087902367115,-0.00023802579380571842
1761380401089763300,4.820763427734375,-0.0012059509754180908,-0.0017484799027442932,-0.002156660659238696
1761380401099845400,4.830845458984375,0.00039860326796770096,-0.000471494160592556,0.004022139124572277
1761380401109927400,4.840927490234375,0.0006242832168936729,0.00046508852392435074,0.002258512657135725
1761380401120010500,4.851010498046875,0.00008605793118476868,-0.0029304418712854385,-0.001445678062736988
1761380401130092300,4.86109228515625,0.002045968547463417,0.001968278083950281,-0.0008903247071430087
1761380401140174300,4.87117431640625,-0.0006153285503387451,-0.002361755818128586,0.000325674656778574
1761380401150257400,4.88125732421875,0.0004303399473428726,-0.0004894416779279709,-0.000021617859601974487
1761380401160339500,4.89133935546875,-0.00003464799374341965,0.0005513215437531471,-0.00031935935840010643
1761380401170421200,4.901421142578125,-0.0012839892879128456,0.003378090914338827,0.0010570548474788666
1761380401180504300,4.91150439453125,-0.000008600763976573944,-0.0008342312648892403,0.002063996158540249
1761380401190586400,4.92158642578125,0.0006543444469571114,0.0000026654452085494995,-0.000025270972400903702
1761380401200668400,4.93166845703125,-0.0007214443758130074,0.0021214759908616543,-0.00021568709053099155
1761380401210751200,4.941751220703125,0.0020030243322253227,0.003524173516780138,0.0011342295911163092
1761380401220833300,4.951833251953125,-0.0017496366053819656,0.0018772748298943043,0.000922241946682334
1761380401230915300,4.961915283203125,0.0005461499094963074,0.0014099045656621456,0.002337142126634717
1761380401240998400,4.971998291015625,-0.0006663873791694641,0.002589418552815914,0.00011420156806707382
1761380401251080200,4.982080078125,0.000978865660727024,-0.0030441293492913246,0.0011954768560826778
1761380401261162200,4.992162353515625,0.00035115890204906464,-0.000789497047662735,-0.0022647681180387735
1761380401271245600,5.00224560546875,-0.0010119760408997536,-0.002643418498337269,0.0022053937427699566
1761380401281327400,5.012327392578125,0.0006748698651790619,-0.0008247457444667816,0.0022714403457939625
1761380401291409400,5.022409423828125,0.00046457163989543915,-0.0025478973984718323,0.0026675050612539053
1761380401301492500,5.032492431640625,0.002252352423965931,0.00009875185787677765,-0.0014649219810962677
1761380401311574500,5.042574462890625,0.00015483703464269638,0.001020458061248064,0.0001348296646028757
1761380401321656600,5.052656494140625,0.00032794289290905,0.002611963078379631,-0.000917385215871036
1761380401331739400,5.062739501953125,0.0009141247719526291,-0.00277609471231699,-0.0011187685886397958
1761380401341821400,5.072821533203125,0.003290196880698204,0.001808004453778267,-0.0008031839970499277
1761380401351903500,5.082903564453125,0.000977013260126114,0.001468130387365818,0.0007919624913483858
1761380401361986300,5.092986328125,-0.0006022416055202484,-0.0002283034846186638,0.001942980568856001
1761380401372068400,5.103068359375,0.0006250450387597084,-0.0014641210436820984,-0.000871931784786284
1761380401382150400,5.113150390625,0.0008399616926908493,0.002130080945789814,-0.0010218677343800664
1761380401392233500,5.1232333984375,-0.0018969317898154259,0.0013855812139809132,-0.00006958609446883202
1761380401402315300,5.133315185546875,0.0009760865941643715,-0.00018541794270277023,-0.0015548309311270714
1761380401412397300,5.143397216796875,0.001173233613371849,0.0006745895370841026,0.00048178317956626415
1761380401422480400,5.15348046875,-0.00028484687209129333,0.0026527857407927513,-0.0007054540328681469
1761380401432562400,5.1635625,0.00031771324574947357,0.00022765062749385834,-0.0004185461439192295
1761380401442644500,5.17364453125,0.0021233363077044487,-0.0012770351022481918,-0.0017594477394595742
1761380401452727300,5.183727294921875,-0.0023447759449481964,-0.0009105941280722618,-0.0020010387524962425
1761380401462809300,5.193809326171875,0.0011109421029686928,0.001250827219337225,0.00024107634089887142
1761380401472891400,5.203891357421875,-0.0009686211124062538,-0.00228743813931942,0.0014960973057895899
1761380401482973400,5.213973388671875,-0.0025500059127807617,0.002554721664637327,-0.00254977704025805
1761380401493056300,5.22405615234375,0.0014426009729504585,0.0016417368315160275,-0.0008506588637828827
1761380401503138300,5.23413818359375,-0.001580885611474514,0.0027062022127211094,0.0019411330576986074
1761380401513220400,5.244220458984375,0.0012625157833099365,-0.0016901707276701927,-0.002069735899567604
1761380401523303400,5.254303466796875,-0.0013564368709921837,0.0009903013706207275,0.0001923530362546444
1761380401533385200,5.26438525390625,0.001224949024617672,0.0010191863402724266,0.00031496305018663406
1761380401543467300,5.27446728515625,0.0006007039919495583,-0.00038137007504701614,-0.0004901106003671885
1761380401553550600,5.284550537109375,-0.0020316308364272118,-0.00038345810025930405,-0.0013921563513576984
1761380401563632400,5.29463232421875,0.002655000425875187,-0.0004367213696241379,-0.0013109298888593912
1761380401573714400,5.30471435546875,0.00112881138920784,0.00016406364738941193,-0.001981487963348627
1761380401583797500,5.314797607421875,0.00012160371989011765,-0.0022751251235604286,-0.0012424607994034886
1761380401593879600,5.324879638671875,-0.0015615001320838928,0.0005823951214551926,-0.002006456721574068
1761380401603961300,5.33496142578125,-0.0005990341305732727,0.0016196966171264648,0.0006452526431530714
1761380401614044400,5.34504443359375,0.0020281411707401276,0.0011232034303247929,-0.0004605730064213276
1761380401624126500,5.35512646484375,0.0019125593826174736,0.0016694176010787487,-0.0008792218286544085
1761380401634208500,5.36520849609375,0.0006376355886459351,0.0004557892680168152,0.0013419927563518286
1761380401644291300,5.375291259765625,-0.0019640065729618073,-0.00020973477512598038,0.0005441098473966122
1761380401654373400,5.385373291015625,-0.0030189277604222298,-0.0007159831002354622,-0.00004136399365961552
1761380401664455400,5.395455322265625,-0.00010090228170156479,-0.001237696036696434,0.0004529186990112066
1761380401674538500,5.40553857421875,-0.0017764698714017868,0.0012738583609461784,-0.00018305168487131596
1761380401684620300,5.415620361328125,-0.0012627467513084412,-0.0006529390811920166,-0.0019348791101947427
1761380401694702300,5.425702392578125,-0.00118316151201725,0.0037281126715242863,0.00005115312524139881
1761380401704785400,5.435785400390625,0.0004466930404305458,-0.0006061820313334465,0.00009802472777664661
1761380401714867500,5.445867431640625,-0.0015119025483727455,0.0013844799250364304,-0.0015516416169703007
1761380401724949200,5.45594921875,-0.00006207730621099472,-0.0016355449333786964,-0.0026009271387010813
1761380401735032300,5.4660322265625,0.0004208609461784363,0.0025870571844279766,0.0003130445256829262
1761380401745114400,5.4761142578125,0.0008570868521928787,-0.001084643416106701,-0.0007572799222543836
1761380401755196400,5.486196533203125,-0.00004759244620800018,-0.0005554491654038429,-0.002412572968751192
1761380401765279200,5.496279296875,-0.0038053123280406,-0.0011325562372803688,0.0021169313695281744
1761380401775361300,5.506361328125,-0.0009253034368157387,0.0022655846551060677,-0.00000970577821135521
1761380401785443300,5.516443359375,-0.00005311798304319382,0.0005944510921835899,0.0005876412615180016
1761380401795526400,5.5265263671875,0.003801630809903145,0.0013865884393453598,-0.0018080435693264008
1761380401805608200,5.536608154296875,0.00042634084820747375,0.00047578755766153336,0.0020759108010679483
1761380401815690200,5.546690185546875,0.0004520481452345848,-0.0016095321625471115,0.0010788827203214169
1761380401825772300,5.556772216796875,-0.0005996339023113251,-0.0011099232360720634,0.0003630251158028841
1761380401835855400,5.56685546875,-0.0003530699759721756,-0.0008195098489522934,-0.0012558016460388899
1761380401845937400,5.5769375,-0.0023278044536709785,0.00048437342047691345,-0.0006749662570655346
1761380401856019500,5.58701953125,-0.0005253637209534645,0.0005576405674219131,0.0009532761760056019
1761380401866102500,5.5971025390625,0.001932467333972454,0.0005768155679106712,-0.0021493062376976013
1761380401876184600,5.6071845703125,-0.0027492623776197433,0.0006135767325758934,0.0005948320031166077
1761380401886266400,5.617266357421875,0.00169368926435709,0.00037895236164331436,-0.0011474080383777618
1761380401896349400,5.627349365234375,0.0009390776976943016,-0.001434236764907837,0.0000018561258912086487
1761380401906431500,5.637431396484375,-0.000030312687158584595,-0.0019551506265997887,-0.00004927651025354862
1761380401916513500,5.647513427734375,-0.000629945658147335,-0.0004547601565718651,0.0009401126299053431
1761380401926596400,5.657596435546875,0.0011312030255794525,-0.0006997706368565559,0.0011840581428259611
1761380401936678400,5.667678466796875,0.00010504759848117828,-0.0036114752292633057,-0.0008264463394880295
1761380401946760400,5.677760498046875,-0.0006177341565489769,-0.0009416565299034119,-0.00005652662366628647
1761380401956843300,5.68784326171875,0.0004838220775127411,0.0017338395118713379,0.002660060301423073
1761380401966929400,5.697929443359375,-0.001647505909204483,0.0012504756450653076,-0.0008909988682717085
1761380401977011500,5.708011474609375,0.00038658827543258667,-0.004041558131575584,0.0017289223615080118
1761380401987094500,5.718094482421875,0.00033758580684661865,0.001083694864064455,0.0001544614788144827
1761380401997176300,5.72817626953125,0.0011627031490206718,-0.0013891737908124924,-0.0008969401242211461
1761380402007258400,5.73825830078125,-0.001364104449748993,-0.0014323173090815544,-0.00045725214295089245
1761380402017341400,5.748341552734375,0.00004975032061338425,-0.0007193442434072495,0.0003910902887582779
1761380402027423500,5.758423583984375,-0.000005909241735935211,0.0010087806731462479,0.0011120080016553402
1761380402037505300,5.76850537109375,0.0003259023651480675,0.002600922714918852,0.0004890733398497105
1761380402047588400,5.77858837890625,0.0009448211640119553,0.0010160752572119236,0.002996439579874277
1761380402057670400,5.78867041015625,0.00012781471014022827,-0.0012691495940089226,0.0008664673659950495
1761380402067752400,5.79875244140625,0.000006373971700668335,-0.000873936340212822,-0.0018680663779377937
1761380402077835300,5.808835205078125,-0.0019513769075274467,0.0014124303124845028,0.001030435087159276
1761380402087917300,5.818917236328125,0.0010899528861045837,0.0008768686093389988,0.0010959489736706018
1761380402097999400,5.828999267578125,-0.0021785367280244827,-0.001723085530102253,0.001772755291312933
1761380402108081400,5.839081298828125,-0.000772387720644474,0.0016857609152793884,0.0017655650153756142
1761380402118164200,5.849164306640625,0.0005272431299090385,-0.0006693312898278236,0.001009286381304264
1761380402128246300,5.859246337890625,-0.001197153702378273,-0.00043603871017694473,0.0013485730160027742
1761380402138328300,5.869328369140625,-0.003786151297390461,-0.0006562899798154831,0.0022476348094642162
1761380402148411400,5.879411376953125,-0.0009243180975317955,0.0026351111009716988,-0.0016339223366230726
1761380402158493200,5.8894931640625,0.0006920089945197105,-0.0033653276041150093,-0.001721617765724659
1761380402168575200,5.8995751953125,0.0009079910814762115,0.0012648445554077625,0.000700260978192091
1761380402178658600,5.909658447265625,0.0015474678948521614,0.0007299948483705521,0.0009205380920320749
1761380402188740600,5.91974072265625,-0.001356443390250206,0.0016274801455438137,-0.002251020399853587
1761380402198822400,5.929822509765625,-0.0004456518217921257,-0.0012731272727251053,-0.0001861564815044403
1761380402208905500,5.939905517578125,-0.0003018416464328766,-0.0009175948798656464,-0.00010759313590824604
1761380402218987500,5.949987548828125,-0.0013821879401803017,-0.0011157505214214325,0.0013134684413671494
1761380402229069600,5.960069580078125,0.0011227810755372047,-0.00011067371815443039,-0.0019076250027865171
1761380402239152400,5.97015234375,-0.00147254578769207,-0.002226964570581913,-0.001144864596426487
1761380402249234400,5.980234375,0.00012002512812614441,0.0016173087060451508,0.000994452740997076
1761380402259316500,5.99031640625,0.0009432835504412651,0.0002255961298942566,0.002633139956742525
1761380402269399300,6.0003994140625,0.0008111912757158279,0.0023356187157332897,-0.0008659876184538007
1761380402279481300,6.0104814453125,-0.0009296154603362083,-0.0015167444944381714,0.0002797276247292757
1761380402289563400,6.0205634765625,-0.0019858255982398987,0.00037649646401405334,0.00034604035317897797
1761380402299646500,6.030646484375,-0.0017698537558317184,0.00126606784760952,-0.0006994240684434772
1761380402309728500,6.040728515625,-0.0008215019479393959,-0.000407462939620018,-0.0008437674259766936
1761380402319810300,6.050810302734375,-0.00036283768713474274,-0.0019100075587630272,0.00020070746541023254
1761380402329893400,6.060893310546875,0.0002209274098277092,-0.00126578938215971,0.0005093677900731564
1761380402339975400,6.070975341796875,0.0013803569599986076,0.000576309859752655,-0.0019309129565954208
1761380402350057500,6.081057373046875,-0.0000220639631152153,-0.0018160073086619377,-0.0009016011608764529
1761380402360140300,6.091140380859375,0.0006301198154687881,-0.0003120759502053261,0.0005457515362650156
1761380402370222300,6.101222412109375,0.0007984312251210213,-0.0015126289799809456,0.001754293916746974
1761380402380304400,6.111304443359375,0.0005695866420865059,-0.0005266210064291954,-0.0011517740786075592
1761380402390387200,6.12138720703125,0.000884639099240303,0.0007676752284169197,-0.0028247719164937735
1761380402400469200,6.13146923828125,-0.0019165724515914917,0.0005402872338891029,0.0012756544165313244
1761380402410551300,6.14155126953125,0.001553526148200035,-0.001453089527785778,0.001013066852465272
1761380402420633300,6.15163330078125,0.001018483191728592,0.0015228581614792347,-0.0012602682691067457
1761380402430716200,6.161716064453125,-0.000702984631061554,-0.0006273780018091202,0.0004715854302048683
1761380402440798200,6.171798095703125,0.00015403982251882553,0.0018316768109798431,0.0007419711910188198
1761380402450880300,6.18188037109375,-0.0019570477306842804,-0.0006186971440911293,-0.001810136018320918
1761380402460963600,6.191963623046875,-0.0010508224368095398,0.0017307661473751068,-0.0005844150437042117
1761380402471045400,6.20204541015625,-0.0006140638142824173,-0.001456771045923233,-0.0029943096451461315
1761380402481127400,6.21212744140625,0.0003098640590906143,0.002108071930706501,-0.0029548178426921368
1761380402491210500,6.22221044921875,0.0015666093677282333,-0.0012344615533947945,-0.0004128306172788143
1761380402501292500,6.23229248046875,0.0017547998577356339,-0.0008320314809679985,0.0005193741526454687
1761380402511374600,6.24237451171875,0.0007790178060531616,-0.0014136657118797302,0.0016309774946421385
1761380402521457400,6.25245751953125,-0.0006454382091760635,0.0025123553350567818,-0.004914867226034403
1761380402531539500,6.26253955078125,0.0009428709745407104,0.00005851872265338898,-0.00037018279545009136
1761380402541621500,6.27262158203125,0.002888418734073639,0.0019262698478996754,-0.000675880815833807
1761380402551704300,6.282704345703125,-0.0022831736132502556,-0.002463950775563717,0.00012786127626895905
1761380402561786400,6.292786376953125,0.0000848080962896347,-0.001008613035082817,0.0006282597314566374
1761380402571868400,6.302868408203125,-0.0002494184300303459,0.0012657265178859234,-0.0030759309884160757
1761380402581951500,6.312951416015625,0.0006816480308771133,0.0011114547960460186,0.001324852928519249
1761380402592033300,6.323033203125,-0.0009069275110960007,0.0011237054131925106,-0.00015932670794427395
1761380402602115300,6.333115234375,-0.00047414563596248627,0.0009772805497050285,0.001938653877004981
1761380402612198400,6.343198486328125,-0.0016171736642718315,0.0025655897334218025,-0.001625188160687685
1761380402622280400,6.353280517578125,-0.0005111359059810638,0.001515212468802929,0.002044232562184334
1761380402632362200,6.3633623046875,0.0020420365035533905,0.0006254501640796661,0.0006346213631331921
1761380402642445300,6.3734453125,0.0002825520932674408,-0.0023755962029099464,0.00016100239008665085
1761380402652527400,6.38352734375,0.0022064195945858955,-0.0006368188187479973,0.001468081958591938
1761380402662609400,6.393609375,0.0010143741965293884,-0.00007034558802843094,-0.0015319499652832747
1761380402672691500,6.40369140625,-0.0009084278717637062,-0.0009329440072178841,0.0011959259863942862
1761380402682774300,6.413774169921875,-0.0007334407418966293,-0.0013697687536478043,0.00014805607497692108
1761380402692856300,6.423856201171875,-0.00000906083732843399,-0.0001806681975722313,0.0018791109323501587
1761380402702938400,6.4339384765625,-0.0010772626847028732,0.003694197628647089,0.00003265193663537502
1761380402713021200,6.444021240234375,0.0003126412630081177,0.00014713313430547714,-0.0019202440744265914
1761380402723103200,6.454103271484375,-0.0007664132863283157,0.002581171691417694,0.00001535937190055847
1761380402733185300,6.464185302734375,-0.0005051577463746071,-0.001029008999466896,-0.0005897108931094408
1761380402743268600,6.4742685546875,0.00035242829471826553,-0.0014790184795856476,-0.0029717658180743456
1761380402753350400,6.484350341796875,-0.001310715451836586,0.0018864180892705917,-0.001036446657963097
1761380402763432400,6.494432373046875,-0.0011378629133105278,-0.0005198614671826363,0.003335166024044156
1761380402773515500,6.504515625,0.001753264106810093,-0.002654384821653366,-0.0028428351506590843
1761380402783597600,6.51459765625,0.003072584979236126,-0.0016370471566915512,-0.0017253198893740773
1761380402793679400,6.524679443359375,0.001675490289926529,0.0008913576602935791,0.0022238814271986485
1761380402803762400,6.534762451171875,-0.00018930435180664062,0.06187571957707405,0.04054876044392586
1761380402813844500,6.544844482421875,0.002287968061864376,0.08973770588636398,0.06062659993767738
1761380402823926500,6.554926513671875,0.003374788910150528,0.08716826140880585,0.05785631388425827
1761380402834009300,6.56500927734375,0.00042081158608198166,0.06864650547504425,0.0430038645863533
1761380402844091400,6.57509130859375,0.0023486390709877014,0.037127166986465454,0.022040730342268944
1761380402854173400,6.58517333984375,0.0014322446659207344,-0.058920539915561676,-0.03622763976454735
1761380402864256300,6.59525634765625,-0.0012795701622962952,-0.22884956002235413,-0.14653745293617249
1761380402874338300,6.60533837890625,-0.0018787812441587448,-0.20273512601852417,-0.1309286653995514
1761380402884420400,6.61542041015625,0.0012970054522156715,0.11665007472038269,0.07623513042926788
1761380402894503400,6.62550341796875,0.0009920727461576462,0.15424033999443054,0.09911461174488068
