time,seconds_elapsed,z,y,x
1761379822987388400,0.065388427734375,-0.940216064453125,-0.3685455322265625,0.10540771484375
1761379822997471200,0.07547119140625,-0.939910888671875,-0.364776611328125,0.08929443359375
1761379823007554300,0.08555419921875,-0.923614501953125,-0.366119384765625,0.0882720947265625
1761379823017637400,0.095637451171875,-0.9075927734375,-0.378021240234375,0.1033935546875
1761379823027720200,0.10572021484375,-0.8947906494140625,-0.38604736328125,0.12164306640625
1761379823037803500,0.115803466796875,-0.8887786865234375,-0.386993408203125,0.1364593505859375
1761379823047886300,0.12588623046875,-0.8936309814453125,-0.386444091796875,0.1431121826171875
1761379823057969400,0.135969482421875,-0.9030609130859375,-0.383056640625,0.14007568359375
1761379823068052200,0.14605224609375,-0.90985107421875,-0.3750762939453125,0.1375732421875
1761379823078135300,0.15613525390625,-0.907745361328125,-0.371734619140625,0.1367340087890625
1761379823088218000,0.166218017578125,-0.9047698974609375,-0.3686981201171875,0.1399993896484375
1761379823098301400,0.176301513671875,-0.8972015380859375,-0.3761749267578125,0.1432647705078125
1761379823108384300,0.18638427734375,-0.882568359375,-0.3813934326171875,0.14239501953125
1761379823118467300,0.19646728515625,-0.8746490478515625,-0.380767822265625,0.1436004638671875
1761379823128551200,0.20655126953125,-0.8675994873046875,-0.3927459716796875,0.1516265869140625
1761379823138634200,0.21663427734375,-0.871002197265625,-0.407623291015625,0.159515380859375
1761379823148717300,0.22671728515625,-0.8741302490234375,-0.41009521484375,0.1597747802734375
1761379823158800400,0.23680029296875,-0.8834381103515625,-0.4069671630859375,0.15606689453125
1761379823168883200,0.24688330078125,-0.8966827392578125,-0.4059600830078125,0.153106689453125
1761379823178966300,0.25696630859375,-0.9037628173828125,-0.3992767333984375,0.1472625732421875
1761379823189049300,0.26704931640625,-0.9132843017578125,-0.3921356201171875,0.1350250244140625
1761379823199132200,0.277132080078125,-0.927581787109375,-0.3848114013671875,0.1230621337890625
1761379823209215500,0.287215576171875,-0.9313201904296875,-0.38189697265625,0.1206512451171875
1761379823219298300,0.29729833984375,-0.9286041259765625,-0.380645751953125,0.123504638671875
1761379823229381400,0.30738134765625,-0.9297943115234375,-0.378173828125,0.1281890869140625
1761379823239464200,0.317464111328125,-0.9352874755859375,-0.3739471435546875,0.1297607421875
1761379823249547300,0.32754736328125,-0.933319091796875,-0.3697967529296875,0.13079833984375
1761379823259630000,0.337630126953125,-0.926513671875,-0.3698272705078125,0.1317596435546875
1761379823269713400,0.34771337890625,-0.917083740234375,-0.3724365234375,0.1335906982421875
1761379823279796500,0.35779638671875,-0.906707763671875,-0.377471923828125,0.13482666015625
1761379823289879300,0.36787939453125,-0.8973388671875,-0.3782958984375,0.1332244873046875
1761379823299962400,0.37796240234375,-0.887451171875,-0.38104248046875,0.1320953369140625
1761379823310045200,0.388045166015625,-0.8736724853515625,-0.3871917724609375,0.132171630859375
1761379823320128300,0.398128173828125,-0.87310791015625,-0.39263916015625,0.1278839111328125
1761379823330211300,0.40821142578125,-0.871978759765625,-0.3969573974609375,0.130462646484375
1761379823340294400,0.41829443359375,-0.87353515625,-0.3976593017578125,0.128509521484375
1761379823350377200,0.428377197265625,-0.8735198974609375,-0.399627685546875,0.1179046630859375
1761379823360464600,0.438464599609375,-0.862640380859375,-0.398223876953125,0.1134490966796875
1761379823370547500,0.44854736328125,-0.8610687255859375,-0.401458740234375,0.11724853515625
1761379823380630500,0.458630615234375,-0.8615875244140625,-0.4088287353515625,0.122528076171875
1761379823390713600,0.468713623046875,-0.862060546875,-0.4076690673828125,0.120758056640625
1761379823400796700,0.478796630859375,-0.869537353515625,-0.4033203125,0.114593505859375
1761379823410879500,0.48887939453125,-0.8852081298828125,-0.406005859375,0.1117095947265625
1761379823420962600,0.498962646484375,-0.9027252197265625,-0.406341552734375,0.1022491455078125
1761379823431045600,0.509045654296875,-0.912353515625,-0.398895263671875,0.090972900390625
1761379823441128400,0.51912841796875,-0.921142578125,-0.3915252685546875,0.0850830078125
1761379823451211800,0.529211669921875,-0.9313812255859375,-0.3863372802734375,0.0823974609375
1761379823461295600,0.539295654296875,-0.93914794921875,-0.38323974609375,0.08074951171875
1761379823471378700,0.549378662109375,-0.9431610107421875,-0.3791046142578125,0.0761871337890625
1761379823481461500,0.55946142578125,-0.9500579833984375,-0.3724822998046875,0.073577880859375
1761379823491544800,0.569544921875,-0.95556640625,-0.3753204345703125,0.0758209228515625
1761379823501627600,0.579627685546875,-0.9511566162109375,-0.3868255615234375,0.08544921875
1761379823511710700,0.589710693359375,-0.958526611328125,-0.3932647705078125,0.0926513671875
1761379823521793500,0.59979345703125,-0.9711761474609375,-0.388214111328125,0.0916900634765625
1761379823531876600,0.609876708984375,-0.997711181640625,-0.36920166015625,0.0808563232421875
1761379823541959400,0.61995947265625,-1.0316925048828125,-0.353363037109375,0.0579376220703125
1761379823552042800,0.630042724609375,-1.04437255859375,-0.341583251953125,0.029876708984375
1761379823562125600,0.64012548828125,-1.0350189208984375,-0.3258819580078125,-0.000732421875
1761379823572208600,0.650208740234375,-1.0171356201171875,-0.308929443359375,-0.0123291015625
1761379823582291700,0.660291748046875,-1.00360107421875,-0.3033905029296875,0.000213623046875
1761379823592374500,0.67037451171875,-0.9884796142578125,-0.3093719482421875,0.026947021484375
1761379823602457600,0.68045751953125,-0.9759979248046875,-0.3218231201171875,0.05206298828125
1761379823612540700,0.690540771484375,-0.96636962890625,-0.33123779296875,0.0574798583984375
1761379823622623700,0.700623779296875,-0.9743804931640625,-0.339935302734375,0.06219482421875
1761379823632706600,0.71070654296875,-0.9966278076171875,-0.3372650146484375,0.0672454833984375
1761379823642789600,0.72078955078125,-1.0102386474609375,-0.3395538330078125,0.061004638671875
1761379823652872400,0.73087255859375,-1.0182647705078125,-0.3393707275390625,0.0371856689453125
1761379823662955500,0.74095556640625,-1.014739990234375,-0.3250579833984375,0.0029296875
1761379823673038800,0.751038818359375,-1.0125274658203125,-0.3069915771484375,-0.0218353271484375
1761379823683121700,0.76112158203125,-1.009429931640625,-0.2956695556640625,-0.029815673828125
1761379823693204700,0.771204833984375,-0.9936370849609375,-0.289581298828125,-0.032196044921875
1761379823703287600,0.78128759765625,-0.9716949462890625,-0.284759521484375,-0.0277557373046875
1761379823713370600,0.79137060546875,-0.9409637451171875,-0.288299560546875,-0.0119781494140625
1761379823723453400,0.801453369140625,-0.9107666015625,-0.297821044921875,0.0119171142578125
1761379823733536800,0.811536865234375,-0.8825836181640625,-0.306884765625,0.034576416015625
1761379823743619600,0.82161962890625,-0.8620147705078125,-0.3159332275390625,0.0502166748046875
1761379823753702700,0.83170263671875,-0.8577423095703125,-0.32635498046875,0.059051513671875
1761379823763785700,0.84178564453125,-0.8531494140625,-0.3328399658203125,0.0698394775390625
1761379823773868500,0.85186865234375,-0.864990234375,-0.33038330078125,0.068359375
1761379823783951600,0.86195166015625,-0.8942718505859375,-0.3448333740234375,0.07171630859375
1761379823794034700,0.87203466796875,-0.9077301025390625,-0.347320556640625,0.0592193603515625
1761379823804117800,0.88211767578125,-0.915802001953125,-0.3339080810546875,0.035797119140625
1761379823814201600,0.89220166015625,-0.9202728271484375,-0.32623291015625,0.0169219970703125
1761379823824284700,0.90228466796875,-0.92095947265625,-0.3220062255859375,0.0144195556640625
1761379823834367500,0.912367431640625,-0.91748046875,-0.3197784423828125,0.023468017578125
1761379823844450800,0.922450927734375,-0.9081573486328125,-0.3214111328125,0.03765869140625
1761379823854533600,0.93253369140625,-0.8974609375,-0.3256072998046875,0.054046630859375
1761379823864616700,0.94261669921875,-0.8857421875,-0.331085205078125,0.0691375732421875
1761379823874699500,0.952699462890625,-0.877655029296875,-0.3386688232421875,0.0818634033203125
1761379823884782600,0.962782470703125,-0.8658599853515625,-0.347076416015625,0.088714599609375
1761379823894865400,0.972865478515625,-0.8581085205078125,-0.352081298828125,0.090057373046875
1761379823904948700,0.98294873046875,-0.854522705078125,-0.35723876953125,0.0915679931640625
1761379823915031600,0.993031494140625,-0.8526153564453125,-0.3613739013671875,0.0911407470703125
1761379823925114600,1.003114501953125,-0.848052978515625,-0.36431884765625,0.0887298583984375
1761379823935197700,1.01319775390625,-0.8489227294921875,-0.3709716796875,0.0892333984375
1761379823945280500,1.023280517578125,-0.8470458984375,-0.376739501953125,0.0854339599609375
1761379823955363600,1.033363525390625,-0.8470458984375,-0.3798065185546875,0.08319091796875
1761379823965446700,1.04344677734375,-0.849456787109375,-0.38311767578125,0.08148193359375
1761379823975529700,1.05352978515625,-0.8636016845703125,-0.38446044921875,0.0785675048828125
1761379823985612500,1.063612548828125,-0.8700103759765625,-0.380096435546875,0.07135009765625
1761379823995695600,1.073695556640625,-0.8791656494140625,-0.3740234375,0.0679473876953125
1761379824005778400,1.0837783203125,-0.8842010498046875,-0.3712921142578125,0.062713623046875
1761379824015861500,1.093861572265625,-0.8923492431640625,-0.365966796875,0.06219482421875
1761379824025944800,1.10394482421875,-0.8988800048828125,-0.3618621826171875,0.0638580322265625
1761379824036027600,1.114027587890625,-0.905914306640625,-0.36248779296875,0.06707763671875
1761379824046110700,1.12411083984375,-0.9124298095703125,-0.36688232421875,0.0717620849609375
1761379824056193500,1.134193603515625,-0.917388916015625,-0.3727569580078125,0.0749664306640625
1761379824066276600,1.144276611328125,-0.9237823486328125,-0.3783416748046875,0.07781982421875
1761379824076359400,1.154359375,-0.927703857421875,-0.3848114013671875,0.074554443359375
1761379824086442800,1.16444287109375,-0.933349609375,-0.3857879638671875,0.0705413818359375
1761379824096525600,1.174525634765625,-0.9362945556640625,-0.386810302734375,0.0676727294921875
1761379824106608600,1.184608642578125,-0.940826416015625,-0.3880615234375,0.065673828125
1761379824116691700,1.194691650390625,-0.9421844482421875,-0.3885650634765625,0.0629119873046875
1761379824126774500,1.2047744140625,-0.9408416748046875,-0.3889923095703125,0.0603485107421875
1761379824136858600,1.214858642578125,-0.94146728515625,-0.3915863037109375,0.0634307861328125
1761379824146941700,1.224941650390625,-0.94329833984375,-0.3964385986328125,0.0655975341796875
1761379824157024500,1.2350244140625,-0.94757080078125,-0.3983154296875,0.067962646484375
1761379824167107600,1.245107666015625,-0.95306396484375,-0.3983917236328125,0.068511962890625
1761379824177190700,1.255190673828125,-0.959625244140625,-0.397918701171875,0.0684051513671875
1761379824187273500,1.2652734375,-0.9658355712890625,-0.393341064453125,0.0696258544921875
1761379824197356800,1.275356689453125,-0.9720611572265625,-0.3880767822265625,0.0715789794921875
1761379824207439600,1.285439697265625,-0.9778594970703125,-0.3828582763671875,0.0754547119140625
1761379824217522700,1.295522705078125,-0.9846343994140625,-0.3764190673828125,0.0797271728515625
1761379824227605500,1.30560546875,-0.9915618896484375,-0.3697662353515625,0.0824737548828125
1761379824237688600,1.3156884765625,-0.9998321533203125,-0.36297607421875,0.0826873779296875
1761379824247771400,1.325771484375,-1.0097808837890625,-0.354888916015625,0.0848388671875
1761379824257854700,1.335854736328125,-1.015350341796875,-0.34771728515625,0.0877838134765625
1761379824267937500,1.3459375,-1.0178070068359375,-0.339874267578125,0.091278076171875
1761379824278020600,1.3560205078125,-1.0134124755859375,-0.339019775390625,0.09893798828125
1761379824288103700,1.366103759765625,-0.992706298828125,-0.3525390625,0.118133544921875
1761379824298186500,1.3761865234375,-0.9771575927734375,-0.368011474609375,0.1356658935546875
1761379824308269600,1.38626953125,-0.9735565185546875,-0.37701416015625,0.1430206298828125
1761379824318352600,1.3963525390625,-0.962738037109375,-0.3781890869140625,0.130584716796875
1761379824328435700,1.406435791015625,-0.988372802734375,-0.384063720703125,0.1310272216796875
1761379824338518500,1.4165185546875,-1.0026397705078125,-0.4021453857421875,0.1265716552734375
1761379824348601600,1.4266015625,-0.9949798583984375,-0.3960113525390625,0.10809326171875
1761379824358680000,1.43668017578125,-0.9835357666015625,-0.388092041015625,0.089630126953125
1761379824368763000,1.446762939453125,-0.9923553466796875,-0.376251220703125,0.0912017822265625
1761379824378846000,1.456845947265625,-1.00640869140625,-0.363616943359375,0.1006927490234375
1761379824388928800,1.4669287109375,-1.0162506103515625,-0.34210205078125,0.098114013671875
1761379824399012000,1.47701220703125,-1.027923583984375,-0.3166961669921875,0.0931854248046875
1761379824409095200,1.48709521484375,-1.0337677001953125,-0.2913970947265625,0.0930633544921875
1761379824419178000,1.497177978515625,-1.030364990234375,-0.2688446044921875,0.0893707275390625
1761379824429261000,1.507260986328125,-1.0090484619140625,-0.2447357177734375,0.0875396728515625
1761379824439343900,1.51734375,-0.9671173095703125,-0.2308197021484375,0.095306396484375
1761379824449427000,1.527427001953125,-0.9228668212890625,-0.2390594482421875,0.1112213134765625
1761379824459511000,1.537510986328125,-0.88250732421875,-0.252716064453125,0.131591796875
1761379824469594000,1.547593994140625,-0.8582611083984375,-0.2541656494140625,0.1431732177734375
1761379824479677000,1.557677001953125,-0.8408050537109375,-0.2702178955078125,0.148834228515625
1761379824489760000,1.567760009765625,-0.841522216796875,-0.29681396484375,0.157684326171875
1761379824499842800,1.5778427734375,-0.8540802001953125,-0.3016204833984375,0.163848876953125
1761379824509926100,1.587926025390625,-0.8787689208984375,-0.3023223876953125,0.162811279296875
1761379824520009000,1.598009033203125,-0.90069580078125,-0.3093719482421875,0.14837646484375
1761379824530092000,1.608092041015625,-0.929595947265625,-0.3081817626953125,0.1170654296875
1761379824540174800,1.6181748046875,-0.9567108154296875,-0.300628662109375,0.0785675048828125
1761379824550258000,1.6282578125,-0.9882049560546875,-0.292449951171875,0.0432281494140625
1761379824560341000,1.638341064453125,-1.009429931640625,-0.28460693359375,0.0208892822265625
1761379824570424000,1.648424072265625,-1.012298583984375,-0.276702880859375,0.0093231201171875
1761379824580507100,1.658507080078125,-1.0016632080078125,-0.2728729248046875,0.0145416259765625
1761379824590590000,1.66858984375,-0.9898223876953125,-0.270111083984375,0.0324859619140625
1761379824600673000,1.678673095703125,-0.9769134521484375,-0.2686004638671875,0.0587310791015625
1761379824610755800,1.688755859375,-0.9613800048828125,-0.270355224609375,0.0836944580078125
1761379824620839000,1.6988388671875,-0.9451446533203125,-0.277191162109375,0.1019134521484375
1761379824630922000,1.708921875,-0.928253173828125,-0.284393310546875,0.1105499267578125
1761379824641005000,1.719005126953125,-0.904998779296875,-0.297607421875,0.115081787109375
1761379824651088000,1.729087890625,-0.881744384765625,-0.31610107421875,0.115234375
1761379824661171000,1.7391708984375,-0.853759765625,-0.319610595703125,0.119598388671875
1761379824671254000,1.74925390625,-0.8292236328125,-0.3167877197265625,0.1201934814453125
1761379824681336800,1.7593369140625,-0.8190155029296875,-0.334136962890625,0.1240692138671875
1761379824691420200,1.769420166015625,-0.80975341796875,-0.3416748046875,0.1200408935546875
1761379824701503000,1.7795029296875,-0.80609130859375,-0.3401336669921875,0.1117706298828125
1761379824711586000,1.7895859375,-0.809326171875,-0.347686767578125,0.1048126220703125
1761379824721668900,1.7996689453125,-0.8201446533203125,-0.35784912109375,0.0958251953125
1761379824731752000,1.809751953125,-0.832275390625,-0.360443115234375,0.08343505859375
1761379824741834800,1.819834716796875,-0.8455047607421875,-0.3615875244140625,0.0722198486328125
1761379824751918000,1.82991796875,-0.859375,-0.361328125,0.0638275146484375
1761379824762001200,1.840001220703125,-0.86834716796875,-0.361480712890625,0.0557098388671875
1761379824772084000,1.850083984375,-0.8745880126953125,-0.36138916015625,0.0491485595703125
1761379824782167000,1.8601669921875,-0.8802947998046875,-0.366485595703125,0.0467987060546875
1761379824792251000,1.8702509765625,-0.8871307373046875,-0.373504638671875,0.0442047119140625
1761379824802334000,1.880333984375,-0.8872528076171875,-0.37933349609375,0.0422210693359375
1761379824812417000,1.8904169921875,-0.88323974609375,-0.381683349609375,0.0416259765625
1761379824822500000,1.9005,-0.881866455078125,-0.3830413818359375,0.0442047119140625
1761379824832583000,1.9105830078125,-0.882293701171875,-0.383056640625,0.049560546875
1761379824842666000,1.920666015625,-0.8887786865234375,-0.3820343017578125,0.0550994873046875
1761379824852748800,1.930748779296875,-0.897247314453125,-0.3778533935546875,0.060638427734375
1761379824862832000,1.94083203125,-0.9090576171875,-0.3731689453125,0.0614471435546875
1761379824872915000,1.9509150390625,-0.916839599609375,-0.36883544921875,0.061798095703125
1761379824882998000,1.960998046875,-0.9206085205078125,-0.3663787841796875,0.0628509521484375
1761379824893080800,1.971080810546875,-0.9246368408203125,-0.36602783203125,0.0625762939453125
1761379824903164000,1.981163818359375,-0.9312591552734375,-0.3654937744140625,0.0616912841796875
1761379824913247000,1.9912470703125,-0.936737060546875,-0.3671112060546875,0.0591278076171875
1761379824923330000,2.001330078125,-0.939483642578125,-0.364105224609375,0.0540924072265625
1761379824933413000,2.0114130859375,-0.9390106201171875,-0.3606109619140625,0.0475921630859375
1761379824943496000,2.021495849609375,-0.9349365234375,-0.362060546875,0.045654296875
1761379824953579000,2.0315791015625,-0.9240875244140625,-0.3765106201171875,0.0587921142578125
1761379824963661800,2.041661865234375,-0.9132843017578125,-0.4132843017578125,0.091766357421875
1761379824973745000,2.051744873046875,-0.9578094482421875,-0.4227752685546875,0.118743896484375
1761379824983828000,2.061827880859375,-1.0010833740234375,-0.4105377197265625,0.1135406494140625
1761379824993911000,2.0719111328125,-1.0401153564453125,-0.3801727294921875,0.0654296875
1761379825003994000,2.081994140625,-1.0847930908203125,-0.3495025634765625,0.0211639404296875
1761379825014077000,2.092076904296875,-1.0898590087890625,-0.3386383056640625,0.00811767578125
1761379825024160000,2.102159912109375,-1.046875,-0.376373291015625,0.035736083984375
1761379825034242800,2.112242919921875,-1.0351409912109375,-0.390380859375,0.0719451904296875
1761379825044326100,2.122326171875,-1.0674591064453125,-0.3814239501953125,0.10699462890625
1761379825054409000,2.132408935546875,-1.0978240966796875,-0.368865966796875,0.08355712890625
1761379825064492000,2.142491943359375,-1.120452880859375,-0.3299560546875,0.0311737060546875
1761379825074574800,2.152574951171875,-1.145111083984375,-0.2850189208984375,-0.03411865234375
1761379825084658000,2.162657958984375,-1.1650543212890625,-0.2381134033203125,-0.0600433349609375
1761379825094741000,2.172740966796875,-1.14434814453125,-0.194427490234375,-0.048858642578125
1761379825104825000,2.1828251953125,-1.0825347900390625,-0.16015625,-0.0176239013671875
1761379825114908000,2.192907958984375,-1.006072998046875,-0.144073486328125,0.02508544921875
1761379825124991000,2.202990966796875,-0.956756591796875,-0.154022216796875,0.0806121826171875
1761379825135073800,2.21307373046875,-0.9420623779296875,-0.1889190673828125,0.127288818359375
1761379825145157000,2.2231572265625,-0.9266815185546875,-0.2165069580078125,0.143157958984375
1761379825155240000,2.233239990234375,-0.9173583984375,-0.223114013671875,0.1407623291015625
1761379825165323000,2.243322998046875,-0.916046142578125,-0.227569580078125,0.1289215087890625
1761379825175406000,2.253406005859375,-0.9284515380859375,-0.226165771484375,0.11712646484375
1761379825185489000,2.263489013671875,-0.9444427490234375,-0.2150726318359375,0.1018524169921875
1761379825195572000,2.273572021484375,-0.9606781005859375,-0.2026519775390625,0.078216552734375
1761379825205655000,2.283655029296875,-0.9897308349609375,-0.17913818359375,0.0402984619140625
1761379825215738000,2.293738037109375,-1.04193115234375,-0.16009521484375,0.008758544921875
1761379825225821000,2.303821044921875,-1.0911865234375,-0.156219482421875,-0.0190582275390625
1761379825235904000,2.313904052734375,-1.1044464111328125,-0.1445770263671875,-0.0471038818359375
1761379825245986800,2.32398681640625,-1.1054229736328125,-0.131072998046875,-0.06402587890625
1761379825256070000,2.33406982421875,-1.081024169921875,-0.1248321533203125,-0.06494140625
1761379825266153200,2.3441533203125,-1.0478668212890625,-0.1300048828125,-0.04974365234375
1761379825276236000,2.354236083984375,-1.0132904052734375,-0.145111083984375,-0.0144195556640625
1761379825286319000,2.364319091796875,-0.992431640625,-0.1588287353515625,0.0262603759765625
1761379825296402000,2.37440185546875,-0.9800262451171875,-0.179107666015625,0.042816162109375
1761379825306485000,2.384485107421875,-0.9712066650390625,-0.18218994140625,0.029571533203125
1761379825316567800,2.39456787109375,-0.9724884033203125,-0.1724700927734375,0.0169830322265625
1761379825326651100,2.404651123046875,-0.975341796875,-0.174163818359375,0.0177459716796875
1761379825336734000,2.41473388671875,-0.970123291015625,-0.1801605224609375,0.02569580078125
1761379825346817000,2.424817138671875,-0.9479827880859375,-0.1800994873046875,0.0307464599609375
1761379825356904000,2.434904052734375,-0.910369873046875,-0.1793975830078125,0.039031982421875
1761379825366987000,2.444987060546875,-0.891021728515625,-0.1890106201171875,0.0436859130859375
1761379825377069800,2.45506982421875,-0.8740386962890625,-0.212005615234375,0.0483551025390625
1761379825387153000,2.46515283203125,-0.854766845703125,-0.2252197265625,0.0471343994140625
1761379825397236000,2.475236083984375,-0.845458984375,-0.2292327880859375,0.046051025390625
1761379825407319000,2.485319091796875,-0.8448028564453125,-0.2364349365234375,0.0516204833984375
1761379825417402000,2.495402099609375,-0.848846435546875,-0.2355804443359375,0.05364990234375
1761379825427485000,2.50548486328125,-0.8591461181640625,-0.227752685546875,0.0574493408203125
1761379825437569000,2.515569091796875,-0.8743743896484375,-0.2270050048828125,0.067291259765625
1761379825447652000,2.525652099609375,-0.8925628662109375,-0.225555419921875,0.0729522705078125
1761379825457735200,2.535735107421875,-0.905364990234375,-0.2201385498046875,0.0735321044921875
1761379825467818000,2.54581787109375,-0.9168701171875,-0.2162628173828125,0.06988525390625
1761379825477901000,2.555901123046875,-0.923919677734375,-0.213623046875,0.066650390625
1761379825487983900,2.56598388671875,-0.925323486328125,-0.210906982421875,0.0655975341796875
1761379825498067000,2.57606689453125,-0.9256591796875,-0.20794677734375,0.0689849853515625
1761379825508150000,2.58614990234375,-0.9238433837890625,-0.2112884521484375,0.0792236328125
1761379825518233000,2.596233154296875,-0.911773681640625,-0.2332916259765625,0.1067352294921875
1761379825528316000,2.60631591796875,-0.91802978515625,-0.264739990234375,0.1367950439453125
1761379825538399000,2.61639892578125,-0.952056884765625,-0.262847900390625,0.1417083740234375
1761379825548482000,2.62648193359375,-0.98138427734375,-0.25006103515625,0.10931396484375
1761379825558564900,2.63656494140625,-1.0128021240234375,-0.235748291015625,0.0611724853515625
1761379825568648200,2.646648193359375,-1.0235748291015625,-0.21734619140625,0.027557373046875
1761379825578731000,2.65673095703125,-1.0203399658203125,-0.2076416015625,0.0242767333984375
1761379825588814000,2.66681396484375,-1.0006561279296875,-0.20880126953125,0.0344696044921875
1761379825598897000,2.67689697265625,-0.9582977294921875,-0.2065582275390625,0.059478759765625
1761379825608980000,2.68697998046875,-0.94390869140625,-0.21533203125,0.103118896484375
1761379825619062800,2.697062744140625,-0.9622802734375,-0.24169921875,0.14080810546875
1761379825629146000,2.70714599609375,-0.9850006103515625,-0.2712860107421875,0.1503448486328125
1761379825639229200,2.717229248046875,-1.0065155029296875,-0.2727813720703125,0.126251220703125
1761379825649312000,2.72731201171875,-1.0201416015625,-0.2628936767578125,0.0935211181640625
1761379825659395000,2.73739501953125,-1.019317626953125,-0.256683349609375,0.071929931640625
1761379825669478000,2.747477783203125,-1.00286865234375,-0.248016357421875,0.0670013427734375
1761379825679561000,2.75756103515625,-0.971588134765625,-0.2466583251953125,0.07757568359375
1761379825689644000,2.76764404296875,-0.9412994384765625,-0.2567291259765625,0.1005096435546875
1761379825699727000,2.77772705078125,-0.9190521240234375,-0.2759552001953125,0.1279144287109375
1761379825709810000,2.787809814453125,-0.906707763671875,-0.3012542724609375,0.15069580078125
1761379825719893000,2.79789306640625,-0.9145965576171875,-0.3218536376953125,0.168212890625
1761379825729976000,2.80797607421875,-0.938232421875,-0.33587646484375,0.179718017578125
1761379825740059000,2.818058837890625,-0.9644622802734375,-0.3409423828125,0.182952880859375
1761379825750142200,2.82814208984375,-0.99322509765625,-0.3349456787109375,0.1739044189453125
1761379825760225000,2.83822509765625,-1.0173797607421875,-0.3222503662109375,0.1615753173828125
1761379825770308000,2.84830810546875,-1.0364837646484375,-0.307830810546875,0.1514739990234375
1761379825780392000,2.858391845703125,-1.044097900390625,-0.29486083984375,0.1386566162109375
1761379825790475000,2.86847509765625,-1.039703369140625,-0.2880401611328125,0.125152587890625
1761379825800558000,2.87855810546875,-1.027130126953125,-0.2920379638671875,0.1104278564453125
1761379825810641200,2.88864111328125,-1.01629638671875,-0.2994384765625,0.0994415283203125
1761379825820724000,2.898723876953125,-1.0009613037109375,-0.3121795654296875,0.0941925048828125
1761379825830807000,2.90880712890625,-0.9810791015625,-0.330657958984375,0.0909423828125
1761379825840889900,2.918889892578125,-0.9653778076171875,-0.343017578125,0.0848236083984375
1761379825850973000,2.928972900390625,-0.9537353515625,-0.349884033203125,0.0787353515625
1761379825861056000,2.939055908203125,-0.943145751953125,-0.3507537841796875,0.07098388671875
1761379825871139000,2.94913916015625,-0.934356689453125,-0.344207763671875,0.0617218017578125
1761379825881222000,2.959221923828125,-0.920135498046875,-0.333648681640625,0.0493621826171875
1761379825891305000,2.969304931640625,-0.90478515625,-0.32623291015625,0.0475006103515625
1761379825901388000,2.979387939453125,-0.8987579345703125,-0.3231201171875,0.050750732421875
1761379825911470800,2.989470947265625,-0.8836212158203125,-0.317596435546875,0.0570831298828125
1761379825921554200,2.99955419921875,-0.872528076171875,-0.309417724609375,0.0523223876953125
1761379825931637000,3.009636962890625,-0.8682098388671875,-0.3054351806640625,0.0553436279296875
1761379825941720000,3.019719970703125,-0.877655029296875,-0.3026275634765625,0.0633697509765625
1761379825951803000,3.029802978515625,-0.884063720703125,-0.2931060791015625,0.0665740966796875
1761379825961886000,3.039885986328125,-0.8799285888671875,-0.2776031494140625,0.0677337646484375
1761379825971968800,3.04996875,-0.8715057373046875,-0.266693115234375,0.074432373046875
1761379825982052000,3.060052001953125,-0.8632049560546875,-0.2638092041015625,0.0811309814453125
1761379825992135200,3.07013525390625,-0.849822998046875,-0.2613372802734375,0.0816650390625
1761379826002218000,3.080218017578125,-0.842559814453125,-0.2649993896484375,0.0804290771484375
1761379826012301000,3.090301025390625,-0.8480987548828125,-0.27606201171875,0.0797271728515625
1761379826022383900,3.1003837890625,-0.852203369140625,-0.2942657470703125,0.0834503173828125
1761379826032467000,3.110467041015625,-0.8516387939453125,-0.3168487548828125,0.098907470703125
1761379826042550000,3.120550048828125,-0.8611907958984375,-0.3444671630859375,0.12567138671875
1761379826052633000,3.130633056640625,-0.88104248046875,-0.3695831298828125,0.1447906494140625
1761379826062716000,3.1407158203125,-0.9059600830078125,-0.3737945556640625,0.124969482421875
1761379826072799000,3.150799072265625,-0.9515228271484375,-0.351318359375,0.076141357421875
1761379826082882000,3.160882080078125,-1.016143798828125,-0.320404052734375,0.025543212890625
1761379826092964900,3.17096484375,-1.0780487060546875,-0.2904815673828125,-0.0236663818359375
1761379826103048200,3.181048095703125,-1.085296630859375,-0.2622833251953125,-0.0550079345703125
1761379826113131000,3.191131103515625,-1.0666046142578125,-0.253753662109375,-0.050079345703125
1761379826123214000,3.201214111328125,-1.0257110595703125,-0.27825927734375,-0.0124969482421875
1761379826133298000,3.2112978515625,-0.9638214111328125,-0.3225555419921875,0.0416412353515625
1761379826143381000,3.221381103515625,-0.926116943359375,-0.3517608642578125,0.0970001220703125
1761379826153464000,3.231464111328125,-0.90850830078125,-0.429962158203125,0.161041259765625
1761379826163547100,3.241547119140625,-0.88934326171875,-0.518524169921875,0.202117919921875
1761379826173630000,3.2516298828125,-0.8916168212890625,-0.5333099365234375,0.198486328125
1761379826183713000,3.261713134765625,-0.9360504150390625,-0.5087890625,0.1612548828125
1761379826193795800,3.2717958984375,-0.97857666015625,-0.49737548828125,0.1130218505859375
1761379826203879000,3.28187890625,-1.0112457275390625,-0.4613800048828125,0.0541839599609375
1761379826213962000,3.2919619140625,-1.0423431396484375,-0.3891143798828125,0.011016845703125
1761379826224045000,3.302045166015625,-1.0648040771484375,-0.3426971435546875,0.0074920654296875
1761379826234128000,3.3121279296875,-1.076995849609375,-0.3311309814453125,0.014923095703125
1761379826244211000,3.3222109375,-1.045440673828125,-0.3464813232421875,0.0351409912109375
1761379826254294000,3.3322939453125,-0.994171142578125,-0.3424530029296875,0.070037841796875
1761379826264376800,3.342376953125,-0.9652557373046875,-0.3486785888671875,0.1002197265625
1761379826274460200,3.352460205078125,-0.9693450927734375,-0.3959197998046875,0.1215362548828125
1761379826284543000,3.36254296875,-0.9781951904296875,-0.4264068603515625,0.12030029296875
1761379826294626000,3.3726259765625,-0.9687042236328125,-0.43475341796875,0.1056060791015625
1761379826304708900,3.382708984375,-0.948822021484375,-0.430755615234375,0.078094482421875
1761379826314792000,3.3927919921875,-0.9305572509765625,-0.406341552734375,0.040252685546875
1761379826324874800,3.402874755859375,-0.9200592041015625,-0.3785400390625,0.015838623046875
1761379826334958000,3.4129580078125,-0.9247894287109375,-0.363189697265625,0.011932373046875
1761379826345041200,3.423041259765625,-0.9243316650390625,-0.367218017578125,0.0116729736328125
1761379826355124000,3.4331240234375,-0.9093780517578125,-0.3646240234375,0.0130462646484375
1761379826365203500,3.443203369140625,-0.8889007568359375,-0.3545379638671875,0.020294189453125
1761379826375286300,3.453286376953125,-0.8751373291015625,-0.354095458984375,0.027587890625
1761379826385369300,3.463369384765625,-0.8815155029296875,-0.343170166015625,0.0295257568359375
1761379826395452200,3.4734521484375,-0.9099273681640625,-0.3184051513671875,0.0326080322265625
1761379826405535200,3.48353515625,-0.93597412109375,-0.304656982421875,0.0463714599609375
1761379826415618300,3.493618408203125,-0.9759521484375,-0.2806549072265625,0.0540313720703125
1761379826425701400,3.503701416015625,-1.00042724609375,-0.2530059814453125,0.050201416015625
1761379826435784400,3.513784423828125,-1.0386962890625,-0.2082061767578125,0.039581298828125
1761379826445867300,3.5238671875,-1.0504302978515625,-0.1893768310546875,0.0444488525390625
1761379826455950300,3.533950439453125,-1.0511474609375,-0.185638427734375,0.050811767578125
1761379826466033200,3.544033203125,-1.05364990234375,-0.1788330078125,0.06158447265625
1761379826476116500,3.554116455078125,-1.0442047119140625,-0.1753082275390625,0.070037841796875
1761379826486199300,3.56419921875,-1.03057861328125,-0.1832122802734375,0.07489013671875
1761379826496282400,3.574282470703125,-1.01519775390625,-0.198394775390625,0.07940673828125
1761379826506366200,3.5843662109375,-0.9972076416015625,-0.212554931640625,0.0811767578125
1761379826516449300,3.59444921875,-0.973388671875,-0.2186431884765625,0.0840301513671875
1761379826526532400,3.604532470703125,-0.94775390625,-0.2228240966796875,0.0869140625
1761379826536615400,3.614615478515625,-0.9215087890625,-0.2292938232421875,0.0938873291015625
1761379826546698200,3.6246982421875,-0.895233154296875,-0.235504150390625,0.1023712158203125
1761379826556781300,3.63478125,-0.8732757568359375,-0.245697021484375,0.1119537353515625
1761379826566864100,3.644864013671875,-0.857635498046875,-0.2590179443359375,0.1188812255859375
1761379826576947200,3.654947265625,-0.846527099609375,-0.26580810546875,0.123016357421875
1761379826587030500,3.665030517578125,-0.844451904296875,-0.2707977294921875,0.13140869140625
1761379826597113300,3.67511328125,-0.84832763671875,-0.2777252197265625,0.1398162841796875
1761379826607196400,3.685196533203125,-0.846466064453125,-0.2761077880859375,0.1450958251953125
1761379826617279200,3.695279296875,-0.8494720458984375,-0.26727294921875,0.1504058837890625
1761379826627362300,3.7053623046875,-0.858306884765625,-0.2606353759765625,0.157958984375
1761379826637445000,3.715445068359375,-0.86419677734375,-0.25439453125,0.1678924560546875
1761379826647528400,3.725528564453125,-0.870391845703125,-0.2502288818359375,0.18072509765625
1761379826657611300,3.735611328125,-0.8799896240234375,-0.252166748046875,0.2015380859375
1761379826667694300,3.7456943359375,-0.884521484375,-0.252197265625,0.22064208984375
1761379826677777400,3.75577734375,-0.8946533203125,-0.2432708740234375,0.23321533203125
1761379826687860200,3.765860107421875,-0.9044952392578125,-0.245208740234375,0.2425079345703125
1761379826697943300,3.775943359375,-0.9201202392578125,-0.2466583251953125,0.2468719482421875
1761379826708026400,3.7860263671875,-0.9373626708984375,-0.240020751953125,0.249481201171875
1761379826718109400,3.796109375,-0.94732666015625,-0.235137939453125,0.2542877197265625
1761379826728192300,3.806192138671875,-0.9537200927734375,-0.2280731201171875,0.2539215087890625
1761379826738275300,3.816275390625,-0.9617156982421875,-0.2179718017578125,0.2564697265625
1761379826748358100,3.826358154296875,-0.96087646484375,-0.2137298583984375,0.270751953125
1761379826758441200,3.836441162109375,-0.950164794921875,-0.22528076171875,0.28900146484375
1761379826768524300,3.846524169921875,-0.927154541015625,-0.2360076904296875,0.3026885986328125
1761379826778607400,3.856607421875,-0.91363525390625,-0.2430877685546875,0.3134765625
1761379826788690400,3.8666904296875,-0.90753173828125,-0.256927490234375,0.3185882568359375
1761379826798773200,3.876773193359375,-0.8869171142578125,-0.2718963623046875,0.318695068359375
1761379826808856300,3.886856201171875,-0.8739013671875,-0.2822113037109375,0.317291259765625
1761379826818939100,3.896939208984375,-0.854766845703125,-0.29901123046875,0.339111328125
1761379826829022500,3.9070224609375,-0.836181640625,-0.323333740234375,0.382476806640625
1761379826839105300,3.917105224609375,-0.8163909912109375,-0.3545379638671875,0.431732177734375
1761379826849188400,3.927188232421875,-0.8009490966796875,-0.384307861328125,0.472076416015625
1761379826859271200,3.937271240234375,-0.816192626953125,-0.4073028564453125,0.4898681640625
1761379826869354200,3.947354248046875,-0.84613037109375,-0.415863037109375,0.4846038818359375
1761379826879437300,3.957437255859375,-0.9000396728515625,-0.4009246826171875,0.4511260986328125
1761379826889520400,3.967520263671875,-0.9622802734375,-0.3701629638671875,0.400360107421875
1761379826899603500,3.977603515625,-1.00396728515625,-0.3275299072265625,0.3305206298828125
1761379826909686300,3.987686279296875,-1.0383758544921875,-0.270721435546875,0.277618408203125
1761379826919769300,3.997769287109375,-1.0618743896484375,-0.2387542724609375,0.256378173828125
1761379826929853200,4.007853271484375,-1.0582275390625,-0.2133026123046875,0.2418365478515625
1761379826939936500,4.0179365234375,-1.017669677734375,-0.1945648193359375,0.228912353515625
1761379826950019300,4.028019287109375,-0.9716339111328125,-0.1955108642578125,0.239227294921875
1761379826960102400,4.038102294921875,-0.953704833984375,-0.2160491943359375,0.2731170654296875
1761379826970185200,4.048185302734375,-0.9348907470703125,-0.254852294921875,0.3072967529296875
1761379826980268300,4.058268310546875,-0.897613525390625,-0.2828826904296875,0.323638916015625
1761379826990351000,4.06835107421875,-0.882843017578125,-0.296112060546875,0.3314361572265625
1761379827000434400,4.078434326171875,-0.889434814453125,-0.3136444091796875,0.3469696044921875
1761379827010517200,4.088517333984375,-0.90362548828125,-0.3362884521484375,0.360076904296875
1761379827020600300,4.098600341796875,-0.9284820556640625,-0.3535003662109375,0.3620147705078125
1761379827030683400,4.108683349609375,-0.95867919921875,-0.35546875,0.3544158935546875
1761379827040766200,4.11876611328125,-0.98822021484375,-0.3502655029296875,0.33953857421875
1761379827050849300,4.128849365234375,-1.0175018310546875,-0.34600830078125,0.321624755859375
1761379827060932400,4.138932373046875,-1.050384521484375,-0.3325347900390625,0.3033905029296875
1761379827071015400,4.149015380859375,-1.0685577392578125,-0.3160247802734375,0.2918243408203125
1761379827081098200,4.15909814453125,-1.0712890625,-0.3049774169921875,0.2806854248046875
1761379827091181300,4.169181396484375,-1.065399169921875,-0.3005218505859375,0.2702484130859375
1761379827101264100,4.17926416015625,-1.049774169921875,-0.29766845703125,0.2608642578125
1761379827111347200,4.18934716796875,-1.033477783203125,-0.2913360595703125,0.2554779052734375
1761379827121430300,4.19943017578125,-1.0169677734375,-0.2869415283203125,0.257781982421875
1761379827131513300,4.209513427734375,-1.00335693359375,-0.2801666259765625,0.2639312744140625
1761379827141596400,4.219596435546875,-0.9869384765625,-0.2701263427734375,0.2730560302734375
1761379827151679200,4.22967919921875,-0.9727783203125,-0.264373779296875,0.2844085693359375
1761379827161762300,4.23976220703125,-0.963531494140625,-0.2573089599609375,0.2924957275390625
1761379827171845000,4.24984521484375,-0.9501495361328125,-0.2473907470703125,0.29339599609375
1761379827181928400,4.259928466796875,-0.9324188232421875,-0.2387542724609375,0.290374755859375
1761379827192011300,4.27001123046875,-0.9178924560546875,-0.229827880859375,0.287933349609375
1761379827202094300,4.28009423828125,-0.8994598388671875,-0.219085693359375,0.2844085693359375
1761379827212177200,4.29017724609375,-0.881866455078125,-0.2093353271484375,0.2846832275390625
1761379827222260200,4.30026025390625,-0.8597869873046875,-0.2037353515625,0.2879486083984375
1761379827232343300,4.31034326171875,-0.8418426513671875,-0.193084716796875,0.287445068359375
1761379827242426400,4.32042626953125,-0.821441650390625,-0.1930084228515625,0.2889251708984375
1761379827252509400,4.330509521484375,-0.8063812255859375,-0.1948699951171875,0.2957611083984375
1761379827262592300,4.34059228515625,-0.796783447265625,-0.2067413330078125,0.3017578125
1761379827272675300,4.35067529296875,-0.789581298828125,-0.2303466796875,0.3120880126953125
1761379827282758100,4.360758056640625,-0.7988128662109375,-0.2472381591796875,0.32391357421875
1761379827292841500,4.370841552734375,-0.817596435546875,-0.2479705810546875,0.319915771484375
1761379827302924300,4.38092431640625,-0.847320556640625,-0.2401275634765625,0.3067626953125
1761379827313007400,4.39100732421875,-0.879913330078125,-0.2223052978515625,0.2756195068359375
1761379827323090400,4.40109033203125,-0.9069976806640625,-0.19921875,0.2432708740234375
1761379827333174300,4.41117431640625,-0.9209747314453125,-0.183197021484375,0.2228240966796875
1761379827343256300,4.42125634765625,-0.909210205078125,-0.1846466064453125,0.228179931640625
1761379827353339400,4.43133935546875,-0.90240478515625,-0.195953369140625,0.2467803955078125
1761379827363423500,4.441423583984375,-0.9122161865234375,-0.2024078369140625,0.2709808349609375
1761379827373506600,4.451506591796875,-0.920654296875,-0.2191619873046875,0.293853759765625
1761379827383589600,4.461589599609375,-0.93792724609375,-0.2372894287109375,0.3042755126953125
1761379827393672700,4.471672607421875,-0.976715087890625,-0.2445068359375,0.3071441650390625
1761379827403755800,4.481755859375,-1.01177978515625,-0.2494354248046875,0.3102569580078125
1761379827413838600,4.491838623046875,-1.032501220703125,-0.2545928955078125,0.320281982421875
1761379827423921700,4.501921630859375,-1.0341644287109375,-0.254638671875,0.31304931640625
1761379827434004500,4.51200439453125,-1.03851318359375,-0.2486114501953125,0.300445556640625
1761379827444087600,4.522087646484375,-1.0562591552734375,-0.231964111328125,0.293182373046875
1761379827454170600,4.532170654296875,-1.098968505859375,-0.2281341552734375,0.2787933349609375
1761379827464253700,4.542253662109375,-1.1319732666015625,-0.2271881103515625,0.268524169921875
1761379827474336500,4.55233642578125,-1.15679931640625,-0.1976165771484375,0.241119384765625
1761379827484419600,4.562419677734375,-1.1748046875,-0.1551971435546875,0.2134246826171875
1761379827494502700,4.572502685546875,-1.1841583251953125,-0.115753173828125,0.2036895751953125
1761379827504585500,4.58258544921875,-1.1664581298828125,-0.08819580078125,0.1916656494140625
1761379827514668800,4.592668701171875,-1.131195068359375,-0.0553741455078125,0.1782989501953125
1761379827524751600,4.602751708984375,-1.084808349609375,-0.0309906005859375,0.170135498046875
1761379827534834700,4.612834716796875,-1.041351318359375,-0.03302001953125,0.177825927734375
1761379827544917500,4.62291748046875,-0.9938507080078125,-0.0497283935546875,0.1967926025390625
1761379827555000600,4.63300048828125,-0.938873291015625,-0.0570068359375,0.20355224609375
1761379827565083400,4.64308349609375,-0.9056396484375,-0.0571441650390625,0.2064361572265625
1761379827575166700,4.653166748046875,-0.897918701171875,-0.058868408203125,0.208251953125
1761379827585249500,4.66324951171875,-0.9034576416015625,-0.057647705078125,0.212799072265625
1761379827595332600,4.67333251953125,-0.9157867431640625,-0.057525634765625,0.2178802490234375
1761379827605415700,4.683415771484375,-0.9341888427734375,-0.0547027587890625,0.2124176025390625
1761379827615498500,4.69349853515625,-0.953857421875,-0.0478973388671875,0.201507568359375
1761379827625581600,4.70358154296875,-0.97772216796875,-0.0410614013671875,0.1801300048828125
1761379827635664600,4.71366455078125,-1.008758544921875,-0.0336761474609375,0.1566162109375
1761379827645747700,4.723747802734375,-1.0302886962890625,-0.0311279296875,0.13311767578125
1761379827655830500,4.73383056640625,-1.0370635986328125,-0.037811279296875,0.1107177734375
1761379827665913600,4.74391357421875,-1.035552978515625,-0.04852294921875,0.0934600830078125
1761379827675996400,4.753996337890625,-1.030120849609375,-0.0618133544921875,0.0804901123046875
1761379827686079500,4.76407958984375,-1.0173797607421875,-0.0760650634765625,0.0697174072265625
1761379827696162800,4.774162841796875,-1.0045928955078125,-0.0984649658203125,0.063507080078125
1761379827706245600,4.78424560546875,-0.9982757568359375,-0.1183013916015625,0.0621185302734375
1761379827716328700,4.79432861328125,-0.9921112060546875,-0.134521484375,0.0617828369140625
1761379827726411500,4.80441162109375,-0.98828125,-0.152191162109375,0.0623626708984375
1761379827736494600,4.81449462890625,-0.994720458984375,-0.166351318359375,0.066436767578125
1761379827746577400,4.824577392578125,-1.008148193359375,-0.1766357421875,0.07080078125
1761379827756660700,4.83466064453125,-1.023040771484375,-0.1837158203125,0.0737762451171875
1761379827766743600,4.84474365234375,-1.0425872802734375,-0.192535400390625,0.0766448974609375
1761379827776826600,4.85482666015625,-1.0643157958984375,-0.2012786865234375,0.070648193359375
1761379827786909700,4.86490966796875,-1.0805206298828125,-0.214019775390625,0.0646209716796875
1761379827796992500,4.874992431640625,-1.088348388671875,-0.2298431396484375,0.0588531494140625
1761379827807075600,4.88507568359375,-1.0969085693359375,-0.24444580078125,0.05706787109375
1761379827817158700,4.89515869140625,-1.1043853759765625,-0.2487640380859375,0.0504608154296875
1761379827827241700,4.90524169921875,-1.1057281494140625,-0.245574951171875,0.0464630126953125
1761379827837324500,4.915324462890625,-1.1056671142578125,-0.2492828369140625,0.053131103515625
1761379827847408600,4.92540869140625,-1.1049957275390625,-0.249969482421875,0.069580078125
1761379827857490400,4.935490478515625,-1.0988922119140625,-0.2397613525390625,0.087127685546875
1761379827867574800,4.94557470703125,-1.08203125,-0.2279205322265625,0.11102294921875
1761379827877657600,4.95565771484375,-1.0488739013671875,-0.236236572265625,0.1509552001953125
1761379827887740700,4.96574072265625,-1.00408935546875,-0.2758331298828125,0.207916259765625
1761379827897823500,4.975823486328125,-0.9835357666015625,-0.319122314453125,0.25421142578125
1761379827907906600,4.985906494140625,-0.9979400634765625,-0.3426513671875,0.2719573974609375
1761379827917989400,4.9959892578125,-1.0216217041015625,-0.355133056640625,0.2511138916015625
1761379827928072700,5.00607275390625,-1.0481719970703125,-0.344818115234375,0.2226409912109375
1761379827938155800,5.01615576171875,-1.06353759765625,-0.3260955810546875,0.212310791015625
1761379827948238600,5.026238525390625,-1.0589752197265625,-0.3082427978515625,0.2085418701171875
1761379827958321700,5.03632177734375,-1.05303955078125,-0.2841033935546875,0.2098541259765625
1761379827968404500,5.046404541015625,-1.0446319580078125,-0.259063720703125,0.228546142578125
1761379827978487600,5.056487548828125,-1.03887939453125,-0.24603271484375,0.2518463134765625
1761379827988570600,5.066570556640625,-1.0324554443359375,-0.240753173828125,0.2626190185546875
1761379827998653700,5.07665380859375,-1.03265380859375,-0.2395782470703125,0.274139404296875
1761379828008736500,5.086736572265625,-1.04632568359375,-0.23956298828125,0.2803955078125
1761379828018819600,5.096819580078125,-1.0763702392578125,-0.2223358154296875,0.27557373046875
1761379828028902700,5.106902587890625,-1.118927001953125,-0.1920318603515625,0.2590789794921875
1761379828038985500,5.1169853515625,-1.1652069091796875,-0.149627685546875,0.218231201171875
1761379828049068800,5.12706884765625,-1.2036590576171875,-0.1017303466796875,0.1824951171875
1761379828059151600,5.137151611328125,-1.2100677490234375,-0.0666656494140625,0.1579742431640625
1761379828069234700,5.147234619140625,-1.1912994384765625,-0.0273284912109375,0.1386566162109375
1761379828079317500,5.1573173828125,-1.1488037109375,0.0113525390625,0.1222991943359375
1761379828089400600,5.167400634765625,-1.0995635986328125,0.0379791259765625,0.115753173828125
1761379828099483400,5.1774833984375,-1.037506103515625,0.0411834716796875,0.1270751953125
1761379828109566700,5.187566650390625,-0.9796295166015625,0.0354156494140625,0.1533966064453125
1761379828119649500,5.1976494140625,-0.939056396484375,0.0222625732421875,0.16259765625
1761379828129732600,5.207732666015625,-0.906982421875,0.0179443359375,0.1577606201171875
1761379828139815700,5.217815673828125,-0.8909149169921875,0.0185699462890625,0.1523284912109375
1761379828149898500,5.2278984375,-0.8902740478515625,0.0255889892578125,0.1582489013671875
1761379828159981600,5.237981689453125,-0.9002838134765625,0.0359039306640625,0.1601715087890625
1761379828170064600,5.248064697265625,-0.9123992919921875,0.0523834228515625,0.148651123046875
1761379828180147700,5.258147705078125,-0.928802490234375,0.067108154296875,0.1324615478515625
1761379828190230500,5.26823046875,-0.9366302490234375,0.0780792236328125,0.12176513671875
1761379828200313600,5.278313720703125,-0.9346771240234375,0.0802459716796875,0.1186981201171875
1761379828210396400,5.288396484375,-0.9266357421875,0.0677032470703125,0.1189117431640625
1761379828220479500,5.2984794921875,-0.9195556640625,0.049652099609375,0.1132354736328125
1761379828230562600,5.3085625,-0.91619873046875,0.0349578857421875,0.1050872802734375
1761379828240645600,5.318645751953125,-0.923614501953125,0.0250091552734375,0.101806640625
1761379828250728700,5.328728759765625,-0.943817138671875,0.016815185546875,0.09625244140625
1761379828260811500,5.3388115234375,-0.96783447265625,0.0148468017578125,0.08624267578125
1761379828270894600,5.34889453125,-0.9898223876953125,0.0133514404296875,0.0749053955078125
1761379828280977700,5.358977783203125,-1.013916015625,0.0029449462890625,0.073333740234375
1761379828291060700,5.369060791015625,-1.0404815673828125,-0.0088043212890625,0.068359375
1761379828301143600,5.3791435546875,-1.06768798828125,-0.01202392578125,0.04669189453125
1761379828311226600,5.3892265625,-1.0788116455078125,-0.0149383544921875,0.0250244140625
1761379828321309400,5.399309326171875,-1.079193115234375,-0.0257568359375,0.0161895751953125
1761379828331392500,5.409392578125,-1.0785064697265625,-0.0393218994140625,0.019500732421875
1761379828341475800,5.419475830078125,-1.076019287109375,-0.04852294921875,0.0224151611328125
1761379828351558700,5.42955859375,-1.071014404296875,-0.0592041015625,0.020751953125
1761379828361642000,5.43964208984375,-1.0674591064453125,-0.0728759765625,0.0120849609375
1761379828371724800,5.449724853515625,-1.066253662109375,-0.0884857177734375,0.0032806396484375
1761379828381807900,5.459807861328125,-1.0624847412109375,-0.10369873046875,-0.0075531005859375
1761379828391890700,5.469890625,-1.0619049072265625,-0.1109619140625,-0.021820068359375
1761379828401973800,5.479973876953125,-1.0597076416015625,-0.1151275634765625,-0.037261962890625
1761379828412057900,5.490057861328125,-1.0580596923828125,-0.1190948486328125,-0.048858642578125
1761379828422140000,5.500139892578125,-1.0662689208984375,-0.1179046630859375,-0.048492431640625
1761379828432222700,5.51022265625,-1.0780029296875,-0.117401123046875,-0.0487060546875
1761379828442306800,5.520306884765625,-1.0852508544921875,-0.1130523681640625,-0.0510711669921875
1761379828452389600,5.5303896484375,-1.0765380859375,-0.11309814453125,-0.056915283203125
1761379828462473000,5.540472900390625,-1.065673828125,-0.1274566650390625,-0.057281494140625
1761379828472555800,5.5505556640625,-1.052764892578125,-0.14703369140625,-0.05609130859375
1761379828482638800,5.560638916015625,-1.043365478515625,-0.1666107177734375,-0.0546417236328125
1761379828492722000,5.570721923828125,-1.0568084716796875,-0.1796722412109375,-0.0498504638671875
1761379828502804700,5.5808046875,-1.0700225830078125,-0.1925811767578125,-0.04437255859375
1761379828512887800,5.5908876953125,-1.076690673828125,-0.208221435546875,-0.0319976806640625
1761379828522971000,5.600970947265625,-1.0842132568359375,-0.219818115234375,-0.0267181396484375
1761379828533054000,5.611053955078125,-1.10650634765625,-0.2208709716796875,-0.0408935546875
1761379828543136800,5.62113671875,-1.163543701171875,-0.2196044921875,-0.0615081787109375
1761379828553219800,5.6312197265625,-1.208343505859375,-0.2143402099609375,-0.0940704345703125
1761379828563302700,5.641302734375,-1.2040863037109375,-0.178436279296875,-0.1396636962890625
1761379828573385700,5.6513857421875,-1.1912994384765625,-0.1808624267578125,-0.1694488525390625
1761379828583468800,5.66146875,-1.134674072265625,-0.196136474609375,-0.1697998046875
1761379828593552000,5.6715517578125,-1.07012939453125,-0.2167510986328125,-0.1758575439453125
1761379828603635000,5.681635009765625,-1.0089111328125,-0.256317138671875,-0.152923583984375
1761379828613717800,5.6917177734375,-0.9811859130859375,-0.29541015625,-0.1231536865234375
1761379828623800800,5.70180078125,-0.9700469970703125,-0.3336029052734375,-0.1120452880859375
1761379828633883600,5.711883544921875,-0.97625732421875,-0.3650665283203125,-0.12091064453125
1761379828643967000,5.721967041015625,-0.9788055419921875,-0.367889404296875,-0.1351470947265625
1761379828654049800,5.7320498046875,-0.983795166015625,-0.35906982421875,-0.1392364501953125
1761379828664132900,5.7421328125,-0.9965667724609375,-0.3423309326171875,-0.1402587890625
1761379828674215700,5.752215576171875,-0.9995269775390625,-0.3199462890625,-0.13604736328125
1761379828684298800,5.762298828125,-1.0096893310546875,-0.3201446533203125,-0.149200439453125
1761379828694381800,5.7723818359375,-0.999420166015625,-0.30438232421875,-0.147186279296875
1761379828704465000,5.78246484375,-0.988250732421875,-0.281982421875,-0.1352691650390625
1761379828714548000,5.7925478515625,-0.97589111328125,-0.2855072021484375,-0.101593017578125
1761379828724630800,5.802630859375,-0.9694671630859375,-0.3008880615234375,-0.0728759765625
1761379828734713900,5.8127138671875,-0.9601898193359375,-0.306610107421875,-0.0692138671875
1761379828744796700,5.822796630859375,-0.9586334228515625,-0.308013916015625,-0.083892822265625
1761379828754879700,5.832879638671875,-0.9584197998046875,-0.3028564453125,-0.1003570556640625
1761379828764962800,5.842962890625,-0.972625732421875,-0.3058624267578125,-0.101348876953125
1761379828775046000,5.8530458984375,-0.98370361328125,-0.30615234375,-0.103179931640625
1761379828785128700,5.863128662109375,-0.9873809814453125,-0.2983551025390625,-0.100372314453125
1761379828795211800,5.873211669921875,-0.986907958984375,-0.2961273193359375,-0.0997772216796875
1761379828805294800,5.883294921875,-0.9901275634765625,-0.295196533203125,-0.1080322265625
1761379828815377700,5.893377685546875,-0.9943389892578125,-0.291656494140625,-0.1136474609375
1761379828825461000,5.9034609375,-0.9888458251953125,-0.283538818359375,-0.1114501953125
1761379828835543800,5.913543701171875,-0.9651641845703125,-0.28668212890625,-0.11236572265625
1761379828845627000,5.923626953125,-0.924072265625,-0.2970733642578125,-0.1098175048828125
1761379828855709700,5.933709716796875,-0.8980865478515625,-0.305145263671875,-0.0940399169921875
1761379828865792800,5.943792724609375,-0.888427734375,-0.29937744140625,-0.0766448974609375
1761379828875875600,5.95387548828125,-0.893585205078125,-0.2950592041015625,-0.0678863525390625
1761379828885959000,5.963958984375,-0.8898162841796875,-0.2905426025390625,-0.0676727294921875
1761379828896042000,5.9740419921875,-0.9083404541015625,-0.2740631103515625,-0.0664215087890625
1761379828906124800,5.984124755859375,-0.9093170166015625,-0.2631378173828125,-0.0589141845703125
1761379828916207900,5.994207763671875,-0.9022216796875,-0.260833740234375,-0.03564453125
1761379828926290700,6.004290771484375,-0.889312744140625,-0.2622528076171875,-0.0140380859375
1761379828936373800,6.014373779296875,-0.8651123046875,-0.2589263916015625,-0.0023651123046875
1761379828946456800,6.024456787109375,-0.8435516357421875,-0.2608184814453125,-0.0007781982421875
1761379828956540000,6.034539794921875,-0.824859619140625,-0.2580718994140625,0.002227783203125
1761379828966622700,6.044622802734375,-0.82281494140625,-0.252532958984375,0.001190185546875
1761379828976705800,6.054705810546875,-0.83148193359375,-0.2493896484375,-0.002685546875
1761379828986788900,6.064788818359375,-0.8436431884765625,-0.2484130859375,-0.0047760009765625
1761379828996871700,6.07487158203125,-0.8544769287109375,-0.243255615234375,-0.015594482421875
1761379829006955000,6.084955078125,-0.865966796875,-0.2253265380859375,-0.04473876953125
1761379829017037800,6.095037841796875,-0.86572265625,-0.2079315185546875,-0.0585174560546875
1761379829027121000,6.105120849609375,-0.8573760986328125,-0.2155303955078125,-0.0556793212890625
1761379829037203700,6.11520361328125,-0.8331756591796875,-0.241485595703125,-0.037200927734375
1761379829047286800,6.125286865234375,-0.8375701904296875,-0.285491943359375,-0.00146484375
1761379829057369600,6.13536962890625,-0.851226806640625,-0.3123779296875,0.01507568359375
1761379829067453000,6.145452880859375,-0.859710693359375,-0.300689697265625,0.0016021728515625
1761379829077535700,6.15553564453125,-0.898529052734375,-0.2958221435546875,-0.0037078857421875
1761379829087619800,6.165619873046875,-0.94970703125,-0.3049163818359375,-0.0087738037109375
1761379829097702700,6.17570263671875,-1.0047149658203125,-0.2954559326171875,-0.0298309326171875
1761379829107785700,6.18578564453125,-1.053466796875,-0.26898193359375,-0.056884765625
1761379829117868800,6.195868896484375,-1.114959716796875,-0.2496337890625,-0.057891845703125
1761379829127952000,6.205951904296875,-1.1469268798828125,-0.2242584228515625,-0.071319580078125
1761379829138035000,6.216034912109375,-1.1172943115234375,-0.1882476806640625,-0.0868988037109375
1761379829148117800,6.22611767578125,-1.078094482421875,-0.15625,-0.0950469970703125
1761379829158200800,6.236200927734375,-1.05718994140625,-0.2056732177734375,-0.0970306396484375
1761379829168283600,6.24628369140625,-0.9992828369140625,-0.2304229736328125,-0.043212890625
1761379829178367000,6.256366943359375,-0.9673004150390625,-0.23736572265625,0.017181396484375
1761379829188449800,6.26644970703125,-0.9283447265625,-0.2878265380859375,0.0593109130859375
1761379829198532900,6.276532958984375,-0.862091064453125,-0.3190155029296875,0.0806732177734375
1761379829208615700,6.28661572265625,-0.8151092529296875,-0.3325347900390625,0.098388671875
1761379829218698800,6.29669873046875,-0.799896240234375,-0.3534698486328125,0.118072509765625
1761379829228781800,6.30678173828125,-0.7993621826171875,-0.3720703125,0.133270263671875
1761379829238865000,6.316864990234375,-0.80999755859375,-0.3768768310546875,0.13250732421875
1761379829248948000,6.326947998046875,-0.8468170166015625,-0.3748626708984375,0.1278533935546875
1761379829259030800,6.33703076171875,-0.894378662109375,-0.367523193359375,0.113433837890625
1761379829269113900,6.34711376953125,-0.950714111328125,-0.350189208984375,0.0972137451171875
1761379829279196700,6.35719677734375,-0.991973876953125,-0.33074951171875,0.0833740234375
1761379829289279700,6.36727978515625,-1.01373291015625,-0.3156280517578125,0.070953369140625
1761379829299362800,6.37736279296875,-1.0237579345703125,-0.3057098388671875,0.06317138671875
1761379829309446000,6.38744580078125,-1.0265960693359375,-0.29461669921875,0.06146240234375
1761379829319528700,6.39752880859375,-1.030242919921875,-0.2796783447265625,0.0603485107421875
1761379829329611800,6.40761181640625,-1.0289764404296875,-0.2701263427734375,0.0651397705078125
1761379829339694800,6.41769482421875,-1.0273284912109375,-0.2625732421875,0.0684356689453125
1761379829349777700,6.427777587890625,-1.0312042236328125,-0.2523345947265625,0.079071044921875
1761379829359861000,6.437861083984375,-1.0426025390625,-0.2415618896484375,0.0819091796875
1761379829369943800,6.44794384765625,-1.0397796630859375,-0.2259368896484375,0.0775146484375
1761379829380027000,6.45802685546875,-1.03228759765625,-0.212677001953125,0.07293701171875
1761379829390109700,6.468109619140625,-1.02642822265625,-0.20684814453125,0.0691986083984375
1761379829400192800,6.47819287109375,-1.01898193359375,-0.1992340087890625,0.0668487548828125
1761379829410275600,6.488275634765625,-1.005645751953125,-0.197113037109375,0.07012939453125
1761379829420359000,6.49835888671875,-0.9871368408203125,-0.19732666015625,0.071014404296875
1761379829430442000,6.50844189453125,-0.9635162353515625,-0.1948394775390625,0.064422607421875
1761379829440524800,6.51852490234375,-0.9462738037109375,-0.19580078125,0.0688934326171875
1761379829450607900,6.52860791015625,-0.9321441650390625,-0.1958770751953125,0.0704803466796875
1761379829460690700,6.538690673828125,-0.9171142578125,-0.1947174072265625,0.077667236328125
1761379829470773800,6.548773681640625,-0.9014739990234375,-0.19854736328125,0.093841552734375
1761379829480856800,6.55885693359375,-0.900787353515625,-0.2088470458984375,0.1149139404296875
1761379829490940000,6.56893994140625,-0.9013519287109375,-0.2200927734375,0.1313323974609375
1761379829501022700,6.579022705078125,-0.91485595703125,-0.2245941162109375,0.15008544921875
1761379829511105800,6.589105712890625,-0.926422119140625,-0.23162841796875,0.155120849609375
1761379829521188600,6.599188720703125,-0.9319915771484375,-0.2396392822265625,0.1489410400390625
1761379829531272000,6.60927197265625,-0.94403076171875,-0.2429351806640625,0.125091552734375
1761379829541355000,6.61935498046875,-0.957794189453125,-0.243499755859375,0.0942535400390625
1761379829551437800,6.629437744140625,-0.976043701171875,-0.2482757568359375,0.0651092529296875
1761379829561521000,6.63952099609375,-0.992828369140625,-0.2518463134765625,0.042816162109375
1761379829571603700,6.649603759765625,-1.0013275146484375,-0.2437744140625,0.028411865234375
1761379829581686800,6.659686767578125,-1.0157623291015625,-0.2390594482421875,0.020233154296875
1761379829591769900,6.669769775390625,-1.00897216796875,-0.243377685546875,0.025421142578125
1761379829601853000,6.67985302734375,-0.998260498046875,-0.2502899169921875,0.05035400390625
1761379829611935700,6.689935791015625,-0.982940673828125,-0.2672576904296875,0.0865631103515625
1761379829622018800,6.700018798828125,-0.9528656005859375,-0.3033294677734375,0.120330810546875
1761379829632102000,6.710101806640625,-0.9292449951171875,-0.3172607421875,0.13531494140625
1761379829642184700,6.720184814453125,-0.9268341064453125,-0.342987060546875,0.13616943359375
1761379829652268000,6.73026806640625,-0.933258056640625,-0.3649749755859375,0.1384124755859375
1761379829662350800,6.740350830078125,-0.9295806884765625,-0.3823089599609375,0.134307861328125
1761379829672434000,6.750433837890625,-0.9130401611328125,-0.4099273681640625,0.1280670166015625
1761379829682516700,6.760516845703125,-0.904052734375,-0.4393463134765625,0.1341400146484375
1761379829692599800,6.770599853515625,-0.90679931640625,-0.46722412109375,0.1456298828125
1761379829702682600,6.7806826171875,-0.930572509765625,-0.4797210693359375,0.1492156982421875
1761379829712766000,6.790765869140625,-0.96368408203125,-0.4716949462890625,0.1298370361328125
1761379829722848800,6.800848876953125,-1.0030364990234375,-0.4538421630859375,0.108154296875
1761379829732931800,6.810931884765625,-1.0339508056640625,-0.4293212890625,0.0812225341796875
1761379829743015000,6.821014892578125,-1.064300537109375,-0.3968963623046875,0.065216064453125
1761379829753097700,6.83109765625,-1.096343994140625,-0.37890625,0.081756591796875
1761379829763180800,6.841180908203125,-1.1165618896484375,-0.3824615478515625,0.10205078125
1761379829773264000,6.851263916015625,-1.1083831787109375,-0.384429931640625,0.1134033203125
1761379829783347000,6.861346923828125,-1.0826568603515625,-0.3985748291015625,0.116180419921875
1761379829793429800,6.8714296875,-1.0421600341796875,-0.415924072265625,0.11041259765625
1761379829803512800,6.881512939453125,-0.99151611328125,-0.4307708740234375,0.0980377197265625
1761379829813595600,6.891595703125,-0.9542694091796875,-0.441253662109375,0.0814361572265625
1761379829823678700,6.9016787109375,-0.917510986328125,-0.443389892578125,0.0678863525390625
1761379829833762000,6.911761962890625,-0.8813934326171875,-0.43798828125,0.054779052734375
1761379829843844900,6.921844970703125,-0.8498077392578125,-0.4400177001953125,0.0505218505859375
1761379829853928000,6.931927978515625,-0.84686279296875,-0.4330596923828125,0.0526580810546875
1761379829864010800,6.9420107421875,-0.8505706787109375,-0.4306182861328125,0.050384521484375
1761379829874093800,6.95209375,-0.8683013916015625,-0.4281005859375,0.0456390380859375
1761379829884176600,6.9621767578125,-0.8978729248046875,-0.4255523681640625,0.0448760986328125
1761379829894260000,6.972260009765625,-0.9281158447265625,-0.42242431640625,0.04327392578125
1761379829904342800,6.9823427734375,-0.9400634765625,-0.4081268310546875,0.045562744140625
1761379829914427000,6.992427001953125,-0.9453887939453125,-0.4022674560546875,0.0640106201171875
1761379829924509000,7.002509033203125,-0.9454498291015625,-0.4043426513671875,0.08367919921875
1761379829934591700,7.012591796875,-0.934814453125,-0.4041748046875,0.09075927734375
1761379829944675800,7.02267578125,-0.934661865234375,-0.4056396484375,0.0911102294921875
1761379829954759000,7.032759033203125,-0.9460601806640625,-0.40777587890625,0.0797271728515625
1761379829964841700,7.042841796875,-0.954498291015625,-0.403228759765625,0.0597381591796875
1761379829974924800,7.0529248046875,-0.9809417724609375,-0.3982086181640625,0.0549468994140625
1761379829985007900,7.0630078125,-0.9912261962890625,-0.392059326171875,0.0529937744140625
1761379829995090700,7.073090576171875,-0.9783782958984375,-0.388916015625,0.050750732421875
1761379830005174000,7.083174072265625,-0.9605255126953125,-0.389556884765625,0.05322265625
1761379830015256800,7.0932568359375,-0.94305419921875,-0.389068603515625,0.061767578125
1761379830025340000,7.10333984375,-0.9275665283203125,-0.3944549560546875,0.070556640625
1761379830035422700,7.113422607421875,-0.911376953125,-0.4007110595703125,0.0760650634765625
1761379830045505800,7.123505859375,-0.8972015380859375,-0.40191650390625,0.0798492431640625
1761379830055588600,7.133588623046875,-0.89752197265625,-0.3976898193359375,0.0750732421875
1761379830065672000,7.143671875,-0.9035186767578125,-0.38287353515625,0.0742034912109375
1761379830075755000,7.153755126953125,-0.8944091796875,-0.37506103515625,0.0801239013671875
1761379830085837800,7.163837890625,-0.873443603515625,-0.3630828857421875,0.0864105224609375
1761379830095921000,7.1739208984375,-0.879730224609375,-0.3516693115234375,0.110626220703125
1761379830106003700,7.184003662109375,-0.8951416015625,-0.35614013671875,0.1317596435546875
1761379830116086800,7.194086669921875,-0.8263702392578125,-0.33612060546875,0.1256866455078125
1761379830126169900,7.204169921875,-0.936614990234375,-0.316436767578125,0.1552581787109375
1761379830136253000,7.2142529296875,-0.995513916015625,-0.334197998046875,0.1836395263671875
1761379830146335700,7.224335693359375,-0.9929962158203125,-0.3102874755859375,0.176666259765625
1761379830156418800,7.234418701171875,-0.9933929443359375,-0.2659149169921875,0.144500732421875
1761379830166502000,7.244501953125,-0.96990966796875,-0.2537841796875,0.121124267578125
1761379830176584700,7.254584716796875,-0.9579925537109375,-0.2580718994140625,0.1323699951171875
1761379830186668000,7.26466796875,-0.9421539306640625,-0.2665252685546875,0.1439971923828125
1761379830196750800,7.274750732421875,-0.9124603271484375,-0.2710113525390625,0.1544647216796875
1761379830206834000,7.284833984375,-0.8730621337890625,-0.28564453125,0.169036865234375
1761379830216916700,7.294916748046875,-0.85748291015625,-0.2996368408203125,0.18743896484375
1761379830226999800,7.304999755859375,-0.8475189208984375,-0.2905731201171875,0.1982269287109375
