time,seconds_elapsed,z,y,x
1761379822987388400,0.065388427734375,0.8854097127914429,0.07452216744422913,0.016633039340376854
1761379822997471200,0.07547119140625,0.8629691004753113,0.19856661558151245,0.06951676309108734
1761379823007554300,0.08555419921875,0.8495449423789978,0.32965806126594543,0.058703262358903885
1761379823017637400,0.095637451171875,0.8549604415893555,0.41335803270339966,-0.006298375781625509
1761379823027720200,0.10572021484375,0.8772468566894531,0.44311991333961487,-0.11073850095272064
1761379823037803500,0.115803466796875,0.8985270857810974,0.4304046332836151,-0.21308325231075287
1761379823047886300,0.12588623046875,0.918945848941803,0.4125388264656067,-0.2759551405906677
1761379823057969400,0.135969482421875,0.9243006706237793,0.4029538333415985,-0.2978713810443878
1761379823068052200,0.14605224609375,0.9283936619758606,0.4013522267341614,-0.2782004773616791
1761379823078135300,0.15613525390625,0.9387301802635193,0.39945659041404724,-0.2376548945903778
1761379823088218000,0.166218017578125,0.9486219882965088,0.38119181990623474,-0.20241010189056396
1761379823098301400,0.176301513671875,0.9446818232536316,0.3879844844341278,-0.15948793292045593
1761379823108384300,0.18638427734375,0.9393051862716675,0.4005495309829712,-0.12297651916742325
1761379823118467300,0.19646728515625,0.9373434782028198,0.4035365581512451,-0.12052454799413681
1761379823128551200,0.20655126953125,0.9441058039665222,0.3806653320789337,-0.14173157513141632
1761379823138634200,0.21663427734375,0.943827211856842,0.34759417176246643,-0.1612386852502823
1761379823148717300,0.22671728515625,0.929924726486206,0.3081327974796295,-0.1721549928188324
1761379823158800400,0.23680029296875,0.9177634119987488,0.2556256353855133,-0.1874748170375824
1761379823168883200,0.24688330078125,0.9109339714050293,0.21596185863018036,-0.1989639699459076
1761379823178966300,0.25696630859375,0.9099915027618408,0.19993868470191956,-0.20081086456775665
1761379823189049300,0.26704931640625,0.8970370888710022,0.21141770482063293,-0.19917088747024536
1761379823199132200,0.277132080078125,0.8714970946311951,0.25481417775154114,-0.1919744908809662
1761379823209215500,0.287215576171875,0.862836480140686,0.31490254402160645,-0.19396281242370605
1761379823219298300,0.29729833984375,0.8757435083389282,0.37008965015411377,-0.21520525217056274
1761379823229381400,0.30738134765625,0.8958508968353271,0.4072079658508301,-0.2393539994955063
1761379823239464200,0.317464111328125,0.9144184589385986,0.42969146370887756,-0.24233993887901306
1761379823249547300,0.32754736328125,0.9241517782211304,0.4496433138847351,-0.22651836276054382
1761379823259630000,0.337630126953125,0.9461559057235718,0.45957183837890625,-0.21308910846710205
1761379823269713400,0.34771337890625,0.9756860733032227,0.448416143655777,-0.20238105952739716
1761379823279796500,0.35779638671875,0.9929872751235962,0.4326619505882263,-0.1834459900856018
1761379823289879300,0.36787939453125,0.9999219179153442,0.4087347686290741,-0.15630757808685303
1761379823299962400,0.37796240234375,1.008679747581482,0.381208598613739,-0.13494662940502167
1761379823310045200,0.388045166015625,1.0250277519226074,0.3575642704963684,-0.13178333640098572
1761379823320128300,0.398128173828125,1.0309219360351562,0.31158584356307983,-0.13128212094306946
1761379823330211300,0.40821142578125,1.0330396890640259,0.2605631351470947,-0.12445031851530075
1761379823340294400,0.41829443359375,1.0208277702331543,0.2316627949476242,-0.10258922725915909
1761379823350377200,0.428377197265625,0.9966784715652466,0.22947686910629272,-0.06910796463489532
1761379823360464600,0.438464599609375,0.9697166085243225,0.24607129395008087,-0.0384451262652874
1761379823370547500,0.44854736328125,0.956836998462677,0.24483691155910492,-0.04945223778486252
1761379823380630500,0.458630615234375,0.965877890586853,0.2331528216600418,-0.07255462557077408
1761379823390713600,0.468713623046875,0.9723933339118958,0.2134598195552826,-0.08996051549911499
1761379823400796700,0.478796630859375,0.9620680212974548,0.18277381360530853,-0.09193605184555054
1761379823410879500,0.48887939453125,0.943902850151062,0.1556609719991684,-0.08912002295255661
1761379823420962600,0.498962646484375,0.9259403347969055,0.13347630202770233,-0.07445186376571655
1761379823431045600,0.509045654296875,0.8986874222755432,0.12649215757846832,-0.04972334951162338
1761379823441128400,0.51912841796875,0.8600398898124695,0.12190885841846466,-0.022730613127350807
1761379823451211800,0.529211669921875,0.8388933539390564,0.11719559878110886,-0.0018514295807108283
1761379823461295600,0.539295654296875,0.8324812650680542,0.11736097931861877,0.004017910920083523
1761379823471378700,0.549378662109375,0.8294974565505981,0.12273630499839783,0.026014823466539383
1761379823481461500,0.55946142578125,0.828769862651825,0.1369892805814743,0.043525904417037964
1761379823491544800,0.569544921875,0.8378744125366211,0.17602349817752838,0.07052662968635559
1761379823501627600,0.579627685546875,0.8414403796195984,0.21483799815177917,0.09723334014415741
1761379823511710700,0.589710693359375,0.8382642865180969,0.2291245311498642,0.10618742555379868
1761379823521793500,0.59979345703125,0.8112704753875732,0.18878136575222015,0.08956583589315414
1761379823531876600,0.609876708984375,0.7538799047470093,0.07154928147792816,0.020546553656458855
1761379823541959400,0.61995947265625,0.6804192662239075,-0.04745513200759888,-0.06107880175113678
1761379823552042800,0.630042724609375,0.6288045644760132,-0.04668601229786873,-0.1076926440000534
1761379823562125600,0.64012548828125,0.602445662021637,0.10467980802059174,-0.10802952945232391
1761379823572208600,0.650208740234375,0.6033537983894348,0.31753188371658325,-0.0664309561252594
1761379823582291700,0.660291748046875,0.6220491528511047,0.4904003441333771,-0.008520517498254776
1761379823592374500,0.67037451171875,0.6527506113052368,0.5509049892425537,0.02929610386490822
1761379823602457600,0.68045751953125,0.6990725994110107,0.5282025933265686,0.05617991462349892
1761379823612540700,0.690540771484375,0.743809163570404,0.4438789188861847,0.0614180862903595
1761379823622623700,0.700623779296875,0.7440792322158813,0.28509166836738586,0.023929035291075706
1761379823632706600,0.71070654296875,0.6971578001976013,0.08502034842967987,-0.02840900421142578
1761379823642789600,0.72078955078125,0.634640097618103,-0.10679356008768082,-0.08665526658296585
1761379823652872400,0.73087255859375,0.5964807271957397,-0.2191762924194336,-0.1314762681722641
1761379823662955500,0.74095556640625,0.5683630704879761,-0.22404934465885162,-0.14593777060508728
1761379823673038800,0.751038818359375,0.5407971739768982,-0.15445002913475037,-0.12464499473571777
1761379823683121700,0.76112158203125,0.518088161945343,-0.03151744604110718,-0.0775938630104065
1761379823693204700,0.771204833984375,0.5091884136199951,0.10780848562717438,-0.014819160103797913
1761379823703287600,0.78128759765625,0.5064527988433838,0.2394847571849823,0.044385042041540146
1761379823713370600,0.79137060546875,0.5118406414985657,0.337537556886673,0.10042993724346161
1761379823723453400,0.801453369140625,0.524067223072052,0.3842981457710266,0.14310656487941742
1761379823733536800,0.811536865234375,0.5392371416091919,0.40094849467277527,0.1745406538248062
1761379823743619600,0.82161962890625,0.555452823638916,0.37651026248931885,0.19358225166797638
1761379823753702700,0.83170263671875,0.5682392120361328,0.33319899439811707,0.20204950869083405
1761379823763785700,0.84178564453125,0.5442244410514832,0.28372278809547424,0.18329818546772003
1761379823773868500,0.85186865234375,0.5042597055435181,0.16742867231369019,0.12317945808172226
1761379823783951600,0.86195166015625,0.4621226191520691,0.030915038660168648,0.043657466769218445
1761379823794034700,0.87203466796875,0.41801056265830994,-0.05729524791240692,-0.03218856081366539
1761379823804117800,0.88211767578125,0.37752917408943176,-0.05633304640650749,-0.07162465155124664
1761379823814201600,0.89220166015625,0.3479846119880676,0.02130928263068199,-0.08451887965202332
1761379823824284700,0.90228466796875,0.33110949397087097,0.13617834448814392,-0.08479344844818115
1761379823834367500,0.912367431640625,0.3378768563270569,0.25166580080986023,-0.08816847205162048
1761379823844450800,0.922450927734375,0.3598482012748718,0.34657979011535645,-0.0999460369348526
1761379823854533600,0.93253369140625,0.3906356692314148,0.40618640184402466,-0.11836285889148712
1761379823864616700,0.94261669921875,0.4159013330936432,0.4223528504371643,-0.1420964151620865
1761379823874699500,0.952699462890625,0.44108739495277405,0.42668581008911133,-0.14418967068195343
1761379823884782600,0.962782470703125,0.4642302393913269,0.416513055562973,-0.14162211120128632
1761379823894865400,0.972865478515625,0.48933160305023193,0.39818254113197327,-0.13921114802360535
1761379823904948700,0.98294873046875,0.5183448791503906,0.36452603340148926,-0.13305018842220306
1761379823915031600,0.993031494140625,0.540435254573822,0.33627814054489136,-0.11504243314266205
1761379823925114600,1.003114501953125,0.557237982749939,0.30770188570022583,-0.10439164936542511
1761379823935197700,1.01319775390625,0.5716874599456787,0.28944140672683716,-0.09312648326158524
1761379823945280500,1.023280517578125,0.5802844166755676,0.2784856855869293,-0.09956387430429459
1761379823955363600,1.033363525390625,0.5855444073677063,0.26130935549736023,-0.11149164289236069
1761379823965446700,1.04344677734375,0.5800884366035461,0.22915515303611755,-0.14944061636924744
1761379823975529700,1.05352978515625,0.5671923160552979,0.20479123294353485,-0.18981121480464935
1761379823985612500,1.063612548828125,0.5470641255378723,0.18584097921848297,-0.22767657041549683
1761379823995695600,1.073695556640625,0.5295024514198303,0.1915324181318283,-0.25878414511680603
1761379824005778400,1.0837783203125,0.5291061997413635,0.2139490395784378,-0.28524133563041687
1761379824015861500,1.093861572265625,0.5366232395172119,0.2416728138923645,-0.2890307307243347
1761379824025944800,1.10394482421875,0.5486434102058411,0.26302045583724976,-0.27831390500068665
1761379824036027600,1.114027587890625,0.566953718662262,0.27548083662986755,-0.2418147623538971
1761379824046110700,1.12411083984375,0.5759109854698181,0.26607030630111694,-0.19627709686756134
1761379824056193500,1.134193603515625,0.5741407871246338,0.23822535574436188,-0.1492432802915573
1761379824066276600,1.144276611328125,0.5667846202850342,0.2014111429452896,-0.11256862431764603
1761379824076359400,1.154359375,0.5608236193656921,0.15533286333084106,-0.08522701263427734
1761379824086442800,1.16444287109375,0.5468260645866394,0.11327516287565231,-0.05438840761780739
1761379824096525600,1.174525634765625,0.5269501209259033,0.08293350040912628,-0.015595471486449242
1761379824106608600,1.184608642578125,0.5015422105789185,0.06643734872341156,0.016538230702280998
1761379824116691700,1.194691650390625,0.4801809787750244,0.0863623172044754,0.05512769892811775
1761379824126774500,1.2047744140625,0.46332451701164246,0.1176062598824501,0.08542222529649734
1761379824136858600,1.214858642578125,0.45363593101501465,0.140785351395607,0.09439041465520859
1761379824146941700,1.224941650390625,0.43756482005119324,0.15669986605644226,0.09325297921895981
1761379824157024500,1.2350244140625,0.4219491183757782,0.15881387889385223,0.08241178840398788
1761379824167107600,1.245107666015625,0.3998235762119293,0.15244360268115997,0.07529661804437637
1761379824177190700,1.255190673828125,0.37103691697120667,0.15479516983032227,0.07501272857189178
1761379824187273500,1.2652734375,0.3453030586242676,0.15848471224308014,0.09078370034694672
1761379824197356800,1.275356689453125,0.3293672502040863,0.1630144864320755,0.09883150458335876
1761379824207439600,1.285439697265625,0.3221956193447113,0.15370647609233856,0.08579053729772568
1761379824217522700,1.295522705078125,0.3213852047920227,0.1496233195066452,0.07223105430603027
1761379824227605500,1.30560546875,0.3170391917228699,0.1669892519712448,0.06464983522891998
1761379824237688600,1.3156884765625,0.3133682906627655,0.19407705962657928,0.06424370408058167
1761379824247771400,1.325771484375,0.3206730782985687,0.21976777911186218,0.06997748464345932
1761379824257854700,1.335854736328125,0.3294125199317932,0.24686305224895477,0.08889205753803253
1761379824267937500,1.3459375,0.3484346866607666,0.2760925590991974,0.10847800970077515
1761379824278020600,1.3560205078125,0.37729430198669434,0.32848840951919556,0.14441657066345215
1761379824288103700,1.366103759765625,0.4186723530292511,0.3878135085105896,0.17381148040294647
1761379824298186500,1.3761865234375,0.4562056064605713,0.3769161105155945,0.17255499958992004
1761379824308269600,1.38626953125,0.49016889929771423,0.32950279116630554,0.150088831782341
1761379824318352600,1.3963525390625,0.4887062907218933,0.22945129871368408,0.11173771321773529
1761379824328435700,1.406435791015625,0.4521735906600952,0.0777597725391388,0.03491750359535217
1761379824338518500,1.4165185546875,0.3863455653190613,-0.05010764300823212,-0.056113868951797485
1761379824348601600,1.4266015625,0.3329941928386688,-0.06076827645301819,-0.1491583287715912
1761379824358680000,1.43668017578125,0.304699182510376,0.0015534218400716782,-0.23191632330417633
1761379824368763000,1.446762939453125,0.2815432548522949,0.0660618394613266,-0.3072323799133301
1761379824378846000,1.456845947265625,0.2686016261577606,0.12209101766347885,-0.35411813855171204
1761379824388928800,1.4669287109375,0.26973533630371094,0.1629612296819687,-0.37014317512512207
1761379824399012000,1.47701220703125,0.26523086428642273,0.18839654326438904,-0.3407762348651886
1761379824409095200,1.48709521484375,0.2782217562198639,0.217951238155365,-0.2689632773399353
1761379824419178000,1.497177978515625,0.30478015542030334,0.2671976089477539,-0.14594867825508118
1761379824429261000,1.507260986328125,0.35981011390686035,0.35395967960357666,0.008213454857468605
1761379824439343900,1.51734375,0.42774441838264465,0.43674591183662415,0.16458788514137268
1761379824449427000,1.527427001953125,0.5113083124160767,0.48310327529907227,0.29136818647384644
1761379824459511000,1.537510986328125,0.5487275719642639,0.47174301743507385,0.36234569549560547
1761379824469594000,1.547593994140625,0.5693017840385437,0.4058327376842499,0.39324235916137695
1761379824479677000,1.557677001953125,0.5851241946220398,0.31849008798599243,0.38395005464553833
1761379824489760000,1.567760009765625,0.6087496280670166,0.19235320389270782,0.3549509048461914
1761379824499842800,1.5778427734375,0.6059133410453796,0.021388113498687744,0.2995014786720276
1761379824509926100,1.587926025390625,0.5979507565498352,-0.17049743235111237,0.23406149446964264
1761379824520009000,1.598009033203125,0.579289972782135,-0.3559405207633972,0.16578257083892822
1761379824530092000,1.608092041015625,0.5347630381584167,-0.4998721480369568,0.1026717871427536
1761379824540174800,1.6181748046875,0.4578642249107361,-0.5855939388275146,0.055983107537031174
1761379824550258000,1.6282578125,0.3442718982696533,-0.5976847410202026,0.013608752749860287
1761379824560341000,1.638341064453125,0.2328210026025772,-0.5207403898239136,-0.026270220056176186
1761379824570424000,1.648424072265625,0.14955060184001923,-0.3495846390724182,-0.060695305466651917
1761379824580507100,1.658507080078125,0.11701583862304688,-0.1191660687327385,-0.09414700418710709
1761379824590590000,1.66858984375,0.12218582630157471,0.12177517265081406,-0.11518890410661697
1761379824600673000,1.678673095703125,0.1598554402589798,0.3270561397075653,-0.12737447023391724
1761379824610755800,1.688755859375,0.21742713451385498,0.46385180950164795,-0.11298434436321259
1761379824620839000,1.6988388671875,0.2673451602458954,0.5100004076957703,-0.0665806233882904
1761379824630922000,1.708921875,0.29407209157943726,0.4907396137714386,-0.00492125516757369
1761379824641005000,1.719005126953125,0.30233296751976013,0.43168723583221436,0.0628945454955101
1761379824651088000,1.729087890625,0.31610551476478577,0.3586963713169098,0.12181991338729858
1761379824661171000,1.7391708984375,0.2993968427181244,0.293153315782547,0.1800248920917511
1761379824671254000,1.74925390625,0.2874922454357147,0.2187965214252472,0.20699898898601532
1761379824681336800,1.7593369140625,0.29853555560112,0.1482834815979004,0.20662933588027954
1761379824691420200,1.769420166015625,0.3031731843948364,0.08536150306463242,0.18732409179210663
1761379824701503000,1.7795029296875,0.2983883023262024,0.04045581445097923,0.16345258057117462
1761379824711586000,1.7895859375,0.2834303677082062,-0.002880475018173456,0.12907463312149048
1761379824721668900,1.7996689453125,0.2535499632358551,-0.04409102723002434,0.0947914868593216
1761379824731752000,1.809751953125,0.2146126925945282,-0.0798434317111969,0.0668858215212822
1761379824741834800,1.819834716796875,0.17105776071548462,-0.11243679374456406,0.04277702420949936
1761379824751918000,1.82991796875,0.13251543045043945,-0.13587607443332672,0.037942323833703995
1761379824762001200,1.840001220703125,0.10423426330089569,-0.1388084888458252,0.042425487190485
1761379824772084000,1.850083984375,0.07096152752637863,-0.129074364900589,0.060930993407964706
1761379824782167000,1.8601669921875,0.03481843322515488,-0.12815344333648682,0.07654404640197754
1761379824792251000,1.8702509765625,-0.01449798233807087,-0.13167467713356018,0.08536230027675629
1761379824802334000,1.880333984375,-0.07532857358455658,-0.12653130292892456,0.0854608416557312
1761379824812417000,1.8904169921875,-0.13635970652103424,-0.12236479669809341,0.06923393160104752
1761379824822500000,1.9005,-0.18382203578948975,-0.1198587566614151,0.039921317249536514
1761379824832583000,1.9105830078125,-0.22806432843208313,-0.11855541169643402,-0.0013148026773706079
1761379824842666000,1.920666015625,-0.26316317915916443,-0.1151910349726677,-0.03165912628173828
1761379824852748800,1.930748779296875,-0.28745442628860474,-0.1070883721113205,-0.05121525004506111
1761379824862832000,1.94083203125,-0.30331194400787354,-0.08919432759284973,-0.04837924987077713
1761379824872915000,1.9509150390625,-0.3112851679325104,-0.06749142706394196,-0.029338980093598366
1761379824882998000,1.960998046875,-0.31394702196121216,-0.05168982595205307,0.0023939155507832766
1761379824893080800,1.971080810546875,-0.322447806596756,-0.07388380914926529,0.02569950371980667
1761379824903164000,1.981163818359375,-0.33929312229156494,-0.1136954054236412,0.05127890035510063
1761379824913247000,1.9912470703125,-0.35792672634124756,-0.14840438961982727,0.07553603500127792
1761379824923330000,2.001330078125,-0.3735395073890686,-0.18118096888065338,0.0905275046825409
1761379824933413000,2.0114130859375,-0.3786487877368927,-0.18160760402679443,0.10696905851364136
1761379824943496000,2.021495849609375,-0.37425562739372253,-0.13397110998630524,0.1381075382232666
1761379824953579000,2.0315791015625,-0.36597639322280884,-0.021211279556155205,0.1837136447429657
1761379824963661800,2.041661865234375,-0.3672158122062683,-0.025857429951429367,0.18916618824005127
1761379824973745000,2.051744873046875,-0.39403411746025085,-0.20324526727199554,0.10117961466312408
1761379824983828000,2.061827880859375,-0.4203038215637207,-0.4170885682106018,-0.025655828416347504
1761379824993911000,2.0719111328125,-0.4633556604385376,-0.5684991478919983,-0.11489515751600266
1761379825003994000,2.081994140625,-0.5181507468223572,-0.5715726613998413,-0.12363938242197037
1761379825014077000,2.092076904296875,-0.5603054165840149,-0.3361585736274719,-0.05215108394622803
1761379825024160000,2.102159912109375,-0.5495134592056274,-0.01013652328401804,0.030435403808951378
1761379825034242800,2.112242919921875,-0.5611690282821655,0.06137893721461296,-0.05481664463877678
1761379825044326100,2.122326171875,-0.5988247990608215,-0.10940691828727722,-0.30711254477500916
1761379825054409000,2.132408935546875,-0.6636272668838501,-0.3390108048915863,-0.6523035168647766
1761379825064492000,2.142491943359375,-0.7529810667037964,-0.37452566623687744,-0.9173839092254639
1761379825074574800,2.152574951171875,-0.8539766669273376,-0.21999254822731018,-0.9890778064727783
1761379825084658000,2.162657958984375,-0.9468813538551331,0.07488835602998734,-0.8569408059120178
1761379825094741000,2.172740966796875,-0.9585574269294739,0.4439082145690918,-0.6067245602607727
1761379825104825000,2.1828251953125,-0.8501172065734863,0.7965706586837769,-0.3045212924480438
1761379825114908000,2.192907958984375,-0.6585792303085327,1.0240414142608643,-0.028479577973484993
1761379825124991000,2.202990966796875,-0.47270336747169495,1.0385875701904297,0.18017536401748657
1761379825135073800,2.21307373046875,-0.32187390327453613,0.8727189302444458,0.3401980400085449
1761379825145157000,2.2231572265625,-0.24220171570777893,0.623062252998352,0.47320297360420227
1761379825155240000,2.233239990234375,-0.26142868399620056,0.34981873631477356,0.5888773798942566
1761379825165323000,2.243322998046875,-0.34256505966186523,0.06984033435583115,0.6788416504859924
1761379825175406000,2.253406005859375,-0.44602835178375244,-0.24899064004421234,0.7390679717063904
1761379825185489000,2.263489013671875,-0.5278659462928772,-0.5734398365020752,0.7406932711601257
1761379825195572000,2.273572021484375,-0.5907506346702576,-0.8941525816917419,0.688530445098877
1761379825205655000,2.283655029296875,-0.6719368696212769,-1.1803268194198608,0.5651129484176636
1761379825215738000,2.293738037109375,-0.7678913474082947,-1.3844645023345947,0.3930162489414215
1761379825225821000,2.303821044921875,-0.8679993152618408,-1.433607578277588,0.2479405552148819
1761379825235904000,2.313904052734375,-0.9705826640129089,-1.2961623668670654,0.16940900683403015
1761379825245986800,2.32398681640625,-1.0381896495819092,-0.9957948327064514,0.14859187602996826
1761379825256070000,2.33406982421875,-1.057558536529541,-0.6139729022979736,0.17047026753425598
1761379825266153200,2.3441533203125,-0.9900162816047668,-0.24993686378002167,0.1854950338602066
1761379825276236000,2.354236083984375,-0.9132610559463501,-0.007399593014270067,0.14915406703948975
1761379825286319000,2.364319091796875,-0.8525848984718323,0.07482470571994781,0.06371772289276123
1761379825296402000,2.37440185546875,-0.8191111087799072,0.05540014058351517,-0.005892243701964617
1761379825306485000,2.384485107421875,-0.8238195776939392,-0.025047030299901962,-0.042330145835876465
1761379825316567800,2.39456787109375,-0.845731794834137,-0.129954531788826,-0.030950991436839104
1761379825326651100,2.404651123046875,-0.8566678166389465,-0.23476271331310272,0.04562421143054962
1761379825336734000,2.41473388671875,-0.840941846370697,-0.31846559047698975,0.1686936765909195
1761379825346817000,2.424817138671875,-0.8179662227630615,-0.34741708636283875,0.31023189425468445
1761379825356904000,2.434904052734375,-0.7965227365493774,-0.3612322211265564,0.42444688081741333
1761379825366987000,2.444987060546875,-0.7708679437637329,-0.40557917952537537,0.4656776785850525
1761379825377069800,2.45506982421875,-0.7625325322151184,-0.44258859753608704,0.45002734661102295
1761379825387153000,2.46515283203125,-0.7792169451713562,-0.4725704789161682,0.38729578256607056
1761379825397236000,2.475236083984375,-0.818376898765564,-0.4904956817626953,0.30021974444389343
1761379825407319000,2.485319091796875,-0.8477275967597961,-0.49448031187057495,0.2118358165025711
1761379825417402000,2.495402099609375,-0.8686237931251526,-0.4845848083496094,0.14460991322994232
1761379825427485000,2.50548486328125,-0.8791009187698364,-0.48241353034973145,0.08907341957092285
1761379825437569000,2.515569091796875,-0.8671287298202515,-0.48771932721138,0.057065948843955994
1761379825447652000,2.525652099609375,-0.8533458113670349,-0.5066810250282288,0.045948050916194916
1761379825457735200,2.535735107421875,-0.8428776860237122,-0.523312509059906,0.04360553249716759
1761379825467818000,2.54581787109375,-0.8424582481384277,-0.5319133996963501,0.03922649845480919
1761379825477901000,2.555901123046875,-0.8482652902603149,-0.5296369791030884,0.03191345930099487
1761379825487983900,2.56598388671875,-0.8518671989440918,-0.5053987503051758,0.02112019807100296
1761379825498067000,2.57606689453125,-0.8447901010513306,-0.46805909276008606,0.005367867648601532
1761379825508150000,2.58614990234375,-0.815318763256073,-0.3942016363143921,0.010000968351960182
1761379825518233000,2.596233154296875,-0.7523928284645081,-0.31446099281311035,0.0222693532705307
1761379825528316000,2.60631591796875,-0.695761501789093,-0.40494483709335327,0.003939347807317972
1761379825538399000,2.61639892578125,-0.6679404973983765,-0.6008110046386719,-0.05824306607246399
1761379825548482000,2.62648193359375,-0.6863019466400146,-0.799558699131012,-0.11770665645599365
1761379825558564900,2.63656494140625,-0.7559281587600708,-0.8969113826751709,-0.13542254269123077
1761379825568648200,2.646648193359375,-0.8234432935714722,-0.852459728717804,-0.11874449253082275
1761379825578731000,2.65673095703125,-0.8581048250198364,-0.7009962201118469,-0.05507843196392059
1761379825588814000,2.66681396484375,-0.8401354551315308,-0.4485112130641937,0.05421610176563263
1761379825598897000,2.67689697265625,-0.7882964611053467,-0.21165499091148376,0.1524348109960556
1761379825608980000,2.68697998046875,-0.7192345857620239,-0.1485322117805481,0.1668960452079773
1761379825619062800,2.697062744140625,-0.6501002311706543,-0.25308552384376526,0.11130495369434357
1761379825629146000,2.70714599609375,-0.631737232208252,-0.43880876898765564,0.03410071134567261
1761379825639229200,2.717229248046875,-0.6774967312812805,-0.5974671244621277,-0.002124403603374958
1761379825649312000,2.72731201171875,-0.7485733032226562,-0.6566830277442932,0.012807408347725868
1761379825659395000,2.73739501953125,-0.8123850226402283,-0.6056129336357117,0.052270129323005676
1761379825669478000,2.747477783203125,-0.8370040655136108,-0.4716378450393677,0.07532937824726105
1761379825679561000,2.75756103515625,-0.8133898377418518,-0.29514482617378235,0.06624612957239151
1761379825689644000,2.76764404296875,-0.7535398006439209,-0.14504534006118774,0.015216769650578499
1761379825699727000,2.77772705078125,-0.68724524974823,-0.04981256276369095,-0.054009970277547836
1761379825709810000,2.787809814453125,-0.6393208503723145,-0.023960726335644722,-0.11636762320995331
1761379825719893000,2.79789306640625,-0.6269448399543762,-0.08767472207546234,-0.15412378311157227
1761379825729976000,2.80797607421875,-0.6497785449028015,-0.21466968953609467,-0.17131848633289337
1761379825740059000,2.818058837890625,-0.6791843771934509,-0.3759288787841797,-0.17402851581573486
1761379825750142200,2.82814208984375,-0.693601667881012,-0.5180996060371399,-0.14885684847831726
1761379825760225000,2.83822509765625,-0.6920120120048523,-0.6197263598442078,-0.08671172708272934
1761379825770308000,2.84830810546875,-0.672455906867981,-0.6619406938552856,0.00720491586253047
1761379825780392000,2.858391845703125,-0.6441957354545593,-0.6472341418266296,0.1004275381565094
1761379825790475000,2.86847509765625,-0.6102457642555237,-0.5832498669624329,0.18174290657043457
1761379825800558000,2.87855810546875,-0.5792974829673767,-0.4955900311470032,0.24309015274047852
1761379825810641200,2.88864111328125,-0.5759772658348083,-0.4326997697353363,0.27979543805122375
1761379825820724000,2.898723876953125,-0.5903535485267639,-0.3967795670032501,0.29565107822418213
1761379825830807000,2.90880712890625,-0.6277217268943787,-0.3871397376060486,0.2802729308605194
1761379825840889900,2.918889892578125,-0.6747534275054932,-0.4062154293060303,0.242513045668602
1761379825850973000,2.928972900390625,-0.7344593405723572,-0.42936548590660095,0.20164524018764496
1761379825861056000,2.939055908203125,-0.7916129231452942,-0.4268706440925598,0.1667889803647995
1761379825871139000,2.94913916015625,-0.8384358286857605,-0.38024187088012695,0.1489948034286499
1761379825881222000,2.959221923828125,-0.864102303981781,-0.2887822687625885,0.14433348178863525
1761379825891305000,2.969304931640625,-0.8933427333831787,-0.2000870257616043,0.1456509381532669
1761379825901388000,2.979387939453125,-0.9166645407676697,-0.14607970416545868,0.14022688567638397
1761379825911470800,2.989470947265625,-0.9360390901565552,-0.12243376672267914,0.13531814515590668
1761379825921554200,2.99955419921875,-0.959295928478241,-0.13490402698516846,0.12215573340654373
1761379825931637000,3.009636962890625,-0.9880915880203247,-0.18200096487998962,0.11383788287639618
1761379825941720000,3.019719970703125,-1.0229816436767578,-0.237807497382164,0.12781468033790588
1761379825951803000,3.029802978515625,-1.0492255687713623,-0.277614027261734,0.1819991022348404
1761379825961886000,3.039885986328125,-1.0608975887298584,-0.2942337691783905,0.2513081431388855
1761379825971968800,3.04996875,-1.0517719984054565,-0.31089237332344055,0.3127770721912384
1761379825982052000,3.060052001953125,-1.0212522745132446,-0.3292761743068695,0.3529452681541443
1761379825992135200,3.07013525390625,-0.9880971908569336,-0.3541490137577057,0.3685018718242645
1761379826002218000,3.080218017578125,-0.9722772240638733,-0.3974730670452118,0.3644693195819855
1761379826012301000,3.090301025390625,-0.9674713015556335,-0.4342159032821655,0.3720763623714447
1761379826022383900,3.1003837890625,-0.9754863381385803,-0.43995848298072815,0.3955973982810974
1761379826032467000,3.110467041015625,-0.9878841638565063,-0.4524598717689514,0.413894385099411
1761379826042550000,3.120550048828125,-0.9921444058418274,-0.5251333117485046,0.3704989552497864
1761379826052633000,3.130633056640625,-0.9954837560653687,-0.6587163805961609,0.24617089331150055
1761379826062716000,3.1407158203125,-1.0236165523529053,-0.8148559331893921,0.05961432680487633
1761379826072799000,3.150799072265625,-1.098795771598816,-0.9789503216743469,-0.17185698449611664
1761379826082882000,3.160882080078125,-1.2140789031982422,-1.0579417943954468,-0.3919483423233032
1761379826092964900,3.17096484375,-1.3249192237854004,-0.9566317200660706,-0.5318207740783691
1761379826103048200,3.181048095703125,-1.3893636465072632,-0.6426292657852173,-0.5570923089981079
1761379826113131000,3.191131103515625,-1.3800565004348755,-0.21545292437076569,-0.4846433699131012
1761379826123214000,3.201214111328125,-1.2637535333633423,0.22168205678462982,-0.345866858959198
1761379826133298000,3.2112978515625,-1.101269006729126,0.5493369102478027,-0.21285660564899445
1761379826143381000,3.221381103515625,-0.974845290184021,0.671639621257782,-0.1650368869304657
1761379826153464000,3.231464111328125,-0.8618814945220947,0.6393256187438965,-0.17311425507068634
1761379826163547100,3.241547119140625,-0.8359811902046204,0.4804646074771881,-0.23953641951084137
1761379826173630000,3.2516298828125,-0.9416497945785522,0.12196239084005356,-0.4316054582595825
1761379826183713000,3.261713134765625,-1.1172189712524414,-0.3662469685077667,-0.757857620716095
1761379826193795800,3.2717958984375,-1.2893249988555908,-0.7408711910247803,-1.1189135313034058
1761379826203879000,3.28187890625,-1.4055227041244507,-0.8833646774291992,-1.3703572750091553
1761379826213962000,3.2919619140625,-1.4520041942596436,-0.7907817363739014,-1.4523029327392578
1761379826224045000,3.302045166015625,-1.3871526718139648,-0.5195523500442505,-1.3480942249298096
1761379826234128000,3.3121279296875,-1.1865836381912231,-0.18298153579235077,-1.0685973167419434
1761379826244211000,3.3222109375,-0.9395126104354858,0.1527402698993683,-0.676426112651825
1761379826254294000,3.3322939453125,-0.7791168093681335,0.32928869128227234,-0.2565675973892212
1761379826264376800,3.342376953125,-0.7169123291969299,0.27409279346466064,0.0784362182021141
1761379826274460200,3.352460205078125,-0.7244056463241577,0.014583736658096313,0.2909844219684601
1761379826284543000,3.36254296875,-0.8141477704048157,-0.3675319254398346,0.38341236114501953
1761379826294626000,3.3726259765625,-0.9474310278892517,-0.7272176742553711,0.42066654562950134
1761379826304708900,3.382708984375,-1.0679235458374023,-0.985968291759491,0.449463814496994
1761379826314792000,3.3927919921875,-1.1420340538024902,-1.0847691297531128,0.5008428692817688
1761379826324874800,3.402874755859375,-1.204200267791748,-1.0697742700576782,0.5669441223144531
1761379826334958000,3.4129580078125,-1.2429829835891724,-0.9743302464485168,0.6279028058052063
1761379826345041200,3.423041259765625,-1.2670148611068726,-0.8376877307891846,0.6858564019203186
1761379826355124000,3.4331240234375,-1.3226892948150635,-0.6805694699287415,0.7161892652511597
1761379826365203500,3.443203369140625,-1.3999276161193848,-0.5447253584861755,0.6852414608001709
1761379826375286300,3.453286376953125,-1.4852819442749023,-0.4584525227546692,0.5892499685287476
1761379826385369300,3.463369384765625,-1.5831032991409302,-0.47806084156036377,0.4469388723373413
1761379826395452200,3.4734521484375,-1.6977704763412476,-0.5755887627601624,0.2602662146091461
1761379826405535200,3.48353515625,-1.8100088834762573,-0.7289173007011414,0.06692869961261749
1761379826415618300,3.493618408203125,-1.8875638246536255,-0.8273869156837463,-0.08823611587285995
1761379826425701400,3.503701416015625,-1.9325878620147705,-0.8414376974105835,-0.16296841204166412
1761379826435784400,3.513784423828125,-1.9465047121047974,-0.8061966300010681,-0.1799127757549286
1761379826445867300,3.5238671875,-1.9092254638671875,-0.6942293643951416,-0.12927889823913574
1761379826455950300,3.533950439453125,-1.8368223905563354,-0.5783578753471375,-0.03852502256631851
1761379826466033200,3.544033203125,-1.7615910768508911,-0.4960606098175049,0.0766441747546196
1761379826476116500,3.554116455078125,-1.7047498226165771,-0.46694934368133545,0.19856315851211548
1761379826486199300,3.56419921875,-1.6723737716674805,-0.5161275267601013,0.2915378510951996
1761379826496282400,3.574282470703125,-1.661788821220398,-0.6196203827857971,0.35722923278808594
1761379826506366200,3.5843662109375,-1.6741069555282593,-0.729684054851532,0.3964216411113739
1761379826516449300,3.59444921875,-1.6842155456542969,-0.8037955164909363,0.4283686578273773
1761379826526532400,3.604532470703125,-1.676365852355957,-0.8389735221862793,0.4460824131965637
1761379826536615400,3.614615478515625,-1.657003402709961,-0.8450697660446167,0.45881471037864685
1761379826546698200,3.6246982421875,-1.6336170434951782,-0.8290332555770874,0.45189476013183594
1761379826556781300,3.63478125,-1.614511251449585,-0.8140905499458313,0.42131340503692627
1761379826566864100,3.644864013671875,-1.607701063156128,-0.7973648309707642,0.36493349075317383
1761379826576947200,3.654947265625,-1.6190255880355835,-0.7774704694747925,0.28872156143188477
1761379826587030500,3.665030517578125,-1.6374605894088745,-0.7564911246299744,0.20134536921977997
1761379826597113300,3.67511328125,-1.6546688079833984,-0.7336372137069702,0.1187218576669693
1761379826607196400,3.685196533203125,-1.6656581163406372,-0.7014145851135254,0.04493018984794617
1761379826617279200,3.695279296875,-1.667754054069519,-0.6719056963920593,-0.010076869279146194
1761379826627362300,3.7053623046875,-1.65559983253479,-0.6238281726837158,-0.042212702333927155
1761379826637445000,3.715445068359375,-1.6394741535186768,-0.5655560493469238,-0.045640721917152405
1761379826647528400,3.725528564453125,-1.623824954032898,-0.5136071443557739,-0.016568856313824654
1761379826657611300,3.735611328125,-1.5870575904846191,-0.48436135053634644,0.016033828258514404
1761379826667694300,3.7456943359375,-1.5496894121170044,-0.49505260586738586,0.03255128487944603
1761379826677777400,3.75577734375,-1.5005229711532593,-0.5355880856513977,0.02357936091721058
1761379826687860200,3.765860107421875,-1.4590457677841187,-0.5748249292373657,0.003221093211323023
1761379826697943300,3.775943359375,-1.4284870624542236,-0.609014093875885,-0.020633639767766
1761379826708026400,3.7860263671875,-1.4140535593032837,-0.6387200355529785,-0.0439797081053257
1761379826718109400,3.796109375,-1.390048623085022,-0.6351175904273987,-0.0506751611828804
1761379826728192300,3.806192138671875,-1.3564976453781128,-0.6035537719726562,-0.042750127613544464
1761379826738275300,3.816275390625,-1.3059155941009521,-0.5379148721694946,0.009267001412808895
1761379826748358100,3.826358154296875,-1.228572130203247,-0.46186909079551697,0.0958801880478859
1761379826758441200,3.836441162109375,-1.1217290163040161,-0.35964658856391907,0.199664905667305
1761379826768524300,3.846524169921875,-1.009149193763733,-0.2967539131641388,0.2714405655860901
1761379826778607400,3.856607421875,-0.9301210045814514,-0.30210793018341064,0.27718818187713623
1761379826788690400,3.8666904296875,-0.8708810806274414,-0.3037111461162567,0.2567169964313507
1761379826798773200,3.876773193359375,-0.8204935789108276,-0.2568757236003876,0.24062246084213257
1761379826808856300,3.886856201171875,-0.7768528461456299,-0.13258600234985352,0.2784886062145233
1761379826818939100,3.896939208984375,-0.7218620777130127,0.034269824624061584,0.3430311381816864
1761379826829022500,3.9070224609375,-0.6428719162940979,0.16103149950504303,0.3753720223903656
1761379826839105300,3.917105224609375,-0.536243200302124,0.23410063982009888,0.3437046408653259
1761379826849188400,3.927188232421875,-0.41188475489616394,0.2049744576215744,0.2296459823846817
1761379826859271200,3.937271240234375,-0.298310250043869,0.04752810299396515,0.04188593104481697
1761379826869354200,3.947354248046875,-0.22599345445632935,-0.21260440349578857,-0.20841765403747559
1761379826879437300,3.957437255859375,-0.22862811386585236,-0.5363401174545288,-0.4916299283504486
1761379826889520400,3.967520263671875,-0.26290538907051086,-0.7547411918640137,-0.721476674079895
1761379826899603500,3.977603515625,-0.27324697375297546,-0.8355931639671326,-0.8519209623336792
1761379826909686300,3.987686279296875,-0.26244786381721497,-0.8100659251213074,-0.8589216470718384
1761379826919769300,3.997769287109375,-0.22630131244659424,-0.6920216083526611,-0.7622845768928528
1761379826929853200,4.007853271484375,-0.15514564514160156,-0.4633181095123291,-0.5921674370765686
1761379826939936500,4.0179365234375,-0.020200610160827637,-0.1347106695175171,-0.4060734808444977
1761379826950019300,4.028019287109375,0.15186995267868042,0.19809816777706146,-0.30183282494544983
1761379826960102400,4.038102294921875,0.34531185030937195,0.4407790005207062,-0.2992463707923889
1761379826970185200,4.048185302734375,0.5373327136039734,0.6248478889465332,-0.3374137282371521
1761379826980268300,4.058268310546875,0.6968581676483154,0.7628510594367981,-0.3542507588863373
1761379826990351000,4.06835107421875,0.8159603476524353,0.8073710799217224,-0.3628522455692291
1761379827000434400,4.078434326171875,0.907372236251831,0.7720274925231934,-0.3696853816509247
1761379827010517200,4.088517333984375,0.9754930138587952,0.6712662577629089,-0.3699586093425751
1761379827020600300,4.098600341796875,1.0129258632659912,0.527501106262207,-0.36532658338546753
1761379827030683400,4.108683349609375,1.0273886919021606,0.36420485377311707,-0.34233149886131287
1761379827040766200,4.11876611328125,1.0477548837661743,0.22452525794506073,-0.30198436975479126
1761379827050849300,4.128849365234375,1.0704703330993652,0.09600482881069183,-0.2297450453042984
1761379827060932400,4.138932373046875,1.0890607833862305,-0.018371550366282463,-0.12936624884605408
1761379827071015400,4.149015380859375,1.0940017700195312,-0.06651084870100021,-0.00788428820669651
1761379827081098200,4.15909814453125,1.1083221435546875,-0.05137663707137108,0.09848902374505997
1761379827091181300,4.169181396484375,1.127864122390747,0.013362943194806576,0.1676233559846878
1761379827101264100,4.17926416015625,1.135258674621582,0.1046646237373352,0.1924472153186798
1761379827111347200,4.18934716796875,1.1349873542785645,0.21272185444831848,0.170523002743721
1761379827121430300,4.19943017578125,1.1413885354995728,0.3224523365497589,0.1285180300474167
1761379827131513300,4.209513427734375,1.1644998788833618,0.4326472878456116,0.09106919169425964
1761379827141596400,4.219596435546875,1.200861930847168,0.5337646007537842,0.0837193951010704
1761379827151679200,4.22967919921875,1.2525533437728882,0.5982173681259155,0.10499725490808487
1761379827161762300,4.23976220703125,1.2984156608581543,0.6248718500137329,0.14092649519443512
1761379827171845000,4.24984521484375,1.341994285583496,0.6327081918716431,0.18452110886573792
1761379827181928400,4.259928466796875,1.3909351825714111,0.6249243021011353,0.22594791650772095
1761379827192011300,4.27001123046875,1.438402533531189,0.6176738739013672,0.2785016596317291
1761379827202094300,4.28009423828125,1.4926087856292725,0.6194954514503479,0.33899110555648804
1761379827212177200,4.29017724609375,1.5489815473556519,0.6345100998878479,0.4107281565666199
1761379827222260200,4.30026025390625,1.6016703844070435,0.6494075655937195,0.47110867500305176
1761379827232343300,4.31034326171875,1.6431858539581299,0.6606050729751587,0.49807289242744446
1761379827242426400,4.32042626953125,1.6946569681167603,0.6683903336524963,0.4870263934135437
1761379827252509400,4.330509521484375,1.750118374824524,0.6724034547805786,0.43596479296684265
1761379827262592300,4.34059228515625,1.8091868162155151,0.6977801322937012,0.37417173385620117
1761379827272675300,4.35067529296875,1.8519706726074219,0.7019269466400146,0.29938164353370667
1761379827282758100,4.360758056640625,1.8877865076065063,0.6519540548324585,0.21480578184127808
1761379827292841500,4.370841552734375,1.8980106115341187,0.5490341186523438,0.1054137721657753
1761379827302924300,4.38092431640625,1.8876296281814575,0.4327314496040344,-0.0044256411492824554
1761379827313007400,4.39100732421875,1.8539211750030518,0.36685416102409363,-0.08789177238941193
1761379827323090400,4.40109033203125,1.8217017650604248,0.4092130661010742,-0.13706490397453308
1761379827333174300,4.41117431640625,1.8111119270324707,0.5940508246421814,-0.14718998968601227
1761379827343256300,4.42125634765625,1.8430252075195312,0.8745477199554443,-0.13302703201770782
1761379827353339400,4.43133935546875,1.902756929397583,1.1307965517044067,-0.1396481841802597
1761379827363423500,4.441423583984375,1.9733141660690308,1.3109713792800903,-0.20763708651065826
1761379827373506600,4.451506591796875,2.0515620708465576,1.4374345541000366,-0.3078020215034485
1761379827383589600,4.461589599609375,2.1232078075408936,1.5196449756622314,-0.40746524930000305
1761379827393672700,4.471672607421875,2.1768012046813965,1.554796814918518,-0.43597784638404846
1761379827403755800,4.481755859375,2.2227463722229004,1.5481458902359009,-0.417709618806839
1761379827413838600,4.491838623046875,2.258535861968994,1.513617992401123,-0.40098923444747925
1761379827423921700,4.501921630859375,2.3182101249694824,1.4661836624145508,-0.4123356342315674
1761379827434004500,4.51200439453125,2.3378419876098633,1.3791685104370117,-0.47387516498565674
1761379827444087600,4.522087646484375,2.3274178504943848,1.1966818571090698,-0.6095086336135864
1761379827454170600,4.532170654296875,2.2958526611328125,0.9590865969657898,-0.7948946952819824
1761379827464253700,4.542253662109375,2.244040012359619,0.7528950572013855,-0.9519860744476318
1761379827474336500,4.55233642578125,2.2133893966674805,0.6498312950134277,-1.013757586479187
1761379827484419600,4.562419677734375,2.220205307006836,0.6235219240188599,-0.9914788603782654
1761379827494502700,4.572502685546875,2.2668747901916504,0.6858342885971069,-0.8722321391105652
1761379827504585500,4.58258544921875,2.3461010456085205,0.8186141848564148,-0.6710574626922607
1761379827514668800,4.592668701171875,2.443080425262451,1.009271502494812,-0.4528292715549469
1761379827524751600,4.602751708984375,2.5339341163635254,1.2135119438171387,-0.29834142327308655
1761379827534834700,4.612834716796875,2.624011516571045,1.372628092765808,-0.24499137699604034
1761379827544917500,4.62291748046875,2.7145707607269287,1.5094943046569824,-0.28066495060920715
1761379827555000600,4.63300048828125,2.806769371032715,1.6057372093200684,-0.3737568259239197
1761379827565083400,4.64308349609375,2.8775076866149902,1.6383061408996582,-0.47978949546813965
1761379827575166700,4.653166748046875,2.926860809326172,1.5924662351608276,-0.5714980959892273
1761379827585249500,4.66324951171875,2.962571382522583,1.4741419553756714,-0.6541751623153687
1761379827595332600,4.67333251953125,3.0064640045166016,1.3015613555908203,-0.700846791267395
1761379827605415700,4.683415771484375,3.0415000915527344,1.1158242225646973,-0.7160675525665283
1761379827615498500,4.69349853515625,3.073941707611084,0.9453345537185669,-0.6879986524581909
1761379827625581600,4.70358154296875,3.094108819961548,0.8030413389205933,-0.6212033629417419
1761379827635664600,4.71366455078125,3.0993540287017822,0.6959362030029297,-0.5348463654518127
1761379827645747700,4.723747802734375,3.09598970413208,0.6468530893325806,-0.4449971616268158
1761379827655830500,4.73383056640625,3.0883607864379883,0.6432048082351685,-0.3630272150039673
1761379827665913600,4.74391357421875,3.0710561275482178,0.664527416229248,-0.3167361319065094
1761379827675996400,4.753996337890625,3.0416502952575684,0.7062676548957825,-0.2967592477798462
1761379827686079500,4.76407958984375,2.997952938079834,0.7662124633789062,-0.2995118796825409
1761379827696162800,4.774162841796875,2.9478161334991455,0.8227993249893188,-0.303911954164505
1761379827706245600,4.78424560546875,2.8824901580810547,0.8705173134803772,-0.3205106258392334
1761379827716328700,4.79432861328125,2.8040568828582764,0.9091494083404541,-0.35001498460769653
1761379827726411500,4.80441162109375,2.7291414737701416,0.9321383237838745,-0.3757871985435486
1761379827736494600,4.81449462890625,2.652853488922119,0.9221786260604858,-0.382701575756073
1761379827746577400,4.824577392578125,2.591871500015259,0.8862313032150269,-0.36194783449172974
1761379827756660700,4.83466064453125,2.5374369621276855,0.8212994337081909,-0.30161312222480774
1761379827766743600,4.84474365234375,2.479583740234375,0.7452150583267212,-0.20959104597568512
1761379827776826600,4.85482666015625,2.410574197769165,0.6714041829109192,-0.09368307888507843
1761379827786909700,4.86490966796875,2.327871799468994,0.6240835785865784,0.014060691930353642
1761379827796992500,4.874992431640625,2.2492265701293945,0.5970732569694519,0.09803708642721176
1761379827807075600,4.88507568359375,2.1737942695617676,0.5905035138130188,0.158905491232872
1761379827817158700,4.89515869140625,2.0951318740844727,0.6217386722564697,0.21075724065303802
1761379827827241700,4.90524169921875,2.017273426055908,0.6863213777542114,0.23641812801361084
1761379827837324500,4.915324462890625,1.9500552415847778,0.7497751712799072,0.2615559697151184
1761379827847408600,4.92540869140625,1.893357276916504,0.8033550381660461,0.28848424553871155
1761379827857490400,4.935490478515625,1.866814374923706,0.8458521962165833,0.3327465355396271
1761379827867574800,4.94557470703125,1.8750933408737183,0.8929510116577148,0.4106820821762085
1761379827877657600,4.95565771484375,1.9319345951080322,0.9648592472076416,0.5254057049751282
1761379827887740700,4.96574072265625,2.009195566177368,1.0261857509613037,0.6451515555381775
1761379827897823500,4.975823486328125,2.0704550743103027,0.9929183125495911,0.6888447403907776
1761379827907906600,4.985906494140625,2.0995755195617676,0.8583272099494934,0.6294072270393372
1761379827917989400,4.9959892578125,2.092691659927368,0.6941566467285156,0.5061438679695129
1761379827928072700,5.00607275390625,1.9984503984451294,0.5127666592597961,0.3376307785511017
1761379827938155800,5.01615576171875,1.8525123596191406,0.4280890226364136,0.20015652477741241
1761379827948238600,5.026238525390625,1.7540321350097656,0.47492310404777527,0.12297119945287704
1761379827958321700,5.03632177734375,1.7244598865509033,0.6072158813476562,0.0793832391500473
1761379827968404500,5.046404541015625,1.7340153455734253,0.7575790286064148,0.037571076303720474
1761379827978487600,5.056487548828125,1.7727560997009277,0.8771131634712219,-0.022335132583975792
1761379827988570600,5.066570556640625,1.8065155744552612,0.9551911950111389,-0.112310029566288
1761379827998653700,5.07665380859375,1.8205616474151611,0.9620285630226135,-0.2087542712688446
1761379828008736500,5.086736572265625,1.8244259357452393,0.8652599453926086,-0.2971422076225281
1761379828018819600,5.096819580078125,1.8132978677749634,0.6803354024887085,-0.3654022216796875
1761379828028902700,5.106902587890625,1.8014841079711914,0.46748942136764526,-0.40066033601760864
1761379828038985500,5.1169853515625,1.76958429813385,0.2892802655696869,-0.41731202602386475
1761379828049068800,5.12706884765625,1.740157127380371,0.1934509575366974,-0.3968336284160614
1761379828059151600,5.137151611328125,1.7459652423858643,0.20671163499355316,-0.33069056272506714
1761379828069234700,5.147234619140625,1.7959541082382202,0.3694363534450531,-0.1918778270483017
1761379828079317500,5.1573173828125,1.9131147861480713,0.6188927888870239,-0.015355254523456097
1761379828089400600,5.167400634765625,2.0990586280822754,0.898017406463623,0.161256805062294
1761379828099483400,5.1774833984375,2.2825927734375,1.120469093322754,0.2674386203289032
1761379828109566700,5.187566650390625,2.4136061668395996,1.2459229230880737,0.2868432104587555
1761379828119649500,5.1976494140625,2.503356695175171,1.2762855291366577,0.23992924392223358
1761379828129732600,5.207732666015625,2.5543746948242188,1.2395131587982178,0.16639083623886108
1761379828139815700,5.217815673828125,2.584625005722046,1.127777338027954,0.1006307378411293
1761379828149898500,5.2278984375,2.6124355792999268,0.9576122760772705,0.0644860491156578
1761379828159981600,5.237981689453125,2.6512272357940674,0.7848692536354065,0.07547824829816818
1761379828170064600,5.248064697265625,2.685915946960449,0.6742692589759827,0.12672331929206848
1761379828180147700,5.258147705078125,2.7162227630615234,0.6306778192520142,0.22132731974124908
1761379828190230500,5.26823046875,2.7266592979431152,0.6407730579376221,0.31136640906333923
1761379828200313600,5.278313720703125,2.7240939140319824,0.6775731444358826,0.3558470606803894
1761379828210396400,5.288396484375,2.715911388397217,0.7246447801589966,0.30980366468429565
1761379828220479500,5.2984794921875,2.7010223865509033,0.7872860431671143,0.1861211359500885
1761379828230562600,5.3085625,2.674255609512329,0.8612862825393677,0.02063923142850399
1761379828240645600,5.318645751953125,2.6349189281463623,0.9437958002090454,-0.14065511524677277
1761379828250728700,5.328728759765625,2.588465690612793,1.0224096775054932,-0.27628353238105774
1761379828260811500,5.3388115234375,2.539659261703491,1.106204628944397,-0.37634167075157166
1761379828270894600,5.34889453125,2.5163490772247314,1.1680219173431396,-0.44402486085891724
1761379828280977700,5.358977783203125,2.5109615325927734,1.188084363937378,-0.48604366183280945
1761379828291060700,5.369060791015625,2.4995779991149902,1.190624475479126,-0.48657336831092834
1761379828301143600,5.3791435546875,2.469999313354492,1.205922245979309,-0.4655061662197113
1761379828311226600,5.3892265625,2.4328513145446777,1.2342853546142578,-0.44971123337745667
1761379828321309400,5.399309326171875,2.4131927490234375,1.270430088043213,-0.4345027208328247
1761379828331392500,5.409392578125,2.4107167720794678,1.279231309890747,-0.4106764793395996
1761379828341475800,5.419475830078125,2.4209861755371094,1.2637101411819458,-0.3896598815917969
1761379828351558700,5.42955859375,2.4259071350097656,1.2468878030776978,-0.3642836809158325
1761379828361642000,5.43964208984375,2.415539026260376,1.217013955116272,-0.3511311411857605
1761379828371724800,5.449724853515625,2.390387535095215,1.181970238685608,-0.36240535974502563
1761379828381807900,5.459807861328125,2.35137677192688,1.1529862880706787,-0.39638596773147583
1761379828391890700,5.469890625,2.305516481399536,1.1368118524551392,-0.4673762321472168
1761379828401973800,5.479973876953125,2.28122615814209,1.1427959203720093,-0.5533694624900818
1761379828412057900,5.490057861328125,2.2711575031280518,1.1808778047561646,-0.6293230652809143
1761379828422140000,5.500139892578125,2.279233932495117,1.2225557565689087,-0.6605153679847717
1761379828432222700,5.51022265625,2.296513319015503,1.2724690437316895,-0.6411616206169128
1761379828442306800,5.520306884765625,2.3043320178985596,1.3200492858886719,-0.595268964767456
1761379828452389600,5.5303896484375,2.3027150630950928,1.3446604013442993,-0.5732507705688477
1761379828462473000,5.540472900390625,2.279900312423706,1.3263304233551025,-0.6065019369125366
1761379828472555800,5.5505556640625,2.2445998191833496,1.3018004894256592,-0.6899036169052124
1761379828482638800,5.560638916015625,2.210360050201416,1.281913161277771,-0.7911287546157837
1761379828492722000,5.570721923828125,2.202533721923828,1.265277624130249,-0.8575953841209412
1761379828502804700,5.5808046875,2.207672357559204,1.2481805086135864,-0.897136926651001
1761379828512887800,5.5908876953125,2.199753522872925,1.165578007698059,-0.9587611556053162
1761379828522971000,5.600970947265625,2.181166172027588,0.9796320796012878,-1.0813813209533691
1761379828533054000,5.611053955078125,2.1251306533813477,0.6760913729667664,-1.2467026710510254
1761379828543136800,5.62113671875,2.0132694244384766,0.3517593741416931,-1.3506830930709839
1761379828553219800,5.6312197265625,1.846189260482788,0.1883012056350708,-1.2830893993377686
1761379828563302700,5.641302734375,1.7314763069152832,0.18330137431621552,-1.0913347005844116
1761379828573385700,5.6513857421875,1.728073239326477,0.34942910075187683,-0.8582651615142822
1761379828583468800,5.66146875,1.8274792432785034,0.6095951795578003,-0.6558047533035278
1761379828593552000,5.6715517578125,1.9987226724624634,0.8558933734893799,-0.5176780223846436
1761379828603635000,5.681635009765625,2.122886896133423,0.9973626136779785,-0.47940972447395325
1761379828613717800,5.6917177734375,2.127715826034546,0.9741382598876953,-0.5194479823112488
1761379828623800800,5.70180078125,2.0662615299224854,0.8268912434577942,-0.6145015358924866
1761379828633883600,5.711883544921875,1.9910881519317627,0.6536465287208557,-0.7136771082878113
1761379828643967000,5.721967041015625,1.9196683168411255,0.5017675161361694,-0.767642617225647
1761379828654049800,5.7320498046875,1.8679251670837402,0.3744950294494629,-0.7654505372047424
1761379828664132900,5.7421328125,1.815839409828186,0.3060086667537689,-0.7175490856170654
1761379828674215700,5.752215576171875,1.7715344429016113,0.3173108398914337,-0.6063562631607056
1761379828684298800,5.762298828125,1.7603654861450195,0.4309985339641571,-0.449239045381546
1761379828694381800,5.7723818359375,1.7751654386520386,0.601101815700531,-0.300960898399353
1761379828704465000,5.78246484375,1.8267463445663452,0.7513344883918762,-0.20291636884212494
1761379828714548000,5.7925478515625,1.9050605297088623,0.8017723560333252,-0.1938248574733734
1761379828724630800,5.802630859375,1.9814797639846802,0.7812215089797974,-0.2339850664138794
1761379828734713900,5.8127138671875,2.0250816345214844,0.7423660159111023,-0.27020564675331116
1761379828744796700,5.822796630859375,2.0269196033477783,0.6948789358139038,-0.2616731524467468
1761379828754879700,5.832879638671875,1.9915480613708496,0.6398385763168335,-0.23084759712219238
1761379828764962800,5.842962890625,1.9492243528366089,0.5741000175476074,-0.16817249357700348
1761379828775046000,5.8530458984375,1.925255298614502,0.5264957547187805,-0.07995954900979996
1761379828785128700,5.863128662109375,1.9269834756851196,0.4997245967388153,0.02725798636674881
1761379828795211800,5.873211669921875,1.957377314567566,0.5095242261886597,0.15221163630485535
1761379828805294800,5.883294921875,1.994052767753601,0.5208429098129272,0.2745804190635681
1761379828815377700,5.893377685546875,1.99077570438385,0.5328476428985596,0.38799673318862915
1761379828825461000,5.9034609375,1.9366254806518555,0.5467237830162048,0.4781716465950012
1761379828835543800,5.913543701171875,1.8747354745864868,0.6035583019256592,0.5074384212493896
1761379828845627000,5.923626953125,1.8385894298553467,0.6773697137832642,0.46397751569747925
1761379828855709700,5.933709716796875,1.82706618309021,0.7321661114692688,0.38412556052207947
1761379828865792800,5.943792724609375,1.8158316612243652,0.7406442761421204,0.31978145241737366
1761379828875875600,5.95387548828125,1.8181967735290527,0.7694623470306396,0.2516527473926544
1761379828885959000,5.963958984375,1.8116917610168457,0.7925341129302979,0.20413263142108917
1761379828896042000,5.9740419921875,1.7807838916778564,0.8175353407859802,0.19711120426654816
1761379828906124800,5.984124755859375,1.7500576972961426,0.8802165389060974,0.20788368582725525
1761379828916207900,5.994207763671875,1.7530089616775513,0.9850846529006958,0.23831084370613098
1761379828926290700,6.004290771484375,1.7702566385269165,1.1081218719482422,0.280262291431427
1761379828936373800,6.014373779296875,1.8166571855545044,1.2016270160675049,0.2980751097202301
1761379828946456800,6.024456787109375,1.874205231666565,1.2325221300125122,0.2949850261211395
1761379828956540000,6.034539794921875,1.9039475917816162,1.1590180397033691,0.274767130613327
1761379828966622700,6.044622802734375,1.8996580839157104,0.9606029987335205,0.21797972917556763
1761379828976705800,6.054705810546875,1.8472894430160522,0.6884723901748657,0.12944906949996948
1761379828986788900,6.064788818359375,1.7689855098724365,0.42167773842811584,0.041078727692365646
1761379828996871700,6.07487158203125,1.7039293050765991,0.2624947428703308,0.014461763203144073
1761379829006955000,6.084955078125,1.648248553276062,0.23383699357509613,0.0658663660287857
1761379829017037800,6.095037841796875,1.5997110605239868,0.31829833984375,0.17011021077632904
1761379829027121000,6.105120849609375,1.5527275800704956,0.4839725196361542,0.2891758680343628
1761379829037203700,6.11520361328125,1.4952914714813232,0.5909548997879028,0.3109530806541443
1761379829047286800,6.125286865234375,1.4385432004928589,0.5204343795776367,0.19613675773143768
1761379829057369600,6.13536962890625,1.3693833351135254,0.3833844065666199,0.04254799336194992
1761379829067453000,6.145452880859375,1.256597638130188,0.19972003996372223,-0.13375432789325714
1761379829077535700,6.15553564453125,1.1019774675369263,-0.015685219317674637,-0.350834459066391
1761379829087619800,6.165619873046875,0.9192219972610474,-0.2006119340658188,-0.5917876958847046
1761379829097702700,6.17570263671875,0.740295946598053,-0.2974383533000946,-0.8126835823059082
1761379829107785700,6.18578564453125,0.5805704593658447,-0.32715362310409546,-0.9895986914634705
1761379829117868800,6.195868896484375,0.4674859642982483,-0.2599221169948578,-1.0925605297088623
1761379829127952000,6.205951904296875,0.41450875997543335,-0.016529440879821777,-1.0728157758712769
1761379829138035000,6.216034912109375,0.36382588744163513,0.3738308548927307,-0.9099845886230469
1761379829148117800,6.22611767578125,0.41216519474983215,0.6923515796661377,-0.7042476534843445
1761379829158200800,6.236200927734375,0.5392767786979675,0.9405297040939331,-0.5325738787651062
1761379829168283600,6.24628369140625,0.553443193435669,1.0200847387313843,-0.4303481876850128
1761379829178367000,6.256366943359375,0.5223848819732666,0.9485271573066711,-0.3789302706718445
1761379829188449800,6.26644970703125,0.5298089981079102,0.8591128587722778,-0.33797910809516907
1761379829198532900,6.276532958984375,0.5378538966178894,0.8097229599952698,-0.31703653931617737
1761379829208615700,6.28661572265625,0.5522447824478149,0.7633352279663086,-0.3324589133262634
1761379829218698800,6.29669873046875,0.5728938579559326,0.704509973526001,-0.37499889731407166
1761379829228781800,6.30678173828125,0.6011063456535339,0.6511279940605164,-0.4266818165779114
1761379829238865000,6.316864990234375,0.6170908808708191,0.5917679667472839,-0.47871145606040955
1761379829248948000,6.326947998046875,0.6186413764953613,0.5281277298927307,-0.5083215236663818
1761379829259030800,6.33703076171875,0.5992839336395264,0.45990607142448425,-0.4951111972332001
1761379829269113900,6.34711376953125,0.5577841997146606,0.3895498812198639,-0.44267675280570984
1761379829279196700,6.35719677734375,0.5089846849441528,0.33327117562294006,-0.37183108925819397
1761379829289279700,6.36727978515625,0.4602261781692505,0.2778409421443939,-0.32575279474258423
1761379829299362800,6.37736279296875,0.41056010127067566,0.22536493837833405,-0.31069183349609375
1761379829309446000,6.38744580078125,0.3631038963794708,0.18496133387088776,-0.3068233132362366
1761379829319528700,6.39752880859375,0.32353731989860535,0.17217549681663513,-0.2964785397052765
1761379829329611800,6.40761181640625,0.30007806420326233,0.172914519906044,-0.28573694825172424
1761379829339694800,6.41769482421875,0.28814736008644104,0.17878465354442596,-0.26636990904808044
1761379829349777700,6.427777587890625,0.2834218442440033,0.18224038183689117,-0.24018597602844238
1761379829359861000,6.437861083984375,0.2778550386428833,0.1906927227973938,-0.20070460438728333
1761379829369943800,6.44794384765625,0.2768222689628601,0.21367846429347992,-0.14787600934505463
1761379829380027000,6.45802685546875,0.28897586464881897,0.24251464009284973,-0.08937781304121017
1761379829390109700,6.468109619140625,0.30338597297668457,0.25335875153541565,-0.023330356925725937
1761379829400192800,6.47819287109375,0.2999214828014374,0.21083927154541016,0.039985764771699905
1761379829410275600,6.488275634765625,0.2852679491043091,0.13805188238620758,0.09521067142486572
1761379829420359000,6.49835888671875,0.2631450891494751,0.07118389755487442,0.13941994309425354
1761379829430442000,6.50844189453125,0.22417478263378143,0.03248630464076996,0.14816071093082428
1761379829440524800,6.51852490234375,0.18094874918460846,0.019544405862689018,0.14810770750045776
1761379829450607900,6.52860791015625,0.1470634788274765,0.034982483834028244,0.13638660311698914
1761379829460690700,6.538690673828125,0.1445838063955307,0.07093142718076706,0.13150502741336823
1761379829470773800,6.548773681640625,0.16629816591739655,0.104771688580513,0.11556494235992432
1761379829480856800,6.55885693359375,0.19783452153205872,0.11213186383247375,0.1126924604177475
1761379829490940000,6.56893994140625,0.2098270058631897,0.06842779368162155,0.11071506142616272
1761379829501022700,6.579022705078125,0.19366267323493958,-0.0491451770067215,0.10875976830720901
1761379829511105800,6.589105712890625,0.18529795110225677,-0.21147869527339935,0.09505940228700638
1761379829521188600,6.599188720703125,0.1794901341199875,-0.3846014738082886,0.062305450439453125
1761379829531272000,6.60927197265625,0.15104331076145172,-0.5179387331008911,0.017788318917155266
1761379829541355000,6.61935498046875,0.10397220402956009,-0.6003023386001587,-0.056765809655189514
1761379829551437800,6.629437744140625,0.05899061635136604,-0.6393216252326965,-0.15814489126205444
1761379829561521000,6.63952099609375,0.019571837037801743,-0.6016736030578613,-0.25522109866142273
1761379829571603700,6.649603759765625,-0.007529022637754679,-0.468889445066452,-0.31374940276145935
1761379829581686800,6.659686767578125,-0.015176822431385517,-0.2575415372848511,-0.3182690441608429
1761379829591769900,6.669769775390625,0.006076534744352102,-0.033120136708021164,-0.28070810437202454
1761379829601853000,6.67985302734375,0.030847128480672836,0.13095934689044952,-0.21203316748142242
1761379829611935700,6.689935791015625,0.1186281144618988,0.18346357345581055,-0.16245442628860474
1761379829622018800,6.700018798828125,0.21626518666744232,0.1889166533946991,-0.1373482644557953
1761379829632102000,6.710101806640625,0.2963736057281494,0.1318669468164444,-0.10426009446382523
1761379829642184700,6.720184814453125,0.35431042313575745,0.03139893710613251,-0.05067276582121849
1761379829652268000,6.73026806640625,0.388461709022522,-0.07318020612001419,0.008135956712067127
1761379829662350800,6.740350830078125,0.4111310839653015,-0.12659576535224915,0.07581007480621338
1761379829672434000,6.750433837890625,0.4132501482963562,-0.12313631176948547,0.11387676745653152
1761379829682516700,6.760516845703125,0.38968250155448914,-0.126161128282547,0.07984316349029541
1761379829692599800,6.770599853515625,0.33697056770324707,-0.18472431600093842,-0.04628760367631912
1761379829702682600,6.7806826171875,0.25437554717063904,-0.2925240099430084,-0.23694570362567902
1761379829712766000,6.790765869140625,0.1326690912246704,-0.3984065055847168,-0.48550623655319214
1761379829722848800,6.800848876953125,0.01540319062769413,-0.3991852104663849,-0.736343502998352
1761379829732931800,6.810931884765625,-0.03400377184152603,-0.24668169021606445,-0.9071784019470215
1761379829743015000,6.821014892578125,-0.017646905034780502,-0.012400477193295956,-0.9606242775917053
1761379829753097700,6.83109765625,0.0729793980717659,0.21212929487228394,-0.8851628303527832
1761379829763180800,6.841180908203125,0.22137126326560974,0.37659814953804016,-0.6923717856407166
1761379829773264000,6.851263916015625,0.36347195506095886,0.43621379137039185,-0.4235251545906067
1761379829783347000,6.861346923828125,0.4439135193824768,0.3834696412086487,-0.14602351188659668
1761379829793429800,6.8714296875,0.4609188735485077,0.2603066861629486,0.10011967271566391
1761379829803512800,6.881512939453125,0.42426392436027527,0.09458669275045395,0.2874930202960968
1761379829813595600,6.891595703125,0.3228004276752472,-0.04370806738734245,0.4036926031112671
1761379829823678700,6.9016787109375,0.20233552157878876,-0.12804292142391205,0.4233904182910919
1761379829833762000,6.911761962890625,0.11350978165864944,-0.12586471438407898,0.3756961226463318
1761379829843844900,6.921844970703125,0.06400987505912781,-0.0776873379945755,0.2972697615623474
1761379829853928000,6.931927978515625,0.03615480661392212,-0.013653228059411049,0.2081095278263092
1761379829864010800,6.9420107421875,0.0019707391038537025,0.05176679044961929,0.1254042536020279
1761379829874093800,6.95209375,-0.04849722981452942,0.0975169688463211,0.056000418961048126
1761379829884176600,6.9621767578125,-0.10905564576387405,0.13279612362384796,0.015923039987683296
1761379829894260000,6.972260009765625,-0.18005818128585815,0.16561345756053925,0.026913639158010483
1761379829904342800,6.9823427734375,-0.22214864194393158,0.18757522106170654,0.04983812943100929
1761379829914427000,6.992427001953125,-0.22650663554668427,0.16735383868217468,0.0659121721982956
1761379829924509000,7.002509033203125,-0.21555359661579132,0.12396056205034256,0.04011546075344086
1761379829934591700,7.012591796875,-0.19417878985404968,0.09005532413721085,-0.0015787219163030386
1761379829944675800,7.02267578125,-0.16423021256923676,0.06533613055944443,-0.04553286358714104
1761379829954759000,7.032759033203125,-0.1402260810136795,0.07742661237716675,-0.06351771950721741
1761379829964841700,7.042841796875,-0.13175110518932343,0.0657995194196701,-0.0535721480846405
1761379829974924800,7.0529248046875,-0.13103018701076508,0.03445917367935181,0.009498430415987968
1761379829985007900,7.0630078125,-0.11486613005399704,0.015674300491809845,0.08823105692863464
1761379829995090700,7.073090576171875,-0.08662916719913483,0.02286962978541851,0.16428454220294952
1761379830005174000,7.083174072265625,-0.06954099237918854,0.032532110810279846,0.22410953044891357
1761379830015256800,7.0932568359375,-0.06854763627052307,0.02279799059033394,0.27916720509529114
1761379830025340000,7.10333984375,-0.06111821532249451,-0.018199244514107704,0.33006393909454346
1761379830035422700,7.113422607421875,-0.05722467228770256,-0.07094234973192215,0.3640599846839905
1761379830045505800,7.123505859375,-0.06935350596904755,-0.12913161516189575,0.36600807309150696
1761379830055588600,7.133588623046875,-0.10809531062841415,-0.17648687958717346,0.361073762178421
1761379830065672000,7.143671875,-0.16636580228805542,-0.17440882325172424,0.34676113724708557
1761379830075755000,7.153755126953125,-0.1903742104768753,-0.1075589507818222,0.31371691823005676
1761379830085837800,7.163837890625,-0.19658948481082916,-0.01666046865284443,0.25083887577056885
1761379830095921000,7.1739208984375,-0.20859289169311523,0.02930915355682373,0.18116579949855804
1761379830106003700,7.184003662109375,-0.21223555505275726,0.20526926219463348,0.17866748571395874
1761379830116086800,7.194086669921875,-0.25050118565559387,0.2314169853925705,0.2732906639575958
1761379830126169900,7.204169921875,-0.26305267214775085,-0.11955835670232773,0.2764244079589844
1761379830136253000,7.2142529296875,-0.2379201501607895,-0.524362325668335,0.21973289549350739
1761379830146335700,7.224335693359375,-0.22101041674613953,-0.8177366852760315,0.17066174745559692
1761379830156418800,7.234418701171875,-0.21553468704223633,-0.8390361070632935,0.20650017261505127
1761379830166502000,7.244501953125,-0.2009991556406021,-0.7091747522354126,0.27260729670524597
1761379830176584700,7.254584716796875,-0.17391107976436615,-0.5296326875686646,0.3270162045955658
1761379830186668000,7.26466796875,-0.1802816241979599,-0.33322563767433167,0.3199329972267151
1761379830196750800,7.274750732421875,-0.18795126676559448,-0.1610669195652008,0.23157010972499847
1761379830206834000,7.284833984375,-0.16720549762248993,-0.03508208692073822,0.08788937330245972
1761379830216916700,7.294916748046875,-0.14698545634746552,0.04123532027006149,-0.03508341684937477
1761379830226999800,7.304999755859375,-0.10560738295316696,0.0952354371547699,-0.06793404370546341
