time,seconds_elapsed,z,y,x
1761392273987336400,0.07633642578125,-1.0051422119140625,-0.31158447265625,0.353118896484375
1761392273997419300,0.086419189453125,-0.96551513671875,-0.3563995361328125,0.3555450439453125
1761392274007501300,0.096501220703125,-0.910888671875,-0.38397216796875,0.3664093017578125
1761392274017583400,0.106583251953125,-0.8649749755859375,-0.405548095703125,0.3905181884765625
1761392274027665400,0.11666552734375,-0.821044921875,-0.4197540283203125,0.4047088623046875
1761392274037748200,0.126748291015625,-0.7851104736328125,-0.4283294677734375,0.4095916748046875
1761392274047830300,0.136830322265625,-0.7832489013671875,-0.4451904296875,0.413482666015625
1761392274057912300,0.146912353515625,-0.8249969482421875,-0.4686279296875,0.404266357421875
1761392274067994400,0.156994384765625,-0.8543243408203125,-0.49041748046875,0.3911590576171875
1761392274078076400,0.167076416015625,-0.8639678955078125,-0.4849853515625,0.368072509765625
1761392274088159500,0.177159423828125,-0.8568115234375,-0.4475250244140625,0.3401336669921875
1761392274098241500,0.187241455078125,-0.84747314453125,-0.391265869140625,0.2991485595703125
1761392274108323300,0.1973232421875,-0.851348876953125,-0.367706298828125,0.2832794189453125
1761392274118405400,0.2074052734375,-0.861358642578125,-0.36090087890625,0.2820281982421875
1761392274128487400,0.2174873046875,-0.82855224609375,-0.38787841796875,0.2803955078125
1761392274138570500,0.227570556640625,-0.8115692138671875,-0.4116668701171875,0.2835540771484375
1761392274148652500,0.237652587890625,-0.808868408203125,-0.404296875,0.2674560546875
1761392274158734600,0.247734619140625,-0.7557220458984375,-0.3391571044921875,0.19158935546875
1761392274168816600,0.257816650390625,-0.7231903076171875,-0.2703094482421875,0.2021942138671875
1761392274178899500,0.2678994140625,-0.6865386962890625,-0.2486572265625,0.1815185546875
1761392274188981500,0.2779814453125,-0.6647491455078125,-0.221099853515625,0.167510986328125
1761392274199063600,0.2880634765625,-0.679107666015625,-0.2061614990234375,0.205108642578125
1761392274209145600,0.2981455078125,-0.6355438232421875,-0.2021942138671875,0.222442626953125
1761392274219227600,0.3082275390625,-0.5481719970703125,-0.2091064453125,0.216522216796875
1761392274229310500,0.318310546875,-0.4804840087890625,-0.2023162841796875,0.1425933837890625
1761392274239392500,0.328392578125,-0.4571685791015625,-0.1732940673828125,0.05670166015625
1761392274249474600,0.338474609375,-0.42596435546875,-0.1255340576171875,0.0027923583984375
1761392274259556600,0.348556640625,-0.3781585693359375,-0.1749114990234375,0.0553741455078125
1761392274269638700,0.358638671875,-0.3691558837890625,-0.235015869140625,0.0735931396484375
1761392274279721500,0.368721435546875,-0.326202392578125,-0.1459808349609375,-0.0067138671875
1761392274289803500,0.378803466796875,-0.290496826171875,0.0117034912109375,-0.0118408203125
1761392274299885600,0.388885498046875,-0.251495361328125,0.196563720703125,-0.05645751953125
1761392274309967600,0.398967529296875,-0.15411376953125,0.249481201171875,-0.088165283203125
1761392274320050400,0.409050537109375,-0.099639892578125,0.2167816162109375,-0.094818115234375
1761392274330132500,0.419132568359375,-0.1357574462890625,0.2126312255859375,-0.1934967041015625
1761392274340214500,0.429214599609375,-0.2121429443359375,0.2689971923828125,-0.314910888671875
1761392274350296600,0.439296630859375,-0.2045745849609375,0.329345703125,-0.4357452392578125
1761392274360378600,0.449378662109375,-0.1876678466796875,0.347686767578125,-0.508636474609375
1761392274370461400,0.45946142578125,-0.2257232666015625,0.3579254150390625,-0.604095458984375
1761392274380543500,0.46954345703125,-0.3190155029296875,0.3933868408203125,-0.76141357421875
1761392274390625500,0.47962548828125,-0.4414825439453125,0.442169189453125,-0.9691925048828125
1761392274400707600,0.48970751953125,-0.5732574462890625,0.476043701171875,-1.1299896240234375
1761392274410789400,0.499789306640625,-0.6881103515625,0.4864349365234375,-1.1840362548828125
1761392274420872400,0.50987255859375,-0.829833984375,0.451019287109375,-1.2017822265625
1761392274430954500,0.51995458984375,-1.01214599609375,0.3733673095703125,-1.18499755859375
1761392274441036500,0.53003662109375,-1.22454833984375,0.269775390625,-1.1534271240234375
1761392274451118600,0.54011865234375,-1.4410552978515625,0.15673828125,-1.1192169189453125
1761392274461201400,0.550201416015625,-1.678985595703125,0.0720672607421875,-1.0634765625
1761392274471283500,0.560283447265625,-1.9167022705078125,-0.0123748779296875,-1.0078582763671875
1761392274481365500,0.570365478515625,-2.127197265625,-0.12060546875,-0.921478271484375
1761392274491447600,0.580447509765625,-2.3009185791015625,-0.27880859375,-0.8028564453125
1761392274501529300,0.590529296875,-2.4371185302734375,-0.4828643798828125,-0.715301513671875
1761392274511612400,0.6006123046875,-2.514129638671875,-0.6860504150390625,-0.674346923828125
1761392274521694500,0.610694580078125,-2.5678253173828125,-0.878997802734375,-0.6717987060546875
1761392274531776500,0.620776611328125,-2.6433563232421875,-1.03936767578125,-0.70611572265625
1761392274541858600,0.630858642578125,-2.7994537353515625,-1.14764404296875,-0.7181243896484375
1761392274551940400,0.6409404296875,-3.074432373046875,-1.16748046875,-0.685760498046875
1761392274562023400,0.6510234375,-3.3402252197265625,-1.1237335205078125,-0.57073974609375
1761392274572105500,0.66110546875,-3.4943389892578125,-1.1393280029296875,-0.3358154296875
1761392274582187500,0.6711875,-3.4325408935546875,-1.2617950439453125,-0.000335693359375
1761392274592269300,0.681269287109375,-3.2103729248046875,-1.4138031005859375,0.3368072509765625
1761392274602352400,0.691352294921875,-2.9464111328125,-1.5128021240234375,0.5815277099609375
1761392274612434400,0.701434326171875,-2.6703643798828125,-1.5263214111328125,0.72589111328125
1761392274622516500,0.7115166015625,-2.4359283447265625,-1.4445037841796875,0.7801513671875
1761392274632598500,0.7215986328125,-2.212677001953125,-1.2693023681640625,0.7686767578125
1761392274642680300,0.731680419921875,-1.9631805419921875,-1.036834716796875,0.696746826171875
1761392274652763400,0.741763427734375,-1.784454345703125,-0.7666473388671875,0.6049957275390625
1761392274662845400,0.751845458984375,-1.676727294921875,-0.5255584716796875,0.548431396484375
1761392274672927500,0.761927490234375,-1.5926055908203125,-0.323394775390625,0.53826904296875
1761392274683009300,0.77200927734375,-1.501190185546875,-0.117401123046875,0.5779266357421875
1761392274693091300,0.78209130859375,-1.4118194580078125,0.0732421875,0.667388916015625
1761392274703174400,0.79217431640625,-1.3397064208984375,0.256317138671875,0.8014373779296875
1761392274713256400,0.80225634765625,-1.2909698486328125,0.397857666015625,0.921630859375
1761392274723338200,0.812338134765625,-1.2649078369140625,0.604949951171875,1.0079193115234375
1761392274733420300,0.822420166015625,-1.2672882080078125,0.806976318359375,1.028289794921875
1761392274743503600,0.832503662109375,-1.2708892822265625,0.949493408203125,1.0279998779296875
1761392274753585400,0.84258544921875,-1.2537078857421875,1.05023193359375,1.0275726318359375
1761392274763667500,0.85266748046875,-1.2374267578125,1.0733184814453125,0.9857330322265625
1761392274773749200,0.862749267578125,-1.1726226806640625,1.0489654541015625,0.9096832275390625
1761392274783831300,0.872831298828125,-1.04339599609375,1.036712646484375,0.78729248046875
1761392274793914600,0.88291455078125,-0.9450225830078125,1.1233367919921875,0.631561279296875
1761392274803996700,0.89299658203125,-0.7638397216796875,1.2149658203125,0.5067138671875
1761392274814078500,0.903078369140625,-0.5706634521484375,1.38299560546875,0.314910888671875
1761392274824160000,0.913159912109375,-0.4337005615234375,1.64501953125,0.0755767822265625
1761392274834242000,0.923241943359375,-0.435546875,1.74786376953125,-0.0932769775390625
1761392274844325000,0.9333251953125,-0.6179656982421875,1.8036346435546875,-0.2678680419921875
1761392274854407200,0.9434072265625,-0.8971710205078125,1.881622314453125,-0.4769439697265625
1761392274864489000,0.953489013671875,-1.107757568359375,1.9417724609375,-0.6833648681640625
1761392274874571000,0.963571044921875,-1.1592864990234375,2.0211334228515625,-0.9001617431640625
1761392274884654000,0.973654052734375,-1.1239776611328125,2.0680999755859375,-1.096099853515625
1761392274894736100,0.983736083984375,-1.1513214111328125,1.9800872802734375,-1.2242279052734375
1761392274904818200,0.993818115234375,-1.27978515625,1.8241729736328125,-1.355194091796875
1761392274914900000,1.00389990234375,-1.4864349365234375,1.6673736572265625,-1.514617919921875
1761392274924982000,1.01398193359375,-1.7023773193359375,1.4346466064453125,-1.6188201904296875
1761392274935065300,1.0240654296875,-1.902801513671875,1.0989532470703125,-1.65130615234375
1761392274945147400,1.0341474609375,-1.9818115234375,0.679046630859375,-1.6635894775390625
1761392274955229000,1.04422900390625,-1.937774658203125,0.3358001708984375,-1.7047882080078125
1761392274965311000,1.05431103515625,-1.9068756103515625,-0.0442657470703125,-1.7182159423828125
1761392274975394300,1.064394287109375,-1.8899078369140625,-0.4559783935546875,-1.6812744140625
1761392274985476400,1.074476318359375,-1.90643310546875,-0.7545166015625,-1.6840667724609375
1761392274995558100,1.08455810546875,-1.9020233154296875,-0.9524688720703125,-1.7575225830078125
1761392275005640200,1.09464013671875,-1.8477325439453125,-1.09124755859375,-1.8016357421875
1761392275015722200,1.10472216796875,-1.8326263427734375,-1.275909423828125,-1.7025909423828125
1761392275025805300,1.114805419921875,-1.880828857421875,-1.533782958984375,-1.5007171630859375
1761392275035887400,1.124887451171875,-2.0288848876953125,-1.7571868896484375,-1.2479400634765625
1761392275045969200,1.13496923828125,-2.2840728759765625,-1.8545989990234375,-0.9547882080078125
1761392275056051200,1.14505126953125,-2.516326904296875,-1.8666839599609375,-0.6097412109375
1761392275066134300,1.15513427734375,-2.5824737548828125,-1.8589935302734375,-0.2577667236328125
1761392275076216300,1.16521630859375,-2.5561065673828125,-1.8625335693359375,0.0375823974609375
1761392275086298000,1.175298095703125,-2.5909576416015625,-1.72991943359375,0.261688232421875
1761392275096380200,1.185380126953125,-2.7664337158203125,-1.4212493896484375,0.5349884033203125
1761392275106462200,1.195462158203125,-3.028717041015625,-1.016754150390625,0.8923187255859375
1761392275116545300,1.205545166015625,-3.2322235107421875,-0.5730133056640625,1.2646942138671875
1761392275126627300,1.21562744140625,-3.161651611328125,-0.1797943115234375,1.52996826171875
1761392275136709000,1.225709228515625,-2.80560302734375,0.1436309814453125,1.682525634765625
1761392275146791200,1.235791259765625,-2.2819061279296875,0.3381195068359375,1.785400390625
1761392275156873200,1.245873291015625,-1.7739410400390625,0.427337646484375,1.8930206298828125
1761392275166956300,1.255956298828125,-1.3584747314453125,0.4771728515625,1.992431640625
1761392275177038000,1.2660380859375,-1.0438232421875,0.5126800537109375,2.0445556640625
1761392275187120000,1.2761201171875,-0.820831298828125,0.53448486328125,2.0259552001953125
1761392275197202200,1.2862021484375,-0.721771240234375,0.5967254638671875,1.93963623046875
1761392275207285200,1.29628515625,-0.6811676025390625,0.7189483642578125,1.8061981201171875
1761392275217367300,1.3063671875,-0.6130218505859375,0.804718017578125,1.6502838134765625
1761392275227449000,1.316448974609375,-0.488250732421875,0.88037109375,1.417327880859375
1761392275237531100,1.32653125,-0.3624267578125,0.9891204833984375,1.0921630859375
1761392275247613200,1.33661328125,-0.2652740478515625,1.042022705078125,0.7779083251953125
1761392275257696300,1.3466962890625,-0.1706085205078125,1.1008148193359375,0.486541748046875
1761392275267778000,1.356778076171875,-0.13214111328125,1.1574249267578125,0.217529296875
1761392275277860000,1.366860107421875,-0.213165283203125,1.25347900390625,-0.0517425537109375
1761392275287942100,1.376942138671875,-0.31634521484375,1.408447265625,-0.3380584716796875
1761392275298025200,1.387025146484375,-0.3867340087890625,1.5063934326171875,-0.5814666748046875
1761392275308107300,1.397107177734375,-0.39373779296875,1.5150299072265625,-0.7806243896484375
1761392275318189000,1.40718896484375,-0.4187469482421875,1.4522552490234375,-1.00146484375
1761392275328271000,1.41727099609375,-0.4186553955078125,1.4283447265625,-1.2679290771484375
1761392275338353200,1.427353271484375,-0.330535888671875,1.515838623046875,-1.5499114990234375
1761392275348436200,1.437436279296875,-0.218109130859375,1.5275421142578125,-1.7357025146484375
1761392275358518000,1.44751806640625,-0.15185546875,1.4351348876953125,-1.783203125
1761392275368600000,1.45760009765625,-0.2346954345703125,1.3430633544921875,-1.8080291748046875
1761392275378682000,1.46768212890625,-0.462188720703125,1.211639404296875,-1.8631134033203125
1761392275388765200,1.47776513671875,-0.775177001953125,0.9712677001953125,-1.870208740234375
1761392275398847000,1.487846923828125,-1.002685546875,0.6575469970703125,-1.8204345703125
1761392275408929000,1.497928955078125,-1.216766357421875,0.3755645751953125,-1.7765045166015625
1761392275419011000,1.508010986328125,-1.530364990234375,0.2216033935546875,-1.6916351318359375
1761392275429093000,1.518093017578125,-1.9698638916015625,0.1304779052734375,-1.542633056640625
1761392275439176200,1.52817626953125,-2.404296875,0.04425048828125,-1.2732391357421875
1761392275449258000,1.538258056640625,-2.71051025390625,-0.2111358642578125,-0.8825836181640625
1761392275459340000,1.548340087890625,-2.8495025634765625,-0.5590362548828125,-0.5137481689453125
1761392275469422000,1.558422119140625,-2.8765411376953125,-0.897491455078125,-0.1992034912109375
1761392275479505200,1.568505126953125,-2.9404144287109375,-1.2113189697265625,0.067108154296875
1761392275489587000,1.5785869140625,-2.983306884765625,-1.3770599365234375,0.224761962890625
1761392275499669000,1.5886689453125,-2.993896484375,-1.3422393798828125,0.273162841796875
1761392275509751000,1.5987509765625,-3.057281494140625,-1.2268218994140625,0.2432861328125
1761392275519833000,1.6088330078125,-3.1591339111328125,-1.1022491455078125,0.2527923583984375
1761392275529916200,1.618916259765625,-3.0738067626953125,-1.0626373291015625,0.371337890625
1761392275539998000,1.628998046875,-2.7734832763671875,-1.0908050537109375,0.606689453125
1761392275550080000,1.639080078125,-2.427398681640625,-1.193817138671875,0.8854217529296875
1761392275560162000,1.649162109375,-2.097747802734375,-1.215972900390625,1.110870361328125
1761392275570245400,1.659245361328125,-1.8169403076171875,-1.1540679931640625,1.255584716796875
1761392275580327200,1.6693271484375,-1.5545501708984375,-1.0440216064453125,1.2910614013671875
1761392275590409200,1.6794091796875,-1.2685546875,-0.853668212890625,1.22900390625
1761392275600491000,1.689490966796875,-0.94842529296875,-0.6317901611328125,1.1394805908203125
1761392275610573000,1.699572998046875,-0.7372589111328125,-0.4258575439453125,1.0646514892578125
1761392275620656000,1.70965625,-0.7150726318359375,-0.24029541015625,1.09130859375
1761392275630738200,1.71973828125,-0.7677459716796875,-0.047637939453125,1.1004180908203125
1761392275640820200,1.7298203125,-0.7703857421875,0.1497650146484375,1.085479736328125
1761392275650902300,1.73990234375,-0.7206878662109375,0.27618408203125,1.087188720703125
1761392275660985300,1.7499853515625,-0.6951751708984375,0.2925262451171875,1.15582275390625
1761392275671067100,1.760067138671875,-0.7032318115234375,0.2869873046875,1.2326812744140625
1761392275681149200,1.770149169921875,-0.73419189453125,0.239288330078125,1.33740234375
1761392275691231200,1.780231201171875,-0.672607421875,0.2480926513671875,1.32086181640625
1761392275701313300,1.790313232421875,-0.513702392578125,0.492645263671875,1.1946563720703125
1761392275711396000,1.80039599609375,-0.3139801025390625,0.6702728271484375,1.1099395751953125
1761392275721478100,1.81047802734375,-0.1959381103515625,0.8814849853515625,1.01861572265625
1761392275731560200,1.820560302734375,-0.174346923828125,1.1779632568359375,0.8258514404296875
1761392275741642200,1.830642333984375,-0.3254241943359375,1.434234619140625,0.5637054443359375
1761392275751725300,1.840725341796875,-0.6666107177734375,1.5096435546875,0.2393798828125
1761392275761807000,1.85080712890625,-1.054229736328125,1.6083984375,-0.2390594482421875
1761392275771889200,1.86088916015625,-1.3342742919921875,1.7393646240234375,-0.7870941162109375
1761392275781971200,1.87097119140625,-1.4189300537109375,1.692138671875,-1.234649658203125
1761392275792054300,1.88105419921875,-1.3878173828125,1.421630859375,-1.459564208984375
1761392275802136000,1.891135986328125,-1.2836151123046875,1.02716064453125,-1.543609619140625
1761392275812218000,1.901218017578125,-1.163330078125,0.71685791015625,-1.583038330078125
1761392275822304000,1.911303955078125,-1.0958251953125,0.4482879638671875,-1.590789794921875
1761392275832386000,1.921385986328125,-1.1462860107421875,0.15447998046875,-1.6217193603515625
1761392275842468900,1.93146875,-1.2837066650390625,-0.12591552734375,-1.7031707763671875
1761392275852551000,1.941551025390625,-1.4086151123046875,-0.34698486328125,-1.795074462890625
1761392275862633000,1.951633056640625,-1.4459991455078125,-0.4930877685546875,-1.8754730224609375
1761392275872715000,1.961715087890625,-1.3727874755859375,-0.619140625,-1.8998260498046875
1761392275882798000,1.971798095703125,-1.2036895751953125,-0.773712158203125,-1.853485107421875
1761392275892880000,1.9818798828125,-1.0548858642578125,-0.95257568359375,-1.7191314697265625
1761392275902962000,1.9919619140625,-1.13409423828125,-1.1449737548828125,-1.5269622802734375
1761392275913044000,2.0020439453125,-1.48614501953125,-1.310302734375,-1.2552642822265625
1761392275923127000,2.012126953125,-1.952545166015625,-1.5465240478515625,-0.904937744140625
1761392275933208800,2.022208740234375,-2.3420867919921875,-1.8909912109375,-0.5314178466796875
1761392275943291000,2.032290771484375,-2.6340179443359375,-2.21087646484375,-0.233734130859375
1761392275953373000,2.042373046875,-2.8991851806640625,-2.4158477783203125,-0.0107574462890625
1761392275963455000,2.052455078125,-3.244415283203125,-2.438079833984375,0.1844482421875
1761392275973538000,2.0625380859375,-3.593109130859375,-2.3185577392578125,0.39886474609375
1761392275983619800,2.072619873046875,-3.7911376953125,-2.08489990234375,0.5857391357421875
1761392275993702000,2.082701904296875,-3.7823486328125,-1.77886962890625,0.748870849609375
1761392276003784000,2.092783935546875,-3.5499114990234375,-1.5406494140625,0.89556884765625
1761392276013867000,2.102866943359375,-3.270843505859375,-1.378265380859375,1.10821533203125
1761392276023948800,2.11294873046875,-3.148712158203125,-1.148040771484375,1.3881988525390625
1761392276034030800,2.12303076171875,-3.24090576171875,-0.7256317138671875,1.5982818603515625
1761392276044113000,2.13311279296875,-3.3919677734375,-0.2066802978515625,1.7458648681640625
1761392276054195000,2.14319482421875,-3.487518310546875,0.27130126953125,1.86126708984375
1761392276064277800,2.15327783203125,-3.353515625,0.6690521240234375,1.88800048828125
1761392276074359800,2.16335986328125,-2.9703521728515625,0.9253082275390625,1.809295654296875
1761392276084441900,2.17344189453125,-2.4708404541015625,1.0084686279296875,1.694549560546875
1761392276094524000,2.18352392578125,-1.97393798828125,1.0283355712890625,1.5308380126953125
1761392276104607000,2.19360693359375,-1.503326416015625,1.117767333984375,1.307861328125
1761392276114688800,2.203688720703125,-1.0209808349609375,1.248687744140625,1.1123809814453125
1761392276124770800,2.213770751953125,-0.4963531494140625,1.3666534423828125,0.9800567626953125
1761392276134852900,2.223852783203125,-0.051361083984375,1.38134765625,0.89825439453125
1761392276144936000,2.23393603515625,0.11041259765625,1.38311767578125,0.8228607177734375
1761392276155017700,2.244017822265625,0.0228118896484375,1.4487762451171875,0.6796875
1761392276165099800,2.254099853515625,-0.1674041748046875,1.56170654296875,0.4433746337890625
1761392276175181800,2.264181884765625,-0.3158416748046875,1.7531585693359375,0.178375244140625
1761392276185265200,2.27426513671875,-0.3792877197265625,1.9849853515625,-0.083587646484375
1761392276195347000,2.284346923828125,-0.3626251220703125,2.1208953857421875,-0.3535919189453125
1761392276205428700,2.2944287109375,-0.2647705078125,2.0912017822265625,-0.6619873046875
1761392276215510800,2.3045107421875,-0.073974609375,2.0386810302734375,-1.0166015625
1761392276225592800,2.3145927734375,0.1409149169921875,1.9589080810546875,-1.3149566650390625
1761392276235676200,2.32467626953125,0.311248779296875,1.772796630859375,-1.48797607421875
1761392276245758000,2.334758056640625,0.3955535888671875,1.545379638671875,-1.523284912109375
1761392276255840000,2.344840087890625,0.36358642578125,1.34393310546875,-1.480072021484375
1761392276265922000,2.354922119140625,0.2499542236328125,1.2091522216796875,-1.471282958984375
1761392276276005000,2.365005126953125,0.0671844482421875,1.1076507568359375,-1.4780731201171875
1761392276286087000,2.3750869140625,-0.107574462890625,0.975830078125,-1.4573974609375
1761392276296169000,2.3851689453125,-0.26239013671875,0.8511199951171875,-1.4295501708984375
1761392276306251000,2.3952509765625,-0.447906494140625,0.701568603515625,-1.430938720703125
1761392276316334000,2.405333984375,-0.659393310546875,0.547149658203125,-1.49774169921875
1761392276326416100,2.415416015625,-0.8977508544921875,0.5042724609375,-1.7156219482421875
1761392276336498000,2.425497802734375,-1.0057373046875,0.5067901611328125,-1.9376678466796875
1761392276346580000,2.435580078125,-0.9722137451171875,0.4429473876953125,-2.0644378662109375
1761392276356663000,2.4456630859375,-0.86077880859375,0.3441925048828125,-2.0277252197265625
1761392276366745000,2.4557451171875,-0.8833770751953125,0.1125030517578125,-1.823577880859375
1761392276376827000,2.465826904296875,-1.130401611328125,-0.1048583984375,-1.642913818359375
1761392276386909000,2.475908935546875,-1.5672760009765625,-0.3018341064453125,-1.558929443359375
1761392276396992000,2.485991943359375,-2.1664276123046875,-0.57403564453125,-1.6030426025390625
1761392276407074000,2.496073974609375,-2.7997894287109375,-0.83575439453125,-1.7516632080078125
1761392276417156000,2.506156005859375,-3.3858795166015625,-1.0777435302734375,-1.871551513671875
1761392276427238000,2.51623779296875,-3.909423828125,-1.295684814453125,-1.8491058349609375
1761392276437321000,2.526321044921875,-4.2576446533203125,-1.534454345703125,-1.6758270263671875
1761392276447403000,2.536403076171875,-4.3749847412109375,-1.875091552734375,-1.4131622314453125
1761392276457485000,2.546485107421875,-4.2181854248046875,-2.287322998046875,-1.0751495361328125
1761392276467566800,2.55656689453125,-3.9589080810546875,-2.5896453857421875,-0.7804718017578125
1761392276477649000,2.56664892578125,-3.7638092041015625,-2.7325439453125,-0.51629638671875
1761392276487732000,2.57673193359375,-3.5769805908203125,-2.703521728515625,-0.2938385009765625
1761392276497814000,2.58681396484375,-3.368560791015625,-2.50946044921875,-0.1105194091796875
1761392276507896000,2.59689599609375,-3.13458251953125,-2.2433319091796875,0.0571746826171875
1761392276517977900,2.606977783203125,-2.86895751953125,-1.90606689453125,0.196258544921875
1761392276528061000,2.61706103515625,-2.59796142578125,-1.5355682373046875,0.319183349609375
1761392276538143000,2.62714306640625,-2.3523712158203125,-1.16802978515625,0.4576873779296875
1761392276548225000,2.63722509765625,-2.1628265380859375,-0.8437042236328125,0.628814697265625
1761392276558306800,2.647306884765625,-2.01519775390625,-0.561248779296875,0.7534942626953125
1761392276568390000,2.657389892578125,-1.90435791015625,-0.2978057861328125,0.8302001953125
1761392276578472000,2.667471923828125,-1.826568603515625,-0.0931396484375,0.8717041015625
1761392276588554000,2.677553955078125,-1.7752532958984375,0.090576171875,0.85479736328125
1761392276598636000,2.687635986328125,-1.7806396484375,0.2305908203125,0.7684478759765625
1761392276608718800,2.69771875,-1.8768310546875,0.3605804443359375,0.627593994140625
1761392276618801000,2.70780078125,-1.961456298828125,0.4754486083984375,0.459075927734375
1761392276628883000,2.717883056640625,-1.9154052734375,0.5785675048828125,0.26605224609375
1761392276638965000,2.727965087890625,-1.8087615966796875,0.60675048828125,0.0927581787109375
1761392276649046800,2.738046875,-1.673431396484375,0.625518798828125,-0.0557708740234375
1761392276659129900,2.7481298828125,-1.5391082763671875,0.655975341796875,-0.1403656005859375
1761392276669212000,2.7582119140625,-1.4162139892578125,0.6098785400390625,-0.096160888671875
1761392276679294000,2.7682939453125,-1.247222900390625,0.5246734619140625,0.0108184814453125
1761392276689376000,2.7783759765625,-1.0543060302734375,0.5023651123046875,0.0571441650390625
1761392276699458800,2.788458740234375,-0.8978118896484375,0.5660400390625,0.0767669677734375
1761392276709540900,2.798540771484375,-0.80419921875,0.6068878173828125,0.1578369140625
1761392276719623000,2.808622802734375,-0.761474609375,0.662200927734375,0.236663818359375
1761392276729705000,2.818705078125,-0.735137939453125,0.8031768798828125,0.2705078125
1761392276739788000,2.8287880859375,-0.732879638671875,0.86328125,0.308319091796875
1761392276749870000,2.8388701171875,-0.750030517578125,0.880218505859375,0.328125
1761392276759952100,2.8489521484375,-0.7707672119140625,0.898040771484375,0.293548583984375
1761392276770034000,2.859033935546875,-0.768218994140625,0.9238128662109375,0.213775634765625
1761392276780117000,2.869116943359375,-0.702728271484375,0.9205474853515625,0.1036224365234375
1761392276790199000,2.879198974609375,-0.582244873046875,0.8933868408203125,-0.01806640625
1761392276800281000,2.889281005859375,-0.4525604248046875,0.8796844482421875,-0.157928466796875
1761392276810363100,2.899363037109375,-0.307769775390625,0.8710479736328125,-0.2903289794921875
1761392276820441900,2.90944189453125,-0.1953277587890625,0.87384033203125,-0.39862060546875
1761392276830524000,2.91952392578125,-0.1363372802734375,0.8873443603515625,-0.5015106201171875
1761392276840606000,2.92960595703125,-0.12506103515625,0.9035491943359375,-0.6046600341796875
1761392276850688000,2.93968798828125,-0.1475677490234375,0.913330078125,-0.690032958984375
1761392276860770800,2.949770751953125,-0.191558837890625,0.8949432373046875,-0.75225830078125
1761392276870852900,2.959852783203125,-0.2540740966796875,0.8436737060546875,-0.823577880859375
1761392276880935000,2.969934814453125,-0.3325042724609375,0.7519989013671875,-0.92218017578125
1761392276891017000,2.980016845703125,-0.4044952392578125,0.643585205078125,-1.0444488525390625
1761392276901100000,2.99010009765625,-0.4143218994140625,0.5679168701171875,-1.189056396484375
1761392276911181800,3.000181884765625,-0.386810302734375,0.523040771484375,-1.318817138671875
1761392276921263900,3.010263916015625,-0.36004638671875,0.466033935546875,-1.368560791015625
1761392276931346000,3.020345947265625,-0.3944854736328125,0.4210968017578125,-1.378204345703125
1761392276941428000,3.030427978515625,-0.4970855712890625,0.3817596435546875,-1.3705596923828125
1761392276951511000,3.040510986328125,-0.6555328369140625,0.3094940185546875,-1.3756561279296875
1761392276961593000,3.050593017578125,-0.8298797607421875,0.2472991943359375,-1.420623779296875
1761392276971675000,3.0606748046875,-0.9553985595703125,0.259613037109375,-1.577484130859375
1761392276981757000,3.0707568359375,-0.9599761962890625,0.3888702392578125,-1.82891845703125
1761392276991840000,3.080840087890625,-0.852294921875,0.4791412353515625,-1.9484100341796875
1761392277001922000,3.090922119140625,-0.7046356201171875,0.4118804931640625,-1.84429931640625
1761392277012004000,3.101004150390625,-0.654510498046875,0.259063720703125,-1.6086578369140625
1761392277022086100,3.111086181640625,-0.888092041015625,0.07049560546875,-1.416748046875
1761392277032169200,3.121169189453125,-1.4350433349609375,0.0214691162109375,-1.4365386962890625
1761392277042251000,3.1312509765625,-2.1956634521484375,0.1311187744140625,-1.6369171142578125
1761392277052333000,3.1413330078125,-2.9802398681640625,0.169708251953125,-1.805206298828125
1761392277062415000,3.1514150390625,-3.561431884765625,0.1817169189453125,-1.8951873779296875
1761392277072498200,3.161498291015625,-3.7534027099609375,0.045166015625,-1.86572265625
1761392277082580000,3.171580078125,-3.5573577880859375,-0.3155517578125,-1.6465911865234375
1761392277092662000,3.181662109375,-3.190277099609375,-0.716156005859375,-1.3778228759765625
1761392277102744000,3.191744140625,-2.8626861572265625,-0.9891815185546875,-1.18365478515625
1761392277112827100,3.2018271484375,-2.744720458984375,-1.1907501220703125,-1.00946044921875
1761392277122909200,3.2119091796875,-2.7172393798828125,-1.2602386474609375,-0.9014739990234375
1761392277132991000,3.221990966796875,-2.736083984375,-1.2606353759765625,-0.7867889404296875
1761392277143073000,3.232072998046875,-2.7309722900390625,-1.2583160400390625,-0.637725830078125
1761392277153156000,3.242156005859375,-2.6029815673828125,-1.22100830078125,-0.480377197265625
1761392277163238100,3.252238037109375,-2.416656494140625,-1.1925506591796875,-0.309326171875
1761392277173320000,3.26231982421875,-2.2347259521484375,-1.13671875,-0.11273193359375
1761392277183402000,3.272402099609375,-2.068389892578125,-1.06817626953125,0.1295318603515625
1761392277193485000,3.282485107421875,-1.979522705078125,-0.9673004150390625,0.3580169677734375
1761392277203567000,3.292567138671875,-1.936859130859375,-0.813934326171875,0.5356292724609375
1761392277213649200,3.302649169921875,-1.85980224609375,-0.6296844482421875,0.642059326171875
1761392277223731000,3.31273095703125,-1.7748260498046875,-0.4394989013671875,0.6728057861328125
1761392277233814000,3.32281396484375,-1.6649017333984375,-0.262451171875,0.63812255859375
1761392277243896000,3.33289599609375,-1.559356689453125,-0.1155853271484375,0.59759521484375
1761392277253978000,3.34297802734375,-1.470001220703125,0.004974365234375,0.565765380859375
1761392277264060000,3.353059814453125,-1.3993377685546875,0.13775634765625,0.5674285888671875
1761392277274142000,3.363141845703125,-1.3682708740234375,0.273040771484375,0.6286773681640625
1761392277284225000,3.37322509765625,-1.3582000732421875,0.3808746337890625,0.7148284912109375
1761392277294307000,3.38330712890625,-1.334869384765625,0.50921630859375,0.7534637451171875
1761392277304389000,3.39338916015625,-1.3351898193359375,0.6780853271484375,0.7233734130859375
1761392277314471000,3.403470947265625,-1.3039398193359375,0.8353729248046875,0.624298095703125
1761392277324554000,3.413553955078125,-1.2291259765625,0.91217041015625,0.525299072265625
1761392277334636000,3.423635986328125,-1.05523681640625,0.97698974609375,0.448028564453125
1761392277344718000,3.433718017578125,-0.7879180908203125,1.165740966796875,0.3911285400390625
1761392277354799900,3.4437998046875,-0.5147247314453125,1.376190185546875,0.3536529541015625
1761392277364883000,3.453883056640625,-0.3505096435546875,1.474761962890625,0.3116607666015625
1761392277374965000,3.463965087890625,-0.3172149658203125,1.6232452392578125,0.1963958740234375
1761392277385047000,3.474047119140625,-0.4626007080078125,1.736236572265625,-0.017364501953125
1761392277395129000,3.484129150390625,-0.7187652587890625,1.7577667236328125,-0.3080291748046875
1761392277405212000,3.4942119140625,-0.934173583984375,1.821258544921875,-0.63653564453125
1761392277415294000,3.5042939453125,-1.071502685546875,1.892120361328125,-0.935211181640625
1761392277425376000,3.5143759765625,-1.1627960205078125,1.9174041748046875,-1.1545257568359375
1761392277435458000,3.5244580078125,-1.1412811279296875,1.8792266845703125,-1.2878265380859375
1761392277445541000,3.534541015625,-1.03680419921875,1.7529144287109375,-1.33941650390625
1761392277455623200,3.544623046875,-0.925201416015625,1.502227783203125,-1.312896728515625
1761392277465705200,3.554705322265625,-0.833953857421875,1.229766845703125,-1.296966552734375
1761392277475787000,3.564787109375,-0.7579498291015625,0.9916534423828125,-1.3178253173828125
1761392277485870000,3.5748701171875,-0.706939697265625,0.7799072265625,-1.327117919921875
1761392277495952100,3.5849521484375,-0.66522216796875,0.59759521484375,-1.311309814453125
1761392277506034200,3.5950341796875,-0.6827545166015625,0.4600830078125,-1.2966766357421875
1761392277516116200,3.6051162109375,-0.7854766845703125,0.37115478515625,-1.309539794921875
1761392277526199000,3.615198974609375,-0.963653564453125,0.3025360107421875,-1.3220977783203125
1761392277536281000,3.625281005859375,-1.1942291259765625,0.200927734375,-1.3696441650390625
1761392277546363100,3.635363037109375,-1.4075164794921875,0.07916259765625,-1.45916748046875
1761392277556445200,3.645445068359375,-1.5934295654296875,-0.0323333740234375,-1.56951904296875
1761392277566528000,3.655528076171875,-1.7935028076171875,-0.1535491943359375,-1.56781005859375
1761392277576610000,3.665610107421875,-1.941375732421875,-0.3383941650390625,-1.50225830078125
1761392277586692000,3.675692138671875,-2.013458251953125,-0.5070037841796875,-1.45465087890625
1761392277596774100,3.685774169921875,-2.0499114990234375,-0.632110595703125,-1.4608612060546875
1761392277606857000,3.69585693359375,-2.0692138671875,-0.7527313232421875,-1.47113037109375
1761392277616939000,3.70593896484375,-2.05352783203125,-0.85174560546875,-1.460296630859375
1761392277627021000,3.71602099609375,-2.085845947265625,-0.9005279541015625,-1.423431396484375
1761392277637103000,3.72610302734375,-2.12786865234375,-0.947052001953125,-1.3130950927734375
1761392277647185200,3.73618505859375,-2.1058197021484375,-0.99078369140625,-1.1260986328125
1761392277657268000,3.74626806640625,-2.10052490234375,-1.08203125,-0.8404083251953125
1761392277667350000,3.75635009765625,-2.2665557861328125,-1.16326904296875,-0.5390167236328125
1761392277677432000,3.76643212890625,-2.625396728515625,-1.1332855224609375,-0.293487548828125
1761392277687514000,3.77651416015625,-3.1082611083984375,-0.9255828857421875,-0.1146087646484375
1761392277697597000,3.786596923828125,-3.489013671875,-0.623565673828125,0.0184478759765625
1761392277707679000,3.796678955078125,-3.5531463623046875,-0.2837371826171875,0.054046630859375
1761392277717761000,3.806760986328125,-3.2406158447265625,-0.0903167724609375,0.0414581298828125
1761392277727843000,3.816843017578125,-2.707763671875,-0.09552001953125,0.007415771484375
1761392277737926000,3.82692578125,-2.1929779052734375,-0.169158935546875,0.0405120849609375
1761392277748008000,3.837008056640625,-1.8492889404296875,-0.2500152587890625,0.119049072265625
1761392277758090000,3.847090087890625,-1.7237701416015625,-0.2483673095703125,0.2199249267578125
1761392277768172000,3.857172119140625,-1.7073516845703125,-0.1933746337890625,0.3383941650390625
1761392277778255000,3.867255126953125,-1.68878173828125,-0.09454345703125,0.4632415771484375
1761392277788337000,3.8773369140625,-1.59442138671875,-0.002288818359375,0.5999603271484375
1761392277798419000,3.8874189453125,-1.4702301025390625,0.0554962158203125,0.727508544921875
1761392277808501000,3.8975009765625,-1.3442840576171875,0.11199951171875,0.8127288818359375
1761392277818584000,3.907583984375,-1.2173919677734375,0.1774749755859375,0.8366241455078125
1761392277828670200,3.917670166015625,-1.0667877197265625,0.2329254150390625,0.8072662353515625
1761392277838752300,3.927752197265625,-0.91607666015625,0.2730712890625,0.7357635498046875
1761392277848834300,3.937834228515625,-0.7673187255859375,0.323333740234375,0.6385498046875
1761392277858916400,3.947916259765625,-0.6217041015625,0.3744049072265625,0.53466796875
1761392277868999200,3.957999267578125,-0.4844512939453125,0.419708251953125,0.42596435546875
1761392277879081200,3.968081298828125,-0.34918212890625,0.476287841796875,0.31524658203125
1761392277889163300,3.978163330078125,-0.2264251708984375,0.542205810546875,0.211883544921875
1761392277899245300,3.988245361328125,-0.107330322265625,0.57293701171875,0.1418609619140625
1761392277909327400,3.998327392578125,-0.0051727294921875,0.59857177734375,0.0715789794921875
1761392277919409200,4.0084091796875,0.07000732421875,0.663970947265625,-0.004730224609375
1761392277929491200,4.0184912109375,0.1273040771484375,0.724456787109375,-0.068817138671875
1761392277939574300,4.02857421875,0.1624298095703125,0.801025390625,-0.1214141845703125
1761392277949656300,4.03865625,0.170257568359375,0.9161529541015625,-0.194610595703125
1761392277959738400,4.04873828125,0.169036865234375,1.05767822265625,-0.275848388671875
1761392277969820200,4.058820068359375,0.1341094970703125,1.14459228515625,-0.3363037109375
1761392277979903200,4.0689033203125,0.0823516845703125,1.230682373046875,-0.40069580078125
1761392277989985300,4.0789853515625,0.0523681640625,1.335601806640625,-0.490814208984375
1761392278000067300,4.0890673828125,0.0270538330078125,1.39752197265625,-0.55792236328125
1761392278010149000,4.099149169921875,-0.0830535888671875,1.38055419921875,-0.603729248046875
1761392278020232400,4.109232421875,-0.3424072265625,1.3156280517578125,-0.6792144775390625
1761392278030314500,4.119314453125,-0.6777191162109375,1.21466064453125,-0.8090362548828125
1761392278040396300,4.129396240234375,-0.9721221923828125,1.1800537109375,-1.0091400146484375
1761392278050478300,4.139478271484375,-1.215118408203125,1.186248779296875,-1.202484130859375
1761392278060560100,4.14956005859375,-1.3930206298828125,1.1416778564453125,-1.3319549560546875
1761392278070643500,4.1596435546875,-1.485992431640625,1.0022430419921875,-1.39874267578125
1761392278080725500,4.1697255859375,-1.537384033203125,0.7474365234375,-1.3993072509765625
1761392278090807600,4.1798076171875,-1.5930633544921875,0.4796142578125,-1.4394073486328125
1761392278100889300,4.189889404296875,-1.6883392333984375,0.228240966796875,-1.5090484619140625
1761392278110972400,4.199972412109375,-1.7550506591796875,0.009521484375,-1.5606536865234375
1761392278121054500,4.210054443359375,-1.7958831787109375,-0.1182861328125,-1.6396331787109375
1761392278131136500,4.220136474609375,-1.8635711669921875,-0.182952880859375,-1.7860107421875
1761392278141218300,4.23021826171875,-2.0334014892578125,-0.242034912109375,-1.938323974609375
1761392278151301400,4.24030126953125,-2.22833251953125,-0.272369384765625,-2.0387115478515625
1761392278161383400,4.250383544921875,-2.4403533935546875,-0.2568206787109375,-2.0202789306640625
1761392278171465500,4.260465576171875,-2.618621826171875,-0.247894287109375,-1.8196563720703125
1761392278181547500,4.270547607421875,-2.733795166015625,-0.2950286865234375,-1.466400146484375
1761392278191630300,4.28063037109375,-2.7812957763671875,-0.3967742919921875,-1.0755157470703125
1761392278201712400,4.29071240234375,-2.799407958984375,-0.5457763671875,-0.7510528564453125
1761392278211794400,4.30079443359375,-2.742401123046875,-0.692718505859375,-0.4496917724609375
1761392278221876500,4.31087646484375,-2.55419921875,-0.8933868408203125,-0.180908203125
1761392278231959300,4.320959228515625,-2.2210235595703125,-1.0208282470703125,-0.0147705078125
1761392278242041300,4.331041259765625,-1.906951904296875,-1.0613250732421875,0.1035614013671875
1761392278252123400,4.341123291015625,-1.694000244140625,-1.0529327392578125,0.192047119140625
1761392278262205400,4.351205322265625,-1.61138916015625,-0.9484405517578125,0.206756591796875
1761392278272288300,4.361288330078125,-1.6278839111328125,-0.7924957275390625,0.1756744384765625
1761392278282370300,4.371370361328125,-1.704864501953125,-0.656890869140625,0.147247314453125
1761392278292452400,4.381452392578125,-1.7578887939453125,-0.508636474609375,0.14508056640625
1761392278302534400,4.391534423828125,-1.7734832763671875,-0.4052886962890625,0.1813201904296875
1761392278312616400,4.401616455078125,-1.7012481689453125,-0.3906707763671875,0.338623046875
1761392278322699300,4.41169921875,-1.627471923828125,-0.44305419921875,0.5499267578125
1761392278332781300,4.42178125,-1.67413330078125,-0.4780731201171875,0.7346649169921875
1761392278342863400,4.43186328125,-1.842132568359375,-0.419677734375,0.864166259765625
1761392278352945400,4.4419453125,-2.077056884765625,-0.2840728759765625,0.9521942138671875
1761392278363028200,4.4520283203125,-2.285675048828125,-0.135528564453125,1.043731689453125
1761392278373110300,4.4621103515625,-2.3700714111328125,0.0162811279296875,1.059478759765625
1761392278383192300,4.4721923828125,-2.2912139892578125,0.1209869384765625,1.0044708251953125
1761392278393274400,4.4822744140625,-2.1160430908203125,0.117095947265625,0.9409637451171875
1761392278403357200,4.492357177734375,-1.894317626953125,0.05914306640625,0.8720245361328125
1761392278413439200,4.502439208984375,-1.6305084228515625,0.0377044677734375,0.74383544921875
1761392278423521300,4.512521240234375,-1.3951416015625,0.0362548828125,0.5807647705078125
1761392278433603300,4.522603271484375,-1.1816253662109375,0.0406646728515625,0.416107177734375
1761392278443686100,4.53268603515625,-0.99200439453125,0.100982666015625,0.258026123046875
1761392278453768200,4.542768310546875,-0.852813720703125,0.176300048828125,0.098419189453125
1761392278463850200,4.552850341796875,-0.7117156982421875,0.312957763671875,-0.0781097412109375
1761392278473932300,4.562932373046875,-0.5795440673828125,0.4681549072265625,-0.200653076171875
1761392278484014300,4.573014404296875,-0.477264404296875,0.5542449951171875,-0.2380828857421875
1761392278494097200,4.58309716796875,-0.36480712890625,0.5858306884765625,-0.22393798828125
1761392278504179200,4.59317919921875,-0.2644500732421875,0.5952606201171875,-0.2130889892578125
1761392278514261200,4.60326123046875,-0.2001190185546875,0.6474456787109375,-0.2152862548828125
1761392278524343300,4.61334326171875,-0.1812744140625,0.734161376953125,-0.2262115478515625
1761392278534426000,4.623426025390625,-0.1921234130859375,0.7960662841796875,-0.2302703857421875
1761392278544509400,4.633509521484375,-0.1943206787109375,0.8766021728515625,-0.2685089111328125
1761392278554591500,4.643591552734375,-0.195892333984375,0.95208740234375,-0.3265838623046875
1761392278564673500,4.653673583984375,-0.1651763916015625,0.991973876953125,-0.3870086669921875
1761392278574755300,4.66375537109375,-0.1112823486328125,1.020172119140625,-0.431121826171875
1761392278584837400,4.67383740234375,-0.0518951416015625,0.9893951416015625,-0.4457855224609375
1761392278594920400,4.68392041015625,-0.01898193359375,0.946624755859375,-0.45135498046875
1761392278605002500,4.69400244140625,-0.054046630859375,0.9139556884765625,-0.471923828125
1761392278615084300,4.704084228515625,-0.176727294921875,0.89764404296875,-0.5482025146484375
1761392278625166300,4.714166259765625,-0.39111328125,0.9087982177734375,-0.7180938720703125
1761392278635249400,4.72424951171875,-0.646148681640625,0.901031494140625,-0.967254638671875
1761392278645331500,4.73433154296875,-0.80169677734375,0.835662841796875,-1.1705780029296875
1761392278655413500,4.74441357421875,-0.85614013671875,0.51416015625,-1.18756103515625
1761392278665495300,4.754495361328125,-0.9917449951171875,0.1095733642578125,-1.155975341796875
1761392278675578400,4.764578369140625,-1.233367919921875,-0.2733001708984375,-1.2044525146484375
1761392278685660400,4.774660400390625,-1.5491485595703125,-0.593780517578125,-1.3535003662109375
1761392278695742500,4.784742431640625,-1.872283935546875,-0.8271484375,-1.508270263671875
1761392278705824300,4.79482421875,-2.129302978515625,-1.1211090087890625,-1.6065673828125
1761392278715907300,4.8049072265625,-2.1459197998046875,-1.4897003173828125,-1.634246826171875
1761392278725989400,4.8149892578125,-2.1066436767578125,-1.892730712890625,-1.516693115234375
1761392278736071400,4.825071533203125,-2.12384033203125,-2.3734130859375,-1.2250518798828125
1761392278746153500,4.835153564453125,-2.483245849609375,-2.82830810546875,-0.9112396240234375
1761392278756235300,4.8452353515625,-3.2257843017578125,-2.9692840576171875,-0.7666168212890625
1761392278766318300,4.855318359375,-3.8782806396484375,-2.6616973876953125,-0.714202880859375
1761392278776400400,4.865400390625,-4.2158966064453125,-2.2027435302734375,-0.628173828125
1761392278786482400,4.875482421875,-4.071014404296875,-1.894195556640625,-0.3488616943359375
1761392278796564200,4.885564208984375,-3.684661865234375,-1.745208740234375,-0.002166748046875
1761392278806647300,4.895647216796875,-3.2002716064453125,-1.629119873046875,0.337890625
1761392278816729300,4.905729248046875,-2.64019775390625,-1.483154296875,0.589202880859375
1761392278826810600,4.915810546875,-2.103271484375,-1.26947021484375,0.735565185546875
1761392278836892700,4.925892578125,-1.659912109375,-1.0184783935546875,0.7934417724609375
1761392278846975500,4.9359755859375,-1.3173370361328125,-0.721649169921875,0.7762603759765625
1761392278857057500,4.9460576171875,-1.0475311279296875,-0.4271240234375,0.717742919921875
1761392278867139600,4.9561396484375,-0.86688232421875,-0.187286376953125,0.641876220703125
1761392278877221600,4.9662216796875,-0.7927703857421875,0.00128173828125,0.5653839111328125
1761392278887304400,4.976304443359375,-0.785400390625,0.1495819091796875,0.5006103515625
1761392278897386500,4.986386474609375,-0.7859344482421875,0.2742919921875,0.4363861083984375
1761392278907468500,4.996468505859375,-0.7799072265625,0.410888671875,0.36065673828125
1761392278917550600,5.006550537109375,-0.7535858154296875,0.5623016357421875,0.304290771484375
1761392278927633700,5.016633544921875,-0.7435150146484375,0.716888427734375,0.278961181640625
1761392278937715700,5.0267158203125,-0.7545623779296875,0.940399169921875,0.253204345703125
1761392278947797800,5.0367978515625,-0.7401885986328125,1.22857666015625,0.217742919921875
1761392278957879800,5.0468798828125,-0.746612548828125,1.5070343017578125,0.1696929931640625
1761392278967961600,5.056961669921875,-0.710601806640625,1.7383880615234375,0.1129302978515625
1761392278978044700,5.067044677734375,-0.6746826171875,1.858001708984375,0.0479583740234375
1761392278988126700,5.077126708984375,-0.7313232421875,1.7511749267578125,-0.0005645751953125
1761392278998208800,5.087208740234375,-0.7741851806640625,1.5989227294921875,-0.1163482666015625
1761392279008290800,5.097290771484375,-0.7532958984375,1.5487213134765625,-0.3255615234375
1761392279018373600,5.10737353515625,-0.6757659912109375,1.5124053955078125,-0.518280029296875
1761392279028455700,5.11745556640625,-0.6055908203125,1.443511962890625,-0.6356201171875
1761392279038537700,5.127537841796875,-0.559783935546875,1.3352508544921875,-0.68292236328125
1761392279048619800,5.137619873046875,-0.5478973388671875,1.127349853515625,-0.6715240478515625
1761392279058702600,5.14770263671875,-0.5876312255859375,0.8306427001953125,-0.673492431640625
1761392279068784600,5.15778466796875,-0.66741943359375,0.5312957763671875,-0.7337188720703125
1761392279078866700,5.16786669921875,-0.7721099853515625,0.25634765625,-0.8036041259765625
1761392279088948700,5.17794873046875,-0.845550537109375,-0.00262451171875,-0.87701416015625
1761392279099030800,5.18803076171875,-0.9044342041015625,-0.238739013671875,-0.9730377197265625
1761392279109113600,5.198113525390625,-0.9354248046875,-0.4477996826171875,-1.0922393798828125
1761392279119195600,5.208195556640625,-0.9315338134765625,-0.662200927734375,-1.2069244384765625
1761392279129277700,5.218277587890625,-0.945892333984375,-0.91534423828125,-1.28607177734375
1761392279139359700,5.22835986328125,-1.01806640625,-1.1845855712890625,-1.316375732421875
1761392279149442600,5.238442626953125,-1.1951446533203125,-1.4773712158203125,-1.3339691162109375
1761392279159524600,5.248524658203125,-1.422821044921875,-1.7245635986328125,-1.3571319580078125
1761392279169606700,5.258606689453125,-1.5973968505859375,-1.889312744140625,-1.393798828125
1761392279179688700,5.268688720703125,-1.736083984375,-2.0644073486328125,-1.4075469970703125
1761392279189771800,5.278771728515625,-1.8758087158203125,-2.1575164794921875,-1.3094635009765625
1761392279199853600,5.288853515625,-1.990631103515625,-2.0701904296875,-1.087890625
1761392279209935600,5.298935546875,-2.108917236328125,-1.9788665771484375,-0.7135009765625
1761392279220017700,5.309017578125,-2.284759521484375,-1.9729766845703125,-0.2253875732421875
1761392279230100700,5.319100830078125,-2.4308624267578125,-1.921630859375,0.2772979736328125
1761392279240182500,5.3291826171875,-2.4570770263671875,-1.8895111083984375,0.7008819580078125
1761392279250264600,5.3392646484375,-2.31591796875,-1.85919189453125,1.0128326416015625
1761392279260346600,5.3493466796875,-1.9714202880859375,-1.7581939697265625,1.21319580078125
1761392279270428700,5.3594287109375,-1.5938720703125,-1.622894287109375,1.3049774169921875
1761392279280511700,5.36951171875,-1.3806610107421875,-1.4061126708984375,1.31427001953125
1761392279290593500,5.379593505859375,-1.390350341796875,-1.1909027099609375,1.309173583984375
1761392279300675600,5.389675537109375,-1.561767578125,-0.973358154296875,1.3072052001953125
1761392279310757600,5.399757568359375,-1.812225341796875,-0.699554443359375,1.2927703857421875
1761392279320840700,5.4098408203125,-2.0185699462890625,-0.3995208740234375,1.2281494140625
1761392279330922500,5.419922607421875,-2.138214111328125,-0.0884552001953125,1.1567535400390625
1761392279341004500,5.430004638671875,-2.212249755859375,0.1173095703125,1.101470947265625
1761392279351086600,5.440086669921875,-2.22491455078125,0.2028350830078125,1.0563507080078125
1761392279361169700,5.450169677734375,-2.2413330078125,0.225860595703125,0.9405670166015625
1761392279371251500,5.46025146484375,-2.3701171875,0.1919097900390625,0.747314453125
1761392279381333500,5.47033349609375,-2.40081787109375,0.1449432373046875,0.5010528564453125
1761392279391415600,5.48041552734375,-2.2335357666015625,0.214691162109375,0.1633758544921875
1761392279401497600,5.49049755859375,-1.947906494140625,0.45465087890625,-0.2033538818359375
1761392279411580700,5.50058056640625,-1.5609130859375,0.669403076171875,-0.502166748046875
1761392279421662500,5.510662353515625,-1.164398193359375,0.8328094482421875,-0.7435455322265625
1761392279431744500,5.52074462890625,-0.764556884765625,0.9476470947265625,-0.805572509765625
1761392279441826600,5.53082666015625,-0.5233306884765625,0.9108123779296875,-0.6804656982421875
1761392279451910000,5.540909912109375,-0.449127197265625,0.867462158203125,-0.49346923828125
1761392279461991400,5.550991455078125,-0.4545135498046875,0.941314697265625,-0.3507080078125
1761392279472073500,5.561073486328125,-0.4233551025390625,1.12420654296875,-0.2305450439453125
1761392279482155500,5.571155517578125,-0.415008544921875,1.30938720703125,-0.1234588623046875
1761392279492238800,5.58123876953125,-0.3993377685546875,1.418365478515625,-0.0596466064453125
1761392279502320600,5.591320556640625,-0.3837890625,1.4462890625,-0.0746612548828125
1761392279512402700,5.601402587890625,-0.3499755859375,1.4249267578125,-0.18829345703125
1761392279522484700,5.611484619140625,-0.238616943359375,1.368896484375,-0.33953857421875
1761392279532567800,5.62156787109375,-0.0749359130859375,1.2690887451171875,-0.4840850830078125
1761392279542649900,5.63164990234375,0.132171630859375,1.16571044921875,-0.6244354248046875
1761392279552731600,5.641731689453125,0.315643310546875,1.0945587158203125,-0.7404632568359375
1761392279562813700,5.651813720703125,0.4276275634765625,1.0180206298828125,-0.8218536376953125
1761392279572896800,5.661896728515625,0.39154052734375,0.9832611083984375,-0.89990234375
1761392279582978800,5.671978759765625,0.2159271240234375,0.961151123046875,-0.985504150390625
1761392279593060600,5.682060546875,-0.1118316650390625,0.8968353271484375,-1.077423095703125
1761392279603142700,5.692142578125,-0.5154571533203125,0.777313232421875,-1.1541748046875
1761392279613224700,5.702224609375,-0.9124755859375,0.594512939453125,-1.200469970703125
1761392279623307800,5.712307861328125,-1.293914794921875,0.38671875,-1.2422943115234375
1761392279633389800,5.722389892578125,-1.6650848388671875,0.104217529296875,-1.2279510498046875
1761392279643471600,5.7324716796875,-2.06427001953125,-0.2984161376953125,-1.1783447265625
1761392279653553700,5.7425537109375,-2.4258880615234375,-0.83056640625,-1.082611083984375
1761392279663636700,5.75263671875,-2.582763671875,-1.40777587890625,-0.9983978271484375
1761392279673718800,5.76271875,-2.50836181640625,-2.0195465087890625,-0.91815185546875
1761392279683800600,5.772800537109375,-2.329681396484375,-2.7567291259765625,-0.7245330810546875
1761392279693882600,5.782882568359375,-2.1395416259765625,-3.2553253173828125,-0.4893035888671875
1761392279703965700,5.792965576171875,-2.21307373046875,-3.38751220703125,-0.23895263671875
1761392279714047700,5.8030478515625,-2.5768585205078125,-3.31390380859375,0.02117919921875
1761392279724129800,5.8131298828125,-3.0858306884765625,-2.901092529296875,0.1575775146484375
1761392279734211600,5.823211669921875,-3.628814697265625,-2.2487030029296875,0.20947265625
1761392279744293600,5.833293701171875,-3.9268341064453125,-1.561065673828125,0.223876953125
1761392279754376700,5.843376708984375,-3.84149169921875,-1.014801025390625,0.1936798095703125
1761392279764458800,5.853458740234375,-3.54681396484375,-0.72216796875,0.1419830322265625
1761392279774540500,5.86354052734375,-3.0952911376953125,-0.5976409912109375,0.0813140869140625
1761392279784622600,5.87362255859375,-2.577606201171875,-0.423004150390625,-0.046295166015625
1761392279794705700,5.88370556640625,-2.1014251708984375,-0.159332275390625,-0.2823028564453125
1761392279804787700,5.89378759765625,-1.64990234375,0.1785125732421875,-0.5597991943359375
1761392279814869800,5.903869873046875,-1.2114715576171875,0.48919677734375,-0.772064208984375
1761392279824952300,5.913952392578125,-0.8605499267578125,0.7084503173828125,-0.892547607421875
1761392279835035400,5.924035400390625,-0.6435546875,0.8134307861328125,-0.8910064697265625
1761392279845117400,5.934117431640625,-0.598541259765625,0.9692230224609375,-0.8617706298828125
1761392279855199200,5.94419921875,-0.6121978759765625,1.2738037109375,-0.8489837646484375
1761392279865281300,5.95428125,-0.635528564453125,1.5652008056640625,-0.812469482421875
1761392279875364400,5.9643642578125,-0.6560821533203125,1.7684173583984375,-0.7541351318359375
1761392279885446400,5.9744462890625,-0.593170166015625,1.9066619873046875,-0.6957244873046875
1761392279895528200,5.984528076171875,-0.4570770263671875,1.8418426513671875,-0.599334716796875
1761392279905610200,5.9946103515625,-0.2213592529296875,1.6192169189453125,-0.487213134765625
1761392279915692300,6.0046923828125,0.079254150390625,1.4015350341796875,-0.4081268310546875
1761392279925775400,6.014775390625,0.359619140625,1.121551513671875,-0.3386077880859375
1761392279935857400,6.024857421875,0.5487060546875,0.8885498046875,-0.3126068115234375
1761392279945939200,6.034939208984375,0.6430511474609375,0.740081787109375,-0.3159942626953125
1761392279956021200,6.045021240234375,0.6383056640625,0.6201629638671875,-0.31695556640625
1761392279966104300,6.055104248046875,0.5025787353515625,0.4739837646484375,-0.3100433349609375
1761392279976186400,6.065186279296875,0.295745849609375,0.30584716796875,-0.3051910400390625
1761392279986268200,6.07526806640625,0.0348663330078125,0.1259002685546875,-0.3274383544921875
1761392279996350200,6.08535009765625,-0.2792510986328125,-0.0769805908203125,-0.33447265625
1761392280006433300,6.095433349609375,-0.6042022705078125,-0.3955230712890625,-0.2382049560546875
1761392280016515300,6.105515380859375,-0.9540557861328125,-0.8616485595703125,-0.0456695556640625
1761392280026597400,6.115597412109375,-1.342926025390625,-1.40643310546875,0.0834808349609375
1761392280036679200,6.12567919921875,-1.6985321044921875,-1.903045654296875,0.1162261962890625
1761392280046762200,6.13576220703125,-1.9510498046875,-2.3402862548828125,0.1225738525390625
1761392280056844300,6.14584423828125,-2.1515045166015625,-2.6921539306640625,0.1915130615234375
1761392280066926300,6.15592626953125,-2.375,-2.8534088134765625,0.309173583984375
1761392280077008100,6.166008056640625,-2.6635894775390625,-2.6797332763671875,0.46160888671875
1761392280087090200,6.176090087890625,-2.955810546875,-2.3431396484375,0.5578155517578125
1761392280097173200,6.18617333984375,-3.0981903076171875,-1.9745025634765625,0.5958251953125
1761392280107255300,6.19625537109375,-3.0168609619140625,-1.58953857421875,0.5482940673828125
1761392280117337300,6.20633740234375,-2.787078857421875,-1.2176971435546875,0.430328369140625
1761392280127419100,6.216419189453125,-2.474853515625,-0.9022064208984375,0.321563720703125
1761392280137502200,6.226502197265625,-2.160064697265625,-0.5889892578125,0.153228759765625
1761392280147584300,6.236584228515625,-1.7755126953125,-0.199249267578125,-0.0974884033203125
1761392280157666300,6.246666259765625,-1.3826904296875,0.1810760498046875,-0.3724365234375
1761392280167748000,6.256748046875,-1.0513763427734375,0.5028076171875,-0.5906524658203125
1761392280177831200,6.2668310546875,-0.7729034423828125,0.8701629638671875,-0.776763916015625
1761392280187913200,6.276913330078125,-0.55755615234375,1.26068115234375,-0.8990936279296875
1761392280197995300,6.286995361328125,-0.566009521484375,1.516510009765625,-0.84771728515625
1761392280208077300,6.297077392578125,-0.6839447021484375,1.616668701171875,-0.7003326416015625
1761392280218159000,6.3071591796875,-0.774749755859375,1.67523193359375,-0.57965087890625
1761392280228242400,6.317242431640625,-0.7808380126953125,1.6651458740234375,-0.5192413330078125
1761392280238324500,6.327324462890625,-0.6911773681640625,1.4741058349609375,-0.483367919921875
1761392280248406300,6.33740625,-0.53143310546875,1.2024383544921875,-0.473297119140625
1761392280258488000,6.347488037109375,-0.3528900146484375,0.9813079833984375,-0.5103912353515625
1761392280268571400,6.3575712890625,-0.1701202392578125,0.805419921875,-0.553741455078125
1761392280278653400,6.3676533203125,-0.0059967041015625,0.6011962890625,-0.5894927978515625
1761392280288735500,6.377735595703125,0.0958404541015625,0.4422454833984375,-0.6115570068359375
1761392280298817300,6.3878173828125,0.11810302734375,0.29718017578125,-0.65478515625
1761392280308900400,6.397900390625,0.0808563232421875,0.170166015625,-0.6701202392578125
1761392280318982400,6.407982421875,-0.067230224609375,0.0627288818359375,-0.6614990234375
1761392280329064400,6.418064453125,-0.32122802734375,-0.080108642578125,-0.6253814697265625
1761392280339146500,6.428146484375,-0.5544891357421875,-0.3244171142578125,-0.565093994140625
1761392280349228300,6.438228271484375,-0.8556060791015625,-0.6871490478515625,-0.4390411376953125
1761392280359311400,6.448311279296875,-1.1215362548828125,-1.114593505859375,-0.3062591552734375
1761392280369393400,6.458393310546875,-1.4163970947265625,-1.3895416259765625,-0.1879119873046875
1761392280379475500,6.468475341796875,-1.7462005615234375,-1.65264892578125,-0.1140594482421875
1761392280389557200,6.47855712890625,-2.001007080078125,-1.91290283203125,-0.0854034423828125
1761392280399640300,6.488640380859375,-2.1139678955078125,-2.1271209716796875,-0.079315185546875
1761392280409722400,6.498722412109375,-2.1267852783203125,-2.2305145263671875,-0.0441436767578125
1761392280419804400,6.508804443359375,-2.1538238525390625,-2.1992645263671875,-0.0008697509765625
1761392280429886500,6.518886474609375,-2.298187255859375,-2.0423431396484375,0.071990966796875
1761392280439969300,6.52896923828125,-2.5325927734375,-1.7358551025390625,0.1334075927734375
1761392280450051300,6.53905126953125,-2.6715850830078125,-1.4210052490234375,0.205535888671875
1761392280460133400,6.54913330078125,-2.63128662109375,-1.19287109375,0.2677154541015625
1761392280470215400,6.55921533203125,-2.4878997802734375,-0.930328369140625,0.215789794921875
1761392280480298200,6.56929833984375,-2.2044525146484375,-0.653594970703125,0.1107025146484375
1761392280490380300,6.57938037109375,-1.877044677734375,-0.40130615234375,-0.0065155029296875
1761392280500462300,6.58946240234375,-1.5477752685546875,-0.1533050537109375,-0.14642333984375
1761392280510544400,6.59954443359375,-1.1842803955078125,0.0738677978515625,-0.2877349853515625
1761392280520626400,6.60962646484375,-0.8079376220703125,0.2878875732421875,-0.4002685546875
1761392280530709200,6.619709228515625,-0.5254669189453125,0.51165771484375,-0.4825592041015625
1761392280540791300,6.629791259765625,-0.3111114501953125,0.7378082275390625,-0.589752197265625
1761392280550873300,6.639873291015625,-0.1560211181640625,1.1090850830078125,-0.638641357421875
1761392280560955400,6.649955322265625,-0.0821685791015625,1.464080810546875,-0.6255340576171875
1761392280571038200,6.6600380859375,-0.07177734375,1.5078125,-0.4901580810546875
1761392280581120300,6.670120361328125,-0.0473175048828125,1.3444061279296875,-0.3011474609375
1761392280591202300,6.680202392578125,-0.0109405517578125,1.23870849609375,-0.2591094970703125
1761392280601284400,6.690284423828125,0.0364990234375,1.133148193359375,-0.3197021484375
1761392280611367200,6.7003671875,0.09210205078125,0.927032470703125,-0.3799591064453125
1761392280621449200,6.71044921875,0.1832427978515625,0.6810760498046875,-0.426849365234375
1761392280631531300,6.72053125,0.3229827880859375,0.4716644287109375,-0.4821624755859375
1761392280641613300,6.73061328125,0.36749267578125,0.2538604736328125,-0.521820068359375
1761392280651695400,6.7406953125,0.2960662841796875,0.029205322265625,-0.556640625
1761392280661778200,6.750778076171875,0.1374969482421875,-0.2224884033203125,-0.560638427734375
1761392280671860200,6.760860107421875,-0.1064300537109375,-0.588348388671875,-0.500762939453125
1761392280681942300,6.7709423828125,-0.433624267578125,-1.0439605712890625,-0.40325927734375
1761392280692024300,6.7810244140625,-0.7727508544921875,-1.51806640625,-0.2740631103515625
1761392280702107100,6.791107177734375,-1.15093994140625,-1.836883544921875,-0.1170806884765625
1761392280712189200,6.801189208984375,-1.6200408935546875,-1.881011962890625,0.055389404296875
1761392280722271200,6.811271240234375,-2.1466064453125,-1.69451904296875,0.1710968017578125
1761392280732353300,6.821353271484375,-2.5890045166015625,-1.4751739501953125,0.2132568359375
1761392280742436000,6.83143603515625,-2.8173675537109375,-1.287445068359375,0.1333160400390625
1761392280752518100,6.84151806640625,-2.774200439453125,-1.0884246826171875,0.05755615234375
1761392280762600200,6.85160009765625,-2.505096435546875,-0.9482421875,-0.0015716552734375
1761392280772682200,6.86168212890625,-2.1295166015625,-0.8096160888671875,-0.0816650390625
1761392280782764300,6.871764404296875,-1.764251708984375,-0.625030517578125,-0.1360626220703125
1761392280792847400,6.881847412109375,-1.4879913330078125,-0.4799041748046875,-0.1422119140625
1761392280802929400,6.891929443359375,-1.3702392578125,-0.386627197265625,-0.0659332275390625
1761392280813011200,6.90201123046875,-1.361602783203125,-0.2953033447265625,0.04168701171875
1761392280823093200,6.91209326171875,-1.4099884033203125,-0.124725341796875,0.009368896484375
1761392280833175600,6.922175537109375,-1.21759033203125,-0.0228424072265625,-0.0549163818359375
1761392280843257600,6.932257568359375,-1.1213226318359375,-0.017852783203125,-0.05670166015625
1761392280853339600,6.942339599609375,-1.0704345703125,0.0032806396484375,-0.0929412841796875
1761392280863421700,6.952421630859375,-0.953460693359375,0.043609619140625,-0.1343536376953125
1761392280873504500,6.96250439453125,-0.7950592041015625,-0.0894317626953125,-0.1200714111328125
1761392280883586600,6.972586669921875,-0.7630157470703125,-0.1253204345703125,-0.2103729248046875
1761392280893668600,6.982668701171875,-0.8647003173828125,-0.010162353515625,-0.3104705810546875
1761392280903750700,6.992750732421875,-0.802886962890625,0.06915283203125,-0.32513427734375
1761392280913832700,7.002832763671875,-0.683807373046875,0.12750244140625,-0.2745361328125
1761392280923915500,7.01291552734375,-0.6800994873046875,0.173187255859375,-0.2045745849609375
1761392280933997600,7.02299755859375,-0.722930908203125,0.173248291015625,-0.139495849609375
1761392280944079600,7.03307958984375,-0.7009124755859375,0.102508544921875,-0.111907958984375
1761392280954161700,7.04316162109375,-0.6191864013671875,-0.0276031494140625,-0.0998992919921875
1761392280964244500,7.053244384765625,-0.6016845703125,-0.1871490478515625,-0.08624267578125
1761392280974326500,7.063326416015625,-0.6447601318359375,-0.309539794921875,-0.069915771484375
1761392280984408600,7.07340869140625,-0.663909912109375,-0.3245849609375,-0.021026611328125
1761392280994490600,7.08349072265625,-0.638458251953125,-0.262939453125,0.02728271484375
1761392281004573700,7.09357373046875,-0.651580810546875,-0.2465362548828125,0.0351409912109375
1761392281014655500,7.103655517578125,-0.6953277587890625,-0.297454833984375,0.0244140625
1761392281024737500,7.113737548828125,-0.7071533203125,-0.331817626953125,-0.0059051513671875
1761392281034819600,7.123819580078125,-0.7632293701171875,-0.349761962890625,0.016265869140625
1761392281044901600,7.133901611328125,-0.8398590087890625,-0.375823974609375,0.078338623046875
1761392281054984700,7.143984619140625,-1.097076416015625,-0.3897247314453125,0.104278564453125
1761392281065066800,7.154066650390625,-1.2923736572265625,-0.38763427734375,0.069580078125
1761392281075148800,7.164148681640625,-1.3007965087890625,-0.34710693359375,0.0125274658203125
1761392281085230600,7.174230712890625,-1.198089599609375,-0.2364959716796875,-0.0668792724609375
1761392281095313700,7.184313720703125,-1.0904083251953125,-0.1926727294921875,-0.1282196044921875
1761392281105395700,7.194395751953125,-1.0313720703125,-0.247344970703125,-0.100616455078125
1761392281115477800,7.204477783203125,-0.954254150390625,-0.3167572021484375,-0.0091400146484375
1761392281125559800,7.214559814453125,-0.8767852783203125,-0.3658905029296875,0.0793914794921875
1761392281135643000,7.224642822265625,-0.8522491455078125,-0.457794189453125,0.151275634765625
1761392281145724700,7.234724609375,-0.90533447265625,-0.4961090087890625,0.1741485595703125
1761392281155806700,7.244806640625,-0.9366912841796875,-0.498016357421875,0.193084716796875
1761392281165888800,7.254888671875,-1.0009918212890625,-0.4796295166015625,0.20965576171875
1761392281175970800,7.264970703125,-1.0568695068359375,-0.428070068359375,0.190460205078125
1761392281186053600,7.2750537109375,-1.0453643798828125,-0.381439208984375,0.1421966552734375
1761392281196135700,7.2851357421875,-1.048126220703125,-0.3701019287109375,0.109405517578125
1761392281206217700,7.2952177734375,-1.0484771728515625,-0.3784942626953125,0.0980987548828125
1761392281216299800,7.3052998046875,-1.051025390625,-0.3914794921875,0.0882720947265625
1761392281226382800,7.3153828125,-1.061492919921875,-0.4030609130859375,0.0757904052734375
1761392281236464600,7.325464599609375,-1.0387420654296875,-0.4112701416015625,0.046112060546875
1761392281246546700,7.335546630859375,-0.9906463623046875,-0.4096221923828125,0.002838134765625
1761392281256628700,7.345628662109375,-1.0149993896484375,-0.37872314453125,-0.028167724609375
1761392281266710800,7.355710693359375,-1.0260162353515625,-0.332244873046875,-0.0608367919921875
1761392281276793600,7.365793701171875,-1.01971435546875,-0.278961181640625,-0.0737152099609375
1761392281286875600,7.375875732421875,-1.0093994140625,-0.2566070556640625,-0.03729248046875
1761392281296957700,7.385957763671875,-0.9412384033203125,-0.2825469970703125,0.00115966796875
1761392281307039700,7.396039794921875,-0.9056243896484375,-0.3147735595703125,0.0496368408203125
1761392281317122800,7.406122802734375,-0.9520416259765625,-0.357421875,0.125762939453125
1761392281327204600,7.41620458984375,-0.9592742919921875,-0.41180419921875,0.197845458984375
1761392281337286700,7.42628662109375,-0.9110107421875,-0.450775146484375,0.19952392578125
1761392281347368700,7.43636865234375,-0.8733673095703125,-0.432708740234375,0.14501953125
1761392281357451800,7.44645166015625,-0.84283447265625,-0.376800537109375,0.11846923828125
1761392281367533600,7.456533447265625,-0.8189544677734375,-0.3778228759765625,0.12506103515625
