time,seconds_elapsed,z,y,x
1761392274007501300,0.096501220703125,-0.03369125719964504,0.02912234184890985,3.3245158861264583
1761392274017583400,0.106583251953125,0.3835100725203752,-0.11276450165361165,3.518013089878857
1761392274027665400,0.11666552734375,0.8062935862869024,-0.19431641118079424,3.6434468112304805
1761392274037748200,0.126748291015625,1.1418529901087284,-0.2284060200482607,3.6709652250140903
1761392274047830300,0.136830322265625,1.360835348251462,-0.3130062112301588,3.6680280025184153
1761392274057912300,0.146912353515625,0.9819020821273327,-0.5032099263951182,3.642347033295035
1761392274067994400,0.156994384765625,0.6704559598207473,-0.7380977096781134,3.476307745310664
1761392274078076400,0.167076416015625,0.46295711872279643,-0.7784057546690106,3.2940731093287465
1761392274088159500,0.177159423828125,0.4736988774895668,-0.4996972420990467,3.0218010595470663
1761392274098241500,0.187241455078125,0.545691516032815,0.09871142638176679,2.5993475083872672
1761392274108323300,0.1973232421875,0.535568181425333,0.5536904058322311,2.2602198906898496
1761392274118405400,0.2074052734375,0.3340279564708471,0.7587184729024767,2.163253554409742
1761392274128487400,0.2174873046875,0.4756815757393837,0.7413251472920179,2.0876567538946866
1761392274138570500,0.227570556640625,0.6870020209521055,0.5157917600706219,2.0305684006251394
1761392274148652500,0.237652587890625,0.6666349402278662,0.5857245434746146,1.9511450275592506
1761392274158734600,0.247734619140625,0.9223246885210276,1.0574676107212901,1.333083710233867
1761392274168816600,0.257816650390625,1.334538292956352,1.9441300342306493,0.9818454565692692
1761392274178899500,0.2678994140625,1.5811638603061438,2.356186986799538,1.0575581385489552
1761392274188981500,0.2779814453125,1.8898603916436432,2.6648218510776758,0.6956635393787175
1761392274199063600,0.2880634765625,1.7618191181421279,2.945211740863323,1.019526733253151
1761392274209145600,0.2981455078125,1.8964122975051403,3.062436436796188,1.2931461059905587
1761392274219227600,0.3082275390625,2.628024444556236,3.0756326029777523,1.3816335138693452
1761392274229310500,0.318310546875,3.4100007511883974,3.0955303126245735,0.9178175132948905
1761392274239392500,0.328392578125,3.7649440699160097,3.3241759866476057,-0.003976064024120569
1761392274249474600,0.338474609375,3.946957172101736,3.798398011228442,-0.6947492740780115
1761392274259556600,0.348556640625,4.360949476647376,3.8799855765908955,-0.7664156032763421
1761392274269638700,0.358638671875,4.670162725335359,2.912469747212529,0.0059792205400764934
1761392274279721500,0.368721435546875,4.780352115803956,3.375755951759219,-0.8120901437364518
1761392274289803500,0.378803466796875,5.409385347390175,4.616197910913825,-0.9376545057304203
1761392274299885600,0.388885498046875,5.578069596925378,6.481536440241336,-1.0530036901149897
1761392274309967600,0.398967529296875,6.522534805583954,7.52039375077784,-1.432239811643213
1761392274320050400,0.409050537109375,7.265251114973426,7.325436411345005,-1.3197126258768141
1761392274330132500,0.419132568359375,7.344079737016558,7.0477323996424674,-1.8527191401205956
1761392274340214500,0.429214599609375,6.588365414366126,7.35092156573534,-2.9459456080958244
1761392274350296600,0.439296630859375,6.376579689729214,7.934269735467433,-4.067837760193646
1761392274360378600,0.449378662109375,6.722094085854292,8.160211995750664,-4.883561145865917
1761392274370461400,0.45946142578125,6.628404579287767,8.080042480492592,-5.4801890684098
1761392274380543500,0.46954345703125,6.013219840312003,8.147420318716764,-6.729054572516679
1761392274390625500,0.47962548828125,4.982330147653818,8.377762275263667,-8.441710139039158
1761392274400707600,0.48970751953125,3.8049423183053728,8.568719146883486,-10.262478874278068
1761392274410789400,0.499789306640625,2.724917715600133,8.502815472865104,-10.939502522051333
1761392274420872400,0.50987255859375,1.5693980191886423,8.093457842382788,-11.138639777517318
1761392274430954500,0.51995458984375,0.06482932278513907,7.137063710999488,-10.95200310718417
1761392274441036500,0.53003662109375,-1.8749866476386785,5.8681485215544695,-10.567566567468642
1761392274451118600,0.54011865234375,-3.8703883116841316,4.370611623483896,-10.17226493486762
1761392274461201400,0.550201416015625,-6.020302492049336,3.0229233415752645,-9.593341011318564
1761392274471283500,0.560283447265625,-8.3502669500947,1.856904462981224,-8.976938128724694
1761392274481365500,0.570365478515625,-10.481127470421791,0.5283084195554256,-8.181991281360387
1761392274491447600,0.580447509765625,-12.301917832970618,-1.1459057726308703,-6.944907984983921
1761392274501529300,0.590529296875,-13.800011195880174,-3.3580139588415623,-5.660901024869084
1761392274511612400,0.6006123046875,-14.820952325975894,-5.694267872419953,-4.841452481193841
1761392274521694500,0.610694580078125,-15.419650040531158,-7.958962862697243,-4.309669955787062
1761392274531776500,0.620776611328125,-16.1570290805459,-9.993515802913903,-4.22498383988738
1761392274541858600,0.630858642578125,-17.3489907941699,-11.647090819436311,-4.19689756308794
1761392274551940400,0.6409404296875,-19.816874945652483,-12.512669538384674,-3.796963302250206
1761392274562023400,0.6510234375,-22.72975794984102,-12.450457704621552,-2.9027117387861012
1761392274572105500,0.66110546875,-24.741118815040586,-12.390304556953906,-0.9940642290860414
1761392274582187500,0.6711875,-25.039014550900458,-13.242259239697455,1.9897697956383227
1761392274592269300,0.681269287109375,-23.22131981627941,-14.622854350429773,5.373433744043112
1761392274602352400,0.691352294921875,-20.674960093975066,-15.64426660516858,8.136680313515663
1761392274612434400,0.701434326171875,-17.973276538968086,-15.775199508458375,9.904083953791856
1761392274622516500,0.7115166015625,-15.416841997373103,-14.952329465901851,10.814544601517914
1761392274632598500,0.7215986328125,-13.405692729097604,-13.040463578677176,11.041894390511512
1761392274642680300,0.731680419921875,-10.962505796498059,-10.457488236159085,10.650213286495209
1761392274652763400,0.741763427734375,-9.015302638432383,-7.351655725228786,9.804507727274299
1761392274662845400,0.751845458984375,-7.765051232925057,-4.281174805925787,9.047190061080455
1761392274672927500,0.761927490234375,-7.035090944734216,-1.6831179218709469,8.69760271642804
1761392274683009300,0.77200927734375,-6.198530814999342,0.8124865957081318,8.670348798799514
1761392274693091300,0.78209130859375,-5.385258621871471,3.2584681274622675,9.136585669845342
1761392274703174400,0.79217431640625,-4.685599363920092,5.545387224507332,9.969696535909176
1761392274713256400,0.80225634765625,-4.245898033100366,7.531974298456311,10.976520293325185
1761392274723338200,0.812338134765625,-3.993167719134688,9.650739307320118,11.58418457366824
1761392274733420300,0.822420166015625,-4.149783929735422,12.261383578008413,11.700533655810355
1761392274743503600,0.832503662109375,-4.3655502484410995,14.253291554719208,11.349745703196525
1761392274753585400,0.84258544921875,-4.569211703333258,15.83160703985691,10.994414846456051
1761392274763667500,0.85266748046875,-4.597438265386224,16.73117219955921,10.416127467244863
1761392274773749200,0.862749267578125,-4.614876891443133,16.98949346539974,9.465163544216752
1761392274783831300,0.872831298828125,-3.731487205994129,17.06168659495115,8.165621161317825
1761392274793914600,0.88291455078125,-3.065601622828841,17.85534574059248,6.4650996847033495
1761392274803996700,0.89299658203125,-1.9187270051658152,19.071188680541514,4.891822193732858
1761392274814078500,0.903078369140625,-0.08714169235825538,20.33841343268156,3.255548732884228
1761392274824160000,0.913159912109375,1.452531635174155,22.873861300349233,0.655639206700027
1761392274834242000,0.923241943359375,2.1430565695554016,24.46235097349882,-1.3739926437273622
1761392274844325000,0.9333251953125,1.1992799276828765,24.768635767519473,-3.1741683805316683
1761392274854407200,0.9434072265625,-1.1554653358757496,25.27213357094526,-5.311794741731882
1761392274864489000,0.953489013671875,-3.390778164324164,25.666482432866093,-7.551812971392273
1761392274874571000,0.963571044921875,-4.280910309770703,26.03651518417597,-9.774244106435775
1761392274884654000,0.973654052734375,-3.7978053060323,26.478063019645212,-11.961322773069142
1761392274894736100,0.983736083984375,-3.4183401249885557,25.7156313714385,-13.530297598409652
1761392274904818200,0.993818115234375,-3.994253760805726,23.798158750247953,-14.697134223127364
1761392274914900000,1.00389990234375,-5.460006112080812,21.815715351974962,-16.28182216590643
1761392274924982000,1.01398193359375,-7.3182397778391834,19.272310972344876,-17.61492487310171
1761392274935065300,1.0240654296875,-9.153242205613852,15.918417892825602,-18.224957636141777
1761392274945147400,1.0341474609375,-10.347117643904685,11.421872197252512,-18.339764749538897
1761392274955229000,1.04422900390625,-10.041686251842975,7.306918173357844,-18.65250617235303
1761392274965311000,1.05431103515625,-9.506281152024865,3.502688387235999,-18.922617244708537
1761392274975394300,1.064394287109375,-9.185780201125144,-1.0013390423946082,-18.59915919756889
1761392274985476400,1.074476318359375,-9.116097008568047,-4.746584286236763,-18.250681275463105
1761392274995558100,1.08455810546875,-9.211571060463786,-7.313805010262131,-18.654809188598392
1761392275005640200,1.09464013671875,-8.692349618205428,-9.067418025594948,-19.280297879445552
1761392275015722200,1.10472216796875,-8.357811374124884,-10.87889929252863,-18.823084857332706
1761392275025805300,1.114805419921875,-8.470344112849235,-13.421443255937099,-17.0730871098876
1761392275035887400,1.124887451171875,-9.566244914600253,-16.14037722095251,-14.622826293379067
1761392275045969200,1.13496923828125,-11.624915227985381,-17.70267797535658,-11.772759518587588
1761392275056051200,1.14505126953125,-14.25248608355522,-18.138667007654906,-8.281817098724842
1761392275066134300,1.15513427734375,-15.448682073748111,-18.007019818615912,-4.521730697973072
1761392275076216300,1.16521630859375,-15.432593693256377,-18.049909696793556,-1.079561807499081
1761392275086298000,1.175298095703125,-15.279619638550281,-17.3755888782382,1.4564986391089856
1761392275096380200,1.185380126953125,-16.59812098894119,-14.843596703982353,3.897491130404174
1761392275106462200,1.195462158203125,-18.850390212887525,-11.064044262999296,7.158422725370526
1761392275116545300,1.205545166015625,-21.441195810639858,-6.530482549718022,10.894908178043364
1761392275126627300,1.21562744140625,-21.848179697728156,-2.084023511958867,14.001465496116875
1761392275136709000,1.225709228515625,-19.42262194532156,1.8108812552139162,15.80549761608839
1761392275146791200,1.235791259765625,-14.77162919988036,4.732563944190741,16.861477326339482
1761392275156873200,1.245873291015625,-9.66528104289174,6.325297830781341,17.710066332042217
1761392275166956300,1.255956298828125,-5.364342675092816,7.311021517023444,18.570732729029654
1761392275177038000,1.2660380859375,-1.9983920780330895,8.02308959017098,19.075294362294674
1761392275187120000,1.2761201171875,0.3542623507261276,8.53382085198164,18.90970749425292
1761392275197202200,1.2862021484375,1.7760814522504806,9.094433458292484,18.103225107395648
1761392275207285200,1.29628515625,2.0527730720400807,10.382738407862186,16.705927868187427
1761392275217367300,1.3063671875,2.5048078147321937,11.60837559659481,15.112380911648273
1761392275227449000,1.316448974609375,3.375657167559862,12.466364883327483,13.061543776106834
1761392275237531100,1.32653125,4.610732046723365,13.690548950642347,10.03248120112419
1761392275247613200,1.33661328125,5.531359283676744,14.591347451531886,6.783783941569924
1761392275257696300,1.3466962890625,6.402083548820018,15.201338128995895,3.9058550541236996
1761392275267778000,1.356778076171875,7.095213697263598,15.87856635943055,1.2355585710272192
1761392275277860000,1.366860107421875,6.662796678233146,16.61428886440992,-1.2638603902734815
1761392275287942100,1.376942138671875,5.667144887694716,18.027956223660706,-3.9861584248945117
1761392275298025200,1.387025146484375,4.76059586045444,19.328577049446103,-6.560408316904306
1761392275308107300,1.397107177734375,4.500644363063573,19.756171178364752,-8.595484404212236
1761392275318189000,1.40718896484375,4.372100985258817,19.402184721970556,-10.63433650292754
1761392275328271000,1.41727099609375,4.103234944528341,18.87063220592737,-13.018145363885164
1761392275338353200,1.427353271484375,4.6488937273353335,19.5136752581656,-15.81758319067955
1761392275348436200,1.437436279296875,5.751582581791282,20.10918966650963,-18.042038525027035
1761392275358518000,1.44751806640625,6.664376056379079,19.49000445972085,-18.999964688283203
1761392275368600000,1.45760009765625,6.533871023112535,18.38285570324659,-19.172675709116458
1761392275378682000,1.46768212890625,4.873687402105331,17.294171993267536,-19.63929485747814
1761392275388765200,1.47776513671875,2.044149036079645,15.110340930253267,-19.93232035695314
1761392275398847000,1.487846923828125,-0.3954641296863556,11.942551437103747,-19.437310980409382
1761392275408929000,1.497928955078125,-2.163383318269253,8.459301325309276,-18.881216728305816
1761392275419011000,1.508010986328125,-4.533326735481619,5.974943593409657,-18.225600610220432
1761392275429093000,1.518093017578125,-8.310842702201008,4.251678370067477,-17.064382409906386
1761392275439176200,1.52817626953125,-12.578543986308574,3.033540304918587,-15.032055913567541
1761392275449258000,1.538258056640625,-16.12788131199479,0.7156982463434338,-11.592425163269043
1761392275459340000,1.548340087890625,-17.938361877453325,-3.0082573951020835,-7.695830981704592
1761392275469422000,1.558422119140625,-18.465412405902146,-6.796665634974837,-4.230135523562133
1761392275479505200,1.568505126953125,-18.750344615292548,-10.343803404790162,-0.9839853912074118
1761392275489587000,1.5785869140625,-19.403047476279735,-13.166257365512847,1.5398175583086906
1761392275499669000,1.5886689453125,-19.486910000836847,-13.607268609887361,3.0155428759351373
1761392275509751000,1.5987509765625,-19.910592509269712,-13.089128533124923,3.540682017804682
1761392275519833000,1.6088330078125,-21.0345836794734,-11.867381922090052,3.8489261291995644
1761392275529916200,1.618916259765625,-21.157267809855938,-11.30536763228774,4.861951663865149
1761392275539998000,1.628998046875,-18.837385769885778,-11.265802514618635,6.814058083802461
1761392275550080000,1.639080078125,-15.444197621810435,-11.99750935421586,9.459017296546698
1761392275560162000,1.649162109375,-12.082058107471465,-12.456644284301996,11.789900038480758
1761392275570245400,1.659245361328125,-9.139638043153285,-11.743493676614762,13.501324017381668
1761392275580327200,1.6693271484375,-6.549767680424451,-10.456932940363883,14.366096096122265
1761392275590409200,1.6794091796875,-3.9771050576061007,-8.384441022375226,14.259453584480285
1761392275600491000,1.689490966796875,-0.9666863928169012,-5.6813879325807095,13.716010724157094
1761392275610573000,1.699572998046875,1.5094640672296284,-3.0333991428822276,13.03652390114069
1761392275620656000,1.70965625,2.235372449681163,-0.6131091017454863,13.204623044264316
1761392275630738200,1.71973828125,1.5700936002373695,1.722672225885093,13.571507560676336
1761392275640820200,1.7298203125,1.097509405991435,4.236004707856476,13.51614398537278
1761392275650902300,1.73990234375,1.3369997146338224,6.2930000737667084,13.318272804319857
1761392275660985300,1.7499853515625,1.4444634795308113,7.316133160948753,13.688195665514469
1761392275671067100,1.760067138671875,1.3493272812873125,7.64894940354228,14.307386717522144
1761392275681149200,1.770149169921875,0.7971382199287415,7.866533000802994,15.20259368201494
1761392275691231200,1.780231201171875,0.7242658759415149,7.669657260528206,15.640755966699123
1761392275701313300,1.790313232421875,1.7871657408446073,9.74336907570064,14.53145266253948
1761392275711396000,1.80039599609375,3.565291266143322,12.087891635930538,13.38481243815422
1761392275721478100,1.81047802734375,5.164642525047063,13.8448346724689,12.529822917759418
1761392275731560200,1.820560302734375,5.81510725171864,16.411539263665674,10.932856508165598
1761392275741642200,1.830642333984375,5.370872953644395,19.05741266864538,8.378298281836509
1761392275751725300,1.840725341796875,2.8830612818986174,19.986157161080836,5.498979109075665
1761392275761807000,1.85080712890625,-0.6305605872839689,20.130068788409233,1.3444140825435518
1761392275771889200,1.86088916015625,-3.695121761149168,21.132523829221725,-3.9872234237775204
1761392275781971200,1.87097119140625,-4.973121589803696,20.984831514310837,-9.002409839111566
1761392275792054300,1.88105419921875,-4.853272390586137,18.776704214429856,-12.125698511755466
1761392275802136000,1.891135986328125,-3.8427708214402196,14.640571208906174,-13.408522984087467
1761392275812218000,1.901218017578125,-2.5155285307109354,10.779794775176047,-14.056208309173583
1761392275822304000,1.911303955078125,-1.409852769398689,7.6273203400582075,-14.327883562105892
1761392275832386000,1.921385986328125,-1.3362819217532873,4.355883425429463,-14.542262810367346
1761392275842468900,1.93146875,-2.3928040683180094,0.9701698510184884,-15.203217951393126
1761392275852551000,1.941551025390625,-3.726553841245174,-1.8739105428397655,-16.010752477651835
1761392275862633000,1.951633056640625,-4.464129280614853,-3.9701393102467057,-16.798214522218704
1761392275872715000,1.961715087890625,-4.162277500605583,-5.471597765675186,-17.125410002321004
1761392275882798000,1.971798095703125,-2.819409770721197,-7.213370121088624,-16.888739427274466
1761392275892880000,1.9818798828125,-1.0750076513260602,-9.187194744098186,-15.819796190553904
1761392275902962000,1.9919619140625,-0.8531587978363037,-11.456429131370783,-14.123888929736614
1761392275913044000,2.0020439453125,-3.4692566577553747,-13.513359323090315,-11.727405296123028
1761392275923127000,2.012126953125,-7.927973850193619,-15.704851129990816,-8.400244740706682
1761392275933208800,2.022208740234375,-12.251276025491952,-18.982547105014323,-4.515908275429904
1761392275943291000,2.032290771484375,-15.498565171813963,-22.455088775789736,-0.9045724664703011
1761392275953373000,2.042373046875,-18.15900486228466,-24.950040966939923,1.8164891582235694
1761392275963455000,2.052455078125,-21.28349881906509,-25.751006636202334,4.0991713483512395
1761392275973538000,2.0625380859375,-24.962273841047285,-24.766349117887017,6.444442681121826
1761392275983619800,2.072619873046875,-27.548201019108294,-22.521583985960483,8.607122235035895
1761392275993702000,2.082701904296875,-28.347408446526526,-19.100915125763414,10.425934575510025
1761392276003784000,2.092783935546875,-26.746304790997502,-15.780563081318139,11.938451600569486
1761392276013867000,2.102866943359375,-23.994487962555883,-13.321544957858324,13.690677545458078
1761392276023948800,2.11294873046875,-22.048483658885953,-10.876002402043342,16.242645170772075
1761392276034030800,2.12303076171875,-22.39404364771843,-6.804036456003785,18.54845309268236
1761392276044113000,2.13311279296875,-23.887272619462014,-1.1821493446618319,19.958406399846076
1761392276054195000,2.14319482421875,-25.407080970573425,4.4071220297575,21.03617124092579
1761392276064277800,2.15327783203125,-25.327052909612654,9.407155007362364,21.476019286739824
1761392276074359800,2.16335986328125,-22.679636366844175,13.198710020828246,20.78791544202566
1761392276084441900,2.17344189453125,-18.407169475769997,15.318947440332174,19.548014750140904
1761392276094524000,2.18352392578125,-13.845359573125839,16.078371138894557,17.98432867885828
1761392276104607000,2.19360693359375,-9.542612694600225,17.194096000534294,15.774932966476678
1761392276114688800,2.203688720703125,-5.2649996728092425,18.727256000649927,13.53794782090187
1761392276124770800,2.213770751953125,-0.5697901845008134,20.401532444417477,11.853868945044278
1761392276134852900,2.223852783203125,4.2622219759136435,21.04362506406307,10.7129313162148
1761392276144936000,2.23393603515625,6.906306743910909,21.05236951153278,9.877729030829668
1761392276155017700,2.244017822265625,6.94000501537323,21.387242102134227,8.677862243169546
1761392276165099800,2.254099853515625,5.300836125344038,22.283919723701477,6.619961745113134
1761392276175181800,2.264181884765625,3.7138860828518867,23.752458490824697,4.058706651493907
1761392276185265200,2.27426513671875,2.749329687801003,25.948921071875095,1.6377509860552846
1761392276195347000,2.284346923828125,2.712833894574642,27.760562497806546,-0.782063254263252
1761392276205428700,2.2944287109375,3.2841146098941563,27.92956180464029,-3.334306335517764
1761392276215510800,2.3045107421875,4.8401685788631434,27.307328900718687,-6.455349859583378
1761392276225592800,2.3145927734375,6.960536931270361,26.67602187898159,-9.4799361659348
1761392276235676200,2.32467626953125,8.925335951781273,25.117087970662116,-11.504676737189293
1761392276245758000,2.334758056640625,10.231994888687133,22.763971185088156,-12.207682382959126
1761392276255840000,2.344840087890625,10.546250223195551,20.378948856687543,-11.83307048716545
1761392276265922000,2.354922119140625,9.90967081401348,18.52695437757969,-11.471646574246883
1761392276276005000,2.365005126953125,8.629500071060656,17.15729333331585,-11.503753192603588
1761392276286087000,2.3750869140625,7.011987132522464,15.649341424214839,-11.404497868603467
1761392276296169000,2.3851689453125,5.786152959913015,13.998139566564559,-11.100475174295902
1761392276306251000,2.3952509765625,4.29455012806654,12.340799060028791,-11.008188520264625
1761392276316334000,2.405333984375,2.5411463715702296,10.341517924201488,-11.25544011055827
1761392276326416100,2.415416015625,0.3480535592138767,9.071877343091368,-12.736857063955068
1761392276336498000,2.425497802734375,-1.2511930702716112,8.865922224304079,-15.04971899603009
1761392276346580000,2.435580078125,-1.2537199584007261,8.077426745036243,-16.541579017508028
1761392276356663000,2.4456630859375,-0.19323183081448078,7.042716617307066,-16.91390893984437
1761392276366745000,2.4557451171875,0.5096797069311142,4.784286240382492,-15.383648168301582
1761392276376827000,2.465826904296875,-0.9733961195886135,1.9143020283304153,-13.409096984583138
1761392276386909000,2.475908935546875,-4.462783126702904,-0.47630599124804135,-12.213556827950477
1761392276396992000,2.485991943359375,-9.752505737358332,-3.5295734715521334,-12.011555415225029
1761392276407074000,2.496073974609375,-16.079423278295994,-6.800786514297127,-13.001162664902209
1761392276417156000,2.506156005859375,-22.07857484576702,-9.808231716233491,-14.126105436742305
1761392276427238000,2.51623779296875,-27.735385970973965,-12.494522471797465,-14.218651618492602
1761392276437321000,2.526321044921875,-32.0161811299324,-15.013199237406253,-12.725990802025795
1761392276447403000,2.536403076171875,-34.25635659598112,-18.100434599894285,-10.262989746409653
1761392276457485000,2.546485107421875,-33.74558032598495,-22.13411611572504,-6.908301132598519
1761392276467566800,2.55656689453125,-31.460733359038827,-25.670901418352127,-3.602657996985316
1761392276477649000,2.56664892578125,-29.36970216027498,-27.486255727326867,-0.7154840190708637
1761392276487732000,2.57673193359375,-27.72167542552948,-27.72428473124504,1.8739514593720434
1761392276497814000,2.58681396484375,-25.88102768534422,-26.00279294731617,3.958647025373578
1761392276507896000,2.59689599609375,-23.739320776832102,-23.27458846513033,5.821469187965989
1761392276517977900,2.606977783203125,-21.38225963754654,-19.757833558619023,7.396330148735642
1761392276528061000,2.61706103515625,-18.722942229104042,-15.70357570322752,8.704455651062727
1761392276538143000,2.62714306640625,-16.31009081353545,-11.502432173132895,9.953082085716725
1761392276548225000,2.63722509765625,-14.298911150121688,-7.549907430031896,11.553110220968723
1761392276558306800,2.647306884765625,-12.878489055913686,-4.1087022700235245,12.970057917064427
1761392276568390000,2.657389892578125,-11.778113739097117,-0.8269184411644935,13.77267778327465
1761392276578472000,2.667471923828125,-11.13225679848194,1.9628654220998285,14.268350007641315
1761392276588554000,2.677553955078125,-10.768155775308609,4.403388396187126,14.232338783061504
1761392276598636000,2.687635986328125,-10.84222872725725,6.481363421761989,13.601408193421364
1761392276608718800,2.69771875,-11.836702706187962,8.317326219001412,12.254052504467964
1761392276618801000,2.70780078125,-13.30955875198841,10.031213957667351,10.632612163352965
1761392276628883000,2.717883056640625,-13.80803551238179,11.675801365613937,8.611611363148688
1761392276638965000,2.727965087890625,-13.276293611246347,12.744357648843526,6.629572454023361
1761392276649046800,2.738046875,-12.497733835059403,13.314962072336673,4.7539551072657105
1761392276659129900,2.7481298828125,-11.415936961984634,14.060080182170868,3.2808357343539596
1761392276669212000,2.7582119140625,-10.549437036538123,14.316891043448447,2.8188357702255247
1761392276679294000,2.7682939453125,-9.355796576046943,13.776285452377795,3.443131451895833
1761392276689376000,2.7783759765625,-7.647592728236317,13.49400931045413,3.8000963395789262
1761392276699458800,2.788458740234375,-6.114246265637874,14.02937875443697,3.6081986799776553
1761392276709540900,2.798540771484375,-4.983589792326092,14.785158543539046,3.845207693198323
1761392276719623000,2.808622802734375,-4.42207994491458,15.11644918400049,4.460355315034091
1761392276729705000,2.818705078125,-4.017608332908154,16.379039846599103,4.669052133744954
1761392276739788000,2.8287880859375,-3.70475088249892,17.317987753140926,4.827845396123826
1761392276749870000,2.8388701171875,-3.636265667554736,17.493995477432012,5.033093535685539
1761392276759952100,2.8489521484375,-3.612225451275706,17.555923233556747,4.86003823145926
1761392276770034000,2.859033935546875,-3.533274664157629,17.71936724435091,4.2429397678166625
1761392276780117000,2.869116943359375,-2.993890431575477,17.727599650645256,3.340447322490811
1761392276790199000,2.879198974609375,-1.8018059683546424,17.39806725202799,2.3203451274372635
1761392276800281000,2.889281005859375,-0.4280409959033131,17.08471909549236,1.1959395312137902
1761392276810363100,2.899363037109375,1.1130711322605609,16.856157008099554,0.018908260218054054
1761392276820441900,2.90944189453125,2.580597507470846,16.649423306155203,-0.8833280183896421
1761392276830524000,2.91952392578125,3.5703567328393455,16.547005718731878,-1.6961396082684397
1761392276840606000,2.92960595703125,4.1127205657541746,16.4307396386981,-2.490054774497449
1761392276850688000,2.93968798828125,4.320014824190736,16.287496704411506,-3.2607226283907886
1761392276860770800,2.949770751953125,4.2794653716593976,15.8820945335567,-3.7858828130483624
1761392276870852900,2.959852783203125,4.080039946901798,15.144095900338888,-4.296648853911459
1761392276880935000,2.969934814453125,3.6872377299010752,14.000684574872254,-5.047905904892087
1761392276891017000,2.980016845703125,3.1781974899172782,12.554239566135406,-6.037794309598207
1761392276901100000,2.99010009765625,3.0619658966749905,11.247183154344558,-7.247901920765638
1761392276911181800,3.000181884765625,3.496322943857312,10.365022718429564,-8.54905816860199
1761392276921263900,3.010263916015625,4.009069637143612,9.452814350253343,-9.276310366877913
1761392276931346000,3.020345947265625,4.211144115105271,8.509250474348663,-9.412614441812037
1761392276941428000,3.030427978515625,3.6178555661171674,7.7315540369927875,-9.41896877927482
1761392276951511000,3.040510986328125,2.5036264959931374,6.725943162497877,-9.415231346312165
1761392276961593000,3.050593017578125,0.9043120619684457,5.5997372388541695,-9.713248662725091
1761392276971675000,3.0606748046875,-0.4438309779703617,5.021033680057525,-10.713484273922443
1761392276981757000,3.0707568359375,-0.930087723737955,5.624974555963277,-13.037110761117935
1761392276991840000,3.080840087890625,-0.14891864183545112,6.666405516380071,-14.90878141607642
1761392277001922000,3.090922119140625,1.3205413317859171,6.293031053426861,-14.705897375297546
1761392277012004000,3.101004150390625,2.502612350514531,4.682272265323996,-12.753558023387193
1761392277022086100,3.111086181640625,1.4597691852122545,2.391088496571779,-10.547413421756028
1761392277032169200,3.121169189453125,-2.7156635650426146,0.5050413796059787,-9.844306069177389
1761392277042251000,3.1312509765625,-9.656712536510824,0.6578465805511922,-11.313626926589011
1761392277052333000,3.1413330078125,-17.546775465983153,0.698040862969309,-13.090508004784583
1761392277062415000,3.1514150390625,-24.41521746640205,0.4747479481510818,-14.158340649914742
1761392277072498200,3.161498291015625,-27.94133407549858,-0.4130082619443536,-14.322097964441776
1761392277082580000,3.171580078125,-27.271130629134177,-3.399422658550739,-12.835123376917839
1761392277092662000,3.181662109375,-24.180019886517524,-7.597993123286962,-10.087564205920696
1761392277102744000,3.191744140625,-20.43897224049568,-10.902537357747555,-8.001544697839021
1761392277112827100,3.2018271484375,-18.69025342694521,-13.196180210089683,-6.1355041577219955
1761392277122909200,3.2119091796875,-18.168511526298524,-14.528458741420506,-4.832648704752326
1761392277132991000,3.221990966796875,-18.27334903434515,-14.560090728002786,-3.7782434042111035
1761392277143073000,3.232072998046875,-18.445498914164304,-14.538385092151165,-2.347236203102767
1761392277153156000,3.242156005859375,-17.629764714837073,-14.050847074401378,-0.8184718075975775
1761392277163238100,3.252238037109375,-15.838511412417887,-13.502645036852359,0.837894885469973
1761392277173320000,3.26231982421875,-13.984499163746833,-12.742712804245947,2.6164248999163506
1761392277183402000,3.272402099609375,-12.186603354573249,-11.742996833008528,4.869918112699687
1761392277193485000,3.282485107421875,-10.95431898291111,-10.486544819295405,7.266046649265289
1761392277203567000,3.292567138671875,-10.54250577597022,-8.708046369031072,9.29349063425958
1761392277213649200,3.302649169921875,-9.933400064647197,-6.468965127959847,10.690051960408686
1761392277223731000,3.31273095703125,-9.242660026210546,-4.053160707804561,11.370982552492618
1761392277233814000,3.32281396484375,-8.352641278010607,-1.6821853171959518,11.269163515484333
1761392277243896000,3.33289599609375,-7.3946414649963375,0.4648911555252969,10.837807403683662
1761392277253978000,3.34297802734375,-6.589929594942927,2.2800077102214096,10.429484961467981
1761392277264060000,3.353059814453125,-5.923958087059855,4.0555081477135415,10.113764815104007
1761392277274142000,3.363141845703125,-5.602042008665204,5.987412029838562,10.328319419932365
1761392277284225000,3.37322509765625,-5.6289972356081,7.635360438650846,10.942724406707287
1761392277294307000,3.38330712890625,-5.625989870485663,9.266978474909067,11.35275482188463
1761392277304389000,3.39338916015625,-5.748679261565208,11.271425615197419,11.118189694684743
1761392277314471000,3.403470947265625,-5.884779922881722,13.435880946612357,10.126634818071127
1761392277324554000,3.413553955078125,-5.59380551071763,14.948869096314906,8.870517735400796
1761392277334636000,3.423635986328125,-4.62049648489058,15.88291286420226,7.787423808252811
1761392277344718000,3.433718017578125,-2.521124743282795,17.591345260071755,6.85641487801671
1761392277354799900,3.4437998046875,0.08995207360386848,20.117157868909835,6.143640702426433
1761392277364883000,3.453883056640625,2.1278888110399246,21.556846973645687,5.4929070956856005
1761392277374965000,3.463965087890625,3.0271885978043076,22.70708551478386,4.506367709146439
1761392277385047000,3.474047119140625,2.4482915622621775,24.098888248229024,2.5547365055054425
1761392277395129000,3.484129150390625,0.41406478525996204,24.303307243490217,-0.1230976796194911
1761392277405212000,3.4942119140625,-1.77225926361382,24.502383708679673,-3.304413886079192
1761392277415294000,3.5042939453125,-3.090190120640397,25.03042675529718,-6.4192117937535045
1761392277425376000,3.5143759765625,-4.001178007110953,25.23414432429075,-8.840660941797495
1761392277435458000,3.5244580078125,-4.047326594823598,24.86476156132221,-10.411031605410574
1761392277445541000,3.534541015625,-3.0415666672468182,23.760761039745805,-11.184748033219575
1761392277455623200,3.544623046875,-1.683600736951828,21.42902840298414,-11.095640009224415
1761392277465705200,3.554705322265625,-0.5368862782865762,18.376227225017548,-10.73822124029398
1761392277475787000,3.564787109375,0.523065258204937,15.555015957832335,-10.793802257740497
1761392277485870000,3.5748701171875,1.2812655524522065,12.992536290854215,-10.896104109829663
1761392277495952100,3.5849521484375,1.989081228852272,10.610488009828329,-10.760324351030588
1761392277506034200,3.5950341796875,2.313274604529142,8.58674814004898,-10.531112275296449
1761392277516116200,3.6051162109375,1.8266513635367154,6.899053411781788,-10.559294413685798
1761392277526199000,3.615198974609375,0.5659831934332847,5.629135767295956,-10.711937629002332
1761392277536281000,3.625281005859375,-1.4545359607338904,4.033920293022692,-11.03921260408163
1761392277546363100,3.635363037109375,-3.54274684138,2.347591884672642,-11.851802075642347
1761392277556445200,3.645445068359375,-5.294225767293572,0.5079778714492916,-13.030115203142165
1761392277566528000,3.655528076171875,-7.308448451665043,-1.0394501618631184,-13.602552687281369
1761392277576610000,3.665610107421875,-8.960636982265115,-3.037277153359353,-13.013653897684812
1761392277586692000,3.675692138671875,-10.004473250257968,-5.284235703676939,-12.43048926782608
1761392277596774100,3.685774169921875,-10.421805512881278,-6.816295633596181,-12.17593349199891
1761392277606857000,3.69585693359375,-10.816173079502581,-8.193498763802648,-12.27436814726591
1761392277616939000,3.70593896484375,-10.731101763677596,-9.379573757475614,-12.04674480202794
1761392277627021000,3.71602099609375,-10.867973409366607,-10.020731142097711,-11.768041257894039
1761392277637103000,3.72610302734375,-11.362717412972449,-10.380590874439477,-10.812181964039802
1761392277647185200,3.73618505859375,-11.441412764024733,-10.63320253046155,-9.194076904827355
1761392277657268000,3.74626806640625,-11.116557709568738,-11.173683033847809,-6.583577595567703
1761392277667350000,3.75635009765625,-12.046021163928508,-11.931927167236804,-3.4703219488993287
1761392277677432000,3.76643212890625,-14.92519712882638,-11.981049217802285,-0.5879720301404595
1761392277687514000,3.77651416015625,-19.48157448502779,-10.26417398775816,1.576894220162928
1761392277697597000,3.786596923828125,-23.967476036989687,-7.172647650077939,3.5008766616389155
1761392277707679000,3.796678955078125,-26.20525262520313,-3.262212866948545,4.507945625987649
1761392277717761000,3.806760986328125,-24.59056935713291,0.07864391312599181,4.907206225347519
1761392277727843000,3.816843017578125,-20.26024648941755,1.335374159258604,4.777219370736182
1761392277737926000,3.82692578125,-15.168212104463576,1.4612971254318952,4.986703540432453
1761392277748008000,3.837008056640625,-11.301492252159118,1.1707429845064878,5.677193988022208
1761392277758090000,3.847090087890625,-9.554376197630166,1.3767930881008505,6.540079814624786
1761392277768172000,3.857172119140625,-9.31216084793806,2.2276517923012373,7.5400003685235975
1761392277778255000,3.867255126953125,-9.415302657982707,3.455697503480315,8.566656369134783
1761392277788337000,3.8773369140625,-8.90726721112728,4.860163319143653,9.666265962275862
1761392277798419000,3.8874189453125,-7.870164050781726,5.839792195641994,10.792325755447148
1761392277808501000,3.8975009765625,-6.7338610960155725,6.674974022760987,11.602680015301704
1761392277818584000,3.907583984375,-5.650456203222275,7.543269599452614,11.884334225934744
1761392277828670200,3.917670166015625,-4.386982328048348,8.393395313203333,11.6002998421669
1761392277838752300,3.927752197265625,-3.0036639298319816,9.026301002308726,10.914584353893995
1761392277848834300,3.937834228515625,-1.7205156323730944,9.671521398586034,9.923751946336031
1761392277858916400,3.947916259765625,-0.41432665106654165,10.376858117651938,8.847164332342148
1761392277868999200,3.957999267578125,0.7572106986880301,11.008892284619808,7.7611062946915625
1761392277879081200,3.968081298828125,1.9365525847136973,11.653091521155833,6.6551698366165155
1761392277889163300,3.978163330078125,2.9932606092393397,12.464054852819443,5.576608292201161
1761392277899245300,3.988245361328125,4.013393930083513,13.038507768434286,4.758752862936258
1761392277909327400,3.998327392578125,4.940876439759135,13.331141638243198,4.138086769939958
1761392277919409200,4.0084091796875,5.646308435893059,13.934595022892951,3.391645302547514
1761392277929491200,4.0184912109375,6.160073366311192,14.62240894474983,2.7417297341912983
1761392277939574300,4.02857421875,6.536504878747463,15.310138695454597,2.2300430713519455
1761392277949656300,4.03865625,6.664214143815636,16.263629506611824,1.677735059788823
1761392277959738400,4.04873828125,6.693569417637586,17.641546338045597,0.8771241953134536
1761392277969820200,4.058820068359375,6.567143178117274,18.649996235358714,0.2563204474121332
1761392277979903200,4.0689033203125,6.149082016697526,19.337299285084008,-0.2989291705608368
1761392277989985300,4.0789853515625,5.9109138965696095,20.236608424198625,-1.0782362579837441
1761392278000067300,4.0890673828125,5.884104800099134,20.955289778006076,-1.8870722222298382
1761392278010149000,4.099149169921875,5.469603961509466,20.8379014159441,-2.2919386787727474
1761392278020232400,4.109232421875,3.771479024642706,20.127716672325132,-2.8288664581134912
1761392278030314500,4.119314453125,0.8945411940604447,18.800710528439282,-3.718935767456889
1761392278040396300,4.129396240234375,-1.8751269328922031,17.756644543343782,-5.340009613347053
1761392278050478300,4.139478271484375,-4.069375345024466,17.296220157968996,-7.271363460373878
1761392278060560100,4.14956005859375,-5.773640684342384,16.63944902462959,-8.749127151960135
1761392278070643500,4.1596435546875,-6.570642710670828,15.15157193530798,-9.705146604812144
1761392278080725500,4.1697255859375,-6.8724716943264,12.50357671586871,-9.982195951998234
1761392278090807600,4.1798076171875,-7.019588255175948,9.255891263705491,-10.206621962499618
1761392278100889300,4.189889404296875,-7.634076828581095,6.202120948445796,-10.88454811207056
1761392278110972400,4.199972412109375,-8.288737837898731,3.269391088014841,-11.383390783166885
1761392278121054500,4.210054443359375,-8.674464417424797,1.0631852577157317,-11.816498122549056
1761392278131136500,4.220136474609375,-9.044659081298112,-0.39437889173291624,-12.904720060235261
1761392278141218300,4.23021826171875,-10.38155533555746,-1.6462376593716441,-14.311778815001249
1761392278151301400,4.24030126953125,-12.256070274031162,-2.806735290326178,-15.535544364643096
1761392278161383400,4.250383544921875,-14.338158287882804,-3.4589097435250875,-15.855884572023152
1761392278171465500,4.260465576171875,-16.307594905066487,-3.8638305606037378,-14.693596696650982
1761392278181547500,4.270547607421875,-17.761582584267853,-4.660879348683357,-11.763564989262818
1761392278191630300,4.28063037109375,-18.483748857581613,-5.88549187054336,-8.03880913735032
1761392278201712400,4.29071240234375,-18.871465734142063,-7.5749430870890615,-4.608659916624426
1761392278211794400,4.30079443359375,-18.68219403913021,-9.136911248537897,-1.6664736610621214
1761392278221876500,4.31087646484375,-17.485536276644467,-10.939650990611314,1.3177207214072346
1761392278231959300,4.320959228515625,-14.62725813834667,-12.500012301385402,3.4715058979868885
1761392278242041300,4.331041259765625,-11.3679968146801,-12.874140213054417,4.962541159078478
1761392278252123400,4.341123291015625,-8.91780555627644,-12.748764943891763,6.256508372193575
1761392278262205400,4.351205322265625,-7.696157729440927,-11.769483857917784,6.959130571603775
1761392278272288300,4.361288330078125,-7.658797428339719,-9.9477161747694,7.04750268253982
1761392278282370300,4.371370361328125,-8.327086565515398,-8.14946030011177,6.93284228413701
1761392278292452400,4.381452392578125,-9.08699892437756,-6.299553733193874,7.039164477783441
1761392278302534400,4.391534423828125,-9.4602810328722,-4.528260976524651,7.258700962677597
1761392278312616400,4.401616455078125,-9.103589409172534,-3.5762376075714823,8.383104805335401
1761392278322699300,4.41169921875,-8.194004959759116,-3.4359915170133113,10.344864896541834
1761392278332781300,4.42178125,-8.108686391174793,-3.5743688910901543,12.16450024383664
1761392278342863400,4.43186328125,-9.304561478850244,-3.0141283329620956,13.52636493513584
1761392278352945400,4.4419453125,-11.409205607903003,-1.5675744570232928,14.290028755486011
1761392278363028200,4.4520283203125,-13.647842612338065,0.21167115834653377,15.065467184782028
1761392278373110300,4.4621103515625,-15.050363139152527,2.058546248614043,15.448520745706558
1761392278383192300,4.4721923828125,-14.893519549536704,3.743671272523701,14.959017565363645
1761392278393274400,4.4822744140625,-13.504143750977516,4.5053219994857905,14.209175349617004
1761392278403357200,4.492357177734375,-11.642371389698981,4.3870755592897535,13.536523925578594
1761392278413439200,4.502439208984375,-9.277309314787388,4.356313341279328,12.480377042067051
1761392278423521300,4.512521240234375,-6.987434875068068,4.667641390164197,10.90030682221651
1761392278433603300,4.522603271484375,-5.0156782905042165,4.917156541475653,9.284304872763157
1761392278443686100,4.53268603515625,-3.1717291706860062,5.5677615534007545,7.673875755006074
1761392278453768200,4.542768310546875,-1.776369621542096,6.470870669320226,6.155266842812299
1761392278463850200,4.552850341796875,-0.5730769510865211,7.699422284194827,4.399385005764663
1761392278473932300,4.562932373046875,0.7718149781018495,9.424587788200379,2.870518611189723
1761392278484014300,4.573014404296875,1.822377339479327,10.635842231315374,2.108553119190037
1761392278494097200,4.58309716796875,2.903623592934012,11.16993274140358,2.0152607952475545
1761392278504179200,4.59317919921875,4.07768724629581,11.278320635408162,2.005201758047938
1761392278514261200,4.60326123046875,4.98974889947772,11.532091982859372,1.8484142825335264
1761392278524343300,4.61334326171875,5.546049487808347,12.245997792828083,1.5169745889902113
1761392278534426000,4.623426025390625,5.68875290839076,12.835094150823354,1.2167799285382033
1761392278544509400,4.633509521484375,5.858560608997941,13.352124805039166,0.7358025844782591
1761392278554591500,4.643591552734375,6.013187691608071,14.06220199663043,-0.054506666213274
1761392278564673500,4.653673583984375,6.347290466880798,14.386830256593226,-0.903093626089394
1761392278574755300,4.66375537109375,6.9729352250725025,14.59846459006071,-1.6342214967548847
1761392278584837400,4.67383740234375,7.689137037023902,14.378193361151217,-2.071813141944259
1761392278594920400,4.68392041015625,8.283417519658803,13.767010259032249,-2.298715333300829
1761392278605002500,4.69400244140625,8.359215395703911,13.244987787878513,-2.5355402221262455
1761392278615084300,4.704084228515625,7.594262704586982,12.758782480037212,-3.095034638062119
1761392278625166300,4.714166259765625,5.9435150204449885,12.594020956903694,-4.483115720635652
1761392278635249400,4.72424951171875,3.5811183653503655,12.2894558262825,-6.660542761826515
1761392278645331500,4.73433154296875,1.5883166546702383,11.89008475228548,-9.184516464799643
1761392278655413500,4.74441357421875,1.04865565097332,9.398872332185507,-9.97634605692625
1761392278665495300,4.754495361328125,0.15048048432469366,5.1592824593186375,-9.675019177573919
1761392278675578400,4.764578369140625,-1.6661352228879927,0.9529230942718684,-9.685436526691912
1761392278685660400,4.774660400390625,-4.609029334458708,-2.9486347010493277,-10.70638584009409
1761392278695742500,4.784742431640625,-7.685096821722388,-5.853668745303153,-12.103503046560286
1761392278705824300,4.79482421875,-10.72799678339958,-8.720457522314787,-13.057822709757088
1761392278715907300,4.8049072265625,-11.753383786988257,-12.490274166703223,-13.453692497634886
1761392278725989400,4.8149892578125,-11.372142243921756,-16.587301488763092,-12.790373550087212
1761392278736071400,4.825071533203125,-11.190802510952949,-21.383559614229203,-10.405795458322762
1761392278746153500,4.835153564453125,-13.100211068153381,-26.59513807797432,-6.970667864662408
1761392278756235300,4.8452353515625,-19.566657491290567,-29.880462063658236,-4.627686980916559
1761392278766318300,4.855318359375,-26.782633995485305,-28.646370350313184,-3.542665885098278
1761392278776400400,4.865400390625,-31.78495829889774,-24.34658758229017,-2.7781115456491707
1761392278786482400,4.875482421875,-32.00691295084953,-20.559407130646704,-0.4578866835907101
1761392278796564200,4.885564208984375,-28.910436297285557,-18.470390194314717,2.8282001031592485
1761392278806647300,4.895647216796875,-24.342930813348293,-17.038038008338212,6.242050807774066
1761392278816729300,4.905729248046875,-19.083070841515063,-15.38810690127611,9.001181174099445
1761392278826810600,4.915810546875,-13.518833955109118,-13.060109359389543,10.72124906270504
1761392278836892700,4.925892578125,-8.849029541692138,-10.17836500530839,11.617134072589874
1761392278846975500,4.9359755859375,-5.233329107782245,-6.860718128168583,11.761430315321682
1761392278857057500,4.9460576171875,-2.515419225117564,-3.2646310340061784,11.433584846878052
1761392278867139600,4.9561396484375,-0.606197714921832,-0.09808335761129855,10.883582481908798
1761392278877221600,4.9662216796875,0.20989479632377622,2.5141964053243395,10.270506697911024
1761392278887304400,4.976304443359375,0.15612988838851452,4.665911205370724,9.707713824951648
1761392278897386500,4.986386474609375,-0.22736498656272885,6.481092203605175,9.228313520950078
1761392278907468500,4.996468505859375,-0.5283130957305431,8.247958083742857,8.533176708859205
1761392278917550600,5.006550537109375,-0.6698802057594061,10.18198085771799,7.8822753443360325
1761392278927633700,5.016633544921875,-0.7424749018490314,12.07345043812394,7.440510651245713
1761392278937715700,5.0267158203125,-1.0703110179424284,14.307957210886478,7.088593402341008
1761392278947797800,5.0367978515625,-1.1544044286459683,17.26337470394373,6.57528322995305
1761392278957879800,5.0468798828125,-1.2242302445441484,20.350716449415682,5.922355912560224
1761392278967961600,5.056961669921875,-1.1336387039929627,22.948792330431935,5.172200393080711
1761392278978044700,5.067044677734375,-0.5627765063464641,24.801796863365173,4.328443922100961
1761392278988126700,5.077126708984375,-0.7725766101241112,24.588231269574162,3.6491365473046895
1761392278998208800,5.087208740234375,-1.2529331919372082,22.906073132646082,2.7880045786321164
1761392279008290800,5.097290771484375,-1.202160451555252,21.99746892644167,0.918522958150506
1761392279018373600,5.10737353515625,-0.41227439471185207,21.588034723591804,-1.2611065615206956
1761392279028455700,5.11745556640625,0.5639443810820579,20.890908198988438,-2.796104590718448
1761392279038537700,5.127537841796875,1.2924877882122994,19.84931824861765,-3.6991076159149405
1761392279048619800,5.137619873046875,1.8347306250959634,18.042856855672596,-3.8968747520714997
1761392279058702600,5.14770263671875,1.8318208751291036,15.143968474566936,-3.9045235132589933
1761392279068784600,5.15778466796875,1.4299462938785552,11.886841824841499,-4.34351523450464
1761392279078866700,5.16786669921875,0.5897177047640085,8.841715419286489,-5.031345815235376
1761392279088948700,5.17794873046875,-0.07641922281384468,5.947741698229312,-5.610499455887079
1761392279099030800,5.18803076171875,-0.5839589951068163,3.2314760756403205,-6.309309403532743
1761392279109113600,5.198113525390625,-0.8540326580613851,0.7586793099358677,-7.239096683019399
1761392279119195600,5.208195556640625,-0.8478384795963764,-1.6231021368473768,-8.286264141261578
1761392279129277700,5.218277587890625,-0.6469529191583394,-4.3381472777307035,-9.0813460131824
1761392279139359700,5.22835986328125,-1.0432155057460069,-7.3658759737610815,-9.496047927302122
1761392279149442600,5.238442626953125,-2.1604437576860187,-10.569016181755066,-9.572491700035332
1761392279159524600,5.248524658203125,-4.326777157932519,-13.760905512416363,-9.724581957644224
1761392279169606700,5.258606689453125,-6.161762634572386,-15.980464891415833,-9.903300694459675
1761392279179688700,5.268688720703125,-7.600958987355232,-18.04292232212424,-10.155333673810958
1761392279189771800,5.278771728515625,-8.895585541161894,-19.805642773020267,-9.603204818207026
1761392279199853600,5.288853515625,-10.117951160877942,-19.860309598231314,-7.8709940718650815
1761392279209935600,5.298935546875,-11.135677420580386,-18.920684815341232,-4.893813952071964
1761392279220017700,5.309017578125,-12.575824790477752,-18.868738355004787,-0.5201765510261058
1761392279230100700,5.319100830078125,-14.249537755143642,-18.59211687784195,4.325869395437836
1761392279240182500,5.3291826171875,-14.949077186107635,-17.958368892693517,8.809958345019817
1761392279250264600,5.3392646484375,-14.353454056692122,-17.519915516108274,12.366757677149772
1761392279260346600,5.3493466796875,-11.737206559169291,-16.334268976980447,14.896147559952736
1761392279270428700,5.3594287109375,-8.090407807162403,-14.727624053937197,16.453332578778266
1761392279280511700,5.36951171875,-5.390542115232348,-12.437957119488715,16.958961549013853
1761392279290593500,5.379593505859375,-4.952570969206095,-9.764621707087755,17.072036139529942
1761392279300675600,5.389675537109375,-6.256010359543562,-7.312167764449119,17.11503356973529
1761392279310757600,5.399757568359375,-8.771446535795926,-4.368853966161608,17.029226925373077
1761392279320840700,5.4098408203125,-11.166833606344461,-1.0820032093018292,16.433337253975868
1761392279330922500,5.419922607421875,-12.722822693383693,2.4797610517591235,15.396266826856136
1761392279341004500,5.430004638671875,-13.71553492333889,5.442394467544555,14.437975921940803
1761392279351086600,5.440086669921875,-14.196248063504695,7.11639618602395,13.627414741337299
1761392279361169700,5.450169677734375,-14.413821139371395,7.990201466047763,12.514710688823461
1761392279371251500,5.46025146484375,-15.612852060729264,8.353506370407342,10.641830073553324
1761392279381333500,5.47033349609375,-16.965482475215197,8.238698087966442,8.329392504370212
1761392279391415600,5.48041552734375,-16.40317358638048,8.787979737445712,5.307755695474148
1761392279401497600,5.49049755859375,-14.377996961796283,10.955205118095874,1.6025846878670156
1761392279411580700,5.50058056640625,-11.314403171658515,13.748434153378009,-1.6701412436589598
1761392279421662500,5.510662353515625,-7.691320810803771,15.544405716490745,-4.387862033492326
1761392279431744500,5.52074462890625,-3.785928405755758,17.21741959297657,-5.914819087314605
1761392279441826600,5.53082666015625,-0.7845768445193767,17.37269900201559,-5.446297320201992
1761392279451910000,5.540909912109375,0.6686766751885413,16.74715302802324,-3.835387140929699
1761392279461991400,5.550991455078125,0.8574252231091261,16.897784318995473,-2.4421536440290508
1761392279472073500,5.561073486328125,1.2954378701895475,18.256876038450002,-1.4067911898709833
1761392279482155500,5.571155517578125,1.726245700457692,20.054817440330982,-0.4452649562962353
1761392279492238800,5.58123876953125,2.0552239723235366,21.24558906738758,0.28390980754010375
1761392279502320600,5.591320556640625,2.488690208145976,21.61731693217754,0.5006117265954614
1761392279512402700,5.601402587890625,2.831875284540653,21.357817270207402,-0.19631277262978256
1761392279522484700,5.611484619140625,3.827012695816159,20.75820770150423,-1.4019504718415439
1761392279532567800,5.62156787109375,5.395714549434184,19.755813450968265,-2.628325473329425
1761392279542649900,5.63164990234375,7.4591978160589925,18.41873716396689,-3.71689140214771
1761392279552731600,5.641731689453125,9.628664253634215,17.370318828880787,-4.742539394760132
1761392279562813700,5.651813720703125,11.301190638864039,16.231121906238794,-5.403366525492072
1761392279572896800,5.661896728515625,11.864199784922599,15.223844559836387,-6.002103403013944
1761392279582978800,5.671978759765625,11.000561678647994,14.451810386025905,-6.71957947268486
1761392279593060600,5.682060546875,8.692368907427788,13.335598033130168,-7.5447425946146245
1761392279603142700,5.692142578125,5.165854823446273,11.691586963766813,-8.393631460046768
1761392279613224700,5.702224609375,1.4811539185464382,9.413768288022279,-8.861124468633532
1761392279623307800,5.712307861328125,-2.1781541864216325,6.759559600895643,-9.268358531090616
1761392279633389800,5.722389892578125,-5.692994199222326,3.834605050641298,-9.263889861243962
1761392279643471600,5.7324716796875,-9.516344280877709,-0.29102709219940004,-8.790583782464266
1761392279653553700,5.7425537109375,-13.264786713325977,-5.303053216871619,-7.889038262599706
1761392279663636700,5.75263671875,-15.897316652607916,-11.328943738186359,-6.770647981142997
1761392279673718800,5.76271875,-15.767650992774962,-17.053441329175232,-6.010215982320904
1761392279683800600,5.772800537109375,-14.505509242987632,-24.150440740811824,-4.507504019699991
1761392279693882600,5.782882568359375,-12.26530805797577,-30.41972091629505,-2.170738649468124
1761392279703965700,5.792965576171875,-11.893222465789318,-32.91360927760601,0.012657529260218143
1761392279714047700,5.8030478515625,-14.390776948392391,-33.04280498183965,2.606887256242335
1761392279724129800,5.8131298828125,-19.008782785511016,-30.350501834118365,4.278894293773174
1761392279734211600,5.823211669921875,-24.329185196590423,-24.49343818567991,4.914080202770233
1761392279744293600,5.833293701171875,-28.50154219266176,-17.44145981903076,5.00610382195115
1761392279754376700,5.843376708984375,-28.915661922979353,-11.02017238804698,4.731858718530834
1761392279764458800,5.853458740234375,-26.628105112552642,-6.665690061587095,4.068909188817441
1761392279774540500,5.86354052734375,-22.828815705442427,-4.533154886046051,3.461960363267362
1761392279784622600,5.87362255859375,-17.93016688055992,-2.554039755412936,2.4523604191362858
1761392279794705700,5.88370556640625,-13.222730363363027,0.25157471418976785,0.5312317596562206
1761392279804787700,5.89378759765625,-8.940938010060787,3.875689048440754,-2.2075341562934216
1761392279814869800,5.903869873046875,-4.686190315550565,7.55163235412836,-4.604351113514602
1761392279824952300,5.913952392578125,-0.9913456177771091,10.439903479629754,-6.24726649659574
1761392279835035400,5.924035400390625,1.5948574546158312,12.068660865759849,-6.752475195592641
1761392279845117400,5.934117431640625,2.5573721147060393,13.313968385124205,-6.559815611708164
1761392279855199200,5.94419921875,2.479213354748487,15.94302158820629,-6.518337353894114
1761392279865281300,5.95428125,2.2882027071148157,19.110850828844306,-6.404930754944682
1761392279875364400,5.9643642578125,2.0202876834988595,21.399005020642278,-6.019160920798778
1761392279885446400,5.9744462890625,2.2847446756154297,23.11074697945118,-5.602648742386698
1761392279895528200,5.984528076171875,3.3398294828534123,23.47460250343084,-4.987848034292459
1761392279905610200,5.9946103515625,5.210953025323152,21.668044079852102,-3.92083956502676
1761392279915692300,6.0046923828125,7.966642895805835,19.63449008754492,-3.039338177542388
1761392279925775400,6.014775390625,10.851302845072746,17.17364357961416,-2.2637805057808755
1761392279935857400,6.024857421875,13.0732833137393,14.539909525239466,-1.7053795841701327
1761392279945939200,6.034939208984375,14.330617955505847,12.769197491067647,-1.551795142480731
1761392279956021200,6.045021240234375,14.769996045720577,11.423842036020755,-1.4776697296924888
1761392279966104300,6.055104248046875,13.978434164619445,9.913950683289766,-1.3145596270278095
1761392279976186400,6.065186279296875,12.253914557301998,8.067522021615504,-1.1156157021768391
1761392279986268200,6.07526806640625,10.038013116288184,6.051100365895032,-1.0870265904217957
1761392279996350200,6.08535009765625,7.207548867589235,3.8966973496779795,-1.1936805002406239
1761392280006433300,6.095433349609375,4.155974016547203,0.9786793206885457,-0.5540517864905298
1761392280016515300,6.105515380859375,0.9080535865843296,-3.3670328393384814,1.275590283294767
1761392280026597400,6.115597412109375,-2.7144033358484503,-8.887607986411451,3.0694238114655015
1761392280036679200,6.12567919921875,-6.446848573219776,-14.144416169458626,3.8425206460714336
1761392280046762200,6.13576220703125,-9.285617708927392,-18.86742668788433,3.9136698195278643
1761392280056844300,6.14584423828125,-11.30148991407156,-22.659150043654442,4.365641433855891
1761392280066926300,6.15592626953125,-13.347964178228377,-25.240641869616507,5.294599276781081
1761392280077008100,6.166008056640625,-15.940129373896122,-24.627090284800527,6.701756231224537
1761392280087090200,6.176090087890625,-18.96701869649291,-21.50849766101837,7.85458420433402
1761392280097173200,6.18617333984375,-21.177284177446364,-17.709802128148077,8.39174170077741
1761392280107255300,6.19625537109375,-21.25362741241455,-13.6276356906116,8.239267412286996
1761392280117337300,6.20633740234375,-19.631967291069028,-9.475837498444319,7.19688952640891
1761392280127419100,6.216419189453125,-16.94142004710436,-5.728762262696027,6.042306818586588
1761392280137502200,6.226502197265625,-14.067173939824103,-2.3952301264211533,4.6753708153724665
1761392280147584300,6.236584228515625,-10.832083765339851,1.5604139177441596,2.4547908611536027
1761392280157666300,6.246666259765625,-7.051786058947443,5.734970469686389,-0.25646584723219273
1761392280167748000,6.256748046875,-3.7304140238046646,9.370319606918097,-2.6959067251712083
1761392280177831200,6.2668310546875,-0.9672282446086407,12.76469784156084,-4.5910547018289565
1761392280187913200,6.276913330078125,1.5338473978579044,16.83115349974632,-6.3627557470381255
1761392280197995300,6.286995361328125,2.423882512670755,19.894960055851936,-6.723120506292581
1761392280208077300,6.297077392578125,1.5548223813474178,21.258504663062094,-5.762430139020085
1761392280218159000,6.3071591796875,0.6679337478667497,21.731055539560316,-4.699059441734851
1761392280228242400,6.317242431640625,0.3605944763571024,21.938392468094825,-4.177432107378542
1761392280238324500,6.327324462890625,1.030783309674263,20.604569629931447,-3.9656662564858793
1761392280248406300,6.33740625,2.403332476595044,17.986701837730408,-3.7694782062143086
1761392280258488000,6.347488037109375,4.193968523898721,15.47085649615526,-3.9157869578123092
1761392280268571400,6.3575712890625,5.986449906808137,13.651118273007869,-4.193507628388702
1761392280278653400,6.3676533203125,7.7193468818485735,11.618796452844142,-4.386979989960789
1761392280288735500,6.377735595703125,9.049954849618672,9.744665545251966,-4.428065741325915
1761392280298817300,6.3878173828125,9.610720016142725,8.129650853270292,-4.62514957139343
1761392280308900400,6.397900390625,9.557938858547805,6.556376284909248,-4.806208441594243
1761392280318982400,6.407982421875,8.763874054715037,5.1653591488838195,-4.705198382881283
1761392280329064400,6.418064453125,6.600669015622138,3.7008030216559766,-4.394554809129238
1761392280339146500,6.428146484375,4.374676388704777,1.3640160241141914,-3.873452959951758
1761392280349228300,6.438228271484375,1.7973755846917627,-1.9603212905749678,-2.8561528167068957
1761392280359311400,6.448311279296875,-0.9493424593061208,-6.480403052297234,-1.4231578027822076
1761392280369393400,6.458393310546875,-3.6013211954236026,-9.92252094323635,-0.08670052446201443
1761392280379475500,6.468475341796875,-6.751373371830582,-12.544451162570715,0.9640985682807862
1761392280389557200,6.47855712890625,-9.734608846139908,-15.228373435437678,1.5585098376885056
1761392280399640300,6.488640380859375,-11.377926672542095,-17.508069595491886,1.7263696190983056
1761392280409722400,6.498722412109375,-11.80123508696556,-18.92046971128583,2.0259414714768527
1761392280419804400,6.508804443359375,-11.897248652565478,-19.001700718295574,2.38405552919507
1761392280429886500,6.518886474609375,-12.832521085464954,-17.867273494273423,2.90995951795727
1761392280439969300,6.52896923828125,-14.927546906822919,-15.216594150316714,3.434183006286621
1761392280450051300,6.53905126953125,-16.963583948117492,-11.691933000725507,3.9286496542558074
1761392280460133400,6.54913330078125,-17.17438709145784,-8.931484537538886,4.552567150263488
1761392280470215400,6.55921533203125,-16.336943749147654,-6.209354991352558,4.416443400332331
1761392280480298200,6.56929833984375,-14.172680140912531,-3.065097764959931,3.3675638774752614
1761392280490380300,6.57938037109375,-11.206044503748416,-0.14491145202070474,2.210768315909058
1761392280500462300,6.58946240234375,-8.18805043526888,2.663808290120959,0.8465621760502458
1761392280510544400,6.59954443359375,-4.99418717418611,5.305525744464993,-0.6435656148076057
1761392280520626400,6.60962646484375,-1.372086810106039,7.684370261013507,-1.9841957948982714
1761392280530709200,6.619709228515625,1.6723048514336347,9.99432361216545,-2.930569467526674
1761392280540791300,6.629791259765625,3.896491890233755,12.306230435472726,-4.084258149118721
1761392280550873300,6.639873291015625,5.677014539802074,15.260218187987803,-4.999921918445826
1761392280560955400,6.649955322265625,6.806836315855383,19.263416887271404,-5.352128505685926
1761392280571038200,6.6600380859375,7.064607546597719,20.882423279237745,-4.801288228587806
1761392280581120300,6.670120361328125,7.36293115248084,19.575733947193623,-3.0884210651412602
1761392280591202300,6.680202392578125,7.7325372028112405,18.11279256168604,-2.2008625695750115
1761392280601284400,6.690284423828125,8.22495597833991,17.193893755960463,-2.6258894783541558
1761392280611367200,6.7003671875,8.8065190182209,15.452437042367457,-3.234202577994764
1761392280621449200,6.71044921875,9.536329084286093,12.973909916317462,-3.5675504432469602
1761392280631531300,6.72053125,10.929168175041674,10.643313590109347,-3.967466876167059
1761392280641613300,6.73061328125,11.951492283928394,8.411764498108624,-4.244174570308625
1761392280651695400,6.7406953125,11.767952410566807,5.92743657682538,-4.497516294170916
1761392280661778200,6.750778076171875,10.704508355784416,3.3321061951249837,-4.65782434502691
1761392280671860200,6.760860107421875,8.80251270518899,-0.1655737162992358,-4.288213618521392
1761392280681942300,6.7709423828125,6.045656713536381,-4.7765284658625715,-3.459159334371984
1761392280692024300,6.7810244140625,2.8300784642517565,-9.855254164171217,-2.3119138375699517
1761392280702107100,6.791107177734375,-0.5117722952961922,-14.128660966444015,-0.8761694518718868
1761392280712189200,6.801189208984375,-4.65857983956933,-15.906775385826824,0.9262926423039287
1761392280722271200,6.811271240234375,-9.726213942760229,-14.972847353273629,2.4883441711872814
1761392280732353300,6.821353271484375,-14.56484055287838,-12.85112291008234,3.485515426377952
1761392280742436000,6.83143603515625,-17.658034531509877,-10.99978426453471,3.3359523491591214
1761392280752518100,6.84151806640625,-18.401036672103405,-8.970568593692779,2.699174494795501
1761392280762600200,6.85160009765625,-16.474793884479997,-7.229184360814094,2.3457088474050165
1761392280772682200,6.86168212890625,-13.163589607608317,-5.859492921411991,1.7460392190776763
1761392280782764300,6.871764404296875,-9.455834574857354,-4.01434231684953,1.1386764058992267
1761392280792847400,6.881847412109375,-6.376546371981501,-2.266659276087582,0.8439093234539031
1761392280802929400,6.891929443359375,-4.5866970911413425,-1.1618652660459279,1.2167694071441888
1761392280813011200,6.90201123046875,-4.266072221601009,-0.3229150263041258,2.260073029565066
1761392280823093200,6.91209326171875,-4.58601203148663,1.0159387917637825,2.6464836458325385
1761392280833175600,6.922175537109375,-3.7973581467866895,2.450953767208755,1.8235412686921655
1761392280843257600,6.932257568359375,-1.952053520706296,2.6283821719527243,1.8084455524995922
1761392280853339600,6.942339599609375,-1.7258178304344414,2.6384403323695063,1.6557153895519672
1761392280863421700,6.952421630859375,-0.6752239048749208,3.0080539814844727,1.2587369097799062
1761392280873504500,6.96250439453125,0.7007780328482389,2.4889625953465697,1.221785774001479
1761392280883586600,6.972586669921875,1.8349971670776604,1.188357551652193,0.8143580886684357
1761392280893668600,6.982668701171875,0.9662637834906578,2.1092446085855365,-0.4325258862324059
1761392280903750700,6.992750732421875,0.8589835584670305,3.037751200611889,-0.9664620825417339
1761392280913832700,7.002832763671875,2.1680250065952538,3.665683777479827,-0.7398461607806384
1761392280923915500,7.01291552734375,2.6249130345374345,4.204423282417655,-0.1684859504841268
1761392280933997600,7.02299755859375,2.2767612756460904,4.434501327331364,0.46691199382841586
1761392280944079600,7.03307958984375,2.124706673872471,4.034726056447625,0.8363882802993059
1761392280954161700,7.04316162109375,2.884849334359169,2.971892534779012,0.9200785170294344
1761392280964244500,7.053244384765625,3.360416928330064,1.4750202380970119,0.9775861186243593
1761392280974326500,7.063326416015625,3.1129549101561307,0.031708558949828144,1.0204989392861723
1761392280984408600,7.07340869140625,2.7586469667226075,-0.5906260517805815,1.2645590400621294
1761392280994490600,7.08349072265625,2.9730244614183903,-0.18162030347585678,1.7308537787750362
1761392281004573700,7.09357373046875,3.051032414728403,0.22860241940319537,1.8085839380569755
1761392281014655500,7.103655517578125,2.724453020697832,-0.1860208765223622,1.6520739643096922
1761392281024737500,7.113737548828125,2.496977559497952,-0.6876496712058782,1.235264264255762
1761392281034819600,7.123819580078125,2.2282973967283963,-0.9759460963323712,1.01563089485839
1761392281044901600,7.133901611328125,1.6532593747019766,-1.2925418564870952,1.4863067712649702
1761392281054984700,7.143984619140625,-0.1339531278938055,-1.619795204256475,1.8817953047402203
1761392281065066800,7.154066650390625,-2.6853052516579625,-1.7136887089625,1.8126362821877002
1761392281075148800,7.164148681640625,-3.347159971871972,-1.5806987270124255,1.3769728285819292
1761392281085230600,7.174230712890625,-2.7059125708788634,-0.6218932967036962,0.7502648981381207
1761392281095313700,7.184313720703125,-1.5134768100023268,0.26732392585501075,0.032886224427074194
1761392281105395700,7.194395751953125,-0.8619172738313674,0.1495712605252862,-0.08605667360052466
1761392281115477800,7.204477783203125,-0.19786065965890884,-0.5978524959027767,0.7198655951559543
1761392281125559800,7.214559814453125,0.5589174928307533,-0.9265409910418093,1.4776017790228129
1761392281135643000,7.224642822265625,1.1676982099831104,-1.8149053961634636,2.317473517523706
1761392281145724700,7.234724609375,0.7778402297407389,-2.4654154232814904,2.605189804674685
1761392281155806700,7.244806640625,0.43303544318974013,-2.647929752987623,2.743248906582594
1761392281165888800,7.254888671875,-0.005863339075446129,-2.649344880482554,2.9103403339684006
1761392281175970800,7.264970703125,-0.6987766298979521,-2.3412333094261584,2.8724367197707292
1761392281186053600,7.2750537109375,-0.7596516620993614,-1.8685779496401547,2.4264207989767193
1761392281196135700,7.2851357421875,-0.6665308953315019,-1.6767713293232023,1.9745757336378096
1761392281206217700,7.2952177734375,-0.7249070964545011,-1.7294582327634096,1.7655679492816327
1761392281216299800,7.3052998046875,-0.6833639567106962,-1.866934566347301,1.6604752974301575
1761392281226382800,7.3153828125,-0.8025619985431433,-1.99336489752084,1.5566834990441798
1761392281236464600,7.325464599609375,-0.7518985637545585,-2.0933928133286535,1.3771969927266239
1761392281246546700,7.335546630859375,-0.24805823050141332,-2.163656582252681,0.9946653367843479
1761392281256628700,7.345628662109375,-0.2173287457168102,-1.9822095895171163,0.6558896012645214
1761392281266710800,7.355710693359375,-0.4890332247436046,-1.600076066046953,0.34405374898798763
1761392281276793600,7.365793701171875,-0.38752281529307364,-1.0794470950782298,0.03086012542694807
1761392281286875600,7.375875732421875,-0.3981804029077291,-0.7074431898258626,0.16325857122465967
1761392281296957700,7.385957763671875,0.13061375433802605,-0.7914246645875275,0.47876942221950736
1761392281307039700,7.396039794921875,0.6501069992750883,-1.1259696306698024,0.7982469118230044
1761392281317122800,7.406122802734375,0.544188125732541,-1.4395045419491828,1.3690370671465992
1761392281327204600,7.41620458984375,0.09196750507950782,-1.9538838048733769,2.163017115305364
1761392281337286700,7.42628662109375,0.5102770883023738,-2.3933988193407654,2.4815569952651857
1761392281347368700,7.43636865234375,0.9061199881732463,-2.4533228344276545,2.0876799886398016
1761392281357451800,7.44645166015625,1.2105278824061154,-1.888811613243073,1.671415647508949
1761392281367533600,7.456533447265625,1.5154115774571895,-1.6457076441481708,1.6829883041419087
