time,seconds_elapsed,z,y,x
1761503548249118200,0.1181181640625,-0.18363573495149613,-0.589438887822628,-0.8303618596166372
1761503548259174100,0.128174072265625,-0.2574894911915064,-0.15949556542932986,-0.45443172083124517
1761503548269230000,0.13822998046875,-0.7629729154765605,-0.14936463203728198,-0.2188246102977544
1761503548279286300,0.148286376953125,-0.9944073434352875,-0.25016543191373347,-0.027116993375867603
1761503548289342200,0.15834228515625,-0.6820341694116592,-0.13250526717305183,0.13465696531422436
1761503548299398100,0.168398193359375,-0.2973866172939539,0.06267535962164401,0.15986600617691873
1761503548309454000,0.1784541015625,-0.5238923566788435,0.28765783496201036,0.22969014157466588
1761503548319510300,0.18851025390625,-0.6198369486957788,0.5295920296251774,0.22124643061719834
1761503548329566000,0.19856591796875,-0.37293081083893775,0.7950234197318553,0.15636888477616012
1761503548339622100,0.2086220703125,-0.0013549217402935027,0.9347907868623733,0.18818148862235248
1761503548349678000,0.218677978515625,0.193492527577281,0.9567401683419943,0.3122595575813204
1761503548359734000,0.228734130859375,0.2142448082268238,0.9740513686269521,0.5286988801777363
1761503548369790000,0.2387900390625,0.06604921996891498,0.9339508289068936,0.8470256288435309
1761503548379846100,0.24884619140625,-0.11449264062047004,0.8451175301998853,0.6268665550716221
1761503548389902000,0.258902099609375,-0.10062485878765583,0.7231874330550432,-0.12439305319227277
1761503548399958000,0.2689580078125,1.1075608444064855,0.2040063228070736,-0.4402415751762688
1761503548410014200,0.27901416015625,1.7561171071082353,-1.0666291145592928,-0.874557267434895
1761503548420070100,0.289070068359375,1.8562761019498109,-1.7179741311967371,-0.8511118021786213
1761503548430126000,0.2991259765625,1.6147300298213958,-2.014838770443201,-0.4899767892040312
1761503548440182300,0.309182373046875,1.5140461343228817,-2.307607080286741,-0.18834142842441795
1761503548450238000,0.319238037109375,1.2511387097358704,-2.0228852987766266,0.24511633183062076
1761503548460294000,0.3292939453125,1.350855806028843,-1.5490151563733816,0.19922405696660278
1761503548470350000,0.33935009765625,1.5770540868997573,-0.9879606515139341,-0.12849588540121912
1761503548480406000,0.349406005859375,1.1522235774755478,-0.6317886677742004,-0.2089664294324815
1761503548490462000,0.3594619140625,1.2112737323373555,-0.4328121558278799,-0.3132704151242971
1761503548500518100,0.36951806640625,1.0978753166943789,-0.3961772463917732,-0.6689377372775226
1761503548510574000,0.379573974609375,0.5117974297374487,-0.6181885969668627,-0.9168355895854532
1761503548520630000,0.389630126953125,0.5226648607105017,-0.9062702102988958,-1.014975207428634
1761503548530686200,0.399686279296875,0.8647451907336712,-0.961712696057558,-1.1556564014684407
1761503548540742100,0.4097421875,1.2326561275839805,-0.7096370466083288,-1.3843372198700905
1761503548550798000,0.419798095703125,1.2252648482888937,-0.12177812145352362,-1.385572899144888
1761503548560854300,0.429854248046875,0.45851066070795055,0.09282324512600898,-0.9303419176947325
1761503548570910200,0.43991015625,-0.4503180019021034,-0.4668009346693754,-0.22380437147170304
1761503548580966000,0.4499658203125,-1.0550772084534168,-0.8930278668880463,0.861673820464313
1761503548591022000,0.46002197265625,-1.3686843081861733,-1.0011106404662131,2.1758993932321666
1761503548601078000,0.470078125,-1.5912854413479565,-0.8005927442967892,2.5721847761735317
1761503548611134000,0.480134033203125,-1.8417331973344087,-0.4769634322434663,2.106054288111627
1761503548621190100,0.490190185546875,-1.8727146110534667,-0.3023638211846351,1.4775392351806163
1761503548631246000,0.50024609375,-1.742435787758231,-0.35743279745578765,0.6834966431796551
1761503548641302000,0.510302001953125,-1.6539941187173126,-0.39339258410930633,-0.02397649425989948
1761503548651358200,0.520358154296875,-1.3152870645195245,-0.26047581352591515,-0.3901366510532796
1761503548661414100,0.5304140625,-0.9643763623088598,-0.1720031648248434,-0.34685295125246046
1761503548671470000,0.540469970703125,-0.7414888134211302,-0.10203823271691799,0.09600406711921096
1761503548681526300,0.5505263671875,-0.4824298809558153,-0.16959668820500373,0.6104455816246569
1761503548691582200,0.560582275390625,-0.18083645962178707,-0.3759603877931833,0.8163092227362095
1761503548701638100,0.57063818359375,-0.21870354120135305,-0.4958487499773502,0.7734289891697466
1761503548711695000,0.580695068359375,-0.1956178491681814,-0.6139174955189227,0.6912310368239879
1761503548721751300,0.590751220703125,-0.127844289624691,-0.5083563493728638,0.3729723118931055
1761503548731807000,0.600806884765625,-0.07254501172900199,-0.43481589686572547,0.04544876888021827
1761503548741863000,0.61086279296875,0.2021586491137743,-0.24628771369755267,-0.18128128077983854
1761503548751919000,0.620919189453125,0.5280880548030138,-0.09555354687273501,-0.3428358245655894
1761503548761975000,0.63097509765625,0.39692777249813077,-0.045695583248138424,-0.3022723435088992
1761503548772031000,0.641031005859375,0.20197861637175082,0.15448504379093647,-0.24682094379141925
1761503548782087200,0.651087158203125,0.3328039676338434,0.3877642228335142,-0.18594342737197875
1761503548792143000,0.66114306640625,0.47873102643787857,0.6644488283604383,0.05381445529856719
1761503548802199000,0.671198974609375,0.6451397322565317,0.8028279560029506,0.3041233782030642
1761503548812255200,0.681255126953125,0.8102250805169343,0.6619681174606085,0.5573081579379737
1761503548822311200,0.691311279296875,0.9411498005002736,0.4768120410740375,0.7317842887476086
1761503548832367000,0.7013671875,1.0213093788862229,0.5774152725517749,0.7008193877719342
1761503548842423300,0.71142333984375,1.3616396503716706,0.6750988171905279,0.5727173239938914
1761503548852479200,0.721479248046875,1.124117426931858,0.5999924305409192,0.48074046656414865
1761503548862535000,0.731534912109375,0.8848848924428224,0.4774386485397815,0.44321182315871116
1761503548872591000,0.741591064453125,0.8134598246544599,0.6201362239032984,0.4440321996308863
1761503548882647000,0.75164697265625,0.5638187088757753,0.5287397967100144,0.5654486481651664
1761503548892703000,0.761702880859375,0.6209533855050802,0.25205752927064895,0.8002394008144735
1761503548902759200,0.77175927734375,0.9234925632566213,0.2350356673210859,0.8427098845362663
1761503548912815000,0.781815185546875,0.8455617668360471,0.8856979623913764,0.8220373911246657
1761503548922871000,0.79187109375,0.5116834479689598,1.0484341171771288,0.8232112572096287
1761503548932927200,0.80192724609375,0.537974073523283,0.7893763537555932,0.7836169134460389
1761503548942983200,0.811983154296875,1.0397364314585924,0.7127671613276004,0.6823175163976848
1761503548953039000,0.8220390625,1.9773031127750873,0.7400608264446258,0.6185182673126459
1761503548963095300,0.83209521484375,0.5203174208015203,0.5298918893545865,0.1013426334018819
1761503548973151200,0.842151123046875,-0.15361352165341377,0.3572130172252655,0.40804830144941806
1761503548983207000,0.85220703125,0.2172381448239088,-0.2598386846661567,1.028422864153236
1761503548993263000,0.86226318359375,0.1779547667056322,-0.7066741051495075,1.3435963364198804
1761503549003319000,0.872319091796875,0.07301496732831,-0.8144447440385818,1.2140678931005298
1761503549013375000,0.882375,0.023196166670322416,-0.614773235565424,0.7725085133239626
1761503549023431200,0.89243115234375,-0.18791618874967098,-0.2686900996416807,0.2584521987438202
1761503549033487000,0.902487060546875,-0.3523141392678022,0.11770283483862876,-0.14576543850153684
1761503549043543000,0.91254296875,-0.20936989566683767,0.5671247646838427,-0.4851438160896301
1761503549053599200,0.92259912109375,-0.035628362742066384,0.8986217413723468,-0.6384471027500928
1761503549063655000,0.932655029296875,0.06499649604558945,0.8670826937705278,-0.4543308908052742
1761503549073710800,0.9427109375,-0.5589636700600386,0.47776422723233697,0.03249388237493112
1761503549083767000,0.95276708984375,-1.2390788541078568,0.007957096484303474,0.6158619075849652
1761503549093823000,0.962822998046875,-1.3971627991735935,-0.4836071080416441,0.7272387542724609
1761503549103879000,0.97287890625,-1.471980432009697,-0.8690800050675869,0.201202005976066
1761503549113935000,0.98293505859375,-1.1645926451832056,-0.9977052159368991,-0.799796625483036
1761503549123991000,0.992990966796875,-0.8339525775849819,-1.160199378660321,-1.9904747290372848
1761503549134047000,1.003046875,0.03984685721993446,-1.658896503806114,-2.620868435321748
1761503549144103200,1.013103271484375,0.7812655280143022,-2.115865780290961,-2.2982611597925424
1761503549154159000,1.0231591796875,0.1850730742782354,-2.286439789095521,-1.8364662167169152
1761503549164215000,1.033215087890625,-0.5917302136301994,-2.082076323413849,-1.2330362129427492
1761503549174271000,1.04327099609375,-1.0227712681323289,-1.8392524864345787,-0.8104464681826531
1761503549184328200,1.053328125,-1.007586558482051,-1.465234464880824,-0.6204742236860096
1761503549194384100,1.063384033203125,-0.8365642213881015,-1.0679816982120276,-0.47360681529194115
1761503549204439800,1.073439697265625,-0.8094529271006584,-0.8809662576943635,-0.4655201741438359
1761503549214496000,1.08349609375,-0.8085743907004594,-0.7770242371827364,-0.6318573490962386
1761503549224552000,1.093552001953125,-0.8215203815132379,-0.6198673438340425,-0.7934001293789595
1761503549234607900,1.10360791015625,-0.8383896832495927,-0.4926198510587215,-0.7393016055751591
1761503549244664000,1.1136640625,-0.961665934306383,-0.33481004675924775,-0.5613587485030294
1761503549254720000,1.123719970703125,-0.8997966303706169,-0.13349252464473246,-0.39440336858704683
1761503549264776000,1.13377587890625,-0.7557195833474397,0.20104922656714916,-0.2898072498145513
1761503549274832100,1.14383203125,-0.569024460825324,0.7093646594077349,-0.35639863210245964
1761503549284888000,1.15388818359375,0.02424947511553764,1.235516193190217,-0.35202114767059683
1761503549294944000,1.163944091796875,0.6643342620700597,1.6473030966460704,-0.16651348136737942
1761503549305000200,1.174000244140625,1.4142384371370076,2.0102391676932574,-0.07166324219210073
1761503549315056000,1.18405615234375,1.9824667791485786,2.1895599620550867,-0.09723580087125301
1761503549325111800,1.19411181640625,2.6501813313066958,2.1943816831231118,-0.06897431363537908
1761503549335168000,1.20416796875,2.408961422392726,2.0642332082092762,-0.07974909788891672
1761503549345224000,1.214223876953125,1.5197048907369375,2.2889023798167702,-0.28479572352916
1761503549355280000,1.22427978515625,0.9848194308787583,2.516040571886301,-0.4095060990422964
1761503549365336000,1.234336181640625,0.8400339433252811,2.7743460556358097,-0.267221780654788
1761503549375392000,1.24439208984375,1.0791098259478806,3.0871558675110338,-0.1794122355049476
1761503549385448000,1.254447998046875,1.459389830505848,3.2291841653108593,-0.09815894359815865
1761503549395503900,1.26450390625,1.8494179066181182,3.2333746027380226,0.01687324725911021
1761503549405560000,1.27456005859375,2.055771669334173,3.3612942956864833,0.3249866814790293
1761503549415616000,1.284615966796875,2.3174486753433943,3.39817178170681,0.49206192491501566
1761503549425672000,1.294671875,2.85659237716794,3.275112388271093,0.1577668419405818
1761503549435728100,1.30472802734375,2.7706869486063717,3.138569828405976,0.15504446777198463
1761503549445784000,1.3147841796875,2.306771213984489,3.363060136315226,0.12196253810971974
1761503549455840000,1.324840087890625,2.0788561923235656,3.410042836764455,-0.15677414110880344
1761503549465896000,1.33489599609375,1.6414321587860583,2.926065141844749,-0.23919527121856807
1761503549475951900,1.344951904296875,0.49206397074162955,2.2637971646547315,0.04050199666041881
1761503549486007800,1.3550078125,0.0638613545358181,1.5085288322061299,0.12952405940517783
1761503549496064000,1.36506396484375,0.280457694324851,0.9339508289068936,0.04842088002618402
1761503549506120000,1.375119873046875,0.294318461894989,0.3118161246627569,0.29758042283300307
1761503549516176000,1.38517578125,0.10667992104291915,-0.6266542274951934,0.9191786455802619
1761503549526232000,1.395232177734375,-0.7134849542081355,-1.8078613228708504,1.2414090506210922
1761503549536288000,1.4052880859375,-2.1469810495227573,-3.203386291709542,1.0399793003037572
1761503549546344000,1.415343994140625,-4.045433328422904,-4.495867065659165,0.8423189855225384
1761503549556400000,1.425400146484375,-6.738985014900565,-6.068890874129534,1.0608873560369014
1761503549566456000,1.4354560546875,-9.856399827075004,-7.706572740471363,1.547361836208403
1761503549576512000,1.445511962890625,-9.755992410430311,-8.671040872716903,2.7133327840074895
1761503549586568000,1.45556787109375,-9.340604852133989,-8.741459393811226,3.3209964798286555
1761503549596624000,1.465623779296875,-8.345972467771173,-7.714194905912875,2.7775007202744484
1761503549606679800,1.4756796875,-6.8598296548962585,-6.773322168788313,0.9842590205170214
1761503549616736000,1.485736083984375,-5.7418730886816975,-6.775825676041841,-1.312294896966219
1761503549626793000,1.49579296875,-5.136246451646089,-7.059670674717426,-3.280345612749457
1761503549636849000,1.505848876953125,-4.841646834722161,-6.816974263510107,-3.867472131976485
1761503549646904800,1.51590478515625,-5.161989964711665,-5.147746919825673,-2.94997325617671
1761503549656961000,1.5259609375,-5.902753386467695,-4.425328133055568,-1.0764254091694951
1761503549667017000,1.536016845703125,-4.959104754889011,-3.575033492478728,0.8295087499186397
1761503549677073000,1.546072998046875,-2.855935959085822,-2.6661428705483674,1.7738243209734559
1761503549687129000,1.556129150390625,-0.5736521206259727,-1.7722136709064245,1.394002581577003
1761503549697185000,1.56618505859375,0.9575830489069223,-0.5900993975579738,0.6361540233768522
1761503549707241000,1.576240966796875,1.9500871890693903,0.9580845686882734,-0.12632928195185958
1761503549717297200,1.586297119140625,3.1830852619588375,2.6922493717074394,-1.5322335329204797
1761503549727353000,1.59635302734375,4.277524758985638,3.7259938692748547,-2.1699628427900373
1761503549737408800,1.60640869140625,2.9076515332758426,4.315354431164264,-0.7564008436098695
1761503549747465000,1.61646484375,0.6731085201561451,4.851199675965309,1.5779871299661694
1761503549757521000,1.62652099609375,0.5649474206447601,6.138097681346535,2.4113448103979227
1761503549767576800,1.636576904296875,2.0327438449680804,8.062821296578646,2.237517937277257
1761503549777633000,1.646633056640625,2.0496032098323105,9.302674057668447,1.6432336552500724
1761503549787689000,1.65668896484375,2.0400211424946786,10.221590399050712,1.327174340059608
1761503549797745000,1.666744873046875,2.687484933784604,10.861101770031452,0.5312491491824388
1761503549807801000,1.676801025390625,3.6776965790957212,10.674405478465557,0.575579143165797
1761503549817857000,1.68685693359375,4.070539420367777,10.063637386888265,1.6168964140750466
1761503549827913000,1.696912841796875,4.023515511125326,9.31965909473896,2.63924492675066
1761503549837969200,1.70696923828125,5.529489398151636,8.777291170170903,1.1376786270335315
1761503549848025000,1.717025146484375,7.397903097140788,8.455167001983522,-0.885633372722566
1761503549858080800,1.727080810546875,8.455856153291464,10.409149444925784,-0.6053567340530455
1761503549868137000,1.737136962890625,8.081810074687004,11.83810906585455,-0.5269955833911896
1761503549878193000,1.74719287109375,6.3924278317242855,10.806531975454092,0.49263738671541213
1761503549888248800,1.757248779296875,4.521462694686651,9.906441915094852,1.3683790416292845
1761503549898305000,1.767304931640625,3.604472352930903,9.575822305762767,1.4733020360022782
1761503549908361000,1.77736083984375,3.5547839006543156,9.124611738935112,0.43530645686164493
1761503549918417000,1.7874169921875,3.176712804317474,8.88464562947452,-0.8491350952781737
1761503549928473000,1.79747314453125,-0.059335401543974875,11.547178492832183,-1.1552137722674756
1761503549938529000,1.807529052734375,-0.4472983618199825,8.698829043352603,0.1625182742513716
1761503549948585000,1.8175849609375,1.377290223968029,5.209810869550704,1.3679608162172139
1761503549958641200,1.82764111328125,4.423459416574239,5.466434099301695,0.997109076674655
1761503549968697000,1.837697021484375,6.383359559127688,5.498488695210218,0.030942469948157667
1761503549978753000,1.8477529296875,8.845926314979792,3.3334757299125193,-1.2662863022461532
1761503549988809000,1.85780908203125,7.081830484077334,0.09716682728826999,-0.928094942485541
1761503549998865000,1.867864990234375,4.2013013510048385,-6.642635933735966,0.9768656953953206
1761503550008920800,1.8779208984375,2.6018498465970157,-16.92341794194579,3.758689685696363
1761503550018977000,1.88797705078125,-1.4117594798028468,-21.549294950830934,1.9064700195305049
1761503550029034000,1.898033935546875,-4.8476650720983745,-24.073730426096915,1.1759332466259598
1761503550039090000,1.90808984375,-7.644699344882369,-24.72246087632179,0.5351715102579444
1761503550049145900,1.918145751953125,-6.105113695633411,-23.33128007416725,-0.3583543327474966
1761503550059202000,1.9282021484375,-3.741241707289219,-23.80174537656307,-1.9781676206499337
1761503550069254400,1.93825439453125,-5.312069467020034,-24.7888391821146,-2.728126740774512
1761503550079310300,1.948310302734375,-10.649327151310443,-26.040936507749556,-1.6644683125890791
1761503550089366500,1.958366455078125,-13.644250140804052,-27.19260829656124,0.40373716025203465
1761503550099422500,1.96842236328125,-12.557537438637018,-26.99321618955135,2.4142123286582526
1761503550109478400,1.978478515625,-12.568204963123797,-26.50009248062372,2.6122435225784777
1761503550119534300,1.988534423828125,-13.805006519949435,-25.22313894615173,2.5776962330713866
1761503550129590300,1.99859033203125,-11.113058761537074,-18.679393010234833,2.46729086176455
1761503550139646200,2.008646240234375,-7.734881135588884,-9.774047122558951,0.11274817157331854
1761503550149702400,2.018702392578125,-5.365195492529868,-2.300757068261504,-2.759880892431736
1761503550159758300,2.02875830078125,-3.9696582487314935,2.244418510445952,-2.923939235731959
1761503550169814300,2.038814208984375,-1.9996463158778846,4.899097153171897,-1.939305975075066
1761503550179870500,2.048870361328125,-0.6136538761466741,6.892879691582918,-0.2983905336394906
1761503550189926400,2.058926513671875,0.7575624347351491,6.281105053311586,1.4456589729256928
1761503550199982300,2.068982421875,0.000030249007791280744,2.117667861276865,2.421810967093706
1761503550210038500,2.07903857421875,-3.627376843178272,0.49879824743270873,3.0118963361263273
1761503550220094500,2.089094482421875,-3.837104466241598,2.55496446904242,2.653668588900566
1761503550230150400,2.099150390625,-3.3676632461965084,5.344961098274588,2.497083065699041
1761503550240206300,2.109206298828125,-2.6014491568416354,7.606260600894689,1.739455602903664
1761503550250262300,2.11926220703125,-0.7540940279722214,9.691981418290734,-0.26550072901584204
1761503550260318200,2.129318115234375,0.7786106295913457,12.085564069765805,-2.3427923754364253
1761503550270374400,2.13937451171875,2.4370599741518495,14.750111780077217,-3.4749247665196656
1761503550280430300,2.149430419921875,2.7837609497129914,16.068752246677874,-3.2988506989940998
1761503550290486300,2.159486328125,2.960367224419117,16.981001531386376,-2.0369789983198046
1761503550300542500,2.16954248046875,2.928585600233078,17.11085190013647,-0.986537267647311
1761503550310598400,2.179598388671875,2.122075156325102,16.305950060468913,-0.007444872645847499
1761503550320654300,2.189654296875,1.1967477788567542,15.663786129152774,0.9049281480401754
1761503550330710500,2.19971044921875,2.229734151533246,13.023835099959372,2.753205652451515
1761503550340766500,2.209766357421875,1.6318132665693759,11.082526845151186,3.5441163761675356
1761503550350822400,2.219822509765625,-0.5254852153608575,10.936125154572725,2.1871688291348517
1761503550360878600,2.229878662109375,-1.3500743002623319,9.34289500889778,1.2567056962132452
1761503550370934300,2.239934326171875,-1.236777006906271,7.84867293446362,0.4576585739232599
1761503550380990200,2.249990234375,-0.3258277354130521,6.860309547367692,-0.4569251450821757
1761503550391046400,2.26004638671875,0.9847930543284863,6.460299590945244,-0.9506268000282346
1761503550401103400,2.270103271484375,2.0512533151268957,7.324384856465459,-1.035601377480477
1761503550411159300,2.2801591796875,2.479630118855834,8.533750124832988,-0.40245983379259703
1761503550421215200,2.29021533203125,1.6809733110576868,9.19461115783453,0.12243585470989346
1761503550431271400,2.300271484375,0.9075327775806188,10.32469070804119,0.13673150656595826
1761503550441327400,2.310327392578125,0.7693564790338278,11.159795962792634,0.14045856426507233
1761503550451383300,2.32038330078125,1.1839905886143445,12.154129656469822,-0.006237433084845543
1761503550461439500,2.330439453125,1.6096014347612857,13.102069847762584,0.06753346717730165
1761503550471495400,2.340495361328125,0.917773674153164,13.096093695962429,0.47981443776041266
1761503550481551400,2.35055126953125,0.36577041769027707,12.714662767803668,0.6780351629033684
1761503550491607600,2.360607666015625,-0.9216659323513507,11.452696374583244,0.8350343814723193
1761503550501663500,2.37066357421875,-2.394067220121622,8.92237301032245,1.0699290328875184
1761503550511719400,2.380719482421875,-2.9732758058309554,7.178895604556798,0.7653479740448296
1761503550521775400,2.390775390625,-3.0296845062732696,6.858872208040952,-0.15363441831097005
1761503550531831300,2.400831298828125,-3.0596289781600237,7.070542197343706,-0.7396497614257037
1761503550541887200,2.41088720703125,-2.6460680507689713,7.524773573297262,-1.0096746168024837
1761503550551943400,2.420943359375,-1.7785370287090538,7.471119139999151,-0.7117198442317545
1761503550561999400,2.430999267578125,-2.9336890608519313,6.335597690999507,0.0657717273349408
1761503550572055300,2.44105517578125,-2.065079888166487,0.3095464261651039,1.1944636134423314
1761503550582111200,2.451111328125,0.28529183648303147,-9.254277398768068,2.243188822520524
1761503550592167400,2.46116748046875,4.2473903174847365,-18.129661863422392,1.8470256046541034
1761503550602223400,2.471223388671875,3.316515827283263,-26.075900269103048,1.1392122663415967
1761503550612279300,2.481279296875,1.5010181643150746,-33.374380868983266,2.2658966211520135
1761503550622335500,2.49133544921875,0.1009048447728157,-35.12644314774275,1.6559985904075205
1761503550632391400,2.501391357421875,-0.3124877403140068,-35.48514552674293,-0.892582461208105
1761503550642447400,2.511447265625,-1.8378801751680671,-35.66991757224798,0.2624000961193815
1761503550652503300,2.52150341796875,-3.2623663039445874,-32.88231163754463,2.8339243260249494
1761503550662559200,2.531559326171875,-3.602719371783733,-25.827403647184372,1.8082655197575688
1761503550672615200,2.541615234375,-3.376456793504953,-21.552647768390177,2.812880076691508
1761503550682671400,2.55167138671875,-2.4160199626021086,-20.308801553750037,4.167064442621172
1761503550692727300,2.561727294921875,0.29096111429110166,-20.02173583946228,2.9488422063201662
1761503550702783200,2.571783203125,-0.32997415103539823,-17.80713203704357,0.8463770287416875
1761503550712839400,2.58183935546875,-1.0771772504501045,-16.079198821890355,-1.074823234669864
1761503550722895400,2.591895263671875,0.7123603340923785,-15.526912145376205,-4.616829779076576
1761503550732951300,2.601951416015625,1.9799526043705642,-12.387999202620982,-7.9420333552062505
1761503550743007500,2.612007568359375,3.3388480706006285,-8.547246735265851,-7.62796740579009
1761503550753063400,2.6220634765625,3.190277219289541,-3.841742647436261,-5.295445079955458
1761503550763120400,2.632120361328125,0.823271609094739,1.0242898560017346,-2.786004929247498
1761503550773176300,2.64217626953125,4.9921734962761395,4.806583704647421,0.7893800070174037
1761503550783232500,2.652232421875,6.468900246030092,7.756873771688341,3.717478846646845
1761503550793288400,2.662288330078125,2.9633295813560485,10.931133337634801,6.313515623050928
1761503550803344100,2.67234423828125,-1.5736112529695032,10.927132869821786,5.88541822078526
1761503550813400300,2.682400390625,-5.38361962249279,11.868006191468238,3.9499376492172478
1761503550823456300,2.692456298828125,-7.094998008686304,10.434705910986661,2.6184990758419033
1761503550833512200,2.70251220703125,-9.461909510856866,10.250666855931282,0.5409091040618718
1761503550843568400,2.712568359375,-9.43038390725851,11.781588137209415,-1.7719959365025162
1761503550853624300,2.722624267578125,-7.853253832513094,12.277122414410114,-2.3122630893990395
1761503550863680300,2.73268017578125,-4.903586865806579,11.615338421344756,-1.967536336520314
1761503550873736400,2.742736328125,-2.111807298680395,10.92533604953289,-1.104606816906482
1761503550883792400,2.75279248046875,-2.4483703265868124,10.479069953370093,0.41045565485209223
1761503550893848300,2.762848388671875,-3.859688053971529,10.607391212856768,1.2535910713240503
1761503550903904500,2.772904541015625,-2.954460046201944,9.795057177361846,2.02461738326624
1761503550913960400,2.78296044921875,-2.35292856952548,9.12896175083816,2.1174057032093403
1761503550924016000,2.79301611328125,-2.99823956669569,8.699593013462424,1.3461726166486738
1761503550934072300,2.803072265625,-2.5448002179026603,8.84872617483139,0.32735008614212274
1761503550944128300,2.813128173828125,-1.073074710502103,8.825366342031955,-0.8380041910633445
1761503550954184200,2.82318408203125,-0.1066133586127311,9.720535897123813,-1.2869737009659408
1761503550964240400,2.833240478515625,0.3957504723470658,10.946881526386738,-1.236105391255021
1761503550974296300,2.84329638671875,-0.09225508984923363,12.029846274197102,-1.6772718261912465
1761503550984352300,2.853352294921875,0.48077045984361316,12.250568754005432,-2.037848766891658
1761503550994408400,2.863408447265625,0.5038204595088959,12.128742701756954,-1.4829463549211621
1761503551004464400,2.87346435546875,-0.5272749848544598,12.05672375972867,-1.12774117038697
1761503551014520300,2.883520263671875,-1.71642105653584,10.884908177554607,-0.6555550355479121
1761503551024576500,2.893576416015625,-2.493783147370815,9.992446127855777,0.2509367085471749
1761503551034632400,2.903632568359375,-1.2401099507212638,9.398779393205047,1.0004863710880278
1761503551044688400,2.9136884765625,-0.5058288767218589,9.43821766962409,1.2269643456831574
1761503551054744300,2.923744384765625,0.1311305082211271,10.138707533180714,1.0625389226362107
1761503551064800300,2.93380029296875,1.3922235892057417,11.597489460921286,0.3814090085878968
1761503551074856200,2.943856201171875,2.156719184204936,12.726086663615703,-0.3263543531030416
1761503551084912400,2.953912353515625,1.8253361892849207,13.094999470984934,0.12981237482726574
1761503551094969300,2.96396923828125,0.5549445706117898,12.511948238372803,0.759932232606411
1761503551105025300,2.974025390625,-0.3948263432394713,10.984646316635608,0.8470049513816833
1761503551115081200,2.984081298828125,-1.400858146560192,8.748457289874553,0.9198866477191447
1761503551125137400,2.994137451171875,-1.8835623144127427,5.818989061588049,0.4121732724249363
1761503551135193300,3.004193359375,-1.9348627319306133,3.369670494365692,-0.06661532941907644
1761503551145249000,3.0142490234375,-1.7313164278507231,0.7980635180801152,-0.3365770564317703
1761503551155305200,3.02430517578125,0.03394567035213113,-2.373377483314276,0.343694487221539
1761503551165361200,3.034361083984375,3.445808562150597,-6.350926193034648,2.2668410623952746
1761503551175417000,3.0444169921875,7.008167866495251,-12.59783320866823,2.662512989613414
1761503551185473300,3.054473388671875,7.0616522039234635,-20.27472158949375,1.3959262431159614
1761503551195529200,3.064529296875,4.92669301610589,-26.095493442845342,-0.4178706072837114
1761503551205585200,3.074585205078125,-0.40530864735245703,-34.25452587342262,-1.174507889997959
1761503551215641300,3.084641357421875,-1.1983749416671692,-37.3636469045043,-1.8922528397381304
1761503551225697300,3.094697265625,1.565029302585125,-33.29313232631683,-0.7866121497392654
1761503551235753200,3.104753173828125,-2.2861492817163467,-28.844845927000044,1.0999743348002433
1761503551245809400,3.114809326171875,-2.899493361261487,-26.84558700300455,1.3588231316462158
1761503551255865300,3.124865234375,-0.9221739549387246,-27.85710447119474,1.0442819659337401
1761503551265921000,3.134921142578125,-2.5896716252863405,-28.500356782269478,0.973072294461727
1761503551275977200,3.144977294921875,-4.563918857622147,-26.173412548828125,0.19901596717387438
1761503551286033200,3.155033203125,-6.395676019865274,-22.887824359250068,-1.294717154699564
1761503551296089000,3.165089111328125,-7.254172671598195,-17.96096183179617,-3.471227373306453
1761503551306145300,3.175145263671875,-5.877749878114462,-11.072038184362649,-3.725341250585019
1761503551316201200,3.185201171875,-1.8519272590905427,-5.790627474978566,-2.469338734205067
1761503551326257200,3.195257080078125,2.1971195836544037,-0.6305483123242854,-0.9334674293041229
1761503551336313300,3.205313232421875,4.990232299080491,2.8434190073400734,0.2747697118163109
1761503551346369300,3.215369384765625,5.968202302455902,3.853413796007633,0.7665034276902675
1761503551356425200,3.22542529296875,4.591033659040928,3.3945173508524893,1.690775158625841
1761503551366481400,3.2354814453125,0.42231772288568314,-1.097492454856634,2.2005936895057556
1761503551376537300,3.245537353515625,-2.9983897888213393,-2.4186580560207367,1.3663120260968804
1761503551386593300,3.25559326171875,-2.246591762831807,-0.7882219230234623,-0.8742053852573036
1761503551396649200,3.265649169921875,0.12145312728285788,-0.08366670972406863,-0.7777306318864226
1761503551406705200,3.275705078125,0.39596740303337574,4.857074120956659,-0.08098225641306489
1761503551416761000,3.285760986328125,0.630541882583499,11.445862144649029,-0.11900043690111488
1761503551426817300,3.2958173828125,0.7265420041799545,17.0244817766726,-0.16995350228603928
1761503551436874200,3.305874267578125,0.5026701569626107,19.258768769204615,0.25287260851319876
1761503551446930200,3.31593017578125,-0.3062567369699478,17.922225566166638,0.8246326683148741
1761503551456986000,3.325986083984375,-1.5165478880107401,16.405771201658247,0.5730381169134751
1761503551467042300,3.336042236328125,-2.902801170635223,15.511508824539183,0.4527753319263458
1761503551477098200,3.34609814453125,-5.0305391750276085,14.985261429166792,0.46331722073946147
1761503551487154200,3.356154296875,-6.8931041479885575,13.883573276185988,0.3946563569674268
1761503551497210400,3.36621044921875,-6.916597251778841,12.9903267981112,0.7383825179688632
1761503551507266300,3.376266357421875,-5.014949976229667,12.529067715477943,0.8768161522775888
1761503551517322200,3.386322265625,-3.0094343299269672,12.063954295504093,1.0985572345439345
1761503551527378400,3.39637841796875,-2.3764134900093077,11.321866347146033,1.1760201942570507
1761503551537434400,3.406434326171875,-1.7372797201693058,10.158080926692485,0.5546357238583266
1761503551547490000,3.416489990234375,-1.2225994284719228,8.962335018354654,-0.1792887917883694
1761503551557546200,3.426546142578125,-1.0501087723910807,8.505929805493354,-0.600664338453114
1761503551567602200,3.436602294921875,-0.6766419549793005,8.835059468528629,-1.0715161559484898
1761503551577658000,3.446658203125,-0.4105828248957172,9.887028774094581,-1.1333288343261927
1761503551587714300,3.45671435546875,-0.8732861515205353,10.998719265651703,-0.5792355467814951
1761503551597770200,3.466770263671875,-0.8877893817126751,12.073631639909744,0.26386684420369566
1761503551607826200,3.476826171875,-0.2720142025630921,12.671660661423205,1.075084150628373
1761503551617882400,3.48688232421875,0.5214677598804235,13.048950836515425,1.8349135804474352
1761503551627938300,3.496938232421875,1.2586299422740936,13.88360600941181,2.1224586026847363
1761503551637994200,3.506994140625,1.6529261972248552,14.152477895361184,1.556743120276928
1761503551648050400,3.517050537109375,1.1961064122132956,13.412276783663033,0.9543777500595897
1761503551658106400,3.5271064453125,0.5300526328742504,10.830428399348259,1.2283894100502133
1761503551668162300,3.537162353515625,0.3560318446166813,6.808956961271166,2.090612096568942
1761503551678218200,3.54721826171875,0.3282476195037365,3.8161739064157008,3.1719325843036175
1761503551688274200,3.557274169921875,1.1643190889388322,2.6543133165448904,3.7747722209692
1761503551698330000,3.567330078125,1.5205848884418607,2.5657296086847783,3.215960818861425
1761503551708386300,3.57738623046875,0.6201058287650346,3.296452697941661,1.8862252500116825
1761503551718443300,3.587443359375,-1.6518201356790958,2.3815181196719406,0.07002444374281913
1761503551728499200,3.597499267578125,-3.2008710940182206,-1.0421826555669307,-0.7508237741298973
1761503551738555100,3.60755517578125,-0.9919847924634814,-4.2648897338181735,0.15676022218130528
1761503551748611300,3.617611328125,4.395781428314745,-7.222095863857865,0.9635711103405803
1761503551758667300,3.627667236328125,6.288336173608899,-9.377243268701434,1.4611181156031787
1761503551768723200,3.63772314453125,4.522000747086108,-17.870625142788885,2.5155638942852616
1761503551778779400,3.647779296875,-1.7574141611814498,-22.52173362356424,1.3443753579683602
1761503551788835300,3.65783544921875,-4.639471818995475,-23.952972879862784,-0.40200558721907437
1761503551798891300,3.667891357421875,-6.443904920983314,-28.215795159757135,-1.7499042239427565
1761503551808947200,3.677947265625,-6.377804847609997,-31.359379601454734,-3.1408772285655138
1761503551819003400,3.68800341796875,-7.981507287460565,-34.68653431165218,-2.958435379573703
1761503551829059000,3.69805908203125,-9.220466899102925,-37.845197080016135,-0.8098151845417916
1761503551839115300,3.708115234375,-7.055082177883386,-37.92483234226703,-0.5862630342654883
1761503551849171200,3.718171142578125,-5.344992662456631,-32.193366081309314,-1.8925152900665998
1761503551859227100,3.72822705078125,-1.5542137479297815,-23.451958125424383,-3.306849296532571
1761503551869283000,3.738282958984375,4.0865491826653475,-14.82713189139366,-3.3788325827255843
1761503551879339300,3.74833935546875,6.055605276098847,-6.961323113211989,-2.243547572830319
1761503551889395200,3.758395263671875,7.010781848385929,-2.2865303899884224,-1.3555585768923162
1761503551899451100,3.768451171875,7.517749958270787,-3.845442670997977,0.2765177610600367
1761503551909507300,3.77850732421875,7.461676773393154,-5.333454200354218,3.4010300937473774
1761503551919563300,3.788563232421875,3.7918285697102543,-5.538461809158325,3.669102353751659
1761503551929619200,3.798619140625,-2.0734696769796312,-4.63827004199028,0.7368127844341099
1761503551939675400,3.80867529296875,-2.9717753381401297,-6.041346449121832,-0.9341850760541855
1761503551949731000,3.81873095703125,-5.878098837682605,-1.2237538592040538,-1.2879008988134562
1761503551959787000,3.828787109375,-3.89208050353229,4.17613885269761,0.39637466866001486
1761503551969843200,3.83884326171875,-2.0166741691768166,7.124050500169396,1.7952568389721213
1761503551979899100,3.848899169921875,-3.56773807477355,10.392677618074417,3.066215370813012
1761503551989955000,3.858955078125,-5.896508354598283,11.069189224672316,2.804937008732557
1761503552000011300,3.86901123046875,-6.692199298328161,11.95198328231573,0.06866100990250706
1761503552010068200,3.879068115234375,-6.2012675464868545,14.200129288852214,-2.4579256520479915
1761503552020124200,3.889124267578125,-5.119503406637906,15.264993731826543,-3.0561189242124556
1761503552030180000,3.89918017578125,-4.911795891225338,15.219046804165838,-2.291551140759885
1761503552040236300,3.909236328125,-3.665546122574806,13.729102845442295,-1.2703992905229329
1761503552050292200,3.919292236328125,-3.9069162536144253,12.453818705487251,-0.16506167512387035
1761503552060348200,3.92934814453125,-4.215534459018707,12.10998773240447,0.25596816337574274
1761503552070408200,3.939408203125,-3.3929414798378943,11.901618538212775,0.2247991181300953
1761503552080464100,3.949464111328125,-1.6855249830126762,11.284662697911262,0.05098114070193842
1761503552090520000,3.95952001953125,-0.6463374906737357,10.458462049627304,-0.0030128450151532885
1761503552100576300,3.969576171875,-0.20710666344258932,9.517825459346176,-0.19180716830622405
1761503552110632200,3.979632080078125,0.035973742113634945,8.830383877933025,-0.5011701641958206
1761503552120688000,3.989688232421875,0.11998480829596518,9.117934745389222,-0.7252794368982315
1761503552130744300,3.999744384765625,-0.10856558865904807,9.494343461471795,-1.2736926329798997
1761503552140800000,4.009800048828125,-0.2844178666600957,10.014213723027705,-1.6351904879175125
1761503552150856000,4.01985595703125,-0.6027753392577171,11.654426569151878,-0.721766460341215
1761503552160912100,4.029912109375,-1.0333201346755028,12.429808884346484,0.6236603794414549
1761503552170968000,4.039968017578125,-1.4507552731513975,12.91639997663498,1.5478800148636103
1761503552181024000,4.05002392578125,-1.4965712679088115,13.173749767094849,2.1670992700524625
1761503552191080200,4.060080078125,-1.4083201530039309,12.390948700076342,2.7171666630819438
1761503552201136000,4.07013623046875,-1.3581822033941744,11.521555391275882,3.06472717808187
1761503552211192000,4.080192138671875,-1.843047202542424,11.261569407093525,2.950376576280594
1761503552221248300,4.090248291015625,-1.848634647285938,11.552224085783958,1.9466341260060667
1761503552231304200,4.10030419921875,-0.6287006386309861,12.20392858338356,0.9555150104612111
1761503552241360100,4.110360107421875,0.8087509163111448,12.180868025791645,0.47239656271934505
1761503552251416300,4.120416259765625,1.2016327013541013,10.892011287558079,0.6501756805971265
1761503552261473300,4.130473388671875,0.2300263147264719,8.790710623714327,1.5256960939757525
1761503552271529200,4.140529296875,-0.7705296144664288,5.41782350538969,1.9246780225247144
1761503552281585200,4.150585205078125,-1.726855356788635,2.4518179828226563,1.0697148056149481
1761503552291641000,4.16064111328125,-2.482541037866473,0.7714420531362295,0.19717008357886223
1761503552301697000,4.170697021484375,-1.6456839710116384,-1.1125491542130708,-0.768597915751487
1761503552311753000,4.1807529296875,0.231907890689373,-2.5138088673114773,-1.506150997158885
1761503552321809200,4.19080908203125,2.414926322146505,-3.900896847194433,-1.323318979805708
1761503552331865000,4.200864990234375,5.11050819927752,-6.20791472941637,-1.4327370936408639
1761503552341921000,4.210921142578125,7.2511238054215905,-9.510622396099567,-1.6037006862848997
1761503552351977200,4.220977294921875,4.897749245694279,-13.7879887496531,-1.521315540803969
1761503552362033200,4.231033203125,1.51206738159582,-20.478801562058923,-0.17608930162731556
1761503552372089000,4.241089111328125,-1.360105864933133,-26.339175942480562,0.5150713368415832
1761503552382145300,4.251145263671875,-0.655403205987066,-29.30629556376934,-1.2235662276774644
1761503552392201200,4.261201171875,-1.327965198176354,-29.051967751479147,-1.6729229833319783
1761503552402257200,4.271257080078125,-5.809304702919722,-28.13919239706993,-0.917181407348439
1761503552412313300,4.281313232421875,-8.574555013430118,-28.49264576950073,-0.7242500207852571
1761503552422369000,4.291369140625,-6.326383872452378,-28.027499616301057,-1.8115180918127298
1761503552432425000,4.301425048828125,-4.420097246664763,-26.125449020648002,-3.829076058086753
1761503552442481200,4.311481201171875,-2.3048428762704134,-24.17335166079998,-5.0816901010721915
1761503552452537000,4.321537109375,2.8404169029146433,-20.611326702976225,-4.927323715224862
1761503552462593000,4.331593017578125,7.539658423218131,-16.581946099209784,-4.229790947908163
1761503552472649200,4.341649169921875,9.977400534415244,-13.85037593998313,-2.7779180689036846
1761503552482705200,4.351705078125,7.963813809859753,-10.448000276845693,-0.10240969637781382
1761503552492761000,4.361760986328125,4.6965451208263636,-8.547685711205006,2.1950018608480693
1761503552502817300,4.3718173828125,1.5455892735779284,-8.447579323333501,2.4742875887840983
1761503552512873200,4.381873291015625,-1.8952502679884433,-6.657652301082015,0.3094675157099962
1761503552522930200,4.39193017578125,-3.154590404358506,-3.6637154000163075,-2.061524095381051
1761503552532986000,4.401986083984375,-2.5666870555400845,-0.4910550859600305,-2.584029235485196
1761503552543042300,4.412042236328125,-1.5170727886676787,4.207892419832945,-1.9027371166124938
1761503552553098200,4.42209814453125,-2.1355542311012745,8.573343884074687,0.10321556940060109
1761503552563154200,4.432154296875,-3.2943922582805154,11.48591709166169,1.4278263791151344
1761503552573210000,4.442210205078125,-4.135978691744804,13.31052905832529,1.897913934239745
1761503552583266000,4.45226611328125,-5.003833538931608,15.563842238366602,1.8518166383229195
1761503552593322000,4.462322021484375,-5.3272191053569315,17.254562451934813,1.724394665763527
1761503552603378200,4.472378173828125,-4.682946219062805,15.653560503214596,1.543874286353588
1761503552613434000,4.48243408203125,-4.502179317545891,12.537152822256088,1.4526627142079174
1761503552623490000,4.492489990234375,-4.718501516568661,9.911613764774799,1.361398535092175
1761503552633546200,4.502546142578125,-4.520008404225111,8.086391557258366,0.9062344083331525
1761503552643602200,4.512602294921875,-3.336400677448511,8.174328199386597,0.2918721281887963
1761503552653658000,4.522658203125,-1.085618550254777,8.783464305847883,-0.2644142854860052
1761503552663714000,4.532714111328125,0.4025858713250607,9.431604973486065,-0.5588579811958596
1761503552673770200,4.542770263671875,1.1012708043515682,9.683756026259065,-0.6822597948610782
1761503552683826200,4.552826171875,0.7512976021867245,9.606877369239927,-0.9660855043143033
1761503552693882000,4.562882080078125,-0.34590025363750754,9.902018253433704,-0.6455909831553697
1761503552703938000,4.57293798828125,-3.0536043110430238,10.021918890577554,0.578852867606841
1761503552713994000,4.582993896484375,-4.431854319953918,10.316927088302373,1.4066598185762762
1761503552724050000,4.5930498046875,-3.261315333586931,11.624622967040539,0.6514597290582954
1761503552734106000,4.603106201171875,-2.011076787561178,12.785406283068657,-0.2751881929567084
1761503552744163000,4.6131630859375,-1.9871125591278076,13.272690618318318,-0.24822101984769104
1761503552754219000,4.623218994140625,-2.383150689309835,13.366689921486376,0.11324874150659889
1761503552764275200,4.633275146484375,-3.1056898875892163,13.075827153003216,0.7263412209108472
1761503552774331100,4.6433310546875,-3.652845630955696,13.257231183379888,1.3756047550991177
1761503552784387000,4.653386962890625,-3.0959505838632584,13.718971912050247,1.5308040846392512
1761503552794443000,4.663443115234375,-1.8757003488659858,14.548279878699779,1.4546253925830126
1761503552804499200,4.673499267578125,-0.3509539568305015,14.85574073076248,1.0098407671496272
1761503552814555100,4.68355517578125,0.5545663118839264,13.17052203722,0.4944201784789562
1761503552824611000,4.693611083984375,0.5814093471566215,10.129839167070388,0.3607806831115857
1761503552834667300,4.703667236328125,-0.2246784508924931,5.9490136178612705,0.204367593867518
1761503552844723000,4.713722900390625,-1.086069801153615,3.012047727295756,0.38436080759819596
1761503552854779000,4.72377880859375,-0.7923644296556711,2.225930083075166,0.579548777449131
1761503552864835000,4.7338349609375,0.4840379737395793,2.434147886097431,0.8993813275679945
1761503552874891000,4.74389111328125,1.677486199594289,3.208222041302919,0.9956498177770524
1761503552884947000,4.753947021484375,2.1848738500654696,4.213506752583385,0.5144114116281271
1761503552895003100,4.764003173828125,1.4841723895847796,4.577950890105963,-0.05625612196279689
1761503552905059000,4.77405908203125,1.7320856586575508,2.716561975187063,-0.4914867553755641
1761503552915115000,4.784114990234375,2.5792916855692862,-2.3156068468689917,-1.053946450857818
1761503552925171200,4.794171142578125,2.1378426342993975,-9.371727135628461,-1.2140940504550932
1761503552935227100,4.80422705078125,0.6028863984167575,-16.411188550531865,-1.7344652472704647
1761503552945283000,4.814282958984375,-1.6608511450052261,-22.50519165408611,-1.8889736719369887
1761503552955340000,4.824340087890625,-2.5475489320889113,-25.358490834927558,-2.145140390092134
1761503552965396200,4.834396240234375,-2.694682151812315,-27.584750003826617,-2.028664174439013
1761503552975452200,4.8444521484375,-3.4776872169703243,-29.407352384233473,-0.7934744367241859
1761503552985508000,4.854508056640625,-3.9683120948195456,-28.43686835269928,-1.554051689235866
1761503552995564300,4.864564208984375,-5.895029514217376,-27.174983792543408,-2.150858767738938
1761503553005620000,4.874619873046875,-5.667158916220068,-24.74226915411949,-2.361058830619603
1761503553015676000,4.884676025390625,-2.9872482170820236,-23.025350669455527,-2.5790707362949847
1761503553025732000,4.894732177734375,-2.701091726593673,-24.148016144013404,-1.6239843265093863
1761503553035788000,4.9047880859375,-2.515676999270916,-23.736166696715355,-1.1387180530838668
1761503553045844000,4.914843994140625,-1.1330698180638252,-20.500688399696347,-2.0322659983232616
1761503553055900200,4.924900146484375,0.5167652812778949,-17.56261250206232,-2.002747935155034
1761503553065952800,4.934952880859375,2.0253286002755164,-14.707655617141723,-1.2514590277314186
1761503553076008700,4.9450087890625,2.521000824642181,-11.298307776904105,-0.719340109977126
1761503553086065000,4.95506494140625,2.4515796440221367,-6.5838681029468775,-0.08434347647447138
1761503553096120800,4.965120849609375,2.5077894608914852,-2.613449975758791,0.21718261524438856
1761503553106176500,4.975176513671875,3.117995242410898,0.385547131305933,0.1509721037665382
1761503553116232700,4.985232666015625,2.1485487372308967,3.4277813225507736,0.20764730965793132
1761503553126288600,4.99528857421875,-0.40792025462295856,5.501481447285413,0.38414694565180685
1761503553136344600,5.005344482421875,-3.0459003125369546,7.817271249505877,1.48888100566715
1761503553146400800,5.01540087890625,-4.167791295590996,9.564097381177543,2.3849597845584154
1761503553156456700,5.025456787109375,-2.926242251977324,10.208047026866673,1.9317501528680323
1761503553166513700,5.035513671875,-1.9236188688606022,10.103816252541542,0.936351606438309
1761503553176569600,5.045569580078125,-1.460997265702486,10.155991845458745,-0.13183372458703815
1761503553186625800,5.055625732421875,-1.0910779116392135,10.303942519044876,-1.2474027380779384
1761503553196681700,5.065681640625,-1.5189187087953089,9.914106166112422,-1.547191009686142
1761503553206737700,5.075737548828125,-3.0107471660912033,9.05137757589817,-0.49489597929716106
1761503553216793900,5.0857939453125,-4.528021030288935,9.210354085889458,0.48710992853082713
1761503553226849800,5.095849853515625,-3.5414661539196968,9.123428666630387,0.9504273319333791
1761503553236905700,5.10590576171875,-2.338492047894001,8.72910143201947,1.2207830266997217
1761503553246962000,5.1159619140625,-2.543086399722099,9.063678254544735,1.2174171304631978
1761503553257017600,5.126017578125,-2.671854233932495,9.619767830473185,0.7098224131125956
1761503553267073500,5.136073486328125,-2.2033681226551534,10.589198553562163,0.3125336618149653
1761503553277129700,5.146129638671875,-1.8140087395846842,11.683503026032447,0.017991328036226332
1761503553287185700,5.156185546875,-1.9823814389526844,12.38897184704542,-0.2272173582529649
1761503553297241600,5.16624169921875,-3.127775462669134,12.80205346648693,-0.050744500668160615
1761503553307297800,5.1762978515625,-4.461458015578985,13.304237264704703,0.272100127280876
1761503553317353700,5.186353759765625,-4.837784898597001,13.81945005584359,-0.10737469837404787
1761503553327409700,5.19640966796875,-4.271809888470172,14.399685061991214,-0.9611891836401074
1761503553337465900,5.2064658203125,-3.457449315583706,14.493498487198352,-1.488502235482633
1761503553347521800,5.216521728515625,-3.01979907207489,13.822773647308349,-1.3074110704474151
1761503553357577700,5.22657763671875,-2.3116180694937705,12.57304948054552,-0.6061268416427076
1761503553367634700,5.236634765625,-1.7335481324255466,11.25984039134383,0.08897855239659547
1761503553377691000,5.24669091796875,-1.4634966813027859,10.06831005487442,0.8644524183321743
1761503553387746800,5.256746826171875,-1.8151877202361821,9.612243280187249,1.5693446815662084
1761503553397802800,5.266802734375,-1.3680711447238922,9.76778280146718,1.7675459713563322
1761503553407859000,5.27685888671875,0.7645037783056498,9.559533434262871,1.208546426265314
1761503553417914600,5.28691455078125,2.563732297387719,9.465455220639704,0.630836846942082
1761503553427970600,5.296970458984375,3.3431974979817864,8.562551271903514,0.4706911105083301
1761503553438026800,5.30702685546875,2.7672984752118586,6.817315624293685,0.653764644999802
1761503553448082700,5.317082763671875,0.6899818404804915,4.2529806848376985,1.681047253076732
1761503553458138600,5.327138671875,-1.4827251133859156,1.3271376613110304,2.840286262272298
1761503553468194800,5.33719482421875,-1.786964665314555,-0.6733475896090269,2.9173735936060545
1761503553478250800,5.347250732421875,-0.1562654244016856,-2.8366631033390757,1.9779051703214645
1761503553488306700,5.357306640625,2.1467735442519187,-4.481642725473642,1.1837646709039806
1761503553498363000,5.36736279296875,4.781199088022112,-5.409126988714933,0.676631725846231
1761503553508418800,5.377418701171875,6.455740904727578,-7.529898076704144,0.48413876723293214
1761503553518474800,5.387474853515625,5.172377503213286,-10.461482858753204,0.901551730409637
1761503553528531000,5.397531005859375,0.7631441803902387,-15.171310070478915,1.4727528776869176
1761503553538586600,5.407586669921875,-1.827349867194891,-22.518469653332232,1.1407294659715146
1761503553548642600,5.417642578125,-1.6911036599278448,-28.725783494246006,-1.352918291516602
1761503553558699800,5.42769970703125,0.5643878870658576,-31.692248451018333,-4.023328756381571
1761503553568755700,5.437755615234375,0.9867610664658247,-33.084584268426894,-5.418379385706782
1761503553578811600,5.447811767578125,-2.2189257572710512,-32.36051128470898,-4.687404367515445
1761503553588867600,5.45786767578125,-2.371331072178483,-32.104656701242924,-3.58642465506494
1761503553598923800,5.467923828125,-0.7648293569982051,-31.98442054853439,-3.140888626742363
1761503553608979700,5.477979736328125,-0.021885084071755406,-28.85053683211803,-3.178400903534889
1761503553619035600,5.48803564453125,0.4307639911264181,-24.035240828704833,-3.27781317166239
1761503553629091800,5.498091796875,0.5803128206241875,-19.27401426913142,-2.57290636844635
1761503553639147800,5.508147705078125,1.7682722398042678,-13.975883311092852,-2.203023254740238
1761503553649203700,5.51820361328125,4.44994176530838,-8.74605607395172,-2.1382044533491134
1761503553659260000,5.528260009765625,5.6315533498317,-4.051033632647991,-1.5164999572157858
1761503553669315800,5.53831591796875,5.027562205043435,-0.29973113459348677,-0.5704141616180539
1761503553679371800,5.548371826171875,3.3402287113040683,3.2087674002259967,-0.08092252558246255
1761503553689427700,5.558427734375,2.436904491329193,6.562962677562236,-0.14303199494965374
1761503553699483600,5.568483642578125,0.7030851407468318,9.03738996707797,0.07722169830314815
1761503553709539600,5.57853955078125,-2.06017896438241,10.602151558637619,0.9062882574122398
1761503553719595800,5.588595703125,-3.9508021570920944,11.72762273826599,0.9934135100923478
1761503553729651700,5.598651611328125,-4.808581015944481,12.93120474705696,0.44009624842144546
1761503553739708700,5.608708740234375,-5.2274131617367265,13.008830423051117,0.9140529731296002
1761503553749764600,5.6187646484375,-5.409335078507661,12.73793609136343,1.9655255812197923
1761503553759820800,5.62882080078125,-5.373868628329038,13.237169223082065,2.814881479641795
1761503553769876700,5.638876708984375,-5.359900893253088,13.964407977354526,2.9268273583889006
1761503553779932700,5.6489326171875,-5.152568640893698,14.405683425623177,2.5085128067299722
1761503553789988900,5.65898876953125,-4.748272385454178,14.24982066373825,2.00425629389137
1761503553800044800,5.669044921875,-4.654619119244813,14.165955801093578,1.4936223549753427
1761503553810100700,5.679100830078125,-4.923937579917907,13.964905990004539,0.8685136033564805
1761503553820157000,5.689156982421875,-4.523528395044804,13.137449788701533,0.044013548445329065
1761503553830212900,5.699212890625,-3.3573885204195975,12.113652684652804,-0.564833694604598
1761503553840268500,5.7092685546875,-1.8865256942629813,11.089030235695839,-0.8721808936923742
1761503553850324700,5.71932470703125,-0.9542425793725997,10.128511133337021,-1.1250360030815005
1761503553860380700,5.729380615234375,-0.7831038493573665,9.492509231781959,-1.203816402068734
1761503553870436600,5.7394365234375,-0.7250047116100787,8.72587779379785,-1.2308652986444533
1761503553880492800,5.749492919921875,-0.8902887973129748,8.034962983316182,-1.5428763613574206
1761503553890548700,5.759548828125,-1.2453589572906494,7.408879833707213,-1.9317048524215816
1761503553900604700,5.769604736328125,-1.4794599741101264,6.777905989447236,-2.210797542003542
1761503553910660900,5.779660888671875,-1.4824416202694177,6.7152271226942535,-2.187567765324563
1761503553920717800,5.7897177734375,-1.072589484268427,7.4070356671452515,-2.0290078733101486
1761503553930773800,5.799773681640625,-0.47754736961126326,8.96780672776401,-1.4842401941239833
1761503553940829700,5.80982958984375,-0.08006313227415085,10.566855788850784,-0.4433712515041232
1761503553950886000,5.819885986328125,-0.5919335907151922,11.442122373598814,0.5153098583051935
1761503553960941800,5.82994189453125,-1.0370803639918564,11.827412315273284,1.1979396189898253
1761503553970997800,5.839997802734375,-1.1531792707651853,11.702846024405956,1.8647043230772018
1761503553981054000,5.850053955078125,-0.4028694375067949,11.016251415210961,1.8509668896257876
1761503553991110000,5.86010986328125,0.24709844555854796,9.51227776209116,1.818188655617833
1761503554001165600,5.87016552734375,0.5605921480447054,7.82069830134511,2.149382557706535
1761503554011221800,5.8802216796875,0.612186799268797,7.070231816220283,2.6207804647773503
1761503554021277700,5.890277587890625,1.0592980410188435,6.153627258911729,3.358653425788879
1761503554031333600,5.900333740234375,1.2114474084038287,4.301214846652746,3.769408063587546
1761503554041389800,5.910389892578125,0.8244378033298999,1.6808704352051018,3.648444473387301
1761503554051445800,5.92044580078125,1.4012779794074595,-2.1299463280916213,2.745853828383982
1761503554061501700,5.930501708984375,3.5106413920670745,-9.019922699448466,0.9477361931532621
1761503554071556900,5.940556884765625,5.858326215720177,-17.054821969878674,-0.7468963715530932
1761503554081612800,5.95061279296875,5.546737470072507,-20.810587877082824,-0.8467873631082474
1761503554091669800,5.960669677734375,1.2940619056612253,-28.302877230882643,-0.007207593291252851
1761503554101725700,5.9707255859375,-6.659139324769377,-33.35789033743143,0.18516031417027115
1761503554111782000,5.980781982421875,-6.607171237123012,-32.05450238502026,-1.0759317073684185
1761503554121837800,5.990837890625,-3.0917741749614476,-31.75260384325981,-3.296022489830851
1761503554131893800,6.000893798828125,-3.493869120964408,-30.239468394041058,-4.2657206316843626
1761503554141950000,6.010949951171875,-5.541544577604532,-25.55951492705345,-5.145843716552854
1761503554152006000,6.021005859375,-4.624754142335057,-20.92087079105377,-5.411653292322159
1761503554162061800,6.031061767578125,-1.2001193011164664,-19.425033682638407,-4.652002507005632
1761503554172118000,6.041117919921875,2.0002004426293074,-19.27292121319771,-3.522724336309731
1761503554182174000,6.051174072265625,6.177990131273865,-17.736704163599015,-3.03990370247066
1761503554192229600,6.061229736328125,9.892021760076284,-15.17271993727684,-3.7123271629720924
1761503554202285800,6.071285888671875,10.392632025367021,-12.198245861572026,-4.182259965926408
1761503554212341800,6.081341796875,4.436708189725875,-9.017151481169462,-3.698655488233268
1761503554222397700,6.091397705078125,2.1059715782642363,-5.61700693808496,-2.1762501063659787
1761503554232454000,6.101453857421875,3.582973053306341,-1.9097814821660517,-1.0141842031814157
1761503554242509800,6.111509765625,4.3790065268635745,1.341276661300659,0.8894920209120959
1761503554252565800,6.121565673828125,1.373584355187416,2.8006542168468234,5.218171870660782
1761503554262622700,6.131622802734375,-4.957865568482876,3.973486282587051,5.398487521278858
1761503554272679000,6.141678955078125,-4.606168099808692,6.352307418259978,2.2274879800416527
1761503554282734800,6.15173486328125,-3.3035587305545806,7.34250971122086,1.3156537058748303
1761503554292790800,6.161790771484375,-5.184159710943699,8.857483481782674,0.6353645534995943
1761503554302847000,6.171846923828125,-5.8041831221222875,10.731886192053556,0.29588454216793175
1761503554312903000,6.18190283203125,-5.018825356358289,12.40042613799572,-0.4823863340750336
1761503554322958800,6.191958740234375,-4.087770833414793,13.2533651556015,-1.0469874985653906
1761503554333015000,6.20201513671875,-3.726640350484848,12.941645477050542,-0.5015166395459324
1761503554343070700,6.21207080078125,-5.268452443611621,12.587929069769382,0.5122318390993401
1761503554353126700,6.222126708984375,-6.44807256205678,13.00459497743845,1.1393383769392966
1761503554363182800,6.232182861328125,-5.544909085601568,13.243804715573788,0.9804603588864207
1761503554373238800,6.24223876953125,-4.467375715190172,13.051670032346248,1.0039372421942652
1761503554383294700,6.252294677734375,-3.814931212878227,12.622890493035316,1.2366098336458204
1761503554393351000,6.262350830078125,-3.2254408871293068,12.435800233715772,0.6687675683423876
1761503554403406800,6.27240673828125,-2.212271560078859,11.952909164988993,-0.20074202378150074
1761503554413462800,6.282462890625,-1.7394319297671317,10.97408751322031,-0.4026788833707571
1761503554423519700,6.292519775390625,-0.8714414735019207,10.042850619447231,-0.1648053257426247
1761503554433576000,6.302575927734375,-0.4920587465772405,9.707851187595724,0.2680223199153319
1761503554443631900,6.3126318359375,-1.3467360957503318,9.748129421970248,0.6855803175859153
1761503554453687800,6.322687744140625,-1.8196423615574835,9.830399124377966,0.9681780926793813
1761503554463744000,6.332743896484375,-1.9499591787755488,9.744849085125326,0.9704162269949912
1761503554473800000,6.342800048828125,-2.0017782133400437,9.415611870062351,0.8938798075422644
1761503554483856000,6.35285595703125,-2.126808030065894,8.970907616388796,0.5814721467271446
1761503554493911800,6.362911865234375,-1.8919915584534406,8.788051049116254,0.23986089552044867
1761503554503967700,6.3729677734375,-1.3034633557349442,9.074815150108932,0.06765899325311184
1761503554514023700,6.383023681640625,-0.7862526687771082,9.954497797733545,0.06983951562996954
1761503554524079900,6.393079833984375,0.13335282391309738,11.017550222849845,0.06814502320438623
1761503554534135800,6.4031357421875,1.2057090839475393,11.369292115187644,-0.032609307181835176
1761503554544191700,6.413191650390625,1.8854419906795024,10.853702891951798,-0.032685587288439275
1761503554554248000,6.423248046875,2.181661902281642,10.17176107699871,0.06683222357276827
1761503554564304000,6.433303955078125,1.7437310882657766,8.13260268881321,0.3514689206153154
1761503554574359800,6.44335986328125,0.39065943281836807,5.81708410474956,0.781293877325952
1761503554584416800,6.453416748046875,-0.1472159295707941,4.42895976755619,0.8766197529226541
1761503554594473000,6.463472900390625,0.7073883908987045,2.4528473258703944,0.2752703548148274
1761503554604529000,6.47352880859375,1.8693302293121814,-0.646567719233036,-0.12570844663977623
1761503554614584800,6.483584716796875,3.359910732373595,-5.670732683053612,-0.039091910666786134
1761503554624641000,6.49364111328125,5.77620439735055,-11.72724864425659,-0.1805295490970835
1761503554634697000,6.503697021484375,7.558613883578777,-16.828717212510107,-0.9957911990091204
1761503554644752600,6.513752685546875,4.592828725764155,-22.122713262701033,-1.8392910648792982
1761503554654808800,6.523808837890625,-1.5988300115086138,-28.496199662590026,-0.6278937061622738
1761503554664864800,6.53386474609375,-6.380245226499438,-32.231710717272755,0.849508458635211
1761503554674920700,6.543920654296875,-8.506103993016481,-33.35528103171587,1.0103487166717648
1761503554684977000,6.553976806640625,-8.5569807782948,-32.10500975246429,-0.4432148553660139
1761503554695032800,6.56403271484375,-8.552862237060069,-28.56683562582731,-2.7936273869499564
1761503554705088800,6.5740888671875,-7.2463447544515125,-24.154022690951823,-3.5487937203288076
1761503554715145000,6.58414501953125,-5.9296752956628795,-21.797489959454534,-1.9523150942519305
1761503554725201000,6.594200927734375,-3.8524563491523263,-21.582355508911608,-1.182570784944296
1761503554735256800,6.6042568359375,-1.346727181791514,-20.147534302473066,-1.8788056214049458
1761503554745313000,6.61431298828125,0.7672540999270975,-17.021172213733195,-2.1806068402707575
1761503554755370000,6.624369873046875,2.2457396760471164,-13.54439860447645,-1.9288149761989712
1761503554765426000,6.634426025390625,3.543425471293926,-10.368859520113467,-1.0188455460559576
1761503554775481900,6.64448193359375,5.137714770632982,-6.93062343904376,-0.22962504044920204
1761503554785538000,6.6545380859375,4.453269448426366,-3.081161595532298,-0.21494258123263715
1761503554795593700,6.66459375,3.460626776576042,0.2771475468635559,0.04187609802521765
1761503554805649700,6.674649658203125,2.983921703007817,3.474317448276281,0.33300738125145435
1761503554815705900,6.684705810546875,2.2354225724332033,5.497680885958672,0.7066516741219908
1761503554825761800,6.69476171875,0.7877472912490368,6.784729113465547,1.1756762031249701
1761503554835817700,6.704817626953125,-0.42778994375169277,7.812979105269909,1.606232542850077
1761503554845874000,6.7148740234375,-0.456538483852148,7.939273242843151,1.925508920390904
1761503554855929900,6.724929931640625,-0.15084763713665306,7.611891884779929,2.0048679960489273
1761503554865985800,6.73498583984375,-0.9488228193461894,8.347450723630189,1.5301581879511474
1761503554876042000,6.7450419921875,-2.3744798915982246,9.627679918771982,1.0538061656042932
1761503554886098000,6.755097900390625,-2.631180278238654,11.054520063328741,0.6778265616539866
1761503554896153900,6.76515380859375,-2.4023019645035264,11.644004543858767,0.5258082733027637
1761503554906210800,6.7752109375,-2.103245368170738,11.891198851007223,0.3588753974795341
1761503554916267000,6.78526708984375,-2.0361001696586607,12.540756984227896,0.24010427582226693
1761503554926323000,6.795322998046875,-2.0688281347841024,13.398753285223245,0.08984883242510258
1761503554936379000,6.80537890625,-2.453297992247343,13.510219271498917,0.03458740232177079
1761503554946434800,6.815434814453125,-3.2664977046608925,13.363798876219986,0.24285898135788736
1761503554956490800,6.82549072265625,-3.663882573276758,13.784031536459922,0.5306585628781467
1761503554966546700,6.835546630859375,-3.5552281372904777,14.350727846598625,0.6979273195922374
1761503554976603000,6.845602783203125,-3.309744141191244,15.071843149554729,0.23752825132180003
1761503554986658800,6.855658935546875,-2.898223195195198,15.317227776932716,-0.05841850589476526
1761503554996714800,6.86571484375,-2.78010885694623,14.864087703347206,-0.23366094490177927
1761503555006771000,6.87577099609375,-3.0062825878977772,14.51455764183998,-0.12623546618856488
1761503555016827000,6.885826904296875,-3.623790216863155,14.384054946660994,0.12802673351950944
1761503555026882800,6.8958828125,-4.33153224350512,14.348624736839533,0.12497165679782628
1761503555036939000,6.90593896484375,-4.695343928343057,14.162871863603591,-0.5087188260097056
1761503555046995000,6.915994873046875,-3.969730729445815,13.58742876790762,-1.1944501694388687
1761503555057051000,6.92605078125,-2.537437580180168,12.313736865580081,-1.558391472005844
1761503555067107800,6.93610791015625,-0.6897475202679634,9.814830968368053,-1.5923349504008888
1761503555077164300,6.946164306640625,0.7926303871154785,7.058218722343445,-0.9289546280547976
1761503555087220200,6.95622021484375,0.8012585147291421,4.427400263154507,0.4098268554292619
1761503555097276200,6.966276123046875,1.0639011509001255,2.137059959489107,1.8142697286084293
1761503555107332000,6.97633203125,1.7842916467130183,0.8312310436666012,3.2973569533050058
1761503555117388000,6.986387939453125,2.686350961318612,-0.1886947719067335,4.285823800775408
1761503555127444000,6.99644384765625,3.8237107316613197,0.39251170962154863,4.277993253280222
1761503555137500200,7.006500244140625,3.284065510055423,2.054060189241171,4.134733075597882
1761503555147556000,7.01655615234375,3.1617525510728357,2.066191356539726,3.950138432486355
1761503555157612000,7.026612060546875,2.826871777164936,-0.2642944950312376,2.922870729717612
1761503555167668200,7.036668212890625,2.6732465650737285,-4.58612309064567,2.7885204191997643
1761503555177724200,7.04672412109375,3.4263042357355356,-11.27133092265129,2.1859712899133563
1761503555187780000,7.056780029296875,4.785942483156919,-17.157799529272317,1.1095292949352413
1761503555197836300,7.066836181640625,5.386369213461876,-18.482986641037463,0.06582761310748755
1761503555207892200,7.076892333984375,2.6848540007591244,-20.84166573691368,-1.1197767673790455
1761503555217949200,7.08694921875,-0.5682778802417219,-24.278490782141684,-1.1220502652689814
1761503555228005000,7.097005126953125,-1.1633328543804584,-26.355582302880286,-0.8074681099589913
1761503555238061300,7.107061279296875,-2.420564035772532,-28.894530287623404,-2.187242040501535
1761503555248117200,7.1171171875,-5.593578716224432,-31.421757439434526,-5.173351901203394
1761503555258173000,7.1271728515625,-6.422521941214799,-32.86666047942638,-7.884530429786444
1761503555268229000,7.13722900390625,-6.062019234794378,-30.747186445510387,-9.196254833388329
1761503555278285000,7.14728515625,-6.6448232146471735,-26.83307355839014,-9.970710096865892
1761503555288341000,7.157341064453125,-4.030804499089718,-21.818640299510953,-8.194141737881303
1761503555298397200,7.167397216796875,-0.46101000324301417,-17.531829241263864,-5.06013410282433
1761503555308453000,7.177453125,3.501686516717076,-14.053049552881717,-2.6712317181199787
1761503555318509000,7.187509033203125,5.3458226835399865,-9.843523978888989,-1.1553059805955737
1761503555328565200,7.197565185546875,5.696349354869127,-5.652431887209415,0.09071604371368884
1761503555338621200,7.20762109375,6.519796905052662,-1.7882658110409975,1.0550691712774336
1761503555348677000,7.217677001953125,5.215595298171043,2.59884861895442,1.5809885037392377
1761503555358733000,7.227733154296875,2.738012759494781,7.469315305447578,2.101258139876276
1761503555368789200,7.237789306640625,0.4500081687679514,10.583509986531734,2.668894799605012
1761503555378846200,7.24784619140625,-1.951976948338747,12.52422553614378,2.3903647123418748
1761503555388902100,7.257902099609375,-2.951533929622173,13.372268598401545,1.5816512054316698
1761503555398958000,7.2679580078125,-3.9697500186681745,13.554962084066867,0.8217398694828152
1761503555409014000,7.278013916015625,-4.838341363435983,13.488960210371017,0.8655064574297517
1761503555419070000,7.288070068359375,-5.694591113024949,13.019543540245294,1.612954252320528
1761503555429126100,7.298126220703125,-6.444550233149528,12.438520598590372,2.4975085976347327
1761503555439182000,7.30818212890625,-6.788420953720808,12.217063959288597,3.671732117733359
1761503555449238000,7.318238037109375,-6.450098514926434,12.241159120625257,4.392677324819565
1761503555459294200,7.328294189453125,-5.7610115043938155,12.654628862601518,3.8552661458760498
1761503555469350100,7.33835009765625,-4.951916304689646,13.42477970688343,2.5276228731304404
1761503555479406000,7.348406005859375,-4.179754705107212,13.99774676785469,1.2157900407180189
1761503555489462000,7.3584619140625,-3.522373330914974,13.845142130982875,0.4591425288707018
1761503555499518200,7.368518310546875,-3.219229757529497,13.079652264249324,0.449151296210289
1761503555509574100,7.37857421875,-3.3817923093140125,12.131201200824975,0.8486692313320934
1761503555519630000,7.388630126953125,-3.346704629319906,11.535166567999124,0.9638221624922007
1761503555529687000,7.39868701171875,-3.047679597169161,11.160292806398868,1.0127604539886117
1761503555539743200,7.4087431640625,-2.74472891600728,10.942926651281118,1.03361444144696
1761503555549799200,7.418799072265625,-2.004271783721447,10.840694941818713,0.7103189644578843
1761503555559855000,7.428855224609375,-1.3518249433219431,10.832380702459812,0.0279041251655668
1761503555569911000,7.4389111328125,-0.8162158453643321,10.429994664555787,-0.5010146813731641
1761503555579967000,7.448967041015625,-1.0160872603237627,9.425869644704461,-0.4088100796021521
1761503555590023200,7.459023193359375,-1.4408540568619965,8.761226755076647,-0.05474273999147117
1761503555600079000,7.4690791015625,-1.5268974325895308,8.895993537440896,0.08719488385021686
1761503555610135000,7.479135009765625,-0.803728119713068,9.766896666282415,-0.13247633333951234
1761503555620191000,7.48919091796875,0.264896625642851,10.25657987936735,-0.403041360007599
1761503555630247200,7.4992470703125,1.8177603472031651,10.3376518964231,-0.7180724281288683
1761503555640303000,7.50930322265625,2.969818358853459,9.65746715427041,-0.6955670932669192
1761503555650359000,7.519359130859375,2.7046868284761905,7.7495742623299355,0.11164974534474313
1761503555660415200,7.529415283203125,1.5520570082873104,4.821781273779273,1.5564833002969622
1761503555670472200,7.53947216796875,0.4138923513025045,1.3996528624236584,2.8551328260093927
1761503555680528100,7.549528076171875,0.4204467413820326,-1.085187100034952,3.4196213969707485
1761503555690584000,7.559583984375,0.8667148833714425,-3.905336875468492,3.147553637589514
1761503555700640300,7.56964013671875,2.0313215570800005,-6.302846344998478,2.6083243033081294
1761503555710696200,7.5796962890625,4.607110349094867,-8.343919626894593,1.7154546957217156
1761503555720752000,7.589752197265625,7.225602410674095,-12.022321139389275,-0.6098387017726897
1761503555730808000,7.59980810546875,8.785646326062082,-16.20516562720537,-2.3842320548057554
1761503555740864000,7.609864013671875,5.210087932926416,-20.853183156228063,-2.860715594577789
1761503555750920000,7.619919921875,-2.677054140663147,-26.2108313021183,-2.834689757439494
1761503555760976100,7.62997607421875,-7.388621474054455,-28.31328639669418,-3.308968188382685
1761503555771032000,7.640031982421875,-7.575031349894404,-28.181574910247324,-3.10937529810369
1761503555781088000,7.650087890625,-7.324611066436767,-28.101801700830457,-2.907593081086874
1761503555791144200,7.660144287109375,-8.35668207783401,-26.821231144905088,-2.9892180558502672
1761503555801200000,7.6702001953125,-8.08634771811664,-25.153700083744525,-3.5216847641289233
1761503555811256000,7.680256103515625,-6.530659075328708,-24.253166955792903,-3.714422673946619
1761503555821313000,7.69031298828125,-3.3744682500362395,-23.749706561768054,-3.544665826743841
1761503555831369200,7.700369140625,0.7054473398335278,-22.302397629678246,-2.8289947606682775
1761503555841425200,7.710425048828125,2.878530068209767,-19.452485168665646,-1.5384996075779198
1761503555851481000,7.720481201171875,4.062873123523593,-14.717520008552073,-0.34717326924800873
1761503555861537300,7.730537353515625,5.439700990676879,-9.9857288022995,-0.659684390437603
1761503555871593000,7.740593017578125,5.854629699289799,-5.4303030477344985,-1.673458697643876
1761503555881649000,7.75064892578125,4.837577393326163,-0.3731950147330761,-1.9107590950265525
1761503555891705000,7.760705078125,3.4459693056702614,4.149823677223921,-1.4293781386017799
1761503555901761000,7.770760986328125,0.7212498160559684,6.756432993307709,0.024301534096337854
1761503555911817000,7.78081689453125,-1.4896674798697231,7.693798014572263,1.1577183754995464
1761503555921873200,7.790873046875,-2.488358784234524,8.730201502215861,1.3032505897670983
1761503555931929000,7.80092919921875,-2.737621714350581,9.878647899240255,0.803535812011361
1761503555941985000,7.810985107421875,-2.7870792804807425,10.982455528593063,0.036925380282662804
1761503555952041200,7.821041259765625,-3.068147215658426,11.766460710704326,-0.6656389149278402
1761503555962097200,7.83109716796875,-3.9122260504603386,12.080374684429168,-0.6888140388101339
1761503555972154000,7.841154052734375,-4.670598778665066,11.937671848368645,0.17713555927723645
1761503555982210000,7.8512099609375,-5.0055941188633435,11.65037466341257,1.3369623052328825
1761503555992266200,7.861266357421875,-4.765216505992412,11.793098542261124,2.197622272479534
1761503556002322200,7.871322265625,-3.9410944175481792,11.837606377029418,2.3765420848250387
1761503556012378000,7.881378173828125,-3.018260610461235,11.855261276185512,2.3014242999985814
1761503556022434000,7.89143408203125,-2.301283722484112,11.6783311763525,2.2334444042280315
1761503556032490000,7.901489990234375,-2.002759041070938,11.606330939024685,1.717566134917736
1761503556042546000,7.9115458984375,-2.266426344114542,11.588773070502281,-0.2501157475531101
1761503556052602000,7.92160205078125,-1.717911002832651,11.456998455691338,-1.1407025048993527
1761503556062658000,7.931657958984375,-1.3885831868767737,11.64694468896389,-0.7635358100563288
1761503556072718300,7.94171826171875,-1.591513989406824,11.921344982945918,-0.6933702408097684
1761503556082774500,7.9517744140625,-1.5301286695957184,12.055744101041554,-0.2922710278458893
1761503556092830500,7.96183056640625,-1.8180448632329702,12.127904497367142,0.0882428585331887
1761503556102886400,7.971886474609375,-2.5692443388074633,11.94732113572359,0.5223831211596727
1761503556112943400,7.981943359375,-3.0849148105859756,11.521209354317188,0.5702550255335868
1761503556122999600,7.99199951171875,-3.114219231003523,10.984571497833729,0.39113954448550936
1761503556133055500,8.002055419921875,-2.7836528131633997,10.69638934673667,0.3734273621842265
1761503556143111400,8.012111328125,-2.194028631901741,10.58735847865343,0.6887500336632132
1761503556153167400,8.02216748046875,-1.2522206597536802,10.602904422831534,1.1478326490402222
1761503556163223600,8.0322236328125,0.26692900825329124,10.926376498496532,1.1294630257435143
1761503556173279200,8.042279296875,1.4475817576818166,11.03977023796439,0.7371095754235982
1761503556183335400,8.05233544921875,2.1629067867986858,10.257070877754687,0.37695988369192923
1761503556193391400,8.062391357421875,2.722901115080714,8.985808248400687,-0.14380378303974867
1761503556203447300,8.072447265625,2.818484472569823,7.106566865926981,-0.30787407250609244
1761503556213503500,8.08250341796875,2.933507274544239,4.673402145648002,0.2393412920931354
1761503556223559400,8.092559326171875,2.8842928695201873,2.1343308267861603,1.271157999935746
1761503556233615400,8.102615478515625,2.537231828474998,0.12877017229795454,2.136200127789378
1761503556243671300,8.11267138671875,2.33435304839313,-1.0529401964247227,1.7359540245234966
1761503556253728500,8.122728515625,2.880970447099209,-2.832054732760787,0.06588555383980274
1761503556263784400,8.132784423828125,3.9735716227829454,-7.736485648176074,-1.6110793983593583
1761503556273840400,8.14284033203125,3.8402082774758335,-14.731743764215707,-2.033617412932217
1761503556283896300,8.152896240234375,3.042425329902768,-21.070412533223628,-1.1007523334354161
1761503556293952500,8.162952392578125,1.4619044436752795,-26.878009263181685,-1.4467144733279942
1761503556304008400,8.173008544921874,-2.2847912912361323,-32.79779912464618,-2.9678078958138823
1761503556314064400,8.183064453125,-5.5518046903342,-34.05139984058142,-2.5571216470763085
1761503556324120300,8.193120361328125,-7.873872257649898,-32.09365366119146,-1.3829112787202
1761503556334176300,8.20317626953125,-8.75297681312561,-29.538306330311297,-0.6910653248682618
1761503556344232400,8.213232421875,-6.382067765751481,-25.535781000244615,-0.7979299548283219
1761503556354288400,8.223288330078125,-3.629337329596281,-22.384497236216067,-2.174104911030829
1761503556364344300,8.23334423828125,-1.6625298918724059,-19.504276146179436,-3.8347608257248997
1761503556374400300,8.243400146484374,0.9234497470282018,-16.87333961356878,-5.1116258051306005
1761503556384456400,8.25345654296875,1.2379244233757256,-14.3764374573946,-7.273868721193074
1761503556394513400,8.263513427734376,0.20307868656814096,-12.78647946525812,-5.2379725496739145
1761503556404569300,8.2735693359375,1.506882234042883,-12.390031000709532,-0.7112348371937871
1761503556414625300,8.283625244140625,4.264165511196851,-9.034637453499435,0.22160514439437537
1761503556424681500,8.293681396484375,7.11380441596508,-4.5623236973851915,2.3353452743008734
1761503556434737400,8.3037373046875,10.019624057638644,-0.9859837984830141,3.384179788972437
1761503556444793300,8.31379345703125,7.652178302460908,3.6078380299717185,5.00028724462688
1761503556454849500,8.323849609375,1.7376890316225588,5.785915644025803,8.316279340296983
1761503556464905500,8.333905517578126,-0.32136297455653545,10.031758732068537,6.259691093882918
1761503556474961400,8.34396142578125,-3.3112720814108845,13.388925134170055,0.4880037355653941
1761503556485017300,8.354017333984375,-6.873755304396152,12.33503801228404,-4.59527231952399
1761503556495073300,8.3640732421875,-6.330310105985403,12.406643112814425,-0.3475328232754022
1761503556505129200,8.374129150390624,-8.307733630269766,12.554127337932586,1.0300917472135276
1761503556515185400,8.384185302734375,-9.074265115010737,12.453103250694275,0.6535796438217163
1761503556525241300,8.394241455078125,-9.196591517996788,12.635256638133525,1.1986735592875628
1761503556535298300,8.40429833984375,-8.387243804836272,12.220809575557707,1.7729104209989308
1761503556545354200,8.414354248046875,-7.7062547605633736,12.047594696855544,1.8736796566933391
1761503556555410400,8.424410400390625,-7.003356666821241,12.283783625864983,1.6369586666338145
1761503556565466400,8.43446630859375,-5.758405705809593,12.661177845853567,1.140426391371712
1761503556575522300,8.444522216796875,-4.801828619074821,12.942729180634021,0.40813671038523314
1761503556585578500,8.45457861328125,-3.6947640337526795,13.189150749844313,-0.15578805268090218
1761503556595634400,8.464634521484374,-3.274613206577301,13.149266483223437,-0.25668252219017595
1761503556605690400,8.4746904296875,-2.8216169253766537,12.598354602193831,-0.1789904298963025
1761503556615746600,8.48474658203125,-1.1268062276244162,11.281846471446752,-0.2382233209138736
1761503556625802200,8.49480224609375,-0.7134452067196368,9.8723315557003,-0.09099515291601419
1761503556635858200,8.504858154296874,-1.006808559846878,9.413478365164995,0.1427414145052433
1761503556645914400,8.514914306640625,-0.8651011645644903,9.73400795763731,0.356245925758779
1761503556655970300,8.52497021484375,-0.39164778626859187,9.936697937148809,0.28545681778639553
1761503556666027300,8.53502734375,1.0409627583831549,9.387152083775401,0.15525836625099182
1761503556676083200,8.545083251953125,0.9732809687763452,9.289791779741645,-0.118086573459208
1761503556686139400,8.555139404296876,0.7638427571136504,8.944781826007366,-0.3064422496046871
1761503556696195300,8.5651953125,1.4769770712532102,8.099581878221034,-0.1821793255981058
1761503556706251300,8.575251220703125,1.4553664202086627,7.831581514409184,0.5137461526524275
1761503556716307500,8.585307373046875,-0.15437749176323412,7.592953960075974,1.445536077198386
1761503556726363400,8.59536328125,-1.1098585999548434,8.169073347598314,1.9158914894789456
1761503556736419300,8.60541943359375,0.5261417430408298,9.461150801444052,1.0728648671437053
1761503556746475500,8.6154755859375,1.437651607558876,9.993096116197108,0.1429852331984788
1761503556756531500,8.625531494140626,2.69899943048954,9.05096490344405,0.1594430315244943
1761503556766587400,8.63558740234375,2.479670743127167,7.217171266937256,0.43368667364008723
1761503556776643600,8.6456435546875,1.1875298686563969,5.493295802742242,0.41123189992159603
1761503556786699300,8.65569921875,0.9228012199915945,5.249588168665767,0.7908795248601586
1761503556796756500,8.665756591796875,0.4828036827042699,3.0308237394362685,1.3796815030187368
1761503556806812200,8.675812255859375,1.2868576733708381,-5.7321454753935335,1.9474919118791818
1761503556816868400,8.685868408203126,4.244338528698682,-17.125916198277473,3.7690605653241276
1761503556826924300,8.69592431640625,3.305055983375013,-23.07838317146301,2.7691537476897237
1761503556836980200,8.705980224609375,-1.7080243995904922,-33.986686253130436,-1.660724596016109
1761503556847036400,8.716036376953125,-9.265790726429223,-36.94836280658245,-2.765203841020167
1761503556857092400,8.72609228515625,-11.537353848910332,-28.27058356552124,-4.986106159061193
1761503556867148300,8.736148193359375,-14.041134658682346,-23.693346961164472,-3.252747411727905
1761503556877204500,8.74620458984375,-14.097813408237695,-18.94764413393736,-1.0755728839933871
1761503556887260400,8.756260498046874,-10.806699148714541,-12.780388747167587,-0.6519321688756347
1761503556897316400,8.76631640625,-6.636925154873729,-9.1923344450742,-0.9247957548096776
1761503556907372500,8.77637255859375,-3.061270607887208,-7.913448481234908,-0.8728331470560282
1761503556917428500,8.786428466796876,0.3839081319272518,-8.118331002354621,-1.2187193721681833
1761503556927484400,8.796484375,3.25466844291836,-8.63094968534708,-1.269917936746776
1761503556937541400,8.806541259765625,5.165981080174446,-8.611173556253313,-1.3352527248360215
1761503556947597600,8.81659765625,6.844716256916523,-7.631550524973869,-1.5030428020104765
1761503556957653200,8.8266533203125,3.8438779058992862,-6.791255300363898,-1.1301171057380734
1761503556967709200,8.836709228515625,-0.3591501227676868,-7.025905183237791,-1.0594583461470901
1761503556977765400,8.846765380859376,-2.8242227239608764,-6.827667506960034,-1.3872539840996265
1761503556987821300,8.8568212890625,-6.651584963867068,-5.053446003362536,-1.3563055958673358
1761503556997877200,8.866877197265625,-7.274265027034282,-2.3476778093904254,-1.6546813703291117
1761503557007933400,8.876933349609375,-4.821664953923225,-1.4340660041570663,-1.87664858950153
1761503557017989400,8.8869892578125,-1.6236434041172265,-0.5890706390321254,-2.1492009175293147
1761503557028045300,8.89704541015625,0.0958309025093913,0.07503682854473591,-1.9978953805573283
1761503557038101500,8.9071015625,0.6798907276421785,1.2035048519015312,-1.365732764904201
1761503557048157400,8.917157470703126,2.162051192882657,2.486733813381195,-0.2606584766164422
1761503557058213400,8.92721337890625,3.395442941264808,2.406602292045951,0.7231533115897327
1761503557068270300,8.937270263671875,2.280285065858066,2.281612807330489,0.8650229116965085
1761503557078322400,8.947322509765625,0.2615016494423151,3.123983669170737,1.015173433414474
1761503557088378400,8.95737841796875,-2.070123143030703,4.020350325092673,1.0070243214894086
1761503557098434600,8.9674345703125,-3.101849578773975,5.096342895802855,0.4488564049169421
1761503557108490500,8.977490478515625,-1.4039578661412,5.578816031378508,0.19417934079766272
1761503557118546400,8.98754638671875,0.7688964603066444,5.222798945939541,0.5401987638354301
1761503557128602600,8.9976025390625,2.4193176889732477,4.718932309201359,0.28278091310802844
1761503557138658600,9.007658447265625,3.294353679835796,5.075859495222568,0.18794921423643826
1761503557148714500,9.017714599609375,4.051864238253236,5.021591898462176,0.13978143218848854
1761503557158770700,9.027770751953126,3.967284213076532,4.457341812431812,-0.10966036162581294
1761503557168826600,9.03782666015625,3.7889135590463874,4.351632197725773,-0.17843845856934784
1761503557178882300,9.04788232421875,3.8898309710398316,5.098714885631203,0.22101826615082099
1761503557188939500,9.057939453125,2.939910127323866,5.407282237631082,0.7876452921792865
1761503557198995700,9.06799560546875,0.2141691126421094,4.886313659444451,0.8129287865176796
1761503557209051400,9.078051513671875,-0.25899872671067714,4.84276853222847,2.1624384386345743
1761503557219107300,9.088107421875,0.5369660655245184,4.006343427050114,2.925884524580836
1761503557229163500,9.09816357421875,2.420524726675451,2.4182792858362196,3.4626363628327845
1761503557239219500,9.108219482421875,4.920879945912957,0.16258768622577188,2.473779054740071
1761503557249275400,9.118275390625,3.7710909021079537,-0.35708909858465193,0.8582681036740542
1761503557259331600,9.12833154296875,1.5286404768645763,0.44370530576407907,0.1705658254981041
1761503557269387500,9.138387451171875,0.8908136979699134,1.1641904941231012,0.2495236268788576
1761503557279443500,9.148443359375,-1.229440088146925,0.4336404233455658,0.20561492704749107
1761503557289499600,9.158499755859374,-1.8756547561585901,-0.552196660143137,0.20748481257259843
1761503557299555600,9.1685556640625,0.4106307191580534,-0.6148468853235244,0.362133814753592
1761503557309611500,9.178611572265625,1.8534961158424614,-0.5911731642693281,-0.07103267093729228
1761503557319668500,9.18866845703125,2.5374568694025275,-0.1949777976989746,-0.8656417011819779
1761503557329724700,9.198724609375,2.448092240297794,0.3351438087582588,-1.4786493883796035
1761503557339780600,9.208780517578125,3.1203871059834953,1.0568202527284623,-1.7665382556185125
1761503557349836500,9.21883642578125,4.239782180568576,1.554208341102302,-1.7874764142289756
1761503557359892500,9.228892578125,3.306403598591685,2.237315108181536,-1.1973819851070642
1761503557369948400,9.238948486328125,1.3985247351765633,2.210089539864659,-0.29926527064740654
1761503557380004400,9.24900439453125,-3.4350971985220906,0.5879962877988815,1.1412649610877037
1761503557390060500,9.259060546875,-5.144401116529107,0.12282500015795231,2.8450431014105675
1761503557400116500,9.269116455078125,-3.820833714920282,1.4040306391164659,3.2028508696585893
1761503557410172400,9.27917236328125,-2.153824047285318,2.2554607134640214,1.8361685489445925
1761503557420228600,9.289228515625,-0.6361737509906291,1.4380289164386688,0.1712321073871106
1761503557430284500,9.299284423828125,-0.08334054650962353,-0.42835283833146093,-1.0100813709724694
1761503557440341500,9.309341552734375,1.196352642059326,-1.5501730942368506,-1.5493914423398674
1761503557450397400,9.3193974609375,2.8245021254241465,-1.7260329344898462,-1.7076804084584116
1761503557460453600,9.32945361328125,1.983970753970742,-1.1480275870904326,-1.3982112853132187
1761503557470509600,9.339509521484375,-1.007541550296545,0.2867548217076808,-0.10887129360735416
1761503557480565500,9.3495654296875,-2.7153204506933686,2.0146417865663766,1.736765194775909
1761503557490621400,9.359621337890625,-2.3010393923342227,2.5790318655893203,2.586352417735755
1761503557500677600,9.369677734375,-1.4065344386309384,1.6558080362714827,1.9062823880039155
1761503557510733300,9.3797333984375,-0.5073462955474853,0.354232686240226,0.7655104711301625
1761503557520789500,9.38978955078125,0.5333066662341356,-0.35825379498247056,-0.21475268468372521
1761503557530845400,9.399845458984375,0.7221919922769069,-0.5622818546973168,-0.9439469569381326
1761503557540901400,9.4099013671875,-0.013904022189974784,-0.579708205794543,-1.139202256404236
1761503557550957600,9.41995751953125,-1.1570751091599463,-0.31736579467915,-0.3661344286970794
1761503557561013500,9.430013427734375,-1.5811562615215777,-0.28922731276843694,0.3874048514692113
1761503557571070500,9.440070556640626,-1.098199141821265,-0.0514687598221004,0.5511844874259084
1761503557581126400,9.45012646484375,-0.4840028293609619,0.12572612842693925,0.4363390878450125
1761503557591182600,9.4601826171875,-0.1409545310884714,-0.17851123154461382,0.2805263391142711
1761503557601238500,9.470238525390625,0.21362930667698382,-0.4614326856344938,0.1815192542541772
1761503557611294500,9.48029443359375,0.3475350882977247,-0.7472337868139147,0.19925215054992584
1761503557621350400,9.490350341796875,-0.017196633994579314,-1.0485630042538046,0.3552986349713057
1761503557631406600,9.500406494140625,0.02527121937870979,-0.9900511940523982,0.3655039487738162
1761503557641462500,9.510462646484376,0.3850111247330904,-0.7616280767388641,0.4469019829135388
1761503557651518500,9.5205185546875,0.6618523821264505,-0.38913609570860863,0.6438121369145811
1761503557661574400,9.530574462890625,1.023064113599062,-0.031044688213616608,0.6688434100575744
1761503557671630300,9.54063037109375,1.2350322090655566,-0.07632116926684974,0.3575440027453005
1761503557681687600,9.5506875,1.4490361942738295,-0.4932644325725734,0.0022687486495822666
1761503557691743500,9.560743408203125,1.3181009528964758,-0.6767781485795974,0.015907690162584184
1761503557701799400,9.57079931640625,1.3532581909954546,-0.28633813066557046,0.6227282862231135
1761503557711855400,9.58085546875,-0.36248715823590755,-0.3292158800140023,1.2299673268914222
1761503557721911600,9.59091162109375,-0.40890287245213985,-0.8879347815327345,1.2027777797359973
1761503557731967500,9.600967529296875,0.06914250980913639,-1.3215247898653149,1.0129739506088196
1761503557742023400,9.6110234375,0.4557335972100496,-1.2773095083028077,1.0207841859683393
