time,seconds_elapsed,z,y,x
1761503548202610000,0.07160986328125,-0.840301513671875,-0.6176910400390625,-0.1388397216796875
1761503548212666000,0.081666015625,-0.841949462890625,-0.6365509033203125,-0.134796142578125
1761503548222722000,0.09172216796875,-0.8213958740234375,-0.6644744873046875,-0.14642333984375
1761503548232778000,0.101778076171875,-0.8362274169921875,-0.6675567626953125,-0.1617889404296875
1761503548242834200,0.111834228515625,-0.8358612060546875,-0.6419830322265625,-0.1544952392578125
1761503548252890000,0.12189013671875,-0.83697509765625,-0.594512939453125,-0.1230316162109375
1761503548262946000,0.131946044921875,-0.88775634765625,-0.5856170654296875,-0.1032867431640625
1761503548273002200,0.142002197265625,-0.917694091796875,-0.59661865234375,-0.0923614501953125
1761503548283058200,0.15205810546875,-0.892578125,-0.5855560302734375,-0.0806884765625
1761503548293114000,0.162114013671875,-0.8472747802734375,-0.5667877197265625,-0.083831787109375
1761503548303170300,0.17217041015625,-0.861968994140625,-0.546234130859375,-0.08160400390625
1761503548313226200,0.182226318359375,-0.874542236328125,-0.525787353515625,-0.08367919921875
1761503548323282000,0.192281982421875,-0.84814453125,-0.5047607421875,-0.0911712646484375
1761503548333338000,0.202338134765625,-0.80364990234375,-0.496337890625,-0.0890350341796875
1761503548343394000,0.21239404296875,-0.7740325927734375,-0.5036163330078125,-0.075958251953125
1761503548353450000,0.222449951171875,-0.7607269287109375,-0.512908935546875,-0.055755615234375
1761503548363506200,0.232506103515625,-0.7652587890625,-0.5281219482421875,-0.024993896484375
1761503548373562000,0.24256201171875,-0.769805908203125,-0.5498199462890625,-0.0400848388671875
1761503548383618000,0.2526181640625,-0.7682952880859375,-0.5743865966796875,-0.1266632080078125
1761503548393674200,0.26267431640625,-0.64031982421875,-0.630584716796875,-0.165069580078125
1761503548403730200,0.272730224609375,-0.552490234375,-0.767547607421875,-0.2132568359375
1761503548413786000,0.2827861328125,-0.5261688232421875,-0.8559722900390625,-0.22064208984375
1761503548423842300,0.29284228515625,-0.546844482421875,-0.8895111083984375,-0.1834869384765625
1761503548433898200,0.302898193359375,-0.5519256591796875,-0.9274444580078125,-0.1543426513671875
1761503548443954000,0.312953857421875,-0.579071044921875,-0.905120849609375,-0.109466552734375
1761503548454010000,0.323010009765625,-0.57733154296875,-0.85528564453125,-0.1071929931640625
1761503548464066000,0.333066162109375,-0.554443359375,-0.7938690185546875,-0.140228271484375
1761503548474122000,0.3431220703125,-0.5984039306640625,-0.7476654052734375,-0.150360107421875
1761503548484178200,0.35317822265625,-0.6077423095703125,-0.7210540771484375,-0.15423583984375
1761503548494234000,0.363234130859375,-0.6138458251953125,-0.7093353271484375,-0.18353271484375
1761503548504290000,0.3732900390625,-0.67962646484375,-0.725830078125,-0.204986572265625
1761503548514346200,0.38334619140625,-0.6897430419921875,-0.7545928955078125,-0.2056427001953125
1761503548524402200,0.393402099609375,-0.6575469970703125,-0.7641754150390625,-0.2077789306640625
1761503548534458000,0.4034580078125,-0.6195068359375,-0.744659423828125,-0.216064453125
1761503548544514300,0.413514404296875,-0.6099700927734375,-0.690338134765625,-0.20587158203125
1761503548554570200,0.4235703125,-0.6799774169921875,-0.660552978515625,-0.148468017578125
1761503548564626200,0.433626220703125,-0.772857666015625,-0.7137298583984375,-0.0650177001953125
1761503548574682000,0.44368212890625,-0.83990478515625,-0.76318359375,0.0502471923828125
1761503548584738000,0.453738037109375,-0.873138427734375,-0.7780914306640625,0.194732666015625
1761503548594794000,0.4637939453125,-0.8955535888671875,-0.762481689453125,0.2547454833984375
1761503548604850200,0.47385009765625,-0.9190216064453125,-0.73126220703125,0.2134857177734375
1761503548614906000,0.483906005859375,-0.9224700927734375,-0.7149658203125,0.1500244140625
1761503548624962000,0.493962158203125,-0.9042510986328125,-0.72332763671875,0.069061279296875
1761503548635018000,0.50401806640625,-0.8900146484375,-0.73553466796875,-0.008026123046875
1761503548645074200,0.51407421875,-0.8529052734375,-0.728973388671875,-0.0507659912109375
1761503548655130000,0.524130126953125,-0.8096923828125,-0.724365234375,-0.0517578125
1761503548665186000,0.53418603515625,-0.7820587158203125,-0.7212677001953125,-0.0096588134765625
1761503548675242200,0.5442421875,-0.7545623779296875,-0.7279205322265625,0.04583740234375
1761503548685298200,0.554298095703125,-0.719390869140625,-0.7515106201171875,0.0723724365234375
1761503548695355100,0.564355224609375,-0.7201080322265625,-0.7642822265625,0.069305419921875
1761503548705411000,0.5744111328125,-0.7184906005859375,-0.7786407470703125,0.0621795654296875
1761503548715467300,0.58446728515625,-0.7116546630859375,-0.76934814453125,0.031890869140625
1761503548725523000,0.59452294921875,-0.7067718505859375,-0.761627197265625,-0.0038604736328125
1761503548735579100,0.6045791015625,-0.6815338134765625,-0.7448883056640625,-0.0277862548828125
1761503548745635000,0.614635009765625,-0.6447601318359375,-0.7280426025390625,-0.046051025390625
1761503548755691000,0.62469091796875,-0.65081787109375,-0.725189208984375,-0.043304443359375
1761503548765747000,0.634746826171875,-0.672210693359375,-0.7078704833984375,-0.0360107421875
1761503548775803100,0.64480322265625,-0.6578216552734375,-0.6879119873046875,-0.0297698974609375
1761503548785859000,0.654859130859375,-0.638946533203125,-0.6630859375,-0.0045928955078125
1761503548795915000,0.6649150390625,-0.6168365478515625,-0.650970458984375,0.0238037109375
1761503548805971200,0.67497119140625,-0.5952606201171875,-0.6670074462890625,0.051666259765625
1761503548816027100,0.685027099609375,-0.5745086669921875,-0.6923828125,0.0730743408203125
1761503548826083000,0.6950830078125,-0.5662689208984375,-0.6893768310546875,0.073089599609375
1761503548836139300,0.70513916015625,-0.525421142578125,-0.6793365478515625,0.05975341796875
1761503548846195200,0.7151953125,-0.542999267578125,-0.6866455078125,0.048187255859375
1761503548856251000,0.7252509765625,-0.569549560546875,-0.7011871337890625,0.0421905517578125
1761503548866307000,0.73530712890625,-0.57666015625,-0.688720703125,0.0410919189453125
1761503548876363000,0.745363037109375,-0.599578857421875,-0.6941070556640625,0.05010986328125
1761503548886419000,0.7554189453125,-0.59857177734375,-0.7227020263671875,0.0739898681640625
1761503548896475100,0.76547509765625,-0.561309814453125,-0.7384185791015625,0.0830535888671875
1761503548906531000,0.775531005859375,-0.5595245361328125,-0.6789398193359375,0.081756591796875
1761503548916587000,0.7855869140625,-0.583984375,-0.6586151123046875,0.0845489501953125
1761503548926643200,0.795643310546875,-0.5810699462890625,-0.6909332275390625,0.083770751953125
1761503548936699100,0.80569921875,-0.5307159423828125,-0.708160400390625,0.07708740234375
1761503548946755000,0.815755126953125,-0.417755126953125,-0.709991455078125,0.0802001953125
1761503548956811300,0.825811279296875,-0.5313720703125,-0.7368316650390625,0.029937744140625
1761503548966867200,0.8358671875,-0.6224822998046875,-0.7564697265625,0.0527496337890625
1761503548976923000,0.8459228515625,-0.5773162841796875,-0.819549560546875,0.117919921875
1761503548986979000,0.85597900390625,-0.5737152099609375,-0.873321533203125,0.1539154052734375
1761503548997035000,0.866034912109375,-0.581024169921875,-0.8911895751953125,0.1422882080078125
1761503549007091000,0.876091064453125,-0.5839080810546875,-0.876129150390625,0.0948638916015625
1761503549017147100,0.886147216796875,-0.5995941162109375,-0.84320068359375,0.0367584228515625
1761503549027203000,0.896203125,-0.6174468994140625,-0.8072357177734375,-0.0116119384765625
1761503549037259000,0.906259033203125,-0.6013641357421875,-0.7637939453125,-0.051727294921875
1761503549047315200,0.916315185546875,-0.5809173583984375,-0.7299041748046875,-0.0748291015625
1761503549057371100,0.92637109375,-0.5619354248046875,-0.72955322265625,-0.0630645751953125
1761503549067426800,0.9364267578125,-0.612335205078125,-0.76959228515625,-0.0212249755859375
1761503549077483000,0.94648291015625,-0.6823272705078125,-0.8201446533203125,0.0345001220703125
1761503549087539000,0.9565390625,-0.697265625,-0.8742828369140625,0.046478271484375
1761503549097595000,0.966594970703125,-0.6988677978515625,-0.9202880859375,-0.0067596435546875
1761503549107651000,0.976651123046875,-0.6658782958984375,-0.9406585693359375,-0.1107025146484375
1761503549117707000,0.98670703125,-0.6246185302734375,-0.957305908203125,-0.2342681884765625
1761503549127763000,0.996762939453125,-0.542510986328125,-1.00927734375,-0.3109588623046875
1761503549137819100,1.006819091796875,-0.447906494140625,-1.059295654296875,-0.2807769775390625
1761503549147875000,1.016875,-0.4954376220703125,-1.0841522216796875,-0.2305450439453125
1761503549157931000,1.026930908203125,-0.576324462890625,-1.0660247802734375,-0.16632080078125
1761503549167987000,1.036987060546875,-0.6265106201171875,-1.041748046875,-0.1177520751953125
1761503549178043000,1.04704296875,-0.63104248046875,-1.0046234130859375,-0.096771240234375
1761503549188099800,1.057099853515625,-0.614837646484375,-0.9613494873046875,-0.08099365234375
1761503549198155800,1.06715576171875,-0.6139678955078125,-0.93829345703125,-0.0785064697265625
1761503549208212000,1.0772119140625,-0.615234375,-0.926116943359375,-0.09283447265625
1761503549218268000,1.087267822265625,-0.6197509765625,-0.9093170166015625,-0.10986328125
1761503549228323800,1.09732373046875,-0.6222076416015625,-0.8942108154296875,-0.10546875
1761503549238380000,1.107380126953125,-0.6368408203125,-0.8777618408203125,-0.086181640625
1761503549248436000,1.11743603515625,-0.6363525390625,-0.856475830078125,-0.067657470703125
1761503549258492000,1.127491943359375,-0.6222686767578125,-0.8232421875,-0.055938720703125
1761503549268548000,1.137548095703125,-0.610076904296875,-0.7715911865234375,-0.0612640380859375
1761503549278604000,1.14760400390625,-0.55450439453125,-0.715484619140625,-0.065216064453125
1761503549288660000,1.157659912109375,-0.4917449951171875,-0.6715240478515625,-0.0483856201171875
1761503549298716200,1.167716064453125,-0.4165496826171875,-0.6317291259765625,-0.0383758544921875
1761503549308772000,1.177772216796875,-0.36004638671875,-0.609771728515625,-0.0402984619140625
1761503549318827800,1.187827880859375,-0.293975830078125,-0.6039886474609375,-0.039031982421875
1761503549328884000,1.197884033203125,-0.30535888671875,-0.6170196533203125,-0.0369720458984375
1761503549338940000,1.20793994140625,-0.3988800048828125,-0.59527587890625,-0.055908203125
1761503549348995800,1.217995849609375,-0.4614105224609375,-0.5697479248046875,-0.0703887939453125
1761503549359052000,1.228052001953125,-0.481719970703125,-0.5445556640625,-0.05731201171875
1761503549369108000,1.23810791015625,-0.4607391357421875,-0.5122528076171875,-0.04620361328125
1761503549379164000,1.248163818359375,-0.41973876953125,-0.4971923828125,-0.0374908447265625
1761503549389220000,1.25822021484375,-0.3769683837890625,-0.4982147216796875,-0.0261993408203125
1761503549399276000,1.268276123046875,-0.3490142822265625,-0.4888763427734375,0.0012969970703125
1761503549409332000,1.27833203125,-0.3235931396484375,-0.484954833984375,0.0240020751953125
1761503549419388200,1.28838818359375,-0.2673187255859375,-0.4957733154296875,-0.010772705078125
1761503549429444000,1.298444091796875,-0.2642669677734375,-0.5130157470703125,-0.0179901123046875
1761503549439500000,1.3085,-0.3128814697265625,-0.493377685546875,-0.019805908203125
1761503549449556000,1.318555908203125,-0.337738037109375,-0.482696533203125,-0.048736572265625
1761503549459612000,1.32861181640625,-0.3755950927734375,-0.5262451171875,-0.0615234375
1761503549469667800,1.338667724609375,-0.48504638671875,-0.5948638916015625,-0.036346435546875
1761503549479724000,1.34872412109375,-0.5424041748046875,-0.673370361328125,-0.0212860107421875
1761503549489780000,1.358780029296875,-0.5143585205078125,-0.738037109375,-0.029205322265625
1761503549499836000,1.3688359375,-0.5074005126953125,-0.8013763427734375,-0.00775146484375
1761503549509892000,1.37889208984375,-0.51513671875,-0.89678955078125,0.056915283203125
1761503549519948000,1.388947998046875,-0.5872955322265625,-1.016632080078125,0.1004638671875
1761503549530004000,1.39900390625,-0.72021484375,-1.1613922119140625,0.0902099609375
1761503549540060200,1.40906005859375,-0.9010162353515625,-1.298004150390625,0.0721435546875
1761503549550116000,1.4191162109375,-1.1524200439453125,-1.45697021484375,0.0969696044921875
1761503549560172000,1.429172119140625,-1.48193359375,-1.6373748779296875,0.13568115234375
1761503549570228000,1.43922802734375,-1.486236572265625,-1.7485198974609375,0.251007080078125
1761503549580284000,1.449283935546875,-1.434051513671875,-1.778594970703125,0.3140106201171875
1761503549590339800,1.45933984375,-1.3313446044921875,-1.6881103515625,0.2653656005859375
1761503549600396000,1.46939599609375,-1.1737060546875,-1.5857391357421875,0.08441162109375
1761503549610452000,1.479451904296875,-1.0531768798828125,-1.5760498046875,-0.1561737060546875
1761503549620509000,1.489509033203125,-0.987884521484375,-1.6039581298828125,-0.373016357421875
1761503549630564900,1.49956494140625,-0.9569244384765625,-1.591094970703125,-0.4564971923828125
1761503549640621000,1.50962109375,-0.98504638671875,-1.42657470703125,-0.380950927734375
1761503549650677000,1.519677001953125,-1.07208251953125,-1.3357086181640625,-0.20294189453125
1761503549660733000,1.52973291015625,-0.999176025390625,-1.2557373046875,-0.00494384765625
1761503549670789000,1.5397890625,-0.8017120361328125,-1.15704345703125,0.09771728515625
1761503549680845000,1.549844970703125,-0.5618896484375,-1.0668487548828125,0.0673828125
1761503549690901000,1.55990087890625,-0.404449462890625,-0.94671630859375,-0.0217742919921875
1761503549700957200,1.569957275390625,-0.300018310546875,-0.7909088134765625,-0.09912109375
1761503549711013000,1.58001318359375,-0.1907958984375,-0.6079254150390625,-0.2435150146484375
1761503549721069000,1.590069091796875,-0.06689453125,-0.48724365234375,-0.3303680419921875
1761503549731125000,1.600125,-0.1806640625,-0.422698974609375,-0.2152862548828125
1761503549741181000,1.610180908203125,-0.416107177734375,-0.36810302734375,0.0213623046875
1761503549751236900,1.62023681640625,-0.464141845703125,-0.250152587890625,0.1217498779296875
1761503549761293000,1.63029296875,-0.3040924072265625,-0.0570831298828125,0.105499267578125
1761503549771349000,1.640348876953125,-0.2822265625,0.0778961181640625,0.0420684814453125
1761503549781405000,1.650405029296875,-0.27850341796875,0.1644134521484375,0.006439208984375
1761503549791460900,1.6604609375,-0.20672607421875,0.23333740234375,-0.072052001953125
1761503549801517000,1.67051708984375,-0.0988922119140625,0.21563720703125,-0.0857696533203125
1761503549811573000,1.680572998046875,-0.031005859375,0.1537322998046875,0.016845703125
1761503549821629000,1.69062890625,-0.0363006591796875,0.0711669921875,0.1172027587890625
1761503549831685000,1.70068505859375,0.1122283935546875,0.0028839111328125,0.03302001953125
1761503549841741000,1.710740966796875,0.29852294921875,-0.0336456298828125,-0.2339019775390625
1761503549851797000,1.720796875,0.4346923828125,0.1334686279296875,-0.19549560546875
1761503549861853000,1.73085302734375,0.4042205810546875,0.3135223388671875,-0.1947784423828125
1761503549871908900,1.740908935546875,0.246063232421875,0.227508544921875,-0.0915679931640625
1761503549881964800,1.75096484375,0.0413665771484375,0.1263427734375,0.0035858154296875
1761503549892021000,1.76102099609375,-0.066925048828125,0.0914306640625,0.0326690673828125
1761503549902077000,1.771076904296875,-0.082733154296875,0.0498046875,-0.058868408203125
1761503549912132900,1.7811328125,-0.101959228515625,0.0082550048828125,-0.1913299560546875
1761503549922189000,1.79118896484375,-0.406158447265625,0.2570953369140625,-0.2332305908203125
1761503549932245000,1.801244873046875,-0.464599609375,0.0508880615234375,-0.1150970458984375
1761503549942301000,1.811301025390625,-0.300750732421875,-0.3610687255859375,0.023590087890625
1761503549952357000,1.821357177734375,0.04058837890625,-0.3703765869140625,0.0011138916015625
1761503549962413000,1.8314130859375,0.2490386962890625,-0.3499755859375,-0.0848846435546875
1761503549972469000,1.841468994140625,0.51397705078125,-0.5476226806640625,-0.2137908935546875
1761503549982525000,1.85152490234375,0.394561767578125,-0.8648681640625,-0.18603515625
1761503549992580900,1.861580810546875,0.06134033203125,-1.47564697265625,-0.0060577392578125
1761503550002636800,1.87163671875,-0.0903167724609375,-2.534637451171875,0.31793212890625
1761503550012693000,1.88169287109375,-0.5077667236328125,-3.0728912353515625,0.1612396240234375
1761503550022749000,1.8917490234375,-0.834686279296875,-3.344024658203125,0.0707550048828125
1761503550032806000,1.901805908203125,-1.1512603759765625,-3.453948974609375,0.0041961669921875
1761503550042861800,1.91186181640625,-1.018280029296875,-3.3214874267578125,-0.07366943359375
1761503550052918000,1.92191796875,-0.7546844482421875,-3.3478240966796875,-0.228851318359375
1761503550062970400,1.931970458984375,-0.8262176513671875,-3.4537200927734375,-0.3154296875
1761503550073026300,1.9420263671875,-1.358245849609375,-3.583343505859375,-0.2160186767578125
1761503550083082500,1.95208251953125,-1.6931304931640625,-3.7060394287109375,-0.00311279296875
1761503550093138400,1.962138427734375,-1.60955810546875,-3.7224884033203125,0.2206878662109375
1761503550103194000,1.972194091796875,-1.53204345703125,-3.66082763671875,0.2636260986328125
1761503550113250300,1.982250244140625,-1.66766357421875,-3.5810699462890625,0.240020751953125
1761503550123306200,1.99230615234375,-1.407073974609375,-2.9882354736328125,0.2321929931640625
1761503550133362200,2.002362060546875,-1.031494140625,-2.0826416015625,0.012939453125
1761503550143418400,2.01241845703125,-0.74755859375,-1.299713134765625,-0.3072357177734375
1761503550153474300,2.022474365234375,-0.5843963623046875,-0.7979278564453125,-0.349945068359375
1761503550163530200,2.0325302734375,-0.3667449951171875,-0.5229034423828125,-0.254302978515625
1761503550173586400,2.04258642578125,-0.2037506103515625,-0.3043975830078125,-0.08984375
1761503550183642400,2.052642333984375,-0.04693603515625,-0.320892333984375,0.0953216552734375
1761503550193698300,2.0626982421875,-0.065765380859375,-0.7242279052734375,0.1986541748046875
1761503550203754500,2.07275439453125,-0.417510986328125,-0.951690673828125,0.2619781494140625
1761503550213810400,2.082810546875,-0.475494384765625,-0.7698974609375,0.225189208984375
1761503550223866400,2.092866455078125,-0.40362548828125,-0.48602294921875,0.1985321044921875
1761503550233922300,2.10292236328125,-0.3331756591796875,-0.2456512451171875,0.13018798828125
1761503550243978200,2.112978271484375,-0.1321258544921875,-0.0381011962890625,-0.0687713623046875
1761503550254034200,2.1230341796875,0.039215087890625,0.2030029296875,-0.2948760986328125
1761503550264090400,2.13309033203125,0.2269134521484375,0.47747802734375,-0.4241485595703125
1761503550274146300,2.143146240234375,0.2881317138671875,0.6313629150390625,-0.4238433837890625
1761503550284202200,2.1532021484375,0.3148651123046875,0.7221527099609375,-0.292083740234375
1761503550294258400,2.163258544921875,0.3204498291015625,0.754425048828125,-0.170623779296875
1761503550304314400,2.173314453125,0.255279541015625,0.670501708984375,-0.057647705078125
1761503550314370300,2.183370361328125,0.1287078857421875,0.616302490234375,0.0423431396484375
1761503550324426500,2.193426513671875,0.21099853515625,0.3674468994140625,0.2285003662109375
1761503550334482400,2.203482421875,0.1803741455078125,0.1381683349609375,0.3458709716796875
1761503550344538400,2.213538330078125,-0.063629150390625,0.1237945556640625,0.2187347412109375
1761503550354594600,2.223594482421875,-0.1682281494140625,-0.022308349609375,0.1161956787109375
1761503550364650200,2.233650146484375,-0.1742095947265625,-0.1835784912109375,0.03765869140625
1761503550374706200,2.2437060546875,-0.0927581787109375,-0.288238525390625,-0.0550994873046875
1761503550384762400,2.253762451171875,0.0361328125,-0.3414154052734375,-0.1087646484375
1761503550394818300,2.263818359375,0.146759033203125,-0.2686309814453125,-0.11993408203125
1761503550404875300,2.273875244140625,0.198486328125,-0.1397857666015625,-0.060943603515625
1761503550414931200,2.28393115234375,0.126953125,-0.070068359375,0.00140380859375
1761503550424987400,2.2939873046875,0.03759765625,0.0386962890625,0.0082244873046875
1761503550435043300,2.304043212890625,0.0186614990234375,0.1320648193359375,0.0093841552734375
1761503550445099300,2.314099365234375,0.0541534423828125,0.2244720458984375,-0.00048828125
1761503550455155500,2.324155517578125,0.1063079833984375,0.3319091796875,0.0034637451171875
1761503550465211400,2.33421142578125,0.040679931640625,0.340484619140625,0.0479736328125
1761503550475267300,2.344267333984375,-0.02557373046875,0.3061065673828125,0.07421875
1761503550485323500,2.354323486328125,-0.1548004150390625,0.1962432861328125,0.0891571044921875
1761503550495379500,2.36437939453125,-0.3224945068359375,-0.0528717041015625,0.1136474609375
1761503550505435400,2.374435302734375,-0.4010009765625,-0.2506866455078125,0.0900421142578125
1761503550515491300,2.3844912109375,-0.4169464111328125,-0.2937469482421875,-0.00439453125
1761503550525547300,2.39454736328125,-0.4246978759765625,-0.278778076171875,-0.0740814208984375
1761503550535603200,2.404603271484375,-0.400390625,-0.229156494140625,-0.1031494140625
1761503550545659400,2.414659423828125,-0.319854736328125,-0.224151611328125,-0.083251953125
1761503550555715300,2.42471533203125,-0.427764892578125,-0.3121490478515625,0.0026092529296875
1761503550565771300,2.434771240234375,-0.392669677734375,-0.8469085693359375,0.11688232421875
1761503550575827500,2.444827392578125,-0.1833038330078125,-1.8037261962890625,0.23114013671875
1761503550585883400,2.45488330078125,0.22686767578125,-2.7326812744140625,0.2198333740234375
1761503550595939300,2.464939208984375,0.1893310546875,-3.5373992919921875,0.1192169189453125
1761503550605995500,2.47499560546875,-0.01922607421875,-4.3152618408203125,0.2327880859375
1761503550616051500,2.485051513671875,-0.16253662109375,-4.56671142578125,0.212188720703125
1761503550626107400,2.495107421875,-0.2143096923828125,-4.5880279541015625,-0.0379791259765625
1761503550636163600,2.50516357421875,-0.3407135009765625,-4.6293792724609375,0.023529052734375
1761503550646219300,2.51521923828125,-0.4897003173828125,-4.4015960693359375,0.3327484130859375
1761503550656275200,2.525275146484375,-0.51934814453125,-3.7134246826171875,0.2490997314453125
1761503550666331400,2.535331298828125,-0.4838714599609375,-3.212677001953125,0.3162078857421875
1761503550676387300,2.54538720703125,-0.40216064453125,-3.072235107421875,0.4737701416015625
1761503550686443300,2.555443359375,-0.1274871826171875,-3.0366058349609375,0.36334228515625
1761503550696499500,2.56549951171875,-0.1378936767578125,-2.8508758544921875,0.1374664306640625
1761503550706555400,2.575555419921875,-0.2500762939453125,-2.6310577392578125,-0.06658935546875
1761503550716611300,2.585611328125,-0.0750885009765625,-2.60089111328125,-0.4119873046875
1761503550726667500,2.59566748046875,0.0783538818359375,-2.29937744140625,-0.7785797119140625
1761503550736723500,2.605723388671875,0.2347869873046875,-1.925262451171875,-0.7848663330078125
1761503550746779400,2.615779296875,0.2986297607421875,-1.44940185546875,-0.54571533203125
1761503550756836400,2.62583642578125,0.0527496337890625,-0.955963134765625,-0.29266357421875
1761503550766892500,2.635892578125,0.4510650634765625,-0.546966552734375,0.0767669677734375
1761503550776948500,2.645948486328125,0.7108917236328125,-0.2506103515625,0.3807525634765625
1761503550787004400,2.65600439453125,0.398345947265625,0.0931549072265625,0.6621551513671875
1761503550797060400,2.666060302734375,-0.0507354736328125,0.1151580810546875,0.6540374755859375
1761503550807116300,2.6761162109375,-0.4766387939453125,0.2068328857421875,0.4524078369140625
1761503550817172200,2.686172119140625,-0.641204833984375,0.08966064453125,0.30865478515625
1761503550827228400,2.696228515625,-0.8836822509765625,0.0333099365234375,0.1084136962890625
1761503550837284400,2.706284423828125,-0.8924102783203125,0.1861114501953125,-0.1413726806640625
1761503550847340300,2.71634033203125,-0.7363433837890625,0.261260986328125,-0.2208709716796875
1761503550857396500,2.726396484375,-0.4352569580078125,0.19781494140625,-0.1910247802734375
1761503550867452400,2.736452392578125,-0.1309661865234375,0.130096435546875,-0.1142578125
1761503550877508400,2.74650830078125,-0.1260986328125,0.0735015869140625,0.038604736328125
1761503550887564500,2.756564453125,-0.29058837890625,0.0894012451171875,0.137542724609375
1761503550897620500,2.766620361328125,-0.230316162109375,0.0149688720703125,0.21484375
1761503550907676400,2.776676513671875,-0.1525115966796875,-0.058258056640625,0.2404937744140625
1761503550917732400,2.786732421875,-0.2180633544921875,-0.106964111328125,0.16339111328125
1761503550927788300,2.796788330078125,-0.193145751953125,-0.0967864990234375,0.0579833984375
1761503550937844200,2.80684423828125,-0.0489349365234375,-0.0981292724609375,-0.0704193115234375
1761503550947900400,2.816900390625,0.0517425537109375,-0.0236968994140625,-0.1325531005859375
1761503550957956400,2.826956298828125,0.102569580078125,0.10443115234375,-0.1362457275390625
1761503550968012300,2.83701220703125,0.0454254150390625,0.2166290283203125,-0.17315673828125
1761503550978068200,2.847068115234375,0.076171875,0.2534027099609375,-0.222930908203125
1761503550988124400,2.85712451171875,0.0842132568359375,0.2350311279296875,-0.1692962646484375
1761503550998180400,2.867180419921875,-0.0302734375,0.236968994140625,-0.1251220703125
1761503551008236300,2.877236328125,-0.1569366455078125,0.12652587890625,-0.0791168212890625
1761503551018292500,2.88729248046875,-0.2657928466796875,0.0279541015625,0.0147705078125
1761503551028348400,2.897348388671875,-0.1621246337890625,-0.0380096435546875,0.098876953125
1761503551038404400,2.907404296875,-0.0815582275390625,-0.039520263671875,0.1304779052734375
1761503551048460300,2.917460205078125,-0.033294677734375,0.0193328857421875,0.119598388671875
1761503551058516200,2.92751611328125,0.084564208984375,0.1649169921875,0.0595245361328125
1761503551068572200,2.937572265625,0.1629486083984375,0.2885894775390625,-0.0185699462890625
1761503551078628400,2.94762841796875,0.1343841552734375,0.337493896484375,0.0161285400390625
1761503551088685300,2.957685302734375,-0.0060577392578125,0.2926483154296875,0.0882415771484375
1761503551098741200,2.9677412109375,-0.120819091796875,0.1473388671875,0.10052490234375
1761503551108797200,2.977797119140625,-0.234619140625,-0.0683746337890625,0.110504150390625
1761503551118853400,2.987853271484375,-0.308624267578125,-0.36279296875,0.0659332275390625
1761503551128909000,2.997908935546875,-0.319915771484375,-0.6192169189453125,0.0146331787109375
1761503551138965200,3.00796533203125,-0.319244384765625,-0.87408447265625,-0.0106201171875
1761503551149021200,3.018021240234375,-0.162872314453125,-1.1884765625,0.0438690185546875
1761503551159077000,3.0280771484375,0.1572265625,-1.5762786865234375,0.2379302978515625
1761503551169133300,3.03813330078125,0.541412353515625,-2.181793212890625,0.3017425537109375
1761503551179189200,3.048189208984375,0.57965087890625,-2.966705322265625,0.1799468994140625
1761503551189245200,3.0582451171875,0.4193572998046875,-3.5709991455078125,-0.00970458984375
1761503551199301000,3.068301025390625,-0.124481201171875,-4.3822479248046875,-0.1092681884765625
1761503551209357300,3.078357421875,-0.274383544921875,-4.812713623046875,-0.1651153564453125
1761503551219413200,3.088413330078125,0.0361785888671875,-4.4545440673828125,-0.0952606201171875
1761503551229469200,3.09846923828125,-0.27801513671875,-3.9838104248046875,0.117706298828125
1761503551239525400,3.108525390625,-0.4187469482421875,-3.737884521484375,0.15631103515625
1761503551249581300,3.118581298828125,-0.188812255859375,-3.8169097900390625,0.1162872314453125
1761503551259637000,3.128636962890625,-0.3244171142578125,-3.9093780517578125,0.1060333251953125
1761503551269693200,3.138693115234375,-0.537353515625,-3.705291748046875,0.02874755859375
1761503551279749000,3.1487490234375,-0.7222900390625,-3.3740081787109375,-0.113494873046875
1761503551289805000,3.15880517578125,-0.829376220703125,-2.9074554443359375,-0.3389892578125
1761503551299861200,3.168861328125,-0.7178802490234375,-2.208953857421875,-0.392364501953125
1761503551309917200,3.178917236328125,-0.3312835693359375,-1.6468048095703125,-0.2695465087890625
1761503551319973000,3.18897314453125,0.0974578857421875,-1.12835693359375,-0.1150970458984375
1761503551330029300,3.199029296875,0.3873748779296875,-0.72955322265625,0.01446533203125
1761503551340085200,3.209085205078125,0.505157470703125,-0.6096343994140625,0.0583038330078125
1761503551350141200,3.21914111328125,0.3936309814453125,-0.6207275390625,0.1360626220703125
1761503551360197400,3.229197265625,-0.0089111328125,-1.04254150390625,0.184906005859375
1761503551370253300,3.23925341796875,-0.3816680908203125,-1.2591094970703125,0.1141357421875
1761503551380309200,3.249309326171875,-0.3451080322265625,-1.0854949951171875,-0.12139892578125
1761503551390365200,3.259365234375,-0.0629425048828125,-1.02996826171875,-0.1411895751953125
1761503551400421000,3.269421142578125,0.006256103515625,-0.5872344970703125,-0.06170654296875
1761503551410477000,3.27947705078125,0.055084228515625,0.087890625,-0.0543670654296875
1761503551420534000,3.289533935546875,0.0902252197265625,0.6778411865234375,-0.060333251953125
1761503551430590200,3.299590087890625,0.0871124267578125,0.96240234375,-0.0248565673828125
1761503551440646100,3.309646240234375,0.019927978515625,0.852813720703125,0.0380859375
1761503551450702000,3.3197021484375,-0.1072540283203125,0.69036865234375,0.016021728515625
1761503551460758300,3.32975830078125,-0.24755859375,0.59033203125,-0.0043182373046875
1761503551470814200,3.339814208984375,-0.464630126953125,0.5396270751953125,-0.0034332275390625
1761503551480870100,3.3498701171875,-0.6687164306640625,0.431793212890625,-0.01348876953125
1761503551490926300,3.35992626953125,-0.6971282958984375,0.334503173828125,0.0175933837890625
1761503551500982300,3.369982177734375,-0.5202178955078125,0.28448486328125,0.0325775146484375
1761503551511038200,3.3800380859375,-0.303375244140625,0.2389678955078125,0.048919677734375
1761503551521094400,3.390094482421875,-0.234405517578125,0.1686248779296875,0.0580596923828125
1761503551531150300,3.400150390625,-0.1834716796875,0.054901123046875,-0.002532958984375
1761503551541206000,3.4102060546875,-0.1377105712890625,-0.0711669921875,-0.0853424072265625
1761503551551262200,3.42026220703125,-0.13067626953125,-0.127777099609375,-0.1336669921875
1761503551561318100,3.430318115234375,-0.108978271484375,-0.10430908203125,-0.1825408935546875
1761503551571374000,3.4403740234375,-0.0812835693359375,-0.0035552978515625,-0.1959991455078125
1761503551581430300,3.45043017578125,-0.132843017578125,0.112060546875,-0.1451416015625
1761503551591486200,3.460486328125,-0.14947509765625,0.2231903076171875,-0.059356689453125
1761503551601542100,3.470542236328125,-0.0999908447265625,0.2922515869140625,0.0220794677734375
1761503551611598300,3.480598388671875,-0.0328521728515625,0.3304595947265625,0.0992889404296875
1761503551621654300,3.490654296875,0.0263824462890625,0.4107513427734375,0.138885498046875
1761503551631710200,3.500710205078125,0.0522003173828125,0.4573974609375,0.09423828125
1761503551641766400,3.510766357421875,-0.0030364990234375,0.3935699462890625,0.0324859619140625
1761503551651822300,3.520822265625,-0.0888671875,0.164520263671875,0.0558929443359375
1761503551661878300,3.530878173828125,-0.1226806640625,-0.242095947265625,0.140167236328125
1761503551671934200,3.540934326171875,-0.141510009765625,-0.5654449462890625,0.2484130859375
1761503551681990100,3.550990234375,-0.077056884765625,-0.7049560546875,0.3175811767578125
1761503551692046000,3.561046142578125,-0.0387420654296875,-0.718658447265625,0.27301025390625
1761503551702102300,3.571102294921875,-0.1281890869140625,-0.6490478515625,0.1472015380859375
1761503551712158200,3.581158203125,-0.3492431640625,-0.7005462646484375,-0.0302886962890625
1761503551722215200,3.591215087890625,-0.537139892578125,-1.03533935546875,-0.132476806640625
1761503551732271000,3.60127099609375,-0.364288330078125,-1.373382568359375,-0.0483551025390625
1761503551742327300,3.611327392578125,0.165008544921875,-1.67535400390625,0.0403594970703125
1761503551752383200,3.62138330078125,0.431732177734375,-1.896240234375,0.0881805419921875
1761503551762439200,3.631439208984375,0.28265380859375,-2.65936279296875,0.189208984375
1761503551772495400,3.641495361328125,-0.3341522216796875,-3.2626190185546875,0.102783203125
1761503551782551300,3.65155126953125,-0.6822967529296875,-3.3695831298828125,-0.08721923828125
1761503551792607200,3.661607177734375,-0.8797607421875,-3.7987823486328125,-0.220916748046875
1761503551802663400,3.671663330078125,-0.8831787109375,-4.1303863525390625,-0.3612213134765625
1761503551812719400,3.68171923828125,-1.0029754638671875,-4.4649658203125,-0.3783721923828125
1761503551822775000,3.691775146484375,-1.1557769775390625,-4.80401611328125,-0.1641998291015625
1761503551832831200,3.701831298828125,-0.937164306640625,-4.8779144287109375,-0.1143798828125
1761503551842887200,3.71188720703125,-0.7276458740234375,-4.3677825927734375,-0.23748779296875
1761503551852943000,3.721943115234375,-0.3738861083984375,-3.4929046630859375,-0.3860321044921875
1761503551862999300,3.731999267578125,0.239501953125,-2.609710693359375,-0.4100341796875
1761503551873055200,3.74205517578125,0.49658203125,-1.7944488525390625,-0.291259765625
1761503551883111200,3.752111083984375,0.597259521484375,-1.2495269775390625,-0.1910400390625
1761503551893167400,3.76216748046875,0.6678924560546875,-1.3559417724609375,-0.0397186279296875
1761503551903223300,3.772223388671875,0.6685943603515625,-1.5253448486328125,0.2765960693359375
1761503551913279200,3.782279296875,0.35626220703125,-1.5630340576171875,0.3588104248046875
1761503551923335400,3.79233544921875,-0.25457763671875,-1.47283935546875,0.07574462890625
1761503551933391400,3.802391357421875,-0.3718109130859375,-1.6070709228515625,-0.1193389892578125
1761503551943447000,3.812447021484375,-0.6318511962890625,-1.21624755859375,-0.1592254638671875
1761503551953503200,3.822503173828125,-0.470611572265625,-0.6168975830078125,-0.0059051513671875
1761503551963559200,3.83255908203125,-0.212005615234375,-0.317169189453125,0.1545867919921875
1761503551973615000,3.842614990234375,-0.3176422119140625,0.0306243896484375,0.2773895263671875
1761503551983671300,3.85267138671875,-0.5561676025390625,0.1299896240234375,0.2802276611328125
1761503551993727200,3.862727294921875,-0.63079833984375,0.195068359375,0.0160980224609375
1761503552003783200,3.872783203125,-0.6034698486328125,0.4261474609375,-0.264068603515625
1761503552013840100,3.882840087890625,-0.463623046875,0.551055908203125,-0.3486480712890625
1761503552023896300,3.892896240234375,-0.4518585205078125,0.563995361328125,-0.2778472900390625
1761503552033952300,3.9029521484375,-0.324798583984375,0.4243316650390625,-0.1727294921875
1761503552044008200,3.91300830078125,-0.330841064453125,0.2822265625,-0.055572509765625
1761503552054064400,3.923064453125,-0.37689208984375,0.2383575439453125,-0.002349853515625
1761503552064124200,3.933124267578125,-0.312255859375,0.2204437255859375,-0.003875732421875
1761503552074180000,3.94318017578125,-0.1438751220703125,0.1612396240234375,-0.023284912109375
1761503552084236000,3.953236083984375,-0.0337066650390625,0.0797119140625,-0.035003662109375
1761503552094292200,3.963292236328125,0.0109405517578125,-0.0165252685546875,-0.054901123046875
1761503552104348200,3.97334814453125,0.0320892333984375,-0.0935821533203125,-0.092803955078125
1761503552114404000,3.983404052734375,0.04425048828125,-0.0764312744140625,-0.11883544921875
1761503552124460300,3.993460205078125,0.021697998046875,-0.032012939453125,-0.1730194091796875
1761503552134516000,4.003515869140625,0.0057525634765625,0.0090484619140625,-0.22076416015625
1761503552144572000,4.013572021484375,-0.0243377685546875,0.169830322265625,-0.1434326171875
1761503552154628000,4.023628173828125,-0.0701141357421875,0.2653045654296875,-0.0017852783203125
1761503552164684000,4.03368408203125,-0.1209869384765625,0.309722900390625,0.10064697265625
1761503552174740000,4.043739990234375,-0.1409454345703125,0.3477935791015625,0.1689910888671875
1761503552184796200,4.053796142578125,-0.1448516845703125,0.2773895263671875,0.226806640625
1761503552194852000,4.06385205078125,-0.150146484375,0.183807373046875,0.26458740234375
1761503552204908000,4.073907958984375,-0.2046356201171875,0.1502227783203125,0.2599639892578125
1761503552214964200,4.083964111328125,-0.229827880859375,0.172882080078125,0.1641082763671875
1761503552225020200,4.094020263671875,-0.1240081787109375,0.239044189453125,0.0555572509765625
1761503552235076000,4.104076171875,0.0167999267578125,0.2531890869140625,-0.0003814697265625
1761503552245132300,4.11413232421875,0.0602569580078125,0.1345672607421875,0.0063018798828125
1761503552255189200,4.124189208984375,-0.04486083984375,-0.0645904541015625,0.088531494140625
1761503552265245200,4.1342451171875,-0.1714324951171875,-0.3947601318359375,0.1417694091796875
1761503552275301000,4.144301025390625,-0.28021240234375,-0.712127685546875,0.0633087158203125
1761503552285357000,4.154357177734375,-0.3721160888671875,-0.8928070068359375,-0.028656005859375
1761503552295413000,4.1644130859375,-0.3058929443359375,-1.079437255859375,-0.12030029296875
1761503552305469000,4.174468994140625,-0.1155853271484375,-1.23565673828125,-0.2015533447265625
1761503552315525000,4.184525146484375,0.1024169921875,-1.3659820556640625,-0.19000244140625
1761503552325581000,4.1945810546875,0.3642425537109375,-1.590667724609375,-0.1890411376953125
1761503552335637000,4.204636962890625,0.601318359375,-1.9169464111328125,-0.2140960693359375
1761503552345693200,4.214693115234375,0.4117584228515625,-2.324615478515625,-0.199737548828125
1761503552355749000,4.2247490234375,0.062286376953125,-2.990203857421875,-0.084381103515625
1761503552365805000,4.23480517578125,-0.2554931640625,-3.6161346435546875,0.0260009765625
1761503552375861200,4.244861328125,-0.2154998779296875,-3.959320068359375,-0.140533447265625
1761503552385917200,4.254917236328125,-0.2318878173828125,-3.9689483642578125,-0.217315673828125
1761503552395973000,4.26497314453125,-0.6540679931640625,-3.8636627197265625,-0.1483154296875
1761503552406029000,4.275029052734375,-0.9966583251953125,-3.8907318115234375,-0.1248779296875
1761503552416085000,4.2850849609375,-0.8015899658203125,-3.86602783203125,-0.21978759765625
1761503552426141000,4.295140869140625,-0.57916259765625,-3.6824188232421875,-0.4220733642578125
1761503552436197000,4.305197021484375,-0.3871002197265625,-3.4853057861328125,-0.5622406005859375
1761503552446253000,4.315253173828125,0.12298583984375,-3.154022216796875,-0.556365966796875
1761503552456309000,4.32530908203125,0.63031005859375,-2.7263946533203125,-0.4835968017578125
1761503552466365200,4.335365234375,0.9267120361328125,-2.4456634521484375,-0.3487091064453125
1761503552476421000,4.345421142578125,0.7808380126953125,-2.10418701171875,-0.083770751953125
1761503552486477000,4.35547705078125,0.4385528564453125,-1.876220703125,0.1634521484375
1761503552496533200,4.365533203125,0.1376800537109375,-1.8629150390625,0.2191925048828125
1761503552506589200,4.375589111328125,-0.211669921875,-1.7112884521484375,0.0158233642578125
1761503552516645000,4.38564501953125,-0.34625244140625,-1.4088592529296875,-0.244415283203125
1761503552526702000,4.3957021484375,-0.2763824462890625,-1.096343994140625,-0.317596435546875
1761503552536758300,4.40575830078125,-0.1415557861328125,-0.63421630859375,-0.2637939453125
1761503552546814200,4.415814208984375,-0.1592559814453125,-0.170684814453125,-0.0607757568359375
1761503552556870100,4.4258701171875,-0.2729644775390625,0.1443939208984375,0.0886688232421875
1761503552566926000,4.435926025390625,-0.3460540771484375,0.3376617431640625,0.1470947265625
1761503552576982000,4.44598193359375,-0.4294281005859375,0.55841064453125,0.1438751220703125
1761503552587038000,4.456037841796875,-0.4697113037109375,0.757598876953125,0.1295928955078125
1761503552597094100,4.46609423828125,-0.4088134765625,0.636993408203125,0.111236572265625
1761503552607150000,4.476150146484375,-0.3807525634765625,0.3195648193359375,0.0999298095703125
1761503552617206000,4.4862060546875,-0.4024505615234375,0.0464324951171875,0.0945892333984375
1761503552627262200,4.49626220703125,-0.387451171875,-0.1584014892578125,0.0537567138671875
1761503552637318100,4.506318115234375,-0.279571533203125,-0.1695404052734375,-0.0080108642578125
1761503552647374000,4.5163740234375,-0.050262451171875,-0.1065826416015625,-0.065093994140625
1761503552657430300,4.52643017578125,0.115081787109375,-0.042755126953125,-0.1011199951171875
1761503552667486200,4.536486328125,0.195587158203125,-0.0045013427734375,-0.1119842529296875
1761503552677542100,4.546542236328125,0.164398193359375,-0.01861572265625,-0.143096923828125
1761503552687598000,4.55659814453125,0.068145751953125,0.010589599609375,-0.1218109130859375
1761503552697654000,4.566654052734375,-0.2010345458984375,0.02557373046875,-0.0048828125
1761503552707710000,4.5767099609375,-0.374237060546875,0.046661376953125,0.096160888671875
1761503552717766100,4.58676611328125,-0.27972412109375,0.169708251953125,0.0361175537109375
1761503552727822000,4.596822021484375,-0.1427001953125,0.29705810546875,-0.066253662109375
1761503552737879000,4.606879150390625,-0.1363677978515625,0.352081298828125,-0.07086181640625
1761503552747935000,4.61693505859375,-0.1856231689453125,0.367034912109375,-0.0349578857421875
1761503552757991200,4.6269912109375,-0.2654876708984375,0.3376617431640625,0.025604248046875
1761503552768047000,4.637047119140625,-0.3439788818359375,0.34765625,0.0961456298828125
1761503552778103000,4.64710302734375,-0.31024169921875,0.3929901123046875,0.11907958984375
1761503552788159200,4.6571591796875,-0.205413818359375,0.4716949462890625,0.112274169921875
1761503552798215200,4.667215087890625,-0.06280517578125,0.5228729248046875,0.075775146484375
1761503552808271000,4.67727099609375,0.02362060546875,0.373809814453125,0.0183563232421875
1761503552818327300,4.687327392578125,0.0142364501953125,0.082061767578125,0.0064849853515625
1761503552828383200,4.69738330078125,-0.0774383544921875,-0.3382415771484375,-0.0118408203125
1761503552838439000,4.70743896484375,-0.189666748046875,-0.6650238037109375,0.006256103515625
1761503552848495000,4.7174951171875,-0.1856689453125,-0.766357421875,0.0255584716796875
1761503552858551000,4.727551025390625,-0.0640716552734375,-0.751739501953125,0.058258056640625
1761503552868607000,4.73760693359375,0.05755615234375,-0.680999755859375,0.07293701171875
1761503552878663200,4.7476630859375,0.1220550537109375,-0.5748291015625,0.031280517578125
1761503552888719000,4.757718994140625,0.043487548828125,-0.5228424072265625,-0.0301971435546875
1761503552898775000,4.767775146484375,0.031524658203125,-0.67291259765625,-0.0703582763671875
1761503552908831200,4.777831298828125,0.1046142578125,-1.1430816650390625,-0.13348388671875
1761503552918887200,4.78788720703125,0.05389404296875,-1.8460845947265625,-0.1528167724609375
1761503552928943000,4.797943115234375,-0.0981292724609375,-2.5705108642578125,-0.2104949951171875
1761503552938999300,4.807999267578125,-0.33953857421875,-3.2059783935546875,-0.2373504638671875
1761503552949056300,4.81805615234375,-0.4507293701171875,-3.550933837890625,-0.2593231201171875
1761503552959112200,4.8281123046875,-0.4588623046875,-3.7524261474609375,-0.2664794921875
1761503552969168100,4.838168212890625,-0.542327880859375,-3.975982666015625,-0.1388702392578125
1761503552979224300,4.848224365234375,-0.5792083740234375,-3.8966827392578125,-0.1979522705078125
1761503552989280000,4.858280029296875,-0.7709503173828125,-3.7696685791015625,-0.2779388427734375
1761503552999336000,4.8683359375,-0.790557861328125,-3.5406494140625,-0.298004150390625
1761503553009392000,4.87839208984375,-0.5191192626953125,-3.330230712890625,-0.328826904296875
1761503553019448000,4.888447998046875,-0.443878173828125,-3.4287261962890625,-0.2443389892578125
1761503553029504000,4.89850390625,-0.4363250732421875,-3.4299468994140625,-0.1744232177734375
1761503553039560200,4.908560302734375,-0.28533935546875,-3.1219329833984375,-0.258544921875
1761503553049616100,4.9186162109375,-0.104522705078125,-2.8131866455078125,-0.27301025390625
1761503553059672000,4.928672119140625,0.0714569091796875,-2.53021240234375,-0.1937713623046875
1761503553069724700,4.938724609375,0.14923095703125,-2.194610595703125,-0.135894775390625
1761503553079780900,4.94878076171875,0.159576416015625,-1.72857666015625,-0.0693206787109375
1761503553089836800,4.9588369140625,0.169525146484375,-1.3013153076171875,-0.0302276611328125
1761503553099892700,4.968892822265625,0.2452545166015625,-0.9984283447265625,-0.0371856689453125
1761503553109948700,4.97894873046875,0.185821533203125,-0.6792144775390625,-0.0364227294921875
1761503553120004600,4.989004638671875,-0.054351806640625,-0.4625244140625,-0.026824951171875
1761503553130060800,4.999060791015625,-0.315093994140625,-0.2293243408203125,0.071044921875
1761503553140116700,5.00911669921875,-0.451080322265625,-0.0389556884765625,0.1757049560546875
1761503553150172700,5.019172607421875,-0.3312225341796875,0.041046142578125,0.14447021484375
1761503553160228600,5.029228515625,-0.208251953125,0.0337677001953125,0.0463409423828125
1761503553170285800,5.039285888671875,-0.1519012451171875,0.035186767578125,-0.057769775390625
1761503553180341800,5.049341796875,-0.1009979248046875,0.0520782470703125,-0.1712493896484375
1761503553190397700,5.059397705078125,-0.1290130615234375,0.0223846435546875,-0.2167510986328125
1761503553200453600,5.06945361328125,-0.2588958740234375,-0.06842041015625,-0.118560791015625
1761503553210509800,5.079509765625,-0.426025390625,-0.06451416015625,-0.009796142578125
1761503553220565800,5.089565673828125,-0.3443450927734375,-0.0612640380859375,0.0451507568359375
1761503553230621700,5.09962158203125,-0.1994171142578125,-0.107025146484375,0.07745361328125
1761503553240678000,5.109677978515625,-0.19879150390625,-0.0800323486328125,0.0863037109375
1761503553250733600,5.119733642578125,-0.2110748291015625,-0.024566650390625,0.0402679443359375
1761503553260789800,5.129789794921875,-0.1595001220703125,0.06842041015625,-0.003387451171875
1761503553270845700,5.139845703125,-0.1096343994140625,0.182769775390625,-0.03509521484375
1761503553280901600,5.149901611328125,-0.1137847900390625,0.2613067626953125,-0.0665130615234375
1761503553290957600,5.15995751953125,-0.217803955078125,0.3043060302734375,-0.05975341796875
1761503553301013800,5.170013671875,-0.35931396484375,0.3548126220703125,-0.02801513671875
1761503553311069700,5.180069580078125,-0.413970947265625,0.407684326171875,-0.059112548828125
1761503553321125600,5.190125732421875,-0.369781494140625,0.4660186767578125,-0.144134521484375
1761503553331181800,5.200181884765625,-0.29144287109375,0.4853363037109375,-0.203155517578125
1761503553341237800,5.21023779296875,-0.2597198486328125,0.4248809814453125,-0.19122314453125
1761503553351293700,5.220293701171875,-0.20452880859375,0.3012847900390625,-0.1208648681640625
1761503553361350700,5.2303505859375,-0.161712646484375,0.1660614013671875,-0.051300048828125
1761503553371406800,5.24040673828125,-0.1428680419921875,0.0413055419921875,0.0255584716796875
1761503553381462800,5.250462890625,-0.1886138916015625,-0.0184173583984375,0.0959625244140625
1761503553391518700,5.260518798828125,-0.1729278564453125,-0.0024871826171875,0.1247406005859375
1761503553401574700,5.27057470703125,0.0202484130859375,-0.0204315185546875,0.0738525390625
1761503553411630600,5.280630615234375,0.2068939208984375,-0.0295257568359375,0.011505126953125
1761503553421686500,5.2906865234375,0.2836761474609375,-0.1058502197265625,-0.0067596435546875
1761503553431742700,5.30074267578125,0.2297515869140625,-0.276214599609375,0.0065155029296875
1761503553441798700,5.310798583984375,0.0202484130859375,-0.522216796875,0.10205078125
1761503553451854600,5.3208544921875,-0.220062255859375,-0.827880859375,0.2259521484375
1761503553461910800,5.330910888671875,-0.2777099609375,-1.039642333984375,0.2525177001953125
1761503553471966700,5.340966796875,-0.1248779296875,-1.25494384765625,0.1614990234375
1761503553482022700,5.351022705078125,0.1112518310546875,-1.4403228759765625,0.07427978515625
1761503553492078800,5.361078857421875,0.379425048828125,-1.5296630859375,0.0175018310546875
1761503553502134800,5.371134765625,0.57171630859375,-1.7308502197265625,-0.0131072998046875
1761503553512190700,5.381190673828125,0.4892730712890625,-2.0182647705078125,0.020263671875
1761503553522247000,5.391246826171875,0.0535430908203125,-2.46533203125,0.072235107421875
1761503553532302600,5.401302490234375,-0.2563323974609375,-3.18927001953125,0.0558624267578125
1761503553542358500,5.411358642578125,-0.2779693603515625,-3.8665313720703125,-0.179107666015625
1761503553552415700,5.421415771484375,-0.0765380859375,-4.191864013671875,-0.46026611328125
1761503553562471700,5.4314716796875,0.0182342529296875,-4.362579345703125,-0.622650146484375
1761503553572527600,5.441527587890625,-0.30322265625,-4.302154541015625,-0.56866455078125
1761503553582583600,5.45158349609375,-0.376983642578125,-4.2609710693359375,-0.4483795166015625
1761503553592639700,5.4616396484375,-0.2083740234375,-4.265228271484375,-0.3964996337890625
1761503553602695700,5.47169580078125,-0.1248626708984375,-3.9900970458984375,-0.3955841064453125
1761503553612751600,5.481751708984375,-0.0689544677734375,-3.5026397705078125,-0.4113922119140625
1761503553622807800,5.491807861328125,-0.040740966796875,-3.0212554931640625,-0.347869873046875
1761503553632863700,5.50186376953125,0.0703887939453125,-2.488128662109375,-0.2989654541015625
1761503553642919700,5.511919677734375,0.361541748046875,-1.951171875,-0.29473876953125
1761503553652975900,5.521975830078125,0.5290679931640625,-1.4653778076171875,-0.2386322021484375
1761503553663031800,5.53203173828125,0.5064544677734375,-1.070587158203125,-0.1417388916015625
1761503553673087700,5.542087646484375,0.3529052734375,-0.71649169921875,-0.0853729248046875
1761503553683143700,5.552143798828125,0.264556884765625,-0.3661956787109375,-0.0865631103515625
1761503553693199600,5.56219970703125,0.1197357177734375,-0.1019744873046875,-0.073822021484375
1761503553703255600,5.572255615234375,-0.15283203125,0.068359375,0.0131683349609375
1761503553713311700,5.582311767578125,-0.3543548583984375,0.1832275390625,0.0433197021484375
1761503553723367700,5.59236767578125,-0.4373931884765625,0.3090972900390625,-0.010101318359375
1761503553733423600,5.602423583984375,-0.474761962890625,0.336090087890625,0.0312652587890625
1761503553743480600,5.61248046875,-0.4818572998046875,0.2997283935546875,0.14093017578125
1761503553753536800,5.622536865234375,-0.470458984375,0.3460235595703125,0.2397003173828125
1761503553763592700,5.6325927734375,-0.4664306640625,0.4182891845703125,0.2624664306640625
1761503553773648600,5.642648681640625,-0.4451904296875,0.471435546875,0.224853515625
1761503553783704800,5.652704833984375,-0.4095611572265625,0.4604949951171875,0.1730804443359375
1761503553793760800,5.6627607421875,-0.3948516845703125,0.447998046875,0.12152099609375
1761503553803816700,5.672816650390625,-0.430023193359375,0.433624267578125,0.0609130859375
1761503553813873000,5.682872802734375,-0.402252197265625,0.35540771484375,-0.0203094482421875
1761503553823928800,5.6929287109375,-0.2963409423828125,0.2507781982421875,-0.0858001708984375
1761503553833984500,5.702984619140625,-0.1486358642578125,0.1463470458984375,-0.1173553466796875
1761503553844040700,5.713040771484375,-0.0518798828125,0.045379638671875,-0.1435394287109375
1761503553854096600,5.7230966796875,-0.035400390625,-0.02313232421875,-0.154205322265625
1761503553864152600,5.733152587890625,-0.0447235107421875,-0.0985107421875,-0.1559906005859375
1761503553874208800,5.743208740234375,-0.0664520263671875,-0.1725921630859375,-0.1840362548828125
1761503553884264700,5.7532646484375,-0.117034912109375,-0.2351226806640625,-0.225433349609375
1761503553894320600,5.763320556640625,-0.14764404296875,-0.302490234375,-0.2566070556640625
1761503553904376800,5.773376953125,-0.159759521484375,-0.3177032470703125,-0.257965087890625
1761503553914432800,5.783432861328125,-0.12591552734375,-0.25799560546875,-0.243804931640625
1761503553924489700,5.79348974609375,-0.071197509765625,-0.1075897216796875,-0.1938934326171875
1761503553934545700,5.803545654296875,-0.029327392578125,0.0612640380859375,-0.090545654296875
1761503553944601900,5.813601806640625,-0.0810394287109375,0.160430908203125,0.013031005859375
1761503553954657800,5.82365771484375,-0.1389923095703125,0.204559326171875,0.0843505859375
1761503553964713700,5.833713623046875,-0.1704864501953125,0.1994171142578125,0.1562652587890625
1761503553974770000,5.84377001953125,-0.11138916015625,0.1384735107421875,0.16387939453125
1761503553984825600,5.85382568359375,-0.05181884765625,-0.003814697265625,0.155059814453125
1761503553994881500,5.863881591796875,-0.0291595458984375,-0.181732177734375,0.1866455078125
1761503554004937700,5.873937744140625,-0.0302886962890625,-0.26751708984375,0.2288360595703125
1761503554014993700,5.88399365234375,-0.0045318603515625,-0.3499755859375,0.3014678955078125
1761503554025049600,5.894049560546875,0.016876220703125,-0.5257568359375,0.345855712890625
1761503554035105800,5.904105712890625,-0.0318450927734375,-0.7837677001953125,0.337890625
1761503554045161700,5.91416162109375,0.0021514892578125,-1.1450958251953125,0.2528076171875
1761503554055217700,5.9242177734375,0.1905364990234375,-1.805572509765625,0.07318115234375
1761503554065272800,5.93427294921875,0.4331207275390625,-2.6441192626953125,-0.119903564453125
1761503554075328800,5.944328857421875,0.4321746826171875,-3.0550384521484375,-0.1533355712890625
1761503554085385700,5.9543857421875,0.0756988525390625,-3.7648468017578125,-0.072540283203125
1761503554095442000,5.96444189453125,-0.758026123046875,-4.3715057373046875,-0.0385894775390625
1761503554105497900,5.974497802734375,-0.859588623046875,-4.275604248046875,-0.13671875
1761503554115553800,5.9845537109375,-0.4893341064453125,-4.2273712158203125,-0.365966796875
1761503554125610000,5.99460986328125,-0.468994140625,-4.1092987060546875,-0.4765777587890625
1761503554135666000,6.004666015625,-0.687774658203125,-3.66668701171875,-0.574371337890625
1761503554145721900,6.014721923828125,-0.6361236572265625,-3.1639862060546875,-0.616607666015625
1761503554155778000,6.024778076171875,-0.2921600341796875,-2.9764404296875,-0.554901123046875
1761503554165834000,6.034833984375,0.0416412353515625,-2.960906982421875,-0.442138671875
1761503554175890000,6.044889892578125,0.4696044921875,-2.83062744140625,-0.382659912109375
1761503554185945900,6.05494580078125,0.8781280517578125,-2.5734100341796875,-0.442138671875
1761503554196001800,6.065001708984375,1.0171661376953125,-2.2793731689453125,-0.5020904541015625
1761503554206057700,6.0750576171875,0.4866943359375,-1.9550628662109375,-0.4625701904296875
1761503554216114000,6.085114013671875,0.1727752685546875,-1.6176605224609375,-0.305999755859375
1761503554226169900,6.095169921875,0.338165283203125,-1.238555908203125,-0.17919921875
1761503554236225800,6.105225830078125,0.442474365234375,-0.8963623046875,-0.000213623046875
1761503554246282000,6.115281982421875,0.2458953857421875,-0.720550537109375,0.420257568359375
1761503554256338000,6.125337890625,-0.418182373046875,-0.619354248046875,0.530120849609375
1761503554266395000,6.135394775390625,-0.4626922607421875,-0.3731231689453125,0.1956329345703125
1761503554276450800,6.145450927734375,-0.2760009765625,-0.258941650390625,0.080902099609375
1761503554286507000,6.155507080078125,-0.4460906982421875,-0.1177215576171875,0.0141448974609375
1761503554296563000,6.16556298828125,-0.5289306640625,0.0755157470703125,-0.021270751953125
1761503554306619000,6.175618896484375,-0.452972412109375,0.2495269775390625,-0.088226318359375
1761503554316675000,6.185675048828125,-0.3531494140625,0.351409912109375,-0.1546783447265625
1761503554326731000,6.19573095703125,-0.298004150390625,0.332000732421875,-0.10723876953125
1761503554336786700,6.20578662109375,-0.435150146484375,0.2864837646484375,-0.0037841796875
1761503554346843000,6.2158427734375,-0.5782623291015625,0.323944091796875,0.072967529296875
1761503554356898800,6.22589892578125,-0.5025482177734375,0.3535614013671875,0.0653533935546875
1761503554366954800,6.235954833984375,-0.38824462890625,0.339752197265625,0.0635223388671875
1761503554377011000,6.246010986328125,-0.318023681640625,0.2949066162109375,0.0927886962890625
1761503554387067000,6.25606689453125,-0.265777587890625,0.273895263671875,0.048126220703125
1761503554397122800,6.266122802734375,-0.165924072265625,0.2311859130859375,-0.0438385009765625
1761503554407178800,6.2761787109375,-0.117645263671875,0.1358642578125,-0.0726776123046875
1761503554417235000,6.28623486328125,-0.0446319580078125,0.03472900390625,-0.053619384765625
1761503554427292000,6.2962919921875,0.0026702880859375,-0.00677490234375,-0.0118408203125
1761503554437347800,6.306347900390625,-0.0907135009765625,-0.0065460205078125,0.03045654296875
1761503554447404000,6.316404052734375,-0.15692138671875,0.0038299560546875,0.062591552734375
1761503554457460000,6.3264599609375,-0.1826934814453125,-0.0041961669921875,0.0660247802734375
1761503554467516000,6.336515869140625,-0.1988983154296875,-0.03302001953125,0.0601348876953125
1761503554477571800,6.34657177734375,-0.2200469970703125,-0.0799560546875,0.0313720703125
1761503554487627800,6.356627685546875,-0.213470458984375,-0.103240966796875,-0.0047149658203125
1761503554497683700,6.36668359375,-0.164520263671875,-0.080780029296875,-0.0250701904296875
1761503554507740000,6.376739990234375,-0.123016357421875,0.002777099609375,-0.026214599609375
1761503554517795800,6.3867958984375,-0.048370361328125,0.1128692626953125,-0.024566650390625
1761503554527851800,6.396851806640625,0.05157470703125,0.1641693115234375,-0.0328521728515625
1761503554537907700,6.40690771484375,0.110382080078125,0.1170501708984375,-0.03289794921875
1761503554547964000,6.4169638671875,0.13275146484375,0.0552215576171875,-0.0212249755859375
1761503554558019800,6.427019775390625,0.0861358642578125,-0.131561279296875,0.0037841796875
1761503554568075800,6.43707568359375,-0.053802490234375,-0.37713623046875,0.049072265625
1761503554578132000,6.447132080078125,-0.134124755859375,-0.5233306884765625,0.0637969970703125
1761503554588189000,6.45718896484375,-0.0606842041015625,-0.7117462158203125,0.010406494140625
1761503554598244900,6.467244873046875,0.0528564453125,-1.0090179443359375,-0.0388336181640625
1761503554608300800,6.47730078125,0.188812255859375,-1.495513916015625,-0.02978515625
1761503554618357000,6.48735693359375,0.4161834716796875,-2.1101531982421875,-0.0380401611328125
1761503554628413000,6.497412841796875,0.618255615234375,-2.6474456787109375,-0.1100006103515625
1761503554638468900,6.50746875,0.3825225830078125,-3.1627960205078125,-0.213165283203125
1761503554648524800,6.51752490234375,-0.2501220703125,-3.8207244873046875,-0.1141357421875
1761503554658580700,6.527580810546875,-0.7674713134765625,-4.2420806884765625,0.0474395751953125
1761503554668636700,6.53763671875,-1.0290679931640625,-4.3835601806640625,0.081329345703125
1761503554678692900,6.54769287109375,-1.0298919677734375,-4.2918701171875,-0.048858642578125
1761503554688748800,6.557748779296875,-1.0401153564453125,-3.9522247314453125,-0.2939453125
1761503554698804700,6.5678046875,-0.90283203125,-3.5040283203125,-0.407196044921875
1761503554708861000,6.57786083984375,-0.774993896484375,-3.222564697265625,-0.2629241943359375
1761503554718916900,6.587916748046875,-0.5715484619140625,-3.19097900390625,-0.1648406982421875
1761503554728972800,6.597972900390625,-0.322418212890625,-3.073211669921875,-0.2359161376953125
1761503554739029000,6.608029052734375,-0.0930328369140625,-2.7655487060546875,-0.281585693359375
1761503554749085000,6.6180849609375,0.0641937255859375,-2.41204833984375,-0.2707366943359375
1761503554759142000,6.628141845703125,0.2004852294921875,-2.0832366943359375,-0.191619873046875
1761503554769197800,6.63819775390625,0.3741607666015625,-1.7443084716796875,-0.1032257080078125
1761503554779254000,6.64825390625,0.3350830078125,-1.3463287353515625,-0.1037750244140625
1761503554789309700,6.658309814453125,0.2328948974609375,-1.0039520263671875,-0.0767669677734375
1761503554799365600,6.66836572265625,0.1915283203125,-0.6711273193359375,-0.0456695556640625
1761503554809421800,6.678421875,0.1339874267578125,-0.4505767822265625,-0.0046234130859375
1761503554819477800,6.688477783203125,0.0092010498046875,-0.316802978515625,0.043548583984375
1761503554829533700,6.69853369140625,-0.1098480224609375,-0.2082672119140625,0.0899658203125
1761503554839590000,6.70858984375,-0.1149749755859375,-0.1801910400390625,0.1214447021484375
1761503554849645800,6.718645751953125,-0.0674591064453125,-0.22174072265625,0.133056640625
1761503554859701800,6.72870166015625,-0.127593994140625,-0.1571807861328125,0.084320068359375
1761503554869758000,6.738758056640625,-0.267578125,-0.033905029296875,0.032928466796875
1761503554879814000,6.74881396484375,-0.303192138671875,0.11724853515625,-0.008941650390625
1761503554889869800,6.758869873046875,-0.2724761962890625,0.187408447265625,-0.0243072509765625
1761503554899926000,6.768926025390625,-0.2378692626953125,0.21087646484375,-0.0364227294921875
1761503554909983000,6.77898291015625,-0.2201690673828125,0.27105712890625,-0.045501708984375
1761503554920039000,6.789038818359375,-0.2187652587890625,0.3593902587890625,-0.053985595703125
1761503554930094800,6.7990947265625,-0.24603271484375,0.3835296630859375,-0.0604400634765625
1761503554940150800,6.80915087890625,-0.3241119384765625,0.362548828125,-0.0382080078125
1761503554950206700,6.819206787109375,-0.368438720703125,0.4008941650390625,-0.0101776123046875
1761503554960262700,6.8292626953125,-0.358001708984375,0.456512451171875,0.014068603515625
1761503554970318800,6.83931884765625,-0.3308563232421875,0.530792236328125,-0.02947998046875
1761503554980374800,6.849374755859375,-0.288238525390625,0.56549072265625,-0.06439208984375
1761503554990430700,6.8594306640625,-0.2692718505859375,0.524200439453125,-0.0862884521484375
1761503555000487000,6.86948681640625,-0.2924957275390625,0.48553466796875,-0.08489990234375
1761503555010542800,6.87954296875,-0.355194091796875,0.4701995849609375,-0.06732177734375
1761503555020598800,6.889598876953125,-0.438018798828125,0.4676513671875,-0.070220947265625
1761503555030655000,6.899655029296875,-0.4931640625,0.45343017578125,-0.1364288330078125
1761503555040711000,6.9097109375,-0.448333740234375,0.4000701904296875,-0.2127838134765625
1761503555050766800,6.919766845703125,-0.3238525390625,0.2848052978515625,-0.2538909912109375
1761503555060823800,6.92982373046875,-0.1584320068359375,0.043548583984375,-0.260406494140625
1761503555070880300,6.93988037109375,-0.0125732421875,-0.2394561767578125,-0.1981658935546875
1761503555080936200,6.949936279296875,-0.0141143798828125,-0.5052642822265625,-0.0639495849609375
1761503555090992000,6.9599921875,-0.0129241943359375,-0.749603271484375,0.0806884765625
1761503555101048000,6.970048095703125,0.0540313720703125,-0.888885498046875,0.2310638427734375
1761503555111104000,6.98010400390625,0.1302642822265625,-0.9993743896484375,0.3393402099609375
1761503555121160000,6.990159912109375,0.2584075927734375,-0.966339111328125,0.347198486328125
1761503555131216100,7.000216064453125,0.2152099609375,-0.7944183349609375,0.3242034912109375
1761503555141272000,7.01027197265625,0.196136474609375,-0.7629852294921875,0.317108154296875
1761503555151328000,7.020327880859375,0.1705474853515625,-0.9744110107421875,0.214263916015625
1761503555161384200,7.03038427734375,0.1444854736328125,-1.3860626220703125,0.19207763671875
1761503555171440000,7.040440185546875,0.2127227783203125,-2.0456695556640625,0.1442413330078125
1761503555181496000,7.05049609375,0.352569580078125,-2.689971923828125,0.031219482421875
1761503555191552300,7.06055224609375,0.4432220458984375,-2.864593505859375,-0.0706939697265625
1761503555201608200,7.070608154296875,0.2212677001953125,-3.0717010498046875,-0.1910858154296875
1761503555211664100,7.0806640625,-0.1340179443359375,-3.4300079345703125,-0.1998748779296875
1761503555221721000,7.09072119140625,-0.218414306640625,-3.656951904296875,-0.152008056640625
1761503555231777300,7.10077734375,-0.3206787109375,-3.900177001953125,-0.258758544921875
1761503555241833200,7.110833251953125,-0.6507568359375,-4.1678619384765625,-0.5529937744140625
1761503555251889000,7.120888916015625,-0.7786865234375,-4.3390960693359375,-0.8475341796875
1761503555261945000,7.130945068359375,-0.7294158935546875,-4.168365478515625,-0.999786376953125
1761503555272001000,7.1410009765625,-0.7942962646484375,-3.784027099609375,-1.093963623046875
1761503555282057000,7.151056884765625,-0.5510711669921875,-3.2813568115234375,-0.9527740478515625
1761503555292113200,7.161113037109375,-0.16326904296875,-2.829315185546875,-0.6290740966796875
1761503555302169000,7.171169189453125,0.2659454345703125,-2.476043701171875,-0.3715362548828125
1761503555312225000,7.18122509765625,0.5193023681640625,-2.057525634765625,-0.2080230712890625
1761503555322281200,7.19128125,0.5769805908203125,-1.6240386962890625,-0.08026123046875
1761503555332337200,7.201337158203125,0.684478759765625,-1.2283477783203125,0.0200347900390625
1761503555342393000,7.21139306640625,0.6019287109375,-0.7945098876953125,0.0775146484375
1761503555352449300,7.22144921875,0.35687255859375,-0.288238525390625,0.1244049072265625
1761503555362505200,7.231505126953125,0.1363677978515625,0.0536651611328125,0.18804931640625
1761503555372561200,7.24156103515625,-0.1091766357421875,0.262451171875,0.1728668212890625
1761503555382618000,7.2516181640625,-0.216522216796875,0.3645477294921875,0.0982666015625
1761503555392674300,7.26167431640625,-0.308990478515625,0.38665771484375,0.01898193359375
1761503555402730000,7.27172998046875,-0.390472412109375,0.385498046875,0.0145111083984375
1761503555412786000,7.281785888671875,-0.4716796875,0.3425750732421875,0.088134765625
1761503555422842000,7.291842041015625,-0.5439910888671875,0.2818450927734375,0.1781463623046875
1761503555432898000,7.30189794921875,-0.5829925537109375,0.2548065185546875,0.2952880859375
1761503555442954000,7.3119541015625,-0.5534210205078125,0.2550506591796875,0.3812713623046875
1761503555453010200,7.32201025390625,-0.4869537353515625,0.290679931640625,0.338043212890625
1761503555463066000,7.332066162109375,-0.406158447265625,0.3677215576171875,0.205230712890625
1761503555473122000,7.3421220703125,-0.3327178955078125,0.4314422607421875,0.0661773681640625
1761503555483178200,7.35217822265625,-0.268768310546875,0.4254608154296875,-0.020111083984375
1761503555493234200,7.362234130859375,-0.2408599853515625,0.3523712158203125,-0.030426025390625
1761503555503290000,7.3722900390625,-0.261383056640625,0.25323486328125,0.0103302001953125
1761503555513346300,7.38234619140625,-0.2731170654296875,0.187774658203125,0.0242156982421875
1761503555523403300,7.3924033203125,-0.250701904296875,0.1463775634765625,0.0260772705078125
1761503555533459200,7.402459228515625,-0.2355804443359375,0.12255859375,0.0270538330078125
1761503555543515100,7.41251513671875,-0.17681884765625,0.10992431640625,-0.0034027099609375
1761503555553571000,7.422571044921875,-0.1264190673828125,0.1092529296875,-0.0728759765625
1761503555563627000,7.432626953125,-0.086090087890625,0.0769500732421875,-0.13458251953125
1761503555573683000,7.442682861328125,-0.117095947265625,-0.022186279296875,-0.1356658935546875
1761503555583739100,7.4527392578125,-0.1786041259765625,-0.09674072265625,-0.10247802734375
1761503555593795000,7.462795166015625,-0.211822509765625,-0.0945587158203125,-0.0853271484375
1761503555603851000,7.47285107421875,-0.160369873046875,-0.00811767578125,-0.10675048828125
1761503555613907200,7.4829072265625,-0.068359375,0.050933837890625,-0.1336212158203125
1761503555623963100,7.492963134765625,0.069122314453125,0.0640869140625,-0.1654815673828125
1761503555634019000,7.50301904296875,0.18084716796875,0.0122222900390625,-0.1688079833984375
1761503555644075300,7.5130751953125,0.1487884521484375,-0.1660919189453125,-0.0975189208984375
1761503555654131200,7.523131103515625,0.017608642578125,-0.4481658935546875,0.0457305908203125
1761503555664187100,7.533187255859375,-0.1206207275390625,-0.7987518310546875,0.181854248046875
1761503555674244000,7.543244140625,-0.1385345458984375,-1.0601043701171875,0.25250244140625
1761503555684300300,7.55330029296875,-0.0934295654296875,-1.3402557373046875,0.2322998046875
1761503555694356200,7.563356201171875,0.0158538818359375,-1.5999298095703125,0.1783599853515625
1761503555704412200,7.573412109375,0.2680511474609375,-1.799163818359375,0.0984039306640625
1761503555714468000,7.583468017578125,0.5420684814453125,-2.1533050537109375,-0.128448486328125
1761503555724524000,7.59352392578125,0.728271484375,-2.581573486328125,-0.32623291015625
1761503555734580000,7.603580078125,0.4482269287109375,-3.0395660400390625,-0.3933563232421875
1761503555744636200,7.61363623046875,-0.34320068359375,-3.5958099365234375,-0.3799285888671875
1761503555754692000,7.623692138671875,-0.8841552734375,-3.8659515380859375,-0.4248046875
1761503555764748000,7.633748046875,-0.9392547607421875,-3.857391357421875,-0.4032135009765625
1761503555774804200,7.64380419921875,-0.8888092041015625,-3.8587799072265625,-0.3739166259765625
1761503555784860200,7.653860107421875,-0.9909820556640625,-3.7423553466796875,-0.3731536865234375
1761503555794916000,7.663916015625,-0.9824981689453125,-3.570892333984375,-0.4203948974609375
1761503555804972300,7.67397216796875,-0.8376617431640625,-3.4671630859375,-0.442962646484375
1761503555815028200,7.6840283203125,-0.5406341552734375,-3.4188995361328125,-0.4236907958984375
1761503555825085200,7.694085205078125,-0.113006591796875,-3.2874755859375,-0.35479736328125
1761503555835141000,7.70414111328125,0.137481689453125,-3.021392822265625,-0.2255401611328125
1761503555845197300,7.714197265625,0.2736053466796875,-2.55596923828125,-0.089111328125
1761503555855253200,7.724253173828125,0.421905517578125,-2.067718505859375,-0.0987396240234375
1761503555865309000,7.734308837890625,0.4997100830078125,-1.6086578369140625,-0.2008514404296875
1761503555875365000,7.744365234375,0.4133453369140625,-1.09771728515625,-0.23406982421875
1761503555885421000,7.754421142578125,0.29608154296875,-0.6218109130859375,-0.19134521484375
1761503555895477000,7.76447705078125,0.0394439697265625,-0.3289642333984375,-0.0531158447265625
1761503555905533200,7.774533203125,-0.1832733154296875,-0.22308349609375,0.074432373046875
1761503555915589000,7.784589111328125,-0.2855072021484375,-0.12353515625,0.096282958984375
1761503555925645000,7.79464501953125,-0.30120849609375,-0.0057373046875,0.048553466796875
1761503555935701200,7.804701171875,-0.298492431640625,0.1078033447265625,-0.0317535400390625
1761503555945757200,7.814757080078125,-0.31146240234375,0.1943511962890625,-0.1079254150390625
1761503555955813000,7.824813232421875,-0.387481689453125,0.2306976318359375,-0.120208740234375
1761503555965869300,7.834869384765625,-0.4649200439453125,0.2233123779296875,-0.037322998046875
1761503555975926300,7.84492626953125,-0.5008544921875,0.18927001953125,0.0844879150390625
1761503555985982200,7.854982177734375,-0.4832000732421875,0.2012786865234375,0.18548583984375
1761503555996038100,7.8650380859375,-0.4029693603515625,0.2072601318359375,0.2139739990234375
1761503556006094300,7.87509423828125,-0.307464599609375,0.2104339599609375,0.210723876953125
1761503556016150000,7.88514990234375,-0.231414794921875,0.193084716796875,0.2014617919921875
1761503556026206000,7.8952060546875,-0.1915740966796875,0.18499755859375,0.1593017578125
1761503556036262100,7.90526220703125,-0.2154388427734375,0.1823577880859375,-0.03253173828125
1761503556046318000,7.915318115234375,-0.1686248779296875,0.1707000732421875,-0.1586456298828125
1761503556056374000,7.9253740234375,-0.12164306640625,0.1838531494140625,-0.124786376953125
1761503556066430200,7.93543017578125,-0.145599365234375,0.2151641845703125,-0.1218719482421875
1761503556076490500,7.945490478515625,-0.146270751953125,0.228851318359375,-0.0861053466796875
1761503556086546400,7.95554638671875,-0.177764892578125,0.2381439208984375,-0.0473480224609375
1761503556096602400,7.965602294921875,-0.263458251953125,0.2234039306640625,-0.0008544921875
1761503556106659300,7.975659423828125,-0.3328094482421875,0.1829071044921875,0.0117950439453125
1761503556116715500,7.985715576171875,-0.35296630859375,0.127716064453125,-0.0032501220703125
1761503556126771500,7.995771484375,-0.332183837890625,0.0945587158203125,-0.006378173828125
1761503556136827400,8.005827392578125,-0.2857208251953125,0.08282470703125,0.0233612060546875
1761503556146883600,8.015883544921875,-0.2057952880859375,0.0823974609375,0.0711212158203125
1761503556156939500,8.025939453125,-0.0716094970703125,0.112701416015625,0.0768585205078125
1761503556166995200,8.0359951171875,0.0443115234375,0.135284423828125,0.036834716796875
1761503556177051400,8.046051513671875,0.0979766845703125,0.0663909912109375,0.00030517578125
1761503556187107300,8.056107421875,0.144866943359375,-0.05535888671875,-0.05096435546875
1761503556197163300,8.066163330078124,0.1435089111328125,-0.2363128662109375,-0.074859619140625
1761503556207219500,8.076219482421875,0.1458892822265625,-0.4785919189453125,-0.026214599609375
1761503556217275400,8.086275390625,0.139739990234375,-0.7378997802734375,0.07489013671875
1761503556227331300,8.096331298828124,0.104095458984375,-0.952850341796875,0.1706390380859375
1761503556237387500,8.106387451171875,0.0774688720703125,-1.0799560546875,0.149658203125
1761503556247444500,8.116444580078126,0.118499755859375,-1.2392425537109375,-0.0107879638671875
1761503556257500400,8.12650048828125,0.232635498046875,-1.6927032470703125,-0.1829833984375
1761503556267556400,8.136556396484375,0.2355499267578125,-2.3979644775390625,-0.244964599609375
1761503556277612500,8.146612548828125,0.1666259765625,-3.067840576171875,-0.1488037109375
1761503556287668500,8.15666845703125,0.029571533203125,-3.6434173583984375,-0.152008056640625
1761503556297724400,8.166724365234375,-0.32763671875,-4.2794952392578125,-0.3079833984375
1761503556307780600,8.176780517578125,-0.6709442138671875,-4.4739837646484375,-0.290557861328125
1761503556317836300,8.186836181640626,-0.913055419921875,-4.2900848388671875,-0.1629791259765625
1761503556327892200,8.196892333984374,-1.032867431640625,-4.0449981689453125,-0.0892181396484375
1761503556337948400,8.206948486328125,-0.8328704833984375,-3.644775390625,-0.086822509765625
1761503556348004400,8.21700439453125,-0.5351104736328125,-3.3049163818359375,-0.2235260009765625
1761503556358060300,8.227060302734374,-0.35577392578125,-3.0187530517578125,-0.402008056640625
1761503556368116500,8.237116455078125,-0.0774383544921875,-2.7345733642578125,-0.5437469482421875
1761503556378172400,8.24717236328125,-0.01385498046875,-2.4903106689453125,-0.7570953369140625
1761503556388228400,8.257228271484376,-0.0901947021484375,-2.3018035888671875,-0.6428680419921875
1761503556398285300,8.267285400390625,0.0325927734375,-2.2739105224609375,-0.1428680419921875
1761503556408341500,8.277341552734375,0.36669921875,-1.9824676513671875,-0.0230255126953125
1761503556418397400,8.2873974609375,0.67864990234375,-1.5083160400390625,0.1817169189453125
1761503556428453400,8.297453369140625,1.0733642578125,-1.1551666259765625,0.323272705078125
1761503556438509600,8.307509521484375,0.9318389892578125,-0.6763153076171875,0.451324462890625
1761503556448565500,8.3175654296875,0.36236572265625,-0.426605224609375,0.808319091796875
1761503556458621400,8.327621337890625,0.1235504150390625,-0.0342559814453125,0.64605712890625
1761503556468677400,8.337677490234375,-0.1319122314453125,0.360260009765625,0.108154296875
1761503556478733300,8.3477333984375,-0.5247802734375,0.294708251953125,-0.5173797607421875
1761503556488789200,8.357789306640624,-0.4796295166015625,0.265106201171875,-0.1404571533203125
1761503556498845400,8.367845458984375,-0.65826416015625,0.3026885986328125,0.0643768310546875
1761503556508901400,8.3779013671875,-0.7539825439453125,0.2798309326171875,0.0189361572265625
1761503556518957300,8.387957275390624,-0.7719268798828125,0.3065185546875,0.0662994384765625
1761503556529014300,8.39801416015625,-0.700958251953125,0.2668609619140625,0.1256103515625
1761503556539070500,8.408070556640626,-0.6273345947265625,0.24298095703125,0.1392822265625
1761503556549126400,8.41812646484375,-0.574493408203125,0.2610931396484375,0.1162567138671875
1761503556559182300,8.428182373046875,-0.4586029052734375,0.2986602783203125,0.069122314453125
1761503556569238500,8.438238525390625,-0.3755645751953125,0.3257904052734375,-0.0031890869140625
1761503556579294500,8.44829443359375,-0.27862548828125,0.350494384765625,-0.0612640380859375
1761503556589350400,8.458350341796875,-0.24102783203125,0.3484039306640625,-0.0742645263671875
1761503556599406600,8.468406494140625,-0.2275390625,0.3007354736328125,-0.061309814453125
1761503556609462500,8.478462646484376,-0.077484130859375,0.1723175048828125,-0.070037841796875
1761503556619518200,8.488518310546874,-0.0311431884765625,0.023223876953125,-0.0615386962890625
1761503556629574400,8.498574462890625,-0.0814971923828125,-0.0383758544921875,-0.0449981689453125
1761503556639630300,8.50863037109375,-0.0918731689453125,-0.011016845703125,-0.0264434814453125
1761503556649686300,8.518686279296874,-0.06610107421875,0.0167388916015625,-0.035003662109375
1761503556659742500,8.528742431640625,0.0420684814453125,-0.030792236328125,-0.0505218505859375
1761503556669799400,8.53879931640625,0.0506591796875,-0.050567626953125,-0.074859619140625
1761503556679855400,8.54885546875,-0.018707275390625,-0.0714263916015625,-0.09515380859375
1761503556689911300,8.558911376953125,0.03558349609375,-0.158447265625,-0.0855560302734375
1761503556699967500,8.568967529296875,0.02520751953125,-0.188629150390625,-0.019195556640625
1761503556710023400,8.5790234375,-0.1279449462890625,-0.2130126953125,0.07391357421875
1761503556720079400,8.589079345703125,-0.2774658203125,-0.1663970947265625,0.134063720703125
1761503556730135600,8.599135498046875,-0.125335693359375,-0.0359649658203125,0.0594329833984375
1761503556740191500,8.60919140625,-0.041595458984375,0.0387115478515625,-0.0436553955078125
1761503556750247400,8.619247314453125,0.072479248046875,-0.037689208984375,-0.05279541015625
1761503556760303600,8.6293037109375,0.0600738525390625,-0.2157135009765625,-0.022735595703125
1761503556770359300,8.639359375,-0.09344482421875,-0.395233154296875,-0.0214996337890625
1761503556780415200,8.649415283203124,-0.1476898193359375,-0.4325714111328125,0.0089569091796875
1761503556790472400,8.659472412109375,-0.217315673828125,-0.59063720703125,0.0729827880859375
1761503556800528400,8.6695283203125,-0.19268798828125,-1.3943634033203125,0.1199493408203125
1761503556810584300,8.679584228515624,0.0784912109375,-2.5665283203125,0.285247802734375
1761503556820640300,8.68964013671875,0.017181396484375,-3.196563720703125,0.242462158203125
1761503556830696400,8.699696533203126,-0.471405029296875,-4.2408599853515625,-0.2255096435546875
1761503556840752400,8.70975244140625,-1.279205322265625,-4.7333984375,-0.3550872802734375
1761503556850808300,8.719808349609375,-1.590057373046875,-3.8877105712890625,-0.5838165283203125
1761503556860864500,8.729864501953125,-1.828155517578125,-3.353485107421875,-0.456756591796875
1761503556870920400,8.73992041015625,-1.8886566162109375,-2.9122467041015625,-0.2147674560546875
1761503556880976400,8.749976318359375,-1.5669097900390625,-2.2760772705078125,-0.1580352783203125
1761503556891032600,8.760032470703125,-1.14031982421875,-1.8737945556640625,-0.1877288818359375
1761503556901088500,8.770088623046876,-0.76470947265625,-1.7203826904296875,-0.1898651123046875
1761503556911144400,8.78014453125,-0.4272918701171875,-1.721038818359375,-0.2237701416015625
1761503556921200600,8.79020068359375,-0.12921142578125,-1.76953125,-0.241180419921875
1761503556931257600,8.800257568359376,0.0458526611328125,-1.76715087890625,-0.2501068115234375
1761503556941313500,8.8103134765625,0.223175048828125,-1.6679534912109375,-0.2766876220703125
1761503556951369200,8.820369140625,-0.0389862060546875,-1.55572509765625,-0.2502288818359375
1761503556961425400,8.83042529296875,-0.5046234130859375,-1.56500244140625,-0.238128662109375
1761503556971481300,8.8404814453125,-0.7705230712890625,-1.54742431640625,-0.2774658203125
1761503556981537300,8.850537353515625,-1.15869140625,-1.3914947509765625,-0.275054931640625
1761503556991593500,8.860593505859375,-1.2765350341796875,-1.1068267822265625,-0.3060455322265625
1761503557001649400,8.8706494140625,-1.0434722900390625,-1.003509521484375,-0.328460693359375
1761503557011705300,8.880705322265625,-0.7011260986328125,-0.9251861572265625,-0.3516998291015625
1761503557021761500,8.890761474609375,-0.4968414306640625,-0.8603363037109375,-0.33892822265625
1761503557031817500,8.9008173828125,-0.431732177734375,-0.7595367431640625,-0.272003173828125
1761503557041873400,8.910873291015625,-0.2869873046875,-0.6238250732421875,-0.155303955078125
1761503557051929600,8.9209296875,-0.1405029296875,-0.6171722412109375,-0.033782958984375
1761503557061986600,8.930986572265626,-0.21917724609375,-0.647613525390625,-0.0033416748046875
1761503557072038400,8.941038330078126,-0.4118194580078125,-0.574737548828125,0.0195465087890625
1761503557082094300,8.95109423828125,-0.631988525390625,-0.49114990234375,0.028717041015625
1761503557092150500,8.961150634765625,-0.7599945068359375,-0.390777587890625,-0.018829345703125
1761503557102206500,8.97120654296875,-0.5881195068359375,-0.3353118896484375,-0.05157470703125
1761503557112262400,8.981262451171874,-0.36016845703125,-0.37109375,-0.0119476318359375
1761503557122318600,8.991318603515625,-0.1712188720703125,-0.4290313720703125,-0.0249481201171875
1761503557132374500,9.00137451171875,-0.0769195556640625,-0.4029388427734375,-0.03448486328125
1761503557142430500,9.011430419921876,0.005157470703125,-0.3964996337890625,-0.0282135009765625
1761503557152486700,9.021486572265625,0.003173828125,-0.4523468017578125,-0.04608154296875
1761503557162542600,9.03154248046875,-0.0224609375,-0.4722747802734375,-0.0506439208984375
1761503557172598300,9.041598388671876,-0.0186767578125,-0.4012603759765625,-0.0081024169921875
1761503557182654500,9.051654541015624,-0.093353271484375,-0.34979248046875,0.0640869140625
1761503557192711700,9.061711669921875,-0.3858184814453125,-0.4025421142578125,0.06011962890625
1761503557202767400,9.071767333984376,-0.47467041015625,-0.395599365234375,0.188507080078125
1761503557212823300,9.0818232421875,-0.4197540283203125,-0.4663238525390625,0.27197265625
1761503557222879500,9.09187939453125,-0.269744873046875,-0.6018524169921875,0.3299407958984375
1761503557232935400,9.101935302734375,-0.0224456787109375,-0.8216400146484375,0.2589111328125
1761503557242991400,9.111991455078124,-0.1236572265625,-0.8825531005859375,0.0920867919921875
1761503557253047600,9.122047607421875,-0.398651123046875,-0.7866668701171875,0.0160369873046875
1761503557263103500,9.132103515625,-0.5115203857421875,-0.675689697265625,0.0212554931640625
1761503557273159400,9.142159423828126,-0.72808837890625,-0.705108642578125,0.016693115234375
1761503557283215600,9.152215576171875,-0.8969268798828125,-0.78192138671875,0.0015716552734375
1761503557293271600,9.162271484375,-0.69940185546875,-0.758087158203125,0.010589599609375
1761503557303327500,9.172327392578126,-0.57904052734375,-0.7199249267578125,-0.0361785888671875
1761503557313383700,9.1823837890625,-0.53125,-0.641387939453125,-0.1216888427734375
1761503557323440600,9.192440673828125,-0.5667572021484375,-0.547821044921875,-0.1935272216796875
1761503557333496600,9.20249658203125,-0.5451507568359375,-0.4318389892578125,-0.2221527099609375
1761503557343552500,9.212552490234375,-0.44329833984375,-0.3360595703125,-0.21856689453125
1761503557353608400,9.2226083984375,-0.5431976318359375,-0.22369384765625,-0.1449127197265625
1761503557363664400,9.232664306640626,-0.73297119140625,-0.158782958984375,-0.0362548828125
1761503557373720300,9.24272021484375,-1.227935791015625,-0.2701416015625,0.1124420166015625
1761503557383776500,9.252776611328125,-1.481658935546875,-0.3032379150390625,0.2951507568359375
1761503557393832400,9.26283251953125,-1.370635986328125,-0.1430511474609375,0.353302001953125
1761503557403888400,9.272888427734374,-1.2169189453125,-0.0045623779296875,0.2276458740234375
1761503557413944600,9.282944580078125,-1.057830810546875,-0.029388427734375,0.0522308349609375
1761503557424000500,9.29300048828125,-1.00189208984375,-0.1849517822265625,-0.0782470703125
1761503557434056400,9.303056396484376,-0.8930511474609375,-0.282989501953125,-0.1410675048828125
1761503557444113400,9.313113525390625,-0.7178802490234375,-0.2836151123046875,-0.1573638916015625
1761503557454169600,9.323169677734375,-0.7654876708984375,-0.2102508544921875,-0.1326446533203125
1761503557464225500,9.3332255859375,-1.063690185546875,-0.05230712890625,-0.0156707763671875
1761503557474281500,9.343281494140625,-1.2675018310546875,0.1461181640625,0.170440673828125
1761503557484337700,9.353337646484375,-1.247039794921875,0.2391204833984375,0.2751617431640625
1761503557494393600,9.3633935546875,-1.1522216796875,0.168060302734375,0.2184600830078125
1761503557504449300,9.37344921875,-1.06634521484375,0.036773681640625,0.102264404296875
1761503557514505500,9.38350537109375,-0.954254150390625,-0.04718017578125,0.00067138671875
1761503557524561400,9.3935615234375,-0.9240570068359375,-0.0773773193359375,-0.0739593505859375
1761503557534617300,9.403617431640624,-0.9860076904296875,-0.0925445556640625,-0.1009521484375
1761503557544673500,9.413673583984375,-1.10491943359375,-0.079010009765625,-0.03076171875
1761503557554729500,9.4237294921875,-1.16015625,-0.08831787109375,0.0531463623046875
1761503557564786400,9.433786376953124,-1.1175079345703125,-0.084014892578125,0.0753936767578125
1761503557574842400,9.44384228515625,-1.05145263671875,-0.0770721435546875,0.0650634765625
1761503557584898600,9.453898681640625,-1.0122528076171875,-0.1198272705078125,0.04736328125
1761503557594954500,9.46395458984375,-0.97515869140625,-0.166900634765625,0.0353546142578125
1761503557605010400,9.474010498046875,-0.952850341796875,-0.207977294921875,0.0310516357421875
1761503557615066600,9.484066650390625,-0.9864501953125,-0.2545928955078125,0.0441436767578125
1761503557625122600,9.49412255859375,-0.9882965087890625,-0.26422119140625,0.0416259765625
1761503557635178500,9.504178466796875,-0.9499664306640625,-0.2508544921875,0.04364013671875
1761503557645234700,9.514234619140625,-0.9217376708984375,-0.2203826904296875,0.059967041015625
1761503557655290400,9.524290283203126,-0.8831329345703125,-0.1834869384765625,0.0650177001953125
1761503557665346300,9.53434619140625,-0.861602783203125,-0.180999755859375,0.0371551513671875
1761503557675402500,9.544402587890625,-0.8374786376953125,-0.2210235595703125,-0.0009002685546875
1761503557685459500,9.55445947265625,-0.8481292724609375,-0.244110107421875,-0.0035552978515625
1761503557695515400,9.564515380859374,-0.839111328125,-0.211395263671875,0.0493316650390625
1761503557705571300,9.5745712890625,-1.00299072265625,-0.2013702392578125,0.1190185546875
1761503557715627500,9.58462744140625,-1.0346527099609375,-0.2550048828125,0.1203765869140625
1761503557725683500,9.594683349609374,-0.9834442138671875,-0.297149658203125,0.1002044677734375
1761503557735739400,9.604739501953125,-0.9456024169921875,-0.2955780029296875,0.0954132080078125
