time,seconds_elapsed,z,y,x
1761503548202610000,0.07160986328125,-0.07488968968391418,-0.4705757796764374,0.14244316518306732
1761503548212666000,0.081666015625,-0.02201928198337555,-0.4470544755458832,0.12239089608192444
1761503548222722000,0.09172216796875,0.1012432649731636,-0.40078309178352356,0.04621223732829094
1761503548232778000,0.101778076171875,0.256315141916275,-0.4357248544692993,-0.022776685655117035
1761503548242834200,0.111834228515625,0.37844929099082947,-0.4269710183143616,-0.07934089750051498
1761503548252890000,0.12189013671875,0.44288474321365356,-0.4322480857372284,-0.14554227888584137
1761503548262946000,0.131946044921875,0.4753183126449585,-0.4906347095966339,-0.18747615814208984
1761503548273002200,0.142002197265625,0.4808254837989807,-0.5752303004264832,-0.15233813226222992
1761503548283058200,0.15205810546875,0.4763793349266052,-0.534088671207428,-0.052916210144758224
1761503548293114000,0.162114013671875,0.38799726963043213,-0.4403640627861023,0.10078892856836319
1761503548303170300,0.17217041015625,0.20483116805553436,-0.40007284283638,0.285869836807251
1761503548313226200,0.182226318359375,0.0033957967534661293,-0.338995099067688,0.5025858879089355
1761503548323282000,0.192281982421875,-0.13901486992835999,-0.19567255675792694,0.7406991124153137
1761503548333338000,0.202338134765625,-0.19501183927059174,-0.04213307052850723,0.9931167364120483
1761503548343394000,0.21239404296875,-0.19105011224746704,0.010470750741660595,1.2310336828231812
1761503548353450000,0.222449951171875,-0.1462261825799942,-0.08157368749380112,1.4139404296875
1761503548363506200,0.232506103515625,-0.07086245715618134,-0.31052669882774353,1.567354440689087
1761503548373562000,0.24256201171875,-0.04543619230389595,-0.7038037180900574,1.6765347719192505
1761503548383618000,0.2526181640625,-0.04647216200828552,-0.9112130999565125,1.725764274597168
1761503548393674200,0.26267431640625,-0.03405517339706421,-0.7573518753051758,1.714532494544983
1761503548403730200,0.272730224609375,0.06662456691265106,-0.3754061162471771,1.6025161743164062
1761503548413786000,0.2827861328125,0.18606947362422943,-0.004209125880151987,1.2934006452560425
1761503548423842300,0.29284228515625,0.2661627233028412,0.27473703026771545,0.8679028749465942
1761503548433898200,0.302898193359375,0.3379935026168823,0.34343138337135315,0.48295414447784424
1761503548443954000,0.312953857421875,0.42712628841400146,0.33583205938339233,0.1569179743528366
1761503548454010000,0.323010009765625,0.5589993596076965,0.5063089728355408,-0.2105276733636856
1761503548464066000,0.333066162109375,0.6240476369857788,0.6923507452011108,-0.5699396133422852
1761503548474122000,0.3431220703125,0.5617616176605225,0.7150781750679016,-0.6847043037414551
1761503548484178200,0.35317822265625,0.4757969081401825,0.9419358372688293,-0.679033637046814
1761503548494234000,0.363234130859375,0.40644899010658264,1.1273789405822754,-0.5804268717765808
1761503548504290000,0.3732900390625,0.36830344796180725,1.2771040201187134,-0.38772615790367126
1761503548514346200,0.38334619140625,0.38639935851097107,1.6168804168701172,-0.18567799031734467
1761503548524402200,0.393402099609375,0.4254181385040283,1.969608187675476,0.08232363313436508
1761503548534458000,0.4034580078125,0.44478651881217957,2.3178627490997314,0.34423592686653137
1761503548544514300,0.413514404296875,0.4116578698158264,2.532954692840576,0.455999493598938
1761503548554570200,0.4235703125,0.3509660065174103,2.5018563270568848,0.3871575593948364
1761503548564626200,0.433626220703125,0.31416699290275574,2.197979688644409,0.25522109866142273
1761503548574682000,0.44368212890625,0.3124234080314636,1.8028087615966797,0.13085389137268066
1761503548584738000,0.453738037109375,0.3804221749305725,1.387707233428955,0.0750899538397789
1761503548594794000,0.4637939453125,0.5116478204727173,0.9734668731689453,0.14999482035636902
1761503548604850200,0.47385009765625,0.65699303150177,0.6949684023857117,0.32752540707588196
1761503548614906000,0.483906005859375,0.769374430179596,0.5917496085166931,0.5526650547981262
1761503548624962000,0.493962158203125,0.8220070600509644,0.5639176964759827,0.7556053996086121
1761503548635018000,0.50401806640625,0.8206807971000671,0.5814617872238159,0.864263653755188
1761503548645074200,0.51407421875,0.7818151116371155,0.6597941517829895,0.8717495799064636
1761503548655130000,0.524130126953125,0.6969053149223328,0.7275993227958679,0.774524450302124
1761503548665186000,0.53418603515625,0.579504132270813,0.7315163016319275,0.6078451871871948
1761503548675242200,0.5442421875,0.4943929612636566,0.6905776262283325,0.4196752905845642
1761503548685298200,0.554298095703125,0.4538353979587555,0.5833723545074463,0.2704083323478699
1761503548695355100,0.564355224609375,0.43942105770111084,0.47007882595062256,0.13816745579242706
1761503548705411000,0.5744111328125,0.44011080265045166,0.4078793525695801,0.04623780399560928
1761503548715467300,0.58446728515625,0.4244748651981354,0.36231881380081177,0.012772786431014538
1761503548725523000,0.59452294921875,0.40073251724243164,0.33394655585289,0.03566611930727959
1761503548735579100,0.6045791015625,0.384344220161438,0.3579230010509491,0.08529012650251389
1761503548745635000,0.614635009765625,0.361777126789093,0.4070979952812195,0.1349911093711853
1761503548755691000,0.62469091796875,0.3121967911720276,0.40571287274360657,0.19588083028793335
1761503548765747000,0.634746826171875,0.2417556345462799,0.4040619730949402,0.2841765880584717
1761503548775803100,0.64480322265625,0.1613824963569641,0.40469875931739807,0.4326736629009247
1761503548785859000,0.654859130859375,0.07035326212644577,0.4043581187725067,0.5902286767959595
1761503548795915000,0.6649150390625,-0.022594790905714035,0.35283076763153076,0.7075374722480774
1761503548805971200,0.67497119140625,-0.05745823308825493,0.2851545214653015,0.734397292137146
1761503548816027100,0.685027099609375,-0.061949122697114944,0.17375501990318298,0.6791872978210449
1761503548826083000,0.6950830078125,-0.05584276095032692,0.03358832001686096,0.5637475252151489
1761503548836139300,0.70513916015625,-0.046544600278139114,-0.10123607516288757,0.39154672622680664
1761503548846195200,0.7151953125,-0.02624198980629444,-0.20919716358184814,0.20168784260749817
1761503548856251000,0.7252509765625,-0.019305521622300148,-0.23833347856998444,0.04742104560136795
1761503548866307000,0.73530712890625,-0.07646494358778,-0.2524349093437195,0.01335761696100235
1761503548876363000,0.745363037109375,-0.13914696872234344,-0.25770103931427,0.10975206643342972
1761503548886419000,0.7554189453125,-0.18197299540042877,-0.20363008975982666,0.31870314478874207
1761503548896475100,0.76547509765625,-0.2680985629558563,-0.14243996143341064,0.5582907199859619
1761503548906531000,0.775531005859375,-0.3577413558959961,-0.08024024218320847,0.7884362936019897
1761503548916587000,0.7855869140625,-0.4701504707336426,-0.1928860992193222,0.9411147832870483
1761503548926643200,0.795643310546875,-0.5975015163421631,-0.33960282802581787,1.0021024942398071
1761503548936699100,0.80569921875,-0.6958333849906921,-0.21232211589813232,1.0248533487319946
1761503548946755000,0.815755126953125,-0.7479754090309143,-0.07775631546974182,1.0328588485717773
1761503548956811300,0.825811279296875,-0.8269578218460083,-0.3863447904586792,0.9512840509414673
1761503548966867200,0.8358671875,-0.8599357604980469,-0.6637601256370544,0.8468180894851685
1761503548976923000,0.8459228515625,-0.7727574706077576,-0.8672051429748535,0.7152944207191467
1761503548986979000,0.85597900390625,-0.5854629278182983,-1.0361584424972534,0.5818617939949036
1761503548997035000,0.866034912109375,-0.396748423576355,-1.1576262712478638,0.453645795583725
1761503549007091000,0.876091064453125,-0.2658500671386719,-1.205632209777832,0.35672298073768616
1761503549017147100,0.886147216796875,-0.19022320210933685,-1.2092468738555908,0.3327401280403137
1761503549027203000,0.896203125,-0.14245274662971497,-1.1074683666229248,0.36693379282951355
1761503549037259000,0.906259033203125,-0.12435870617628098,-0.9734095931053162,0.4133172631263733
1761503549047315200,0.916315185546875,-0.16287493705749512,-0.8296910524368286,0.4422309398651123
1761503549057371100,0.92637109375,-0.200448140501976,-0.7859379649162292,0.45784106850624084
1761503549067426800,0.9364267578125,-0.1897110790014267,-0.9532321691513062,0.48793479800224304
1761503549077483000,0.94648291015625,-0.11122985184192657,-1.180767297744751,0.5794546008110046
1761503549087539000,0.9565390625,-0.012197810225188732,-1.3068450689315796,0.6843703389167786
1761503549097595000,0.966594970703125,0.043244410306215286,-1.3025795221328735,0.758011519908905
1761503549107651000,0.976651123046875,-0.03632764890789986,-1.1397384405136108,0.7831429839134216
1761503549117707000,0.98670703125,-0.27620893716812134,-0.9463289976119995,0.7257867455482483
1761503549127763000,0.996762939453125,-0.4827171266078949,-0.4882354438304901,0.560745358467102
1761503549137819100,1.006819091796875,-0.5162780284881592,-0.05056117847561836,0.37266650795936584
1761503549147875000,1.016875,-0.43140625953674316,0.15318796038627625,0.22737111151218414
1761503549157931000,1.026930908203125,-0.2879561483860016,0.18537971377372742,0.10507022589445114
1761503549167987000,1.036987060546875,-0.1210891380906105,0.12361887842416763,-0.028545092791318893
1761503549178043000,1.04704296875,0.0006508765509352088,0.06311212480068207,-0.1555483192205429
1761503549188099800,1.057099853515625,0.0646040290594101,0.038234204053878784,-0.24985164403915405
1761503549198155800,1.06715576171875,0.09345617890357971,0.1273648738861084,-0.28819212317466736
1761503549208212000,1.0772119140625,0.11301097273826599,0.2864709198474884,-0.28011393547058105
1761503549218268000,1.087267822265625,0.12334776669740677,0.4681834578514099,-0.24110369384288788
1761503549228323800,1.09732373046875,0.1443699598312378,0.5835662484169006,-0.221987783908844
1761503549238380000,1.107380126953125,0.18613365292549133,0.6086308360099792,-0.2354695051908493
1761503549248436000,1.11743603515625,0.2586973309516907,0.5779812932014465,-0.25585120916366577
1761503549258492000,1.127491943359375,0.33083438873291016,0.5178894996643066,-0.25628557801246643
1761503549268548000,1.137548095703125,0.376613050699234,0.45291900634765625,-0.24136096239089966
1761503549278604000,1.14760400390625,0.3946373164653778,0.39164525270462036,-0.20917026698589325
1761503549288660000,1.157659912109375,0.39692845940589905,0.3487883508205414,-0.17899292707443237
1761503549298716200,1.167716064453125,0.371570885181427,0.33568400144577026,-0.20278453826904297
1761503549308772000,1.177772216796875,0.323300302028656,0.3950921893119812,-0.25728026032447815
1761503549318827800,1.187827880859375,0.29241907596588135,0.4679048955440521,-0.3313550353050232
1761503549328884000,1.197884033203125,0.2897969186306,0.5580970644950867,-0.37611743807792664
1761503549338940000,1.20793994140625,0.2995885908603668,0.5951586961746216,-0.35434824228286743
1761503549348995800,1.217995849609375,0.3103645145893097,0.6102753281593323,-0.2458483874797821
1761503549359052000,1.228052001953125,0.32037562131881714,0.6089914441108704,-0.06847412884235382
1761503549369108000,1.23810791015625,0.31982725858688354,0.6179652214050293,0.13015693426132202
1761503549379164000,1.248163818359375,0.3069881796836853,0.6163614392280579,0.31084468960762024
1761503549389220000,1.25822021484375,0.3070946931838989,0.5682269334793091,0.42671671509742737
1761503549399276000,1.268276123046875,0.31931567192077637,0.3754652440547943,0.4357232451438904
1761503549409332000,1.27833203125,0.30051401257514954,0.16242912411689758,0.34023240208625793
1761503549419388200,1.28838818359375,0.2509307563304901,0.047021836042404175,0.17715586721897125
1761503549429444000,1.298444091796875,0.20291262865066528,-0.09578298777341843,0.040581248700618744
1761503549439500000,1.3085,0.14795882999897003,-0.19371087849140167,0.007367102429270744
1761503549449556000,1.318555908203125,0.052802760154008865,-0.13123418390750885,0.00936101097613573
1761503549459612000,1.32861181640625,-0.04683941230177879,-0.07463562488555908,0.041310686618089676
1761503549469667800,1.338667724609375,-0.10689449310302734,-0.1438826024532318,0.19854584336280823
1761503549479724000,1.34872412109375,-0.129392609000206,-0.09945362061262131,0.4336917996406555
1761503549489780000,1.358780029296875,-0.19586484134197235,-0.05410637706518173,0.5900664925575256
1761503549499836000,1.3688359375,-0.2707401514053345,-0.008957542479038239,0.6060987114906311
1761503549509892000,1.37889208984375,-0.3682999908924103,-0.0019289276096969843,0.5412448644638062
1761503549519948000,1.388947998046875,-0.46404755115509033,0.014595720916986465,0.5164351463317871
1761503549530004000,1.39900390625,-0.5472162365913391,0.10907934606075287,0.5985001921653748
1761503549540060200,1.40906005859375,-0.5608854293823242,0.30674582719802856,0.7720224261283875
1761503549550116000,1.4191162109375,-0.43415915966033936,0.13072951138019562,0.9970523715019226
1761503549560172000,1.429172119140625,-0.28781527280807495,-0.3321281373500824,1.2012507915496826
1761503549570228000,1.43922802734375,-0.06666611135005951,-0.9425510168075562,1.3463879823684692
1761503549580284000,1.449283935546875,0.11852478235960007,-1.5898176431655884,1.335196852684021
1761503549590339800,1.45933984375,0.23281407356262207,-1.9415086507797241,1.1248222589492798
1761503549600396000,1.46939599609375,0.26993533968925476,-1.8409596681594849,0.6801577806472778
1761503549610452000,1.479451904296875,0.24102379381656647,-1.3192216157913208,0.0782490000128746
1761503549620509000,1.489509033203125,0.27650776505470276,-0.5690743923187256,-0.4398024082183838
1761503549630564900,1.49956494140625,0.3104654550552368,-0.12008699029684067,-0.5174891948699951
1761503549640621000,1.50962109375,0.2686801850795746,0.12557975947856903,-0.5158372521400452
1761503549650677000,1.519677001953125,0.28343650698661804,0.01888420805335045,-0.44031399488449097
1761503549660733000,1.52973291015625,0.37944692373275757,-0.3828515112400055,-0.3444196879863739
1761503549670789000,1.5397890625,0.5116872787475586,-0.5874778628349304,-0.33195263147354126
1761503549680845000,1.549844970703125,0.6085472106933594,-0.5692578554153442,-0.3896119296550751
1761503549690901000,1.55990087890625,0.6797409653663635,-0.3645758330821991,-0.46170955896377563
1761503549700957200,1.569957275390625,0.7189693450927734,-0.14947231113910675,-0.5568425059318542
1761503549711013000,1.58001318359375,0.6270101070404053,0.22022292017936707,-0.65257328748703
1761503549721069000,1.590069091796875,0.45469027757644653,0.44010016322135925,-0.6689192056655884
1761503549731125000,1.600125,0.41997915506362915,0.28212249279022217,-0.5165917277336121
1761503549741181000,1.610180908203125,0.5301674604415894,-0.211001455783844,-0.20970502495765686
1761503549751236900,1.62023681640625,0.6558356285095215,-0.32281720638275146,0.12041483074426651
1761503549761293000,1.63029296875,0.7093507647514343,0.03898335248231888,0.6004730463027954
1761503549771349000,1.640348876953125,0.5066717267036438,0.09163830429315567,0.910804808139801
1761503549781405000,1.650405029296875,0.15864743292331696,-0.19240619242191315,1.129631757736206
1761503549791460900,1.6604609375,-0.18872863054275513,-0.5436044335365295,1.2657711505889893
1761503549801517000,1.67051708984375,-0.4396846890449524,-0.6622112393379211,1.2421460151672363
1761503549811573000,1.680572998046875,-0.4099041521549225,-0.7976308465003967,1.151188611984253
1761503549821629000,1.69062890625,-0.11670371145009995,-0.7815911769866943,1.095508098602295
1761503549831685000,1.70068505859375,-0.2751777768135071,-0.8667532205581665,0.8307927846908569
1761503549841741000,1.710740966796875,-0.30995893478393555,-0.6455880403518677,0.1770397573709488
1761503549851797000,1.720796875,-0.3869170844554901,-0.31503331661224365,-0.10516609996557236
1761503549861853000,1.73085302734375,-0.4822468161582947,-0.0038003309164196253,-0.22452232241630554
1761503549871908900,1.740908935546875,-0.43242359161376953,-0.0011744539951905608,-0.4471149146556854
1761503549881964800,1.75096484375,-0.379341721534729,-0.1868809312582016,-0.504497766494751
1761503549892021000,1.76102099609375,-0.41580334305763245,-0.2730129063129425,-0.4427441358566284
1761503549902077000,1.771076904296875,-0.5258014798164368,-0.29953157901763916,-0.30853545665740967
1761503549912132900,1.7811328125,-0.7607654929161072,-0.5913216471672058,0.11226502060890198
1761503549922189000,1.79118896484375,-1.031980276107788,-0.9157652258872986,1.009210467338562
1761503549932245000,1.801244873046875,-0.8508911728858948,-1.3658080101013184,1.5788010358810425
1761503549942301000,1.811301025390625,-0.5731911063194275,-1.370007038116455,1.816099762916565
1761503549952357000,1.821357177734375,-0.5402432680130005,-1.1865546703338623,1.651191234588623
1761503549962413000,1.8314130859375,-0.7678561806678772,-0.7775471806526184,1.0892115831375122
1761503549972469000,1.841468994140625,-1.1644022464752197,0.07396663725376129,0.2922166883945465
1761503549982525000,1.85152490234375,-1.4567909240722656,0.4516628086566925,-0.5639797449111938
1761503549992580900,1.861580810546875,-1.070169448852539,1.0600779056549072,-1.088189721107483
1761503550002636800,1.87163671875,-0.3540544807910919,1.0854413509368896,-1.2761367559432983
1761503550012693000,1.88169287109375,0.16660656034946442,0.9842398762702942,-0.5205486416816711
1761503550022749000,1.8917490234375,0.6269083619117737,1.0525094270706177,0.7719268202781677
1761503550032806000,1.901805908203125,0.7101374864578247,1.5341323614120483,1.8470100164413452
1761503550042861800,1.91186181640625,0.5281266570091248,2.1837735176086426,2.0319314002990723
1761503550052918000,1.92191796875,0.2299780696630478,2.720226764678955,1.5454754829406738
1761503550062970400,1.931970458984375,-0.20460453629493713,2.484741687774658,0.9908125400543213
1761503550073026300,1.9420263671875,-0.49700871109962463,2.110307216644287,0.9672052264213562
1761503550083082500,1.95208251953125,-0.41324031352996826,1.7930299043655396,1.4144490957260132
1761503550093138400,1.962138427734375,-0.26656484603881836,1.7125481367111206,2.092528820037842
1761503550103194000,1.972194091796875,0.3190922439098358,0.9919587969779968,2.47571063041687
1761503550113250300,1.982250244140625,1.1578038930892944,0.3112042248249054,2.516604423522949
1761503550123306200,1.99230615234375,1.3988593816757202,0.14027747511863708,2.5728039741516113
1761503550133362200,2.002362060546875,1.1746431589126587,0.41276466846466064,2.5117197036743164
1761503550143418400,2.01241845703125,0.6239005923271179,0.5292332172393799,2.4090397357940674
1761503550153474300,2.022474365234375,-0.0854286178946495,0.6112915873527527,2.2107717990875244
1761503550163530200,2.0325302734375,-0.4885300099849701,0.5262616872787476,1.9152469635009766
1761503550173586400,2.04258642578125,-0.415353000164032,0.3712020516395569,1.578415870666504
1761503550183642400,2.052642333984375,-0.1118471696972847,0.34848207235336304,1.3575245141983032
1761503550193698300,2.0626982421875,0.31391558051109314,0.1578253209590912,1.262569546699524
1761503550203754500,2.07275439453125,0.6497300863265991,-0.36841052770614624,1.3495904207229614
1761503550213810400,2.082810546875,0.6952863931655884,-0.7165599465370178,1.2494001388549805
1761503550223866400,2.092866455078125,0.5616300702095032,-1.0487667322158813,1.1247930526733398
1761503550233922300,2.10292236328125,0.5654138326644897,-1.142440676689148,1.1833000183105469
1761503550243978200,2.112978271484375,0.6878002285957336,-1.056818962097168,1.3103649616241455
1761503550254034200,2.1230341796875,0.5774052739143372,-0.717437207698822,1.3639272451400757
1761503550264090400,2.13309033203125,0.16859939694404602,-0.3166711628437042,1.3036857843399048
1761503550274146300,2.143146240234375,-0.3240286707878113,-0.08191350847482681,1.1674307584762573
1761503550284202200,2.1532021484375,-0.7629751563072205,0.1465074121952057,0.9681032299995422
1761503550294258400,2.163258544921875,-1.0534032583236694,0.3426588177680969,0.5162590742111206
1761503550304314400,2.173314453125,-1.2608519792556763,0.285759299993515,-0.133950874209404
1761503550314370300,2.183370361328125,-1.2085225582122803,0.38026824593544006,-0.7098773121833801
1761503550324426500,2.193426513671875,-0.7433934211730957,0.5231596231460571,-1.2273966073989868
1761503550334482400,2.203482421875,-0.3526781499385834,0.07587239146232605,-1.4291467666625977
1761503550344538400,2.213538330078125,-0.14979508519172668,-0.37902453541755676,-1.2265326976776123
1761503550354594600,2.223594482421875,-0.038309305906295776,-0.5336764454841614,-0.8612023591995239
1761503550364650200,2.233650146484375,-0.08576177805662155,-0.45656701922416687,-0.4714016020298004
1761503550374706200,2.2437060546875,-0.2058812528848648,-0.2346913367509842,-0.2945088744163513
1761503550384762400,2.253762451171875,-0.2985198497772217,0.07832170277833939,-0.2989398241043091
1761503550394818300,2.263818359375,-0.33540862798690796,0.3198786675930023,-0.358046293258667
1761503550404875300,2.273875244140625,-0.2565220594406128,0.44191083312034607,-0.42063483595848083
1761503550414931200,2.28393115234375,-0.1378508061170578,0.40311604738235474,-0.3212816119194031
1761503550424987400,2.2939873046875,-0.113588348031044,0.34887009859085083,-0.10405290126800537
1761503550435043300,2.304043212890625,-0.16247040033340454,0.3196967840194702,0.07776856422424316
1761503550445099300,2.314099365234375,-0.23862189054489136,0.3390433192253113,0.1495809704065323
1761503550455155500,2.324155517578125,-0.2906363606452942,0.31339359283447266,-0.05432981625199318
1761503550465211400,2.33421142578125,-0.29787084460258484,0.2760845720767975,-0.42595717310905457
1761503550475267300,2.344267333984375,-0.2555835545063019,0.22109615802764893,-0.8103346824645996
1761503550485323500,2.354323486328125,-0.11590369790792465,0.12046170234680176,-1.0708287954330444
1761503550495379500,2.36437939453125,0.1238364577293396,0.010919226333498955,-1.0760356187820435
1761503550505435400,2.374435302734375,0.311235636472702,-0.07211600244045258,-0.867536187171936
1761503550515491300,2.3844912109375,0.32687506079673767,-0.18646734952926636,-0.6299393177032471
1761503550525547300,2.39454736328125,0.1983138918876648,-0.3126324713230133,-0.502183198928833
1761503550535603200,2.404603271484375,0.012913135811686516,-0.19195452332496643,-0.7063483595848083
1761503550545659400,2.414659423828125,-0.29493921995162964,-0.12342952936887741,-1.1645982265472412
1761503550555715300,2.42471533203125,-0.6716681122779846,-0.2746424674987793,-1.359708547592163
1761503550565771300,2.434771240234375,-0.6145811676979065,-0.3470282554626465,-1.3502613306045532
1761503550575827500,2.444827392578125,-0.20040367543697357,-0.025972744449973106,-1.02938973903656
1761503550585883400,2.45488330078125,0.21387074887752533,0.6577368974685669,-0.6863961815834045
1761503550595939300,2.464939208984375,0.32572829723358154,1.2054811716079712,-0.5239660143852234
1761503550605995500,2.47499560546875,0.1338118612766266,1.2903300523757935,-0.5708475112915039
1761503550616051500,2.485051513671875,-0.474304735660553,1.0619194507598877,-0.35309335589408875
1761503550626107400,2.495107421875,-0.9484723210334778,1.016763687133789,0.14222106337547302
1761503550636163600,2.50516357421875,-0.8068634867668152,1.4362521171569824,0.7715576887130737
1761503550646219300,2.51521923828125,-0.5235164761543274,1.9820080995559692,1.265800952911377
1761503550656275200,2.525275146484375,-0.28933700919151306,2.1009740829467773,1.487333059310913
1761503550666331400,2.535331298828125,0.10913793742656708,1.4153004884719849,1.3085700273513794
1761503550676387300,2.54538720703125,0.5823140144348145,0.4898863434791565,0.752111554145813
1761503550686443300,2.555443359375,1.0988391637802124,-0.2409372478723526,0.11229085177183151
1761503550696499500,2.56549951171875,1.2996604442596436,-0.902275800704956,-0.18023395538330078
1761503550706555400,2.575555419921875,1.2094231843948364,-1.095359444618225,0.02136760577559471
1761503550716611300,2.585611328125,0.5693987607955933,-0.8101919293403625,0.6712380051612854
1761503550726667500,2.59566748046875,-0.23697499930858612,-0.16944202780723572,1.4288740158081055
1761503550736723500,2.605723388671875,-0.7038913369178772,0.5138220191001892,2.172640800476074
1761503550746779400,2.615779296875,-0.8442803621292114,0.08600252866744995,2.8940317630767822
1761503550756836400,2.62583642578125,-0.932030200958252,-0.11278114467859268,3.374061107635498
1761503550766892500,2.635892578125,-0.6518108248710632,0.3541748523712158,3.2176289558410645
1761503550776948500,2.645948486328125,-0.2075476050376892,0.5674330592155457,2.401099443435669
1761503550787004400,2.65600439453125,0.2471408098936081,0.4521254003047943,1.1868510246276855
1761503550797060400,2.666060302734375,0.4959791302680969,-0.25167563557624817,0.26488199830055237
1761503550807116300,2.6761162109375,0.4741329550743103,-0.47453296184539795,0.06571722775697708
1761503550817172200,2.686172119140625,0.44017764925956726,-0.3369644582271576,0.4897923469543457
1761503550827228400,2.696228515625,0.36734285950660706,0.06956576555967331,1.1813486814498901
1761503550837284400,2.706284423828125,0.16266535222530365,0.5159949064254761,1.657899260520935
1761503550847340300,2.71634033203125,0.09134429693222046,0.7955085635185242,1.6113016605377197
1761503550857396500,2.726396484375,0.02822471410036087,1.0179885625839233,0.9994281530380249
1761503550867452400,2.736452392578125,-0.030772292986512184,1.0161157846450806,0.1421283781528473
1761503550877508400,2.74650830078125,-0.15474456548690796,0.6624746322631836,-0.42448896169662476
1761503550887564500,2.756564453125,-0.23644502460956573,0.4012800455093384,-0.664093017578125
1761503550897620500,2.766620361328125,-0.19585418701171875,0.2775602340698242,-0.7157474160194397
1761503550907676400,2.776676513671875,0.005949768237769604,0.07310989499092102,-0.5371041893959045
1761503550917732400,2.786732421875,0.29413121938705444,0.03705628961324692,-0.196733295917511
1761503550927788300,2.796788330078125,0.5165544152259827,0.22128738462924957,-0.06863099336624146
1761503550937844200,2.80684423828125,0.6674211621284485,0.40272507071495056,-0.2369891107082367
1761503550947900400,2.816900390625,0.6020618677139282,0.5628287196159363,-0.6193021535873413
1761503550957956400,2.826956298828125,0.4983823597431183,0.7107630968093872,-0.9529136419296265
1761503550968012300,2.83701220703125,0.2815110385417938,0.49594423174858093,-1.1222057342529297
1761503550978068200,2.847068115234375,0.0001174454009742476,0.36602646112442017,-1.3152213096618652
1761503550988124400,2.85712451171875,-0.20349612832069397,0.2923887073993683,-1.4494835138320923
1761503550998180400,2.867180419921875,-0.3742090165615082,0.3785422444343567,-1.2713228464126587
1761503551008236300,2.877236328125,-0.43445852398872375,0.48107367753982544,-1.0139175653457642
1761503551018292500,2.88729248046875,-0.3968919515609741,0.506736695766449,-0.9043024182319641
1761503551028348400,2.897348388671875,-0.2708064615726471,0.4943583309650421,-0.8386094570159912
1761503551038404400,2.907404296875,-0.17032167315483093,0.39011821150779724,-0.7966899871826172
1761503551048460300,2.917460205078125,-0.15340180695056915,0.29361775517463684,-0.786095380783081
1761503551058516200,2.92751611328125,-0.1749851256608963,0.35657331347465515,-0.847000777721405
1761503551068572200,2.937572265625,-0.21339882910251617,0.4967695474624634,-0.9863448739051819
1761503551078628400,2.94762841796875,-0.2061912566423416,0.48572197556495667,-1.1920212507247925
1761503551088685300,2.957685302734375,-0.11448982357978821,0.3123413920402527,-1.3816471099853516
1761503551098741200,2.9677412109375,-0.04228780046105385,0.12865518033504486,-1.3998799324035645
1761503551108797200,2.977797119140625,0.0025070998817682266,-0.0825372189283371,-1.3005213737487793
1761503551118853400,2.987853271484375,-0.022658707574009895,-0.1522635668516159,-1.160725712776184
1761503551128909000,2.997908935546875,-0.23050963878631592,-0.1366177648305893,-0.9070329666137695
1761503551138965200,3.00796533203125,-0.5429250597953796,0.03707945719361305,-0.5844296216964722
1761503551149021200,3.018021240234375,-0.45593422651290894,0.2811027765274048,-0.38235563039779663
1761503551159077000,3.0280771484375,-0.029258552938699722,0.5674008727073669,-0.6127225160598755
1761503551169133300,3.03813330078125,0.5420457124710083,0.9747976660728455,-0.6208747029304504
1761503551179189200,3.048189208984375,0.9024755358695984,1.1557543277740479,0.01137089915573597
1761503551189245200,3.0582451171875,0.8339763283729553,0.8325268030166626,0.49700284004211426
1761503551199301000,3.068301025390625,0.15703542530536652,0.6587717533111572,0.7306137681007385
1761503551209357300,3.078357421875,-0.5581871271133423,0.3922756314277649,0.7260448336601257
1761503551219413200,3.088413330078125,-0.36007028818130493,0.46750274300575256,1.0343307256698608
1761503551229469200,3.09846923828125,0.042753055691719055,0.11701876670122147,1.3462939262390137
1761503551239525400,3.108525390625,0.41499534249305725,0.12956491112709045,1.0568064451217651
1761503551249581300,3.118581298828125,0.5885682106018066,0.10571364313364029,0.34506845474243164
1761503551259637000,3.128636962890625,0.645930826663971,0.04391872137784958,-0.11812663823366165
1761503551269693200,3.138693115234375,0.6268327236175537,-0.03195899724960327,-0.195013165473938
1761503551279749000,3.1487490234375,0.343700647354126,-0.12942643463611603,-0.008786034770309925
1761503551289805000,3.15880517578125,-0.13833843171596527,-0.17067240178585052,0.3380885720252991
1761503551299861200,3.168861328125,-0.42249399423599243,-0.2890336811542511,0.5199164152145386
1761503551309917200,3.178917236328125,-0.3402252197265625,-0.2548719644546509,0.2621423900127411
1761503551319973000,3.18897314453125,-0.09258532524108887,-0.3894177973270416,-0.2068924605846405
1761503551330029300,3.199029296875,0.39429643750190735,-0.41618630290031433,-0.701515793800354
1761503551340085200,3.209085205078125,0.8004477024078369,-0.23656167089939117,-1.071237325668335
1761503551350141200,3.21914111328125,1.1603962182998657,-0.4071435332298279,-0.9019484519958496
1761503551360197400,3.229197265625,1.373000144958496,-0.7671730518341064,0.002029062481597066
1761503551370253300,3.23925341796875,0.918651282787323,-0.8987878561019897,0.9884897470474243
1761503551380309200,3.249309326171875,0.2767655551433563,-0.6165260672569275,1.784109115600586
1761503551390365200,3.259365234375,-0.09163697808980942,-0.36511164903640747,2.325599193572998
1761503551400421000,3.269421142578125,-0.37215545773506165,-0.3140953481197357,2.6076016426086426
1761503551410477000,3.27947705078125,-0.3677593767642975,-0.44355320930480957,2.6531660556793213
1761503551420534000,3.289533935546875,-0.26669907569885254,-0.416469931602478,2.270137310028076
1761503551430590200,3.299590087890625,-0.052858155220746994,-0.36199015378952026,1.4477273225784302
1761503551440646100,3.309646240234375,0.21849718689918518,-0.39073073863983154,0.5154364705085754
1761503551450702000,3.3197021484375,0.3615685999393463,-0.3388824462890625,-0.3192456364631653
1761503551460758300,3.32975830078125,0.30811840295791626,-0.2503818869590759,-0.7785197496414185
1761503551470814200,3.339814208984375,0.1600743532180786,-0.2107793390750885,-0.638611912727356
1761503551480870100,3.3498701171875,0.06962701678276062,-0.1840694397687912,-0.1584482342004776
1761503551490926300,3.35992626953125,0.08763104677200317,-0.15373097360134125,0.2162414938211441
1761503551500982300,3.369982177734375,0.20259012281894684,-0.19657669961452484,0.19872401654720306
1761503551511038200,3.3800380859375,0.3904449939727783,-0.5018846988677979,-0.17973195016384125
1761503551521094400,3.390094482421875,0.5140017867088318,-0.9329679012298584,-0.7211547493934631
1761503551531150300,3.400150390625,0.5324641466140747,-1.2330437898635864,-1.1500868797302246
1761503551541206000,3.4102060546875,0.4720684587955475,-1.3773187398910522,-1.3485978841781616
1761503551551262200,3.42026220703125,0.2937067151069641,-1.3637336492538452,-1.3173712491989136
1761503551561318100,3.430318115234375,0.04947381094098091,-1.1584832668304443,-1.193444013595581
1761503551571374000,3.4403740234375,-0.1540588140487671,-0.8113360404968262,-0.9993162751197815
1761503551581430300,3.45043017578125,-0.1816054880619049,-0.48420822620391846,-0.7228301167488098
1761503551591486200,3.460486328125,-0.032276179641485214,-0.24535995721817017,-0.5643264651298523
1761503551601542100,3.470542236328125,0.13421691954135895,-0.19022853672504425,-0.7820132970809937
1761503551611598300,3.480598388671875,0.17441041767597198,-0.31858915090560913,-1.3126276731491089
1761503551621654300,3.490654296875,-0.07809560000896454,-0.5648500919342041,-1.8841798305511475
1761503551631710200,3.500710205078125,-0.4840620160102844,-0.6046246290206909,-2.187495708465576
1761503551641766400,3.510766357421875,-0.7860064506530762,-0.4182201623916626,-1.9826147556304932
1761503551651822300,3.520822265625,-0.6540923118591309,-0.06549804657697678,-1.4902734756469727
1761503551661878300,3.530878173828125,-0.17166416347026825,0.14429539442062378,-1.0915186405181885
1761503551671934200,3.540934326171875,0.2568208873271942,0.03296540677547455,-1.0584717988967896
1761503551681990100,3.550990234375,0.34926852583885193,-0.11816392093896866,-1.2525978088378906
1761503551692046000,3.561046142578125,0.13257482647895813,-0.3074161410331726,-1.4538500308990479
1761503551702102300,3.571102294921875,-0.2946225702762604,-0.3470844626426697,-1.2463098764419556
1761503551712158200,3.581158203125,-0.6623832583427429,-0.3836160898208618,-0.5892757773399353
1761503551722215200,3.591215087890625,-0.724528431892395,-0.31318214535713196,0.14629516005516052
1761503551732271000,3.60127099609375,-0.4258418381214142,-0.04266650229692459,0.30812934041023254
1761503551742327300,3.611327392578125,0.10970279574394226,0.20950396358966827,-0.33823850750923157
1761503551752383200,3.62138330078125,0.31862112879753113,0.2768089473247528,-0.6196653842926025
1761503551762439200,3.631439208984375,0.6150773167610168,0.34020310640335083,-0.3771970868110657
1761503551772495400,3.641495361328125,0.5241109132766724,0.3778761923313141,-0.47942250967025757
1761503551782551300,3.65155126953125,0.11684885621070862,0.19030976295471191,-0.3483995199203491
1761503551792607200,3.661607177734375,-0.381621390581131,-0.17014403641223907,-0.3019388020038605
1761503551802663400,3.671663330078125,-0.49570268392562866,-0.43584176898002625,0.19423578679561615
1761503551812719400,3.68171923828125,-0.18768441677093506,-0.6913725733757019,1.0115498304367065
1761503551822775000,3.691775146484375,0.2149948626756668,-0.6095222234725952,1.5904823541641235
1761503551832831200,3.701831298828125,0.376797616481781,-0.33845633268356323,2.085576057434082
1761503551842887200,3.71188720703125,0.0443434976041317,-0.17973221838474274,2.4185681343078613
1761503551852943000,3.721943115234375,-0.28991571068763733,0.12489879131317139,2.2371182441711426
1761503551862999300,3.731999267578125,-0.4983069896697998,0.35261452198028564,1.8129037618637085
1761503551873055200,3.74205517578125,-0.792069137096405,0.20667807757854462,1.3187755346298218
1761503551883111200,3.752111083984375,-0.8228850960731506,0.0802045613527298,0.7387635707855225
1761503551893167400,3.76216748046875,-0.4982958137989044,0.13440920412540436,0.3673553764820099
1761503551903223300,3.772223388671875,0.014898788183927536,0.12190140783786774,-0.19195851683616638
1761503551913279200,3.782279296875,0.2706938087940216,-0.4802057445049286,-0.28252464532852173
1761503551923335400,3.79233544921875,-0.04164624586701393,-0.4458067715167999,0.4587819576263428
1761503551933391400,3.802391357421875,-0.5089982748031616,0.281573086977005,1.7650195360183716
1761503551943447000,3.812447021484375,-0.8574944734573364,0.5967110395431519,2.622396230697632
1761503551953503200,3.822503173828125,-0.6302125453948975,0.8993300795555115,2.7866055965423584
1761503551963559200,3.83255908203125,-0.14327406883239746,0.748818039894104,2.3500261306762695
1761503551973615000,3.842614990234375,0.2708357572555542,0.19335082173347473,1.7776938676834106
1761503551983671300,3.85267138671875,0.6705317497253418,-0.2301357388496399,1.4352080821990967
1761503551993727200,3.862727294921875,0.637567400932312,-0.340562105178833,1.2923777103424072
1761503552003783200,3.872783203125,0.2878432273864746,-0.007877097465097904,1.1003867387771606
1761503552013840100,3.882840087890625,-0.08843239396810532,0.21090450882911682,0.7200700044631958
1761503552023896300,3.892896240234375,-0.30618175864219666,0.47272494435310364,0.27210181951522827
1761503552033952300,3.9029521484375,-0.3359018564224243,0.5899910926818848,-0.10002326965332031
1761503552044008200,3.91300830078125,-0.21199800074100494,0.4741012454032898,-0.23825891315937042
1761503552054064400,3.923064453125,-0.037038709968328476,0.24195750057697296,-0.23463034629821777
1761503552064124200,3.933124267578125,0.12111976742744446,-0.022490661591291428,-0.28831276297569275
1761503552074180000,3.94318017578125,0.2582933306694031,-0.2903852164745331,-0.4523988962173462
1761503552084236000,3.953236083984375,0.40329739451408386,-0.5335204005241394,-0.6135994791984558
1761503552094292200,3.963292236328125,0.5089313983917236,-0.6342626810073853,-0.6079407930374146
1761503552104348200,3.97334814453125,0.5301426649093628,-0.492458701133728,-0.430709570646286
1761503552114404000,3.983404052734375,0.4308270215988159,-0.20498163998126984,-0.14742061495780945
1761503552124460300,3.993460205078125,0.25484561920166016,0.13639593124389648,0.07542365044355392
1761503552134516000,4.003515869140625,0.07915180921554565,0.3601493835449219,0.14137284457683563
1761503552144572000,4.013572021484375,-0.07424866408109665,0.3633670210838318,0.05946199595928192
1761503552154628000,4.023628173828125,-0.16921378672122955,0.2226266860961914,-0.2247188687324524
1761503552164684000,4.03368408203125,-0.2943698465824127,0.08026394993066788,-0.6378316283226013
1761503552174740000,4.043739990234375,-0.30218514800071716,0.007151386234909296,-1.014352560043335
1761503552184796200,4.053796142578125,-0.1284908652305603,0.020741498097777367,-1.27423095703125
1761503552194852000,4.06385205078125,0.11432337760925293,0.0791880264878273,-1.3137370347976685
1761503552204908000,4.073907958984375,0.2644074261188507,0.1980595588684082,-1.1033207178115845
1761503552214964200,4.083964111328125,0.25384026765823364,0.44296517968177795,-0.860073447227478
1761503552225020200,4.094020263671875,0.15836460888385773,0.7805405259132385,-0.7043171525001526
1761503552235076000,4.104076171875,0.10305874049663544,1.1255836486816406,-0.8941970467567444
1761503552245132300,4.11413232421875,0.14866085350513458,1.127946138381958,-1.377130150794983
1761503552255189200,4.124189208984375,0.2684359848499298,0.7920632362365723,-1.8645824193954468
1761503552265245200,4.1342451171875,0.3273475170135498,0.5423455834388733,-1.9407117366790771
1761503552275301000,4.144301025390625,0.2211662083864212,0.4556213319301605,-1.3808106184005737
1761503552285357000,4.154357177734375,-0.013951501809060574,0.5519723296165466,-0.39947709441185
1761503552295413000,4.1644130859375,-0.21910598874092102,0.9587576985359192,0.4458096921443939
1761503552305469000,4.174468994140625,-0.19505710899829865,1.4215929508209229,0.608863353729248
1761503552315525000,4.184525146484375,0.015505989082157612,1.6542224884033203,0.09853029996156693
1761503552325581000,4.1945810546875,0.09248971939086914,1.638487458229065,-0.6193221211433411
1761503552335637000,4.204636962890625,-0.018983544781804085,1.5608686208724976,-0.8221356868743896
1761503552345693200,4.214693115234375,-0.29590916633605957,1.0111966133117676,-0.5292196273803711
1761503552355749000,4.2247490234375,-0.2345597743988037,0.7894131541252136,-0.08718683570623398
1761503552365805000,4.23480517578125,-0.1472642868757248,0.7121418118476868,0.22848564386367798
1761503552375861200,4.244861328125,0.006711964961141348,0.6551434993743896,0.18006430566310883
1761503552385917200,4.254917236328125,0.3894345760345459,0.36661607027053833,0.3033026158809662
1761503552395973000,4.26497314453125,0.6363290548324585,-0.39403465390205383,0.3633151054382324
1761503552406029000,4.275029052734375,0.5453749299049377,-1.0242749452590942,0.24531148374080658
1761503552416085000,4.2850849609375,0.22909922897815704,-1.0436283349990845,0.28784722089767456
1761503552426141000,4.295140869140625,-0.1914282888174057,-0.697035551071167,0.573911726474762
1761503552436197000,4.305197021484375,-0.4837530851364136,-0.2136712670326233,0.8080257177352905
1761503552446253000,4.315253173828125,-0.49865081906318665,0.3627377152442932,0.9567036032676697
1761503552456309000,4.32530908203125,-0.37966635823249817,0.9106255769729614,0.9200305342674255
1761503552466365200,4.335365234375,-0.2922443747520447,1.040350079536438,0.7141159772872925
1761503552476421000,4.345421142578125,-0.15742477774620056,0.2715311050415039,0.4528750777244568
1761503552486477000,4.35547705078125,0.1807418167591095,-0.6858114004135132,0.1708846539258957
1761503552496533200,4.365533203125,0.49024614691734314,-1.3942867517471313,0.5304462909698486
1761503552506589200,4.375589111328125,0.5250792503356934,-1.449884295463562,1.549124002456665
1761503552516645000,4.38564501953125,0.3123275339603424,-1.0149948596954346,2.4344983100891113
1761503552526702000,4.3957021484375,-0.03735296428203583,-0.45295655727386475,2.6369566917419434
1761503552536758300,4.40575830078125,-0.37671878933906555,-0.06596463918685913,2.3322606086730957
1761503552546814200,4.415814208984375,-0.3822650909423828,-0.08981803804636002,1.8004939556121826
1761503552556870100,4.4258701171875,-0.23276346921920776,-0.11602460592985153,1.321673035621643
1761503552566926000,4.435926025390625,-0.0052168662659823895,-0.008126369677484035,1.012186050415039
1761503552576982000,4.44598193359375,0.1492491364479065,0.10082142055034637,0.7971112728118896
1761503552587038000,4.456037841796875,0.14496304094791412,0.1481444537639618,0.4860926866531372
1761503552597094100,4.46609423828125,0.05980953946709633,0.07428301870822906,0.09711270034313202
1761503552607150000,4.476150146484375,-0.025907764211297035,-0.15321272611618042,-0.09039141237735748
1761503552617206000,4.4862060546875,-0.07936486601829529,-0.3627624809741974,0.03344158083200455
1761503552627262200,4.49626220703125,-0.10199081152677536,-0.43803727626800537,0.3015843629837036
1761503552637318100,4.506318115234375,-0.08331938832998276,-0.280598908662796,0.450472354888916
1761503552647374000,4.5163740234375,-0.04265238717198372,0.07125847041606903,0.34596699476242065
1761503552657430300,4.52643017578125,-0.0070946612395346165,0.41381528973579407,0.07015325874090195
1761503552667486200,4.536486328125,0.01426655426621437,0.6344352960586548,-0.2086365669965744
1761503552677542100,4.546542236328125,-0.0171427670866251,0.7285681366920471,-0.37692996859550476
1761503552687598000,4.55659814453125,-0.04992947727441788,0.45210620760917664,-0.34406203031539917
1761503552697654000,4.566654052734375,-0.023243537172675133,-0.15275226533412933,-0.17694121599197388
1761503552707710000,4.5767099609375,0.01804344914853573,-0.5607203245162964,-0.024060329422354698
1761503552717766100,4.58676611328125,-0.019705528393387794,-0.49833229184150696,-0.11249778419733047
1761503552727822000,4.596822021484375,-0.11728747934103012,-0.16212178766727448,-0.44805848598480225
1761503552737879000,4.606879150390625,-0.18684445321559906,0.22509543597698212,-0.7968694567680359
1761503552747935000,4.61693505859375,-0.22329168021678925,0.43903782963752747,-1.0605602264404297
1761503552757991200,4.6269912109375,-0.1748351901769638,0.4228726923465729,-1.1655335426330566
1761503552768047000,4.637047119140625,-0.10797040909528732,0.291020929813385,-1.164840579032898
1761503552778103000,4.64710302734375,-0.06097041070461273,0.15768229961395264,-1.1306639909744263
1761503552788159200,4.6571591796875,-0.04689054191112518,0.14330150187015533,-1.1312804222106934
1761503552798215200,4.667215087890625,-0.0959925726056099,0.2607823312282562,-1.3422443866729736
1761503552808271000,4.67727099609375,-0.15674567222595215,0.4242764413356781,-1.7717124223709106
1761503552818327300,4.687327392578125,-0.13097213208675385,0.5435117483139038,-2.1057848930358887
1761503552828383200,4.69738330078125,-0.10146510601043701,0.5375396013259888,-2.0890467166900635
1761503552838439000,4.70743896484375,-0.09020046889781952,0.43949267268180847,-1.575870394706726
1761503552848495000,4.7174951171875,-0.06854496896266937,0.32712647318840027,-0.8128449320793152
1761503552858551000,4.727551025390625,-0.022127406671643257,0.12339543551206589,-0.2827499508857727
1761503552868607000,4.73760693359375,0.017475662752985954,-0.03411482647061348,-0.19353272020816803
1761503552878663200,4.7476630859375,0.0009004147723317146,-0.158456489443779,-0.5059502720832825
1761503552888719000,4.757718994140625,-0.14970028400421143,-0.2247188687324524,-1.132773995399475
1761503552898775000,4.767775146484375,-0.1028163954615593,0.013885721564292908,-1.8298115730285645
1761503552908831200,4.777831298828125,0.1713581681251526,0.3270260691642761,-2.194143772125244
1761503552918887200,4.78788720703125,0.46911048889160156,0.6412407159805298,-1.9266668558120728
1761503552928943000,4.797943115234375,0.7850996255874634,0.9178677797317505,-1.3356077671051025
1761503552938999300,4.807999267578125,0.7819488048553467,0.9660502076148987,-0.5890758037567139
1761503552949056300,4.81805615234375,0.3034687936306,0.7362319231033325,0.14511537551879883
1761503552959112200,4.8281123046875,0.02540016546845436,0.07720769941806793,0.18680503964424133
1761503552969168100,4.838168212890625,0.1864985078573227,-0.5965022444725037,-0.008305334486067295
1761503552979224300,4.848224365234375,0.3582782447338104,-0.9398798942565918,-0.05866943672299385
1761503552989280000,4.858280029296875,0.2720560133457184,-1.042822241783142,0.003967843484133482
1761503552999336000,4.8683359375,0.07552485167980194,-0.8085474371910095,0.16720683872699738
1761503553009392000,4.87839208984375,-0.045522209256887436,-0.31463623046875,0.35875949263572693
1761503553019448000,4.888447998046875,-0.030433006584644318,-0.13672909140586853,0.7136627435684204
1761503553029504000,4.89850390625,0.03398992493748665,0.04706072062253952,1.2037663459777832
1761503553039560200,4.908560302734375,-0.07610302418470383,0.19654954969882965,1.5822676420211792
1761503553049616100,4.9186162109375,-0.16448535025119781,0.26458051800727844,1.6304748058319092
1761503553059672000,4.928672119140625,-0.20469748973846436,0.19172443449497223,1.4934415817260742
1761503553069724700,4.938724609375,-0.2716861069202423,0.051293015480041504,1.390045404434204
1761503553079780900,4.94878076171875,-0.2779786288738251,-0.10949879884719849,1.3833448886871338
1761503553089836800,4.9588369140625,-0.12507402896881104,-0.19966810941696167,1.2498701810836792
1761503553099892700,4.968892822265625,0.0895535871386528,-0.22316864132881165,1.0907578468322754
1761503553109948700,4.97894873046875,0.3315012454986572,-0.2774063050746918,1.0450505018234253
1761503553120004600,4.989004638671875,0.3580414950847626,-0.44587841629981995,1.0980452299118042
1761503553130060800,4.999060791015625,0.1937284618616104,-0.8726055026054382,1.1360387802124023
1761503553140116700,5.00911669921875,0.0850544422864914,-1.161708950996399,1.0872136354446411
1761503553150172700,5.019172607421875,-0.043173834681510925,-1.0588890314102173,0.9804438352584839
1761503553160228600,5.029228515625,-0.19148100912570953,-0.6273046731948853,0.8743911385536194
1761503553170285800,5.039285888671875,-0.27949848771095276,-0.011464376002550125,0.8114137649536133
1761503553180341800,5.049341796875,-0.31766822934150696,0.5491957664489746,0.722077488899231
1761503553190397700,5.059397705078125,-0.24834217131137848,0.7940254807472229,0.594744861125946
1761503553200453600,5.06945361328125,-0.1742306500673294,0.5490343570709229,0.6233354806900024
1761503553210509800,5.079509765625,-0.2059054970741272,0.1562599092721939,0.7775833606719971
1761503553220565800,5.089565673828125,-0.2831488847732544,-0.14596839249134064,0.7893734574317932
1761503553230621700,5.09962158203125,-0.31944164633750916,-0.3311536908149719,0.7876232266426086
1761503553240678000,5.109677978515625,-0.29132798314094543,-0.29938164353370667,0.8796740770339966
1761503553250733600,5.119733642578125,-0.20976121723651886,-0.1400575041770935,0.9289497137069702
1761503553260789800,5.129789794921875,-0.029746709391474724,0.010541324503719807,0.8607136607170105
1761503553270845700,5.139845703125,0.1716172993183136,0.08428585529327393,0.5992663502693176
1761503553280901600,5.149901611328125,0.3748425841331482,0.04809269309043884,0.29271894693374634
1761503553290957600,5.15995751953125,0.5120531916618347,-0.15311524271965027,0.11487012356519699
1761503553301013800,5.170013671875,0.5017997622489929,-0.40115728974342346,-0.004856540355831385
1761503553311069700,5.180069580078125,0.2974199652671814,-0.48299726843833923,-0.16103549301624298
1761503553321125600,5.190125732421875,-0.009184443391859531,-0.3604215681552887,-0.4328813850879669
1761503553331181800,5.200181884765625,-0.23397360742092133,-0.19841481745243073,-0.84221351146698
1761503553341237800,5.21023779296875,-0.29632115364074707,0.026496589183807373,-1.2627649307250977
1761503553351293700,5.220293701171875,-0.18571127951145172,0.2670293152332306,-1.5865267515182495
1761503553361350700,5.2303505859375,0.0448356494307518,0.37073251605033875,-1.7328286170959473
1761503553371406800,5.24040673828125,0.25559502840042114,0.2928105592727661,-1.6538869142532349
1761503553381462800,5.250462890625,0.3019436001777649,0.14050625264644623,-1.2802643775939941
1761503553391518700,5.260518798828125,0.19749470055103302,0.11657801270484924,-0.948159396648407
1761503553401574700,5.27057470703125,0.03862568736076355,0.2418738752603531,-0.9170528650283813
1761503553411630600,5.280630615234375,-0.09711562842130661,0.4102626144886017,-1.0895854234695435
1761503553421686500,5.2906865234375,-0.18280497193336487,0.5867372751235962,-1.4172637462615967
1761503553431742700,5.30074267578125,-0.16682733595371246,0.5611783862113953,-1.602974534034729
1761503553441798700,5.310798583984375,-0.0575445182621479,0.31907039880752563,-1.3498224020004272
1761503553451854600,5.3208544921875,-0.03290388733148575,0.09550122171640396,-0.6103331446647644
1761503553461910800,5.330910888671875,-0.026793796569108963,0.025844912976026535,0.19427840411663055
1761503553471966700,5.340966796875,0.06849570572376251,0.16455964744091034,0.6134557127952576
1761503553482022700,5.351022705078125,0.1894729882478714,0.40825727581977844,0.49685531854629517
1761503553492078800,5.361078857421875,0.31923019886016846,0.6307473182678223,0.13500149548053741
1761503553502134800,5.371134765625,0.38342276215553284,0.8278217911720276,-0.06253021955490112
1761503553512190700,5.381190673828125,0.4830667972564697,0.6682467460632324,-0.06353823095560074
1761503553522247000,5.391246826171875,0.6448304057121277,0.18809480965137482,-0.23665568232536316
1761503553532302600,5.401302490234375,0.5917426943778992,-0.2903370261192322,-0.48173627257347107
1761503553542358500,5.411358642578125,0.16279317438602448,-0.633234977722168,-0.680002748966217
1761503553552415700,5.421415771484375,-0.16150447726249695,-0.5136553049087524,-0.8658908605575562
1761503553562471700,5.4314716796875,-0.2908792495727539,-0.23655927181243896,-0.7966278791427612
1761503553572527600,5.441527587890625,-0.24789129197597504,0.05680815503001213,-0.4710407555103302
1761503553582583600,5.45158349609375,-0.05046903342008591,0.5412291884422302,-0.22787204384803772
1761503553592639700,5.4616396484375,0.1418287754058838,0.7810912728309631,-0.04947301000356674
1761503553602695700,5.47169580078125,0.18181774020195007,0.8998885154724121,0.18140947818756104
1761503553612751600,5.481751708984375,0.1307484209537506,0.8356688022613525,0.6363018751144409
1761503553622807800,5.491807861328125,0.03639262914657593,0.3051513731479645,1.1585184335708618
1761503553632863700,5.50186376953125,-0.08423658460378647,-0.2780816853046417,1.6414164304733276
1761503553642919700,5.511919677734375,-0.1532324254512787,-0.6939398646354675,1.9244893789291382
1761503553652975900,5.521975830078125,-0.1307918280363083,-1.027377724647522,1.9828376770019531
1761503553663031800,5.53203173828125,0.002730805426836014,-1.3031907081604004,1.7855865955352783
1761503553673087700,5.542087646484375,0.06873752176761627,-1.3899219036102295,1.4627819061279297
1761503553683143700,5.552143798828125,0.0476577989757061,-1.273275375366211,1.1967686414718628
1761503553693199600,5.56219970703125,-0.10307445377111435,-1.093267798423767,0.9321346282958984
1761503553703255600,5.572255615234375,-0.35093778371810913,-0.8840794563293457,0.732015073299408
1761503553713311700,5.582311767578125,-0.5376056432723999,-0.5350069403648376,0.7809996604919434
1761503553723367700,5.59236767578125,-0.6819604635238647,-0.12104839086532593,1.1068403720855713
1761503553733423600,5.602423583984375,-0.6766266822814941,0.2428952008485794,1.3355505466461182
1761503553743480600,5.61248046875,-0.6160584092140198,0.2992902994155884,1.216422200202942
1761503553753536800,5.622536865234375,-0.4776906669139862,0.1605590581893921,0.8743943572044373
1761503553763592700,5.6325927734375,-0.2516133189201355,0.08001281321048737,0.5215784907341003
1761503553773648600,5.642648681640625,-0.06337285041809082,0.014281467534601688,0.13713441789150238
1761503553783704800,5.652704833984375,0.019939087331295013,-0.03683071956038475,-0.2641693353652954
1761503553793760800,5.6627607421875,-0.0015078817959874868,-0.1277150809764862,-0.4751793146133423
1761503553803816700,5.672816650390625,-0.0782197043299675,-0.15059776604175568,-0.4524303078651428
1761503553813873000,5.682872802734375,-0.15331286191940308,-0.10089146345853806,-0.3424343168735504
1761503553823928800,5.6929287109375,-0.19410662353038788,-0.033118005841970444,-0.2982444763183594
1761503553833984500,5.702984619140625,-0.15243187546730042,-0.030367227271199226,-0.44204026460647583
1761503553844040700,5.713040771484375,-0.057670220732688904,-0.12885677814483643,-0.6983945369720459
1761503553854096600,5.7230966796875,0.03404797986149788,-0.3184128701686859,-0.9701307415962219
1761503553864152600,5.733152587890625,0.04296424612402916,-0.36362987756729126,-1.2393778562545776
1761503553874208800,5.743208740234375,0.04044223204255104,-0.2426041215658188,-1.3093031644821167
1761503553884264700,5.7532646484375,0.04662555828690529,-0.039923448115587234,-1.0974117517471313
1761503553894320600,5.763320556640625,0.036911413073539734,0.13932140171527863,-0.7572740912437439
1761503553904376800,5.773376953125,0.030903853476047516,0.30442115664482117,-0.4967533051967621
1761503553914432800,5.783432861328125,-0.01495151873677969,0.3896186053752899,-0.39373984932899475
1761503553924489700,5.79348974609375,-0.10832513868808746,0.42809969186782837,-0.4445026218891144
1761503553934545700,5.803545654296875,-0.1546015590429306,0.2858645021915436,-0.6094143390655518
1761503553944601900,5.813601806640625,-0.1538817137479782,-0.06851167976856232,-0.8266720771789551
1761503553954657800,5.82365771484375,-0.10919679701328278,-0.30937808752059937,-0.9429582357406616
1761503553964713700,5.833713623046875,-0.05818234756588936,-0.3162463903427124,-0.9766027331352234
1761503553974770000,5.84377001953125,-0.06999586522579193,-0.13885268568992615,-1.0885287523269653
1761503553984825600,5.85382568359375,-0.01691693253815174,0.12452275305986404,-1.198325753211975
1761503553994881500,5.863881591796875,0.09118929505348206,0.2859952747821808,-1.1512610912322998
1761503554004937700,5.873937744140625,0.1600266844034195,0.20499388873577118,-1.0061321258544922
1761503554014993700,5.88399365234375,0.2546301484107971,0.02822125144302845,-0.9805519580841064
1761503554025049600,5.894049560546875,0.3195854425430298,-0.2779621183872223,-0.8647981882095337
1761503554035105800,5.904105712890625,0.30825290083885193,-0.4116258919239044,-0.6382942199707031
1761503554045161700,5.91416162109375,0.40475547313690186,-0.08056408166885376,-0.6397040486335754
1761503554055217700,5.9242177734375,0.7430472373962402,0.5308002233505249,-0.909089982509613
1761503554065272800,5.93427294921875,0.7576858401298523,0.9340723156929016,-1.0519611835479736
1761503554075328800,5.944328857421875,0.5262848138809204,1.1256535053253174,-0.6340142488479614
1761503554085385700,5.9543857421875,0.32799971103668213,0.4641205370426178,-0.02322915568947792
1761503554095442000,5.96444189453125,-0.3098534643650055,-0.5262531638145447,0.42457765340805054
1761503554105497900,5.974497802734375,-0.7403841018676758,-0.6716553568840027,0.35834404826164246
1761503554115553800,5.9845537109375,-0.4422767460346222,-0.052811816334724426,0.09525221586227417
1761503554125610000,5.99460986328125,0.3443227708339691,0.697867751121521,0.21688783168792725
1761503554135666000,6.004666015625,0.6851722002029419,0.943091094493866,0.46884551644325256
1761503554145721900,6.014721923828125,0.5565495491027832,0.6128919124603271,0.5648348927497864
1761503554155778000,6.024778076171875,0.3550821840763092,-0.03344690799713135,0.6147105693817139
1761503554165834000,6.034833984375,0.22899456322193146,-0.681345522403717,0.7732203006744385
1761503554175890000,6.044889892578125,0.219218909740448,-0.7927154302597046,1.1128958463668823
1761503554185945900,6.05494580078125,0.20075388252735138,-0.3861415684223175,1.5330654382705688
1761503554196001800,6.065001708984375,0.026549052447080612,-0.26831719279289246,1.7849434614181519
1761503554206057700,6.0750576171875,-0.41203656792640686,-0.870379626750946,1.981125831604004
1761503554216114000,6.085114013671875,-0.6860835552215576,-0.848787784576416,2.0313775539398193
1761503554226169900,6.095169921875,-0.6522984504699707,-0.2677307724952698,1.9535421133041382
1761503554236225800,6.105225830078125,-0.41077661514282227,0.6978909373283386,1.7613481283187866
1761503554246282000,6.115281982421875,-0.003100185887888074,0.42187801003456116,1.5885801315307617
1761503554256338000,6.125337890625,0.21993449330329895,-0.8630255460739136,1.1916487216949463
1761503554266395000,6.135394775390625,0.22562727332115173,-1.040825605392456,0.9171521663665771
1761503554276450800,6.145450927734375,0.0854368731379509,-0.862311840057373,0.803067684173584
1761503554286507000,6.155507080078125,-0.11762356758117676,-0.8642151951789856,0.7066003084182739
1761503554296563000,6.16556298828125,-0.2653970420360565,-0.755683422088623,0.6324523091316223
1761503554306619000,6.175618896484375,-0.3584505617618561,-0.3640708923339844,0.5510042905807495
1761503554316675000,6.185675048828125,-0.3726198971271515,0.07319805026054382,0.35971689224243164
1761503554326731000,6.19573095703125,-0.3237466514110565,0.2969062328338623,0.12475977838039398
1761503554336786700,6.20578662109375,-0.2564701437950134,0.1392042338848114,0.05176412686705589
1761503554346843000,6.2158427734375,-0.23353418707847595,-0.07184036821126938,0.11901027709245682
1761503554356898800,6.22589892578125,-0.25346261262893677,-0.1917492002248764,0.11554017663002014
1761503554366954800,6.235954833984375,-0.24391013383865356,-0.2638564109802246,-0.021282652392983437
1761503554377011000,6.246010986328125,-0.1798592507839203,-0.2637549340724945,-0.19546456634998322
1761503554387067000,6.25606689453125,-0.13788889348506927,-0.037146568298339844,-0.27346643805503845
1761503554397122800,6.266122802734375,-0.12357679754495621,0.3553770184516907,-0.3195289969444275
1761503554407178800,6.2761787109375,-0.05964202433824539,0.7113808989524841,-0.5021355748176575
1761503554417235000,6.28623486328125,0.04556721821427345,0.968108594417572,-0.7417241930961609
1761503554427292000,6.2962919921875,0.08578094840049744,0.9575579166412354,-0.9597678184509277
1761503554437347800,6.306347900390625,0.037514351308345795,0.71818608045578,-1.076289415359497
1761503554447404000,6.316404052734375,-0.02702549286186695,0.4371935725212097,-1.0864746570587158
1761503554457460000,6.3264599609375,-0.07260176539421082,0.20527298748493195,-1.0467122793197632
1761503554467516000,6.336515869140625,-0.06375420838594437,0.07666201889514923,-0.9752668738365173
1761503554477571800,6.34657177734375,-0.0518253818154335,0.014661500230431557,-0.9341580867767334
1761503554487627800,6.356627685546875,0.00039974047103896737,0.10140438377857208,-0.9483146667480469
1761503554497683700,6.36668359375,0.030524086207151413,0.24084004759788513,-1.0079364776611328
1761503554507740000,6.376739990234375,-0.0036631780676543713,0.356625497341156,-1.0669057369232178
1761503554517795800,6.3867958984375,-0.06976230442523956,0.5513553023338318,-1.151619791984558
1761503554527851800,6.396851806640625,-0.1094583198428154,0.7928840517997742,-1.279222846031189
1761503554537907700,6.40690771484375,-0.13131114840507507,1.0405433177947998,-1.3877795934677124
1761503554547964000,6.4169638671875,-0.12005689740180969,1.1266354322433472,-1.4388175010681152
1761503554558019800,6.427019775390625,0.008595352061092854,0.9118067026138306,-1.3083466291427612
1761503554568075800,6.43707568359375,0.13676956295967102,0.5359196066856384,-0.8837167620658875
1761503554578132000,6.447132080078125,0.13611815869808197,0.35792484879493713,-0.4169793725013733
1761503554588189000,6.45718896484375,0.04225557669997215,0.3399517238140106,-0.22322136163711548
1761503554598244900,6.467244873046875,-0.10400735586881638,0.2355741709470749,-0.36275768280029297
1761503554608300800,6.47730078125,-0.13187068700790405,0.15989671647548676,-0.7390421032905579
1761503554618357000,6.48735693359375,-0.0955590158700943,0.2571963667869568,-0.9776714444160461
1761503554628413000,6.497412841796875,0.028418857604265213,0.3557184338569641,-0.7373288869857788
1761503554638468900,6.50746875,0.28819289803504944,0.4397720396518707,-0.7665879726409912
1761503554648524800,6.51752490234375,0.1732916235923767,0.4116879403591156,-0.7227782011032104
1761503554658580700,6.527580810546875,-0.06454863399267197,-0.03273957222700119,-0.4973064363002777
1761503554668636700,6.53763671875,0.0073292856104671955,-0.5156963467597961,-0.08658602088689804
1761503554678692900,6.54769287109375,0.2416757345199585,-0.7293628454208374,0.45710471272468567
1761503554688748800,6.557748779296875,0.34743598103523254,-0.4596584141254425,0.7469828724861145
1761503554698804700,6.5678046875,0.19151750206947327,-0.4706612527370453,0.6364307999610901
1761503554708861000,6.57786083984375,0.17491962015628815,-0.6774455904960632,0.12311980128288269
1761503554718916900,6.587916748046875,0.39976710081100464,-0.6661844253540039,-0.27988117933273315
1761503554728972800,6.597972900390625,0.6448615789413452,-0.21077348291873932,-0.18265317380428314
1761503554739029000,6.608029052734375,0.7561579942703247,0.2840628921985626,0.18965008854866028
1761503554749085000,6.6180849609375,0.7561651468276978,0.48461487889289856,0.45318078994750977
1761503554759142000,6.628141845703125,0.691952109336853,0.429436057806015,0.44399261474609375
1761503554769197800,6.63819775390625,0.45235762000083923,0.13013216853141785,0.3302423655986786
1761503554779254000,6.64825390625,0.15063610672950745,-0.18429367244243622,0.41877540946006775
1761503554789309700,6.658309814453125,-0.1857789158821106,-0.33045753836631775,0.6431965231895447
1761503554799365600,6.66836572265625,-0.38660842180252075,-0.4253861904144287,0.8804213404655457
1761503554809421800,6.678421875,-0.3941241502761841,-0.4791908264160156,1.203313946723938
1761503554819477800,6.688477783203125,-0.2499275505542755,-0.49653705954551697,1.5347133874893188
1761503554829533700,6.69853369140625,-0.09935082495212555,-0.49891847372055054,1.5923266410827637
1761503554839590000,6.70858984375,0.11942999064922333,-0.48007819056510925,1.2510721683502197
1761503554849645800,6.718645751953125,0.30967584252357483,-0.4282240569591522,0.8429144620895386
1761503554859701800,6.72870166015625,0.37501221895217896,-0.33491459488868713,0.6699844598770142
1761503554869758000,6.738758056640625,0.25902384519577026,-0.22116567194461823,0.7167884707450867
1761503554879814000,6.74881396484375,0.038429681211709976,-0.12456270307302475,0.7476209402084351
1761503554889869800,6.758869873046875,-0.20902138948440552,-0.09712894260883331,0.694351851940155
1761503554899926000,6.768926025390625,-0.3968181908130646,-0.1005236804485321,0.623071014881134
1761503554909983000,6.77898291015625,-0.5024186372756958,-0.1621883660554886,0.5281320214271545
1761503554920039000,6.789038818359375,-0.4895302951335907,-0.2202998846769333,0.4601633548736572
1761503554930094800,6.7990947265625,-0.3657366931438446,-0.27129435539245605,0.40824103355407715
1761503554940150800,6.80915087890625,-0.22389940917491913,-0.3474389314651489,0.39923208951950073
1761503554950206700,6.819206787109375,-0.09207053482532501,-0.4111694395542145,0.3946322798728943
1761503554960262700,6.8292626953125,0.0020626182667911053,-0.40174877643585205,0.3480903208255768
1761503554970318800,6.83931884765625,0.045938994735479355,-0.32241877913475037,0.2952372431755066
1761503554980374800,6.849374755859375,0.09220928698778152,-0.20270544290542603,0.20582427084445953
1761503554990430700,6.8594306640625,0.25322186946868896,-0.08501236140727997,0.026014823466539383
1761503555000487000,6.86948681640625,0.5482180714607239,-0.012842029333114624,-0.2625479996204376
1761503555010542800,6.87954296875,0.82951420545578,-0.06876680999994278,-0.5808993577957153
1761503555020598800,6.889598876953125,0.9336690902709961,-0.20521840453147888,-0.8352251052856445
1761503555030655000,6.899655029296875,0.7607375383377075,-0.3091919422149658,-1.0979715585708618
1761503555040711000,6.9097109375,0.38909822702407837,-0.3187960982322693,-1.376670002937317
1761503555050766800,6.919766845703125,-0.026072081178426743,-0.2908344864845276,-1.6430212259292603
1761503555060823800,6.92982373046875,-0.34104999899864197,-0.08519505709409714,-1.8784785270690918
1761503555070880300,6.93988037109375,-0.4630235731601715,0.2492084950208664,-1.9094702005386353
1761503555080936200,6.949936279296875,-0.29510489106178284,0.530933141708374,-1.6522823572158813
1761503555090992000,6.9599921875,-0.04262016341090202,0.8031523823738098,-1.2287966012954712
1761503555101048000,6.970048095703125,0.20397204160690308,0.8322093486785889,-0.775869607925415
1761503555111104000,6.98010400390625,0.41752132773399353,0.8207401633262634,-0.40374186635017395
1761503555121160000,6.990159912109375,0.4399304986000061,0.6148298978805542,-0.12272857874631882
1761503555131216100,7.000216064453125,0.22162693738937378,0.2750377058982849,0.07693365961313248
1761503555141272000,7.01027197265625,-0.03322639688849449,0.04147820174694061,0.13030394911766052
1761503555151328000,7.020327880859375,-0.23060524463653564,-0.1542297899723053,0.10829558223485947
1761503555161384200,7.03038427734375,-0.23663011193275452,-0.2439223825931549,0.05091910809278488
1761503555171440000,7.040440185546875,0.06735720485448837,-0.18025445938110352,0.08314388990402222
1761503555181496000,7.05049609375,0.21337486803531647,0.16260622441768646,0.4855765402317047
1761503555191552300,7.06055224609375,-0.03199122101068497,0.8081849813461304,0.8330293297767639
1761503555201608200,7.070608154296875,-0.4622291624546051,1.153396725654602,0.7712024450302124
1761503555211664100,7.0806640625,-0.7367536425590515,0.9736524820327759,0.4942810833454132
1761503555221721000,7.09072119140625,-0.7698255777359009,0.6507460474967957,-0.017850635573267937
1761503555231777300,7.10077734375,-0.49667075276374817,0.4595244526863098,-0.5192517042160034
1761503555241833200,7.110833251953125,0.0656740814447403,0.6778154969215393,-0.6484586596488953
1761503555251889000,7.120888916015625,0.5850017070770264,1.2298190593719482,-0.41394656896591187
1761503555261945000,7.130945068359375,0.6518784761428833,1.2307569980621338,0.09361730515956879
1761503555272001000,7.1410009765625,0.43538182973861694,0.6592263579368591,0.8479217290878296
1761503555282057000,7.151056884765625,0.0041281660087406635,0.17412225902080536,1.728975534439087
1761503555292113200,7.161113037109375,-0.27264297008514404,-0.19745075702667236,2.3847503662109375
1761503555302169000,7.171169189453125,-0.2381497174501419,-0.5684956908226013,2.5316855907440186
1761503555312225000,7.18122509765625,-0.11579051613807678,-1.174710988998413,2.4521644115448
1761503555322281200,7.19128125,0.0889730155467987,-1.5295170545578003,2.2777833938598633
1761503555332337200,7.201337158203125,0.26684102416038513,-1.5884299278259277,1.8484550714492798
1761503555342393000,7.21139306640625,0.2896595001220703,-1.7697988748550415,1.2773476839065552
1761503555352449300,7.22144921875,0.22467970848083496,-2.0041747093200684,0.8965212106704712
1761503555362505200,7.231505126953125,0.10048532485961914,-2.129481315612793,0.7152462601661682
1761503555372561200,7.24156103515625,-0.12652944028377533,-1.8614251613616943,0.6601622104644775
1761503555382618000,7.2516181640625,-0.2851337492465973,-1.268039584159851,0.7338265776634216
1761503555392674300,7.26167431640625,-0.3311353027820587,-0.6914993524551392,0.8093650341033936
1761503555402730000,7.27172998046875,-0.3019593358039856,-0.24849076569080353,0.824738621711731
1761503555412786000,7.281785888671875,-0.2435609996318817,0.03314170613884926,0.753817617893219
1761503555422842000,7.291842041015625,-0.17797133326530457,0.0757264494895935,0.6017851829528809
1761503555432898000,7.30189794921875,-0.04584844782948494,-0.0668189749121666,0.40589532256126404
1761503555442954000,7.3119541015625,0.16388480365276337,-0.22376997768878937,0.19694742560386658
1761503555453010200,7.32201025390625,0.31060928106307983,-0.23738858103752136,-0.00848483107984066
1761503555463066000,7.332066162109375,0.3155478239059448,-0.11872079223394394,-0.2360101342201233
1761503555473122000,7.3421220703125,0.15542234480381012,0.05978929623961449,-0.46452561020851135
1761503555483178200,7.35217822265625,-0.02418283373117447,0.19273856282234192,-0.6839362382888794
1761503555493234200,7.362234130859375,-0.059663597494363785,0.254710853099823,-0.8118891716003418
1761503555503290000,7.3722900390625,-0.012626312673091888,0.2777719497680664,-0.7982423305511475
1761503555513346300,7.38234619140625,0.09186920523643494,0.34876811504364014,-0.798207700252533
1761503555523403300,7.3924033203125,0.21737359464168549,0.3673175573348999,-0.8961278796195984
1761503555533459200,7.402459228515625,0.29972386360168457,0.38359132409095764,-1.108142614364624
1761503555543515100,7.41251513671875,0.28310227394104004,0.43223264813423157,-1.3944774866104126
1761503555553571000,7.422571044921875,0.2154553234577179,0.5639075636863708,-1.6599738597869873
1761503555563627000,7.432626953125,0.22243626415729523,0.7065547704696655,-1.8416863679885864
1761503555573683000,7.442682861328125,0.26648467779159546,0.7108331322669983,-1.882347822189331
1761503555583739100,7.4527392578125,0.2913314402103424,0.6418636441230774,-1.7399874925613403
1761503555593795000,7.462795166015625,0.2589913606643677,0.6075389385223389,-1.5023863315582275
1761503555603851000,7.47285107421875,0.16604170203208923,0.5918028354644775,-1.3178460597991943
1761503555613907200,7.4829072265625,0.04047525301575661,0.6173801422119141,-1.2692335844039917
1761503555623963100,7.492963134765625,-0.04863331466913223,0.7566725015640259,-1.4600805044174194
1761503555634019000,7.50301904296875,-0.07165208458900452,0.8421841859817505,-1.8649040460586548
1761503555644075300,7.5130751953125,0.011920841410756111,0.7229142785072327,-2.2054755687713623
1761503555654131200,7.523131103515625,0.14534787833690643,0.3325395882129669,-2.1102168560028076
1761503555664187100,7.533187255859375,0.08781720697879791,-0.04790414124727249,-1.4238427877426147
1761503555674244000,7.543244140625,-0.08198274672031403,-0.26094505190849304,-0.4837493598461151
1761503555684300300,7.55330029296875,-0.1100868210196495,-0.39793992042541504,0.2665739059448242
1761503555694356200,7.563356201171875,-0.11262641102075577,-0.3984594941139221,0.5463557243347168
1761503555704412200,7.573412109375,0.04697656258940697,-0.2874235212802887,0.3682137131690979
1761503555714468000,7.583468017578125,0.2327677309513092,-0.014044445939362049,0.026030534878373146
1761503555724524000,7.59352392578125,0.2507248818874359,0.4432796835899353,-0.061471883207559586
1761503555734580000,7.603580078125,0.11975330114364624,0.712292492389679,-0.04153306037187576
1761503555744636200,7.61363623046875,-0.23064252734184265,0.5006175637245178,0.11872558295726776
1761503555754692000,7.623692138671875,-0.6611632704734802,0.21220040321350098,0.4942973554134369
1761503555764748000,7.633748046875,-0.8019097447395325,0.04836087301373482,0.6146858334541321
1761503555774804200,7.64380419921875,-0.6308131217956543,-0.12728258967399597,0.4849323332309723
1761503555784860200,7.653860107421875,-0.38058701157569885,0.09461172670125961,0.31739288568496704
1761503555794916000,7.663916015625,-0.30792054533958435,0.4915827810764313,0.2014942318201065
1761503555804972300,7.67397216796875,-0.3717658221721649,0.790739119052887,0.12688897550106049
1761503555815028200,7.6840283203125,-0.3601533770561218,1.185774564743042,0.11837271600961685
1761503555825085200,7.694085205078125,-0.26285800337791443,1.4837117195129395,0.309294193983078
1761503555835141000,7.70414111328125,-0.2230653017759323,1.4599107503890991,0.7050990462303162
1761503555845197300,7.714197265625,-0.21008239686489105,1.1020269393920898,1.0626643896102905
1761503555855253200,7.724253173828125,-0.20131953060626984,0.6793287396430969,1.1813966035842896
1761503555865309000,7.734308837890625,-0.2495163530111313,0.23963841795921326,1.1446410417556763
1761503555875365000,7.744365234375,-0.32284143567085266,-0.0142356613650918,1.0618419647216797
1761503555885421000,7.754421142578125,-0.315304696559906,-0.369550883769989,1.081222653388977
1761503555895477000,7.76447705078125,-0.1278703510761261,-0.8398001194000244,1.2958576679229736
1761503555905533200,7.774533203125,0.06924831122159958,-1.20834219455719,1.5242890119552612
1761503555915589000,7.784589111328125,0.22683128714561462,-1.1639572381973267,1.5456757545471191
1761503555925645000,7.79464501953125,0.3550204038619995,-0.845955491065979,1.318372368812561
1761503555935701200,7.804701171875,0.3255924880504608,-0.4623836278915405,1.0033313035964966
1761503555945757200,7.814757080078125,0.09909489005804062,-0.0757347047328949,0.7598392963409424
1761503555955813000,7.824813232421875,-0.1805463433265686,0.12704743444919586,0.5922438502311707
1761503555965869300,7.834869384765625,-0.3531958758831024,0.07148563116788864,0.4510044753551483
1761503555975926300,7.84492626953125,-0.4457907974720001,-0.1987442523241043,0.3488227128982544
1761503555985982200,7.854982177734375,-0.5033310651779175,-0.5578177571296692,0.22394467890262604
1761503555996038100,7.8650380859375,-0.44537293910980225,-0.8923256993293762,0.07890573143959045
1761503556006094300,7.87509423828125,-0.20219384133815765,-1.1330198049545288,-0.02256416529417038
1761503556016150000,7.88514990234375,0.10048985481262207,-1.1441168785095215,-0.022343123331665993
1761503556026206000,7.8952060546875,0.38392290472984314,-0.9192643165588379,0.07204889506101608
1761503556036262100,7.90526220703125,0.46343502402305603,-0.63532555103302,0.2159365564584732
1761503556046318000,7.915318115234375,0.5083617568016052,-0.29178017377853394,0.2875276505947113
1761503556056374000,7.9253740234375,0.49657461047172546,-0.023623570799827576,0.12290887534618378
1761503556066430200,7.93543017578125,0.374449223279953,0.07094448059797287,-0.21152636408805847
1761503556076490500,7.945490478515625,0.20377816259860992,0.006839530076831579,-0.6000416278839111
1761503556086546400,7.95554638671875,0.023130619898438454,-0.21592803299427032,-0.9643487334251404
1761503556096602400,7.965602294921875,-0.12448599934577942,-0.4919266104698181,-1.16246497631073
1761503556106659300,7.975659423828125,-0.23098741471767426,-0.6827418208122253,-1.1798664331436157
1761503556116715500,7.985715576171875,-0.28775107860565186,-0.6907526254653931,-1.0905396938323975
1761503556126771500,7.995771484375,-0.28015443682670593,-0.5725199580192566,-0.9792810678482056
1761503556136827400,8.005827392578125,-0.17042899131774902,-0.3809755742549896,-0.9520912766456604
1761503556146883600,8.015883544921875,-0.01612677238881588,-0.18357409536838531,-1.1097074747085571
1761503556156939500,8.025939453125,0.07390085607767105,0.05536578595638275,-1.3792181015014648
1761503556166995200,8.0359951171875,0.11318700760602951,0.22190363705158234,-1.6620556116104126
1761503556177051400,8.046051513671875,0.06974659115076065,0.3970043361186981,-1.8185986280441284
1761503556187107300,8.056107421875,-0.010963435284793377,0.5914342999458313,-1.686758041381836
1761503556197163300,8.066163330078124,-0.05022135749459267,0.7855818867683411,-1.3066298961639404
1761503556207219500,8.076219482421875,0.013335779309272766,0.8792223930358887,-0.8875495791435242
1761503556217275400,8.086275390625,0.12306254357099533,0.7834668159484863,-0.47429195046424866
1761503556227331300,8.096331298828124,0.15976223349571228,0.5033614039421082,-0.17915137112140656
1761503556237387500,8.106387451171875,0.082376629114151,0.1654888242483139,-0.06416833400726318
1761503556247444500,8.116444580078126,-0.09824427962303162,0.13271357119083405,-0.16118276119232178
1761503556257500400,8.12650048828125,-0.26326146721839905,0.367390513420105,-0.19447414577007294
1761503556267556400,8.136556396484375,-0.5763384103775024,0.6417360901832581,0.08452686667442322
1761503556277612500,8.146612548828125,-0.4444544315338135,0.4965919256210327,0.6037647128105164
1761503556287668500,8.15666845703125,-0.26482900977134705,0.5514746308326721,0.6928439736366272
1761503556297724400,8.166724365234375,-0.31709593534469604,0.7742466926574707,0.6070915460586548
1761503556307780600,8.176780517578125,-0.39936310052871704,0.485887348651886,0.5660018920898438
1761503556317836300,8.186836181640626,-0.33659079670906067,-0.32205232977867126,0.4243249297142029
1761503556327892200,8.196892333984374,-0.07455066591501236,-0.9745379686355591,0.09253312647342682
1761503556337948400,8.206948486328125,0.2705635726451874,-0.7210569977760315,-0.31829676032066345
1761503556348004400,8.21700439453125,0.721250057220459,-0.10557089745998383,-0.6218166947364807
1761503556358060300,8.227060302734374,1.001427412033081,0.5897634029388428,-0.6138133406639099
1761503556368116500,8.237116455078125,0.9003362059593201,1.0289626121520996,-0.15343962609767914
1761503556378172400,8.24717236328125,0.3516214191913605,0.8449938297271729,0.7864919304847717
1761503556388228400,8.257228271484376,-0.00042104575550183654,-0.14381948113441467,2.0725293159484863
1761503556398285300,8.267285400390625,-0.3484834134578705,-0.9349202513694763,3.6651763916015625
1761503556408341500,8.277341552734375,-0.7142890691757202,-1.5990221500396729,4.671212196350098
1761503556418397400,8.2873974609375,-0.731562077999115,-1.6499260663986206,4.836366653442383
1761503556428453400,8.297453369140625,-0.6945018172264099,-1.109481692314148,4.6243414878845215
1761503556438509600,8.307509521484375,-0.3347758650779724,-0.974391758441925,3.893535852432251
1761503556448565500,8.3175654296875,0.8901541233062744,-1.0394610166549683,2.7844765186309814
1761503556458621400,8.327621337890625,1.5434224605560303,-0.6891717314720154,1.7816544771194458
1761503556468677400,8.337677490234375,0.9956526160240173,-0.3172389566898346,1.1661911010742188
1761503556478733300,8.3477333984375,0.20688287913799286,-0.35113218426704407,0.6591901779174805
1761503556488789200,8.357789306640624,-0.07242493331432343,-0.041253697127103806,0.3425839841365814
1761503556498845400,8.367845458984375,-0.12268783897161484,0.21609927713871002,0.27423182129859924
1761503556508901400,8.3779013671875,-0.15414643287658691,0.5288174748420715,0.27325019240379333
1761503556518957300,8.387957275390624,-0.037456296384334564,0.7731140851974487,0.2226027101278305
1761503556529014300,8.39801416015625,0.11831385642290115,0.8989230990409851,-0.048704154789447784
1761503556539070500,8.408070556640626,0.18511952459812164,0.6896039843559265,-0.4380923807621002
1761503556549126400,8.41812646484375,0.13402225077152252,0.42839929461479187,-0.8409921526908875
1761503556559182300,8.428182373046875,0.006354834884405136,0.22990350425243378,-1.2174347639083862
1761503556569238500,8.438238525390625,-0.164753258228302,0.13183686137199402,-1.493518590927124
1761503556579294500,8.44829443359375,-0.35666677355766296,0.13167227804660797,-1.6586638689041138
1761503556589350400,8.458350341796875,-0.474453866481781,0.17816627025604248,-1.7514214515686035
1761503556599406600,8.468406494140625,-0.2948409616947174,0.46611738204956055,-1.777013897895813
1761503556609462500,8.478462646484376,0.04879603534936905,0.9964385032653809,-1.7807599306106567
1761503556619518200,8.488518310546874,0.380050927400589,1.2935469150543213,-1.795458197593689
1761503556629574400,8.498574462890625,0.58197021484375,1.3344764709472656,-1.7980360984802246
1761503556639630300,8.50863037109375,0.5748377442359924,1.208121657371521,-1.779477596282959
1761503556649686300,8.518686279296874,0.4223661720752716,1.0079939365386963,-1.8349353075027466
1761503556659742500,8.528742431640625,0.2264171540737152,0.9541637301445007,-2.0763120651245117
1761503556669799400,8.53879931640625,-0.04084783047437668,0.6325559020042419,-2.3132033348083496
1761503556679855400,8.54885546875,-0.21344277262687683,0.531921923160553,-2.3654122352600098
1761503556689911300,8.558911376953125,-0.22862279415130615,0.576672375202179,-2.1892073154449463
1761503556699967500,8.568967529296875,-0.09784799814224243,0.5833814144134521,-1.8409892320632935
1761503556710023400,8.5790234375,0.10965538769960403,0.259381502866745,-1.3955589532852173
1761503556720079400,8.589079345703125,0.20916706323623657,0.1899329125881195,-1.0136350393295288
1761503556730135600,8.599135498046875,0.15741892158985138,0.11830294132232666,-0.9213149547576904
1761503556740191500,8.60919140625,0.07736136764287949,0.11543764919042587,-1.1485241651535034
1761503556750247400,8.619247314453125,0.04609399288892746,0.35530856251716614,-1.553591251373291
1761503556760303600,8.6293037109375,0.05920739844441414,0.4784563183784485,-1.8417319059371948
1761503556770359300,8.639359375,0.03897642716765404,0.4977882206439972,-1.8151780366897583
1761503556780415200,8.649415283203124,-0.058819640427827835,0.4270453453063965,-1.8075846433639526
1761503556790472400,8.659472412109375,0.030919833108782768,0.47668853402137756,-2.3944954872131348
1761503556800528400,8.6695283203125,0.6674254536628723,1.0453517436981201,-3.0736708641052246
1761503556810584300,8.679584228515624,1.6197433471679688,1.628321647644043,-2.9424071311950684
1761503556820640300,8.68964013671875,1.9107757806777954,1.729922890663147,-2.93393611907959
1761503556830696400,8.699696533203126,1.2026108503341675,1.3784945011138916,-3.082319736480713
1761503556840752400,8.70975244140625,0.17510204017162323,0.6652445793151855,-2.709334135055542
1761503556850808300,8.719808349609375,-0.22758708894252777,0.668349027633667,-1.730226755142212
1761503556860864500,8.729864501953125,0.022588932886719704,0.4549776315689087,-0.2589559257030487
1761503556870920400,8.73992041015625,0.4370308518409729,0.4433518648147583,0.7427963614463806
1761503556880976400,8.749976318359375,0.5191140174865723,0.3034203350543976,0.9896751046180725
1761503556891032600,8.760032470703125,0.43215835094451904,0.09762270003557205,0.6411104798316956
1761503556901088500,8.770088623046876,0.3954959213733673,-0.11427810788154602,-0.11027617007493973
1761503556911144400,8.78014453125,0.4543989300727844,-0.02652588300406933,-0.9335282444953918
1761503556921200600,8.79020068359375,0.646519660949707,0.013423397205770016,-1.5932224988937378
1761503556931257600,8.800257568359376,0.8619145154953003,0.28722885251045227,-2.014094114303589
1761503556941313500,8.8103134765625,0.9467177987098694,0.604016900062561,-2.1575191020965576
1761503556951369200,8.820369140625,0.9643202424049377,0.41526803374290466,-2.1443562507629395
1761503556961425400,8.83042529296875,0.8563154935836792,0.4654523730278015,-1.8204684257507324
1761503556971481300,8.8404814453125,0.7129133343696594,0.6938796639442444,-1.3067798614501953
1761503556981537300,8.850537353515625,0.5171246528625488,0.412513792514801,-0.34045159816741943
1761503556991593500,8.860593505859375,0.2788769006729126,0.12081696838140488,0.5614374876022339
1761503557001649400,8.8706494140625,-0.029285717755556107,0.13961222767829895,1.0904589891433716
1761503557011705300,8.880705322265625,-0.22441579401493073,0.48318901658058167,1.1426324844360352
1761503557021761500,8.890761474609375,-0.2685086727142334,0.7408333420753479,0.9183535575866699
1761503557031817500,8.9008173828125,-0.3211519122123718,0.9281308054924011,0.6933345198631287
1761503557041873400,8.910873291015625,-0.41879913210868835,1.3008431196212769,0.5844911336898804
1761503557051929600,8.9209296875,-0.37055090069770813,1.701468586921692,0.6564342975616455
1761503557061986600,8.930986572265626,-0.22818097472190857,1.8170173168182373,0.9189594388008118
1761503557072038400,8.941038330078126,-0.12499040365219116,1.6255348920822144,1.3090853691101074
1761503557082094300,8.95109423828125,-0.12800776958465576,0.8353673219680786,1.6585807800292969
1761503557092150500,8.961150634765625,-0.26168328523635864,0.2594089210033417,1.8522253036499023
1761503557102206500,8.97120654296875,-0.39129745960235596,0.10899652540683746,1.6804735660552979
1761503557112262400,8.981262451171874,-0.4442181885242462,0.22941374778747559,1.2110698223114014
1761503557122318600,8.991318603515625,-0.40574270486831665,0.364549458026886,0.7163519859313965
1761503557132374500,9.00137451171875,-0.4408343732357025,0.6542015075683594,0.23623862862586975
1761503557142430500,9.011430419921876,-0.42247483134269714,0.9427438378334045,-0.06919052451848984
1761503557152486700,9.021486572265625,-0.32320496439933777,1.0505291223526,-0.2326470911502838
1761503557162542600,9.03154248046875,-0.25213876366615295,1.1174511909484863,-0.37609773874282837
1761503557172598300,9.041598388671876,-0.4342321455478668,1.1949771642684937,-0.5363590121269226
1761503557182654500,9.051654541015624,-0.45094189047813416,0.6725070476531982,-0.8182439804077148
1761503557192711700,9.061711669921875,-0.394362211227417,-0.4178678095340729,-1.1380376815795898
1761503557202767400,9.071767333984376,-0.5122885704040527,-1.5275585651397705,-1.3991243839263916
1761503557212823300,9.0818232421875,-0.6891506910324097,-2.21061110496521,-1.73185396194458
1761503557222879500,9.09187939453125,-0.8068674802780151,-1.6025811433792114,-2.407942533493042
1761503557232935400,9.101935302734375,-0.6779726147651672,-0.4503623843193054,-3.0813162326812744
1761503557242991400,9.111991455078124,-0.5486553907394409,0.22421126067638397,-3.6806719303131104
1761503557253047600,9.122047607421875,-0.46707236766815186,0.31476086378097534,-4.1040802001953125
1761503557263103500,9.132103515625,-0.42266204953193665,0.041010815650224686,-4.335366725921631
1761503557273159400,9.142159423828126,-0.23873001337051392,-1.0026018619537354,-4.590060234069824
1761503557283215600,9.152215576171875,-0.10903327912092209,-1.653117299079895,-4.8287763595581055
1761503557293271600,9.162271484375,-0.08643795549869537,-1.6912018060684204,-5.094191074371338
1761503557303327500,9.172327392578126,-0.03281387314200401,-1.3156462907791138,-5.268412113189697
1761503557313383700,9.1823837890625,0.06810155510902405,-0.8606367111206055,-5.310845851898193
1761503557323440600,9.192440673828125,0.10672245174646378,-0.38599058985710144,-5.24075174331665
1761503557333496600,9.20249658203125,0.07951533049345016,0.38529521226882935,-5.044820785522461
1761503557343552500,9.212552490234375,0.004701011814177036,1.3953534364700317,-4.966216564178467
1761503557353608400,9.2226083984375,-0.0656711533665657,2.3209214210510254,-5.128351211547852
1761503557363664400,9.232664306640626,0.037467215210199356,2.3064684867858887,-5.0991597175598145
1761503557373720300,9.24272021484375,0.2382834106683731,1.3315815925598145,-4.8713698387146
1761503557383776500,9.252776611328125,0.2890264689922333,0.4018190801143646,-4.481171131134033
1761503557393832400,9.26283251953125,0.17880409955978394,-0.15127713978290558,-4.0891499519348145
1761503557403888400,9.272888427734374,0.19381767511367798,-0.17881394922733307,-3.835117816925049
1761503557413944600,9.282944580078125,0.4088812470436096,-0.13373729586601257,-3.5893964767456055
1761503557424000500,9.29300048828125,0.68971186876297,-0.15459170937538147,-3.321366310119629
1761503557434056400,9.303056396484376,0.9494590163230896,0.13010554015636444,-3.04626727104187
1761503557444113400,9.313113525390625,1.1188418865203857,0.48170939087867737,-2.768552303314209
1761503557454169600,9.323169677734375,1.1261645555496216,0.3782697916030884,-2.4778404235839844
1761503557464225500,9.3332255859375,0.8707181215286255,-0.05902869999408722,-2.177081823348999
1761503557474281500,9.343281494140625,0.35483264923095703,-0.277574360370636,-1.8436616659164429
1761503557484337700,9.353337646484375,-0.24828436970710754,-0.2316388189792633,-1.4168230295181274
1761503557494393600,9.3633935546875,-0.7119225859642029,-0.20565462112426758,-0.8924263119697571
1761503557504449300,9.37344921875,-0.9081235527992249,-0.08200352638959885,-0.33060720562934875
1761503557514505500,9.38350537109375,-0.8343942165374756,0.13637115061283112,0.1898341178894043
1761503557524561400,9.3935615234375,-0.5389921069145203,0.35085761547088623,0.6349713802337646
1761503557534617300,9.403617431640624,-0.17291398346424103,0.34909912943840027,0.987090528011322
1761503557544673500,9.413673583984375,0.11038589477539062,0.13710592687129974,1.2590134143829346
1761503557554729500,9.4237294921875,0.2258578985929489,0.0005587312043644488,1.4487249851226807
1761503557564786400,9.433786376953124,0.15532833337783813,-0.020910874009132385,1.5715593099594116
1761503557574842400,9.44384228515625,-0.010172476060688496,-0.05492210388183594,1.6278364658355713
1761503557584898600,9.453898681640625,-0.15348276495933533,-0.13516128063201904,1.6320040225982666
1761503557594954500,9.46395458984375,-0.23089420795440674,-0.20328254997730255,1.568596601486206
1761503557605010400,9.474010498046875,-0.1981801986694336,-0.2881726622581482,1.4547122716903687
1761503557615066600,9.484066650390625,-0.09509136527776718,-0.39004072546958923,1.3158577680587769
1761503557625122600,9.49412255859375,0.007863249629735947,-0.4505208432674408,1.1549354791641235
1761503557635178500,9.504178466796875,0.043962664902210236,-0.44440940022468567,0.8925940990447998
1761503557645234700,9.514234619140625,-0.018387263640761375,-0.32376474142074585,0.5559979677200317
1761503557655290400,9.524290283203126,-0.14156459271907806,-0.17400428652763367,0.20349426567554474
1761503557665346300,9.53434619140625,-0.19963321089744568,-0.025606293231248856,-0.03459233045578003
1761503557675402500,9.544402587890625,-0.16464461386203766,0.05910992622375488,-0.11756177991628647
1761503557685459500,9.55445947265625,-0.12366468459367752,0.08966756612062454,-0.08660866320133209
1761503557695515400,9.564515380859374,-0.18288299441337585,-0.002703907433897257,0.056360743939876556
1761503557705571300,9.5745712890625,-0.21075138449668884,-0.0934886708855629,-0.10880584269762039
1761503557715627500,9.58462744140625,-0.19786487519741058,-0.10654135793447495,-0.3420875668525696
1761503557725683500,9.594683349609374,-0.17958414554595947,-0.14195021986961365,-0.4645881950855255
1761503557735739400,9.604739501953125,-0.24512773752212524,-0.1810949593782425,-0.47682034969329834
1761503557745795600,9.614795654296875,-0.36641713976860046,-0.19613835215568542,-0.31073710322380066
