time,seconds_elapsed,z,y,x
1761392249750248700,0.149248779296875,1.2052666008770465,-0.47760056110322474,-0.003415489265602082
1761392249760330800,0.159330810546875,0.07077683301270007,-0.2408054828941822,0.4993830615833401
1761392249770412800,0.169412841796875,-0.3594026362240314,-0.21136852213814852,1.2504263236828148
1761392249780495600,0.17949560546875,1.4924386981487274,-0.5076869987439364,0.9544764611937105
1761392249790577700,0.18957763671875,3.2144454458624123,-1.4698554026797412,0.6563119913950562
1761392249800662800,0.199662841796875,3.894297010537982,-0.9732830876681953,0.1726060260888189
1761392249810744800,0.209744873046875,3.193576260834932,-0.4536213542964309,-0.07635207586176693
1761392249820827000,0.219826904296875,2.168961410662532,-0.1527307474695146,-0.3804831989798695
1761392249830908700,0.22990869140625,1.7572481569647789,0.4393593855142593,-0.8129754752036183
1761392249840990700,0.23999072265625,2.177210183569789,0.9555728050630539,-0.8328297110348939
1761392249851073800,0.25007373046875,0.9557195931226015,1.8979744322553276,-0.006619746933318674
1761392249861155800,0.26015576171875,-1.2307312970012425,2.860156499390304,-0.19521047394368796
1761392249871237600,0.270237548828125,-1.122962996199727,1.798134586365521,-0.17037501563373952
1761392249881319700,0.280319580078125,-0.8516168290913104,0.1933144675966352,-0.25977109932266174
1761392249891401700,0.290401611328125,-1.152448618403077,-0.2776357687719166,-0.7586331327065825
1761392249901483800,0.30048388671875,-1.3364391581416128,-0.1720375054858625,-1.1069192585673182
1761392249911565800,0.31056591796875,-0.8399310674726963,0.2180159973286092,-1.5289099414557217
1761392249921648600,0.320648681640625,0.056395256438851356,0.13578443497419357,-1.9131518353819845
1761392249931730700,0.330730712890625,0.3468839309126138,-0.07299567810595035,-1.892802290314436
1761392249941812700,0.340812744140625,0.2745253816664219,0.0924776465587318,-1.706815900583565
1761392249951894800,0.350894775390625,0.27512451660335063,0.46281697959974405,-1.1809538512669504
1761392249961976800,0.360976806640625,0.15314298153221606,0.8319928218193352,-0.5216239733554423
1761392249972059000,0.371058837890625,0.06748539025187492,1.219761720827967,-0.7736550530105829
1761392249982140700,0.381140625,-0.3030833676308393,1.0069573206678033,-1.1566172823898493
1761392249992223700,0.3912236328125,-0.7498632585346698,0.5216141095485538,-1.1580097596615553
1761392250002305800,0.401305908203125,-1.1581453687399625,0.42135559985525906,-0.9518846911348402
1761392250012387800,0.411387939453125,-1.099236083653569,0.5925237751606851,-0.5017994750753044
1761392250022469600,0.4214697265625,-0.8687439049810171,0.824078103172034,-0.11489128454923629
1761392250032551700,0.4315517578125,-1.0262480043321847,0.8002304868556559,0.06339870546013117
1761392250042633700,0.4416337890625,-1.1852321131080388,0.6882461757943034,-0.03213701349496841
1761392250052715800,0.4517158203125,-1.3665361902415751,0.610842800781317,-0.15583879648745058
1761392250062798800,0.461798828125,-1.5278309140473603,0.698125399447605,0.06253712019473313
1761392250072880600,0.471880615234375,-0.9453606961935758,0.8540290047995746,0.2031187263175845
1761392250082962700,0.481962646484375,-0.43147184713482856,0.526358052672632,-0.06328793856203556
1761392250093044700,0.492044677734375,-0.5773422073155641,0.8091982947524636,-0.3286595613054931
1761392250103126800,0.502126708984375,-1.594416140589118,1.6682912318781018,-0.4114909892491996
1761392250113208800,0.512208740234375,-1.0810311493992806,1.4734934669211506,-0.8266182891741395
1761392250123291000,0.522290771484375,-0.9104220692813396,0.5504908791385591,-0.5596918382041156
1761392250133373700,0.532373779296875,-0.9185662127703428,0.019919884946011004,-0.07038388817235827
1761392250143455700,0.542455810546875,-0.7641746924817562,0.2718685104820877,-0.05605009626299143
1761392250153537800,0.552537841796875,-0.9630337155282497,0.6970430110383778,-0.2736526904851198
1761392250163619800,0.562619873046875,-1.0721610297232866,0.779599494498223,-0.42192207463160153
1761392250173702000,0.572701904296875,-1.4797230089604854,0.710463706690818,-0.5997339257352053
1761392250183783700,0.58278369140625,-1.6081588347375393,1.0027911408990622,-1.0596443702384828
1761392250193865700,0.59286572265625,-1.0289894119948149,1.3420178350567817,-1.1951349368326365
1761392250203948800,0.60294873046875,-0.16374270147979259,1.46909318613559,-0.8490608609981835
1761392250214030800,0.61303076171875,0.9002671704918146,1.4452332948595286,-0.5165631828345358
1761392250224112600,0.623112548828125,1.9744360329061745,1.4891072156384586,0.17407244537957012
1761392250234194700,0.633194580078125,2.2160165918260812,1.5965671811431645,0.5406334289256483
1761392250244276700,0.64327685546875,2.409705518758297,1.6449100640296934,0.39384390807338054
1761392250254358800,0.65335888671875,2.785268431666493,1.4425082538098095,-0.06449146913290023
1761392250264440800,0.66344091796875,2.766708108103275,1.611704836781323,-0.30895817794837055
1761392250274523600,0.673523681640625,2.6321061609119174,1.4985498745054007,-0.4882569066088646
1761392250284605700,0.683605712890625,2.241315868255496,1.20938163498044,-0.5488862934861332
1761392250294687700,0.693687744140625,1.8436176959067583,0.8878805671274661,-0.2588935127705336
1761392250304769800,0.703769775390625,1.664073614183068,0.7116950751166791,-0.28274332104399796
1761392250314851800,0.713851806640625,1.6253379330754278,1.1628906635709106,-0.6227626268841326
1761392250324934000,0.723933837890625,1.2714777334094047,1.5211632728517055,-0.9526075255166738
1761392250335016700,0.7340166015625,0.9668816231280565,1.223402196222171,-1.1155073464315384
1761392250345098800,0.7440986328125,0.6396557478874921,1.0496971959155053,-1.091655127005279
1761392250355180800,0.754180908203125,-0.1394248373031616,1.0040801577962934,-1.410083801675588
1761392250365262800,0.764262939453125,-0.7252572250664234,0.6653957538217306,-1.6496167804159223
1761392250375344600,0.7743447265625,-0.7573001305371523,0.23204448614846915,-1.6428861569866537
1761392250385426700,0.7844267578125,-0.44725335363447666,-0.4526517055466771,-1.5264751155242322
1761392250395508700,0.7945087890625,-0.010254852032661438,-1.1510729461356997,-1.2981338312752544
1761392250405591800,0.804591796875,0.00047112464308738706,-1.6646582822032272,-1.2120525346901267
1761392250415673900,0.814673828125,-0.13732523467540741,-2.2065978983566166,-1.4406208326280117
1761392250425755600,0.824755615234375,-0.3391927918881178,-2.647851427054405,-1.2498321571819484
1761392250435837700,0.834837646484375,-0.7998270206212997,-3.113753951579332,-0.8260663543798029
1761392250445919700,0.844919677734375,-1.197925005942583,-3.680874624609947,-0.6003149039609358
1761392250456001800,0.855001708984375,-1.3267571375608442,-4.155403523182868,-0.5897185084816068
1761392250466084600,0.865084716796875,-1.0376759917974472,-4.46529978569895,-0.7287247550465166
1761392250476166700,0.875166748046875,-0.7248299395650625,-4.787573299229145,-0.5679607771165669
1761392250486248700,0.885248779296875,-0.9296972631156444,-5.234371894833445,0.06334434492439031
1761392250496330800,0.895330810546875,-1.1277964077055453,-5.512683809301257,0.39100291249379515
1761392250506412800,0.905412841796875,-1.5400123502284286,-5.189225177639723,0.06906988296434283
1761392250516494800,0.915494873046875,-1.9538778135240076,-4.977393275773525,0.20467326228320598
1761392250526576600,0.92557666015625,-2.154621335142851,-5.5622910130351775,0.4266197309285402
1761392250536659700,0.93565966796875,-1.5912427712500095,-5.898408050739765,0.8593605750858784
1761392250546741800,0.94574169921875,-1.086338023635745,-6.216313724449277,1.481149680762738
1761392250556823800,0.95582373046875,-0.8430681964546441,-6.496221968197823,1.793986234514415
1761392250566905900,0.96590576171875,-0.8611690858125686,-6.284300634482503,1.8735729814484714
1761392250576987600,0.975987548828125,-1.0021960976153612,-6.067187577342986,2.133711233583093
1761392250587069700,0.986069580078125,-1.0605419036000967,-5.983977963736653,2.4687039434328675
1761392250597152800,0.99615283203125,-0.9870692556321621,-5.996619418644904,2.773920523700118
1761392250607234800,1.00623486328125,-1.0753647942006588,-6.298315131309628,3.1839988696724175
1761392250617316600,1.016316650390625,-1.055936455631256,-6.2388464587748045,3.9947894751176234
1761392250627398700,1.026398681640625,-1.3310726626724003,-5.997456453990936,4.7163782408043735
1761392250637480700,1.036480712890625,-1.429696703031659,-5.954167347362637,5.275032991045713
1761392250647562800,1.046562744140625,-1.3161930734485388,-6.093629009544849,5.833038629728556
1761392250657644800,1.056644775390625,-0.9961229151815175,-6.246412510114908,6.22749679724276
1761392250667727600,1.0667275390625,-0.8689695304304361,-6.320152284586429,6.597106939226388
1761392250677809700,1.0768095703125,-1.44586457850039,-6.372863299554586,7.036766768991947
1761392250687891700,1.0868916015625,-2.783568642011285,-6.568109977322816,7.228522682034969
1761392250697973800,1.096973876953125,-4.336092098766565,-6.983300551742315,7.7739488251298665
1761392250708055800,1.107055908203125,-5.806706503120064,-7.229137014541029,8.600449917665124
1761392250718137900,1.117137939453125,-7.509902751901746,-6.842471692860126,9.631185296544432
1761392250728220700,1.127220703125,-8.70338656052649,-5.967136719051003,10.571775125074385
1761392250738302700,1.137302734375,-9.408905065900086,-4.422160608935356,11.023110195064543
1761392250748384800,1.147384765625,-9.752018830624221,-3.294630158689618,11.117145738589763
1761392250758466800,1.157466796875,-9.906489845889807,-2.9722818263575435,11.199916376256942
1761392250768548600,1.167548583984375,-10.41574051375389,-2.91264539604038,11.219647497165202
1761392250778630700,1.177630615234375,-11.694647520381212,-2.871422574292123,10.889175187349318
1761392250788713700,1.187713623046875,-13.469600845384598,-2.315400802902877,10.604019690597056
1761392250798796300,1.19779638671875,-14.557187992298601,-1.1863611171379684,9.831354233145714
1761392250808878000,1.207878173828125,-14.931796380960941,-0.13741788139492273,8.73113673723936
1761392250818960100,1.217960205078125,-14.609372937566041,0.20037001213133335,7.533257908526062
1761392250829042200,1.228042236328125,-13.826053984153269,0.3143620097532868,6.272908302852511
1761392250839124200,1.238124267578125,-13.14366676352024,0.3280643718913197,5.278651181542873
1761392250849207000,1.24820703125,-12.239864989161491,0.5742056628555059,4.467000452136993
1761392250859289000,1.2582890625,-11.105554669517279,0.9787325121805072,3.7652497748643157
1761392250869371100,1.26837109375,-9.647506316748261,1.491344473171234,3.2114293129116294
1761392250879453200,1.278453125,-8.489131230905652,2.1101430187299846,3.098834030345082
1761392250889535200,1.28853515625,-7.656356464928388,2.7843638840422034,3.1396745747774837
1761392250899617300,1.2986171875,-7.130092702943086,3.3464255201175805,3.2604671923249957
1761392250909700000,1.3087001953125,-6.754986301630735,3.822413677588105,3.327545170819759
1761392250919782100,1.3187822265625,-6.287866802531481,4.331434043827652,3.2718110086381436
1761392250929864200,1.3288642578125,-5.439590516039729,4.583485143357515,3.2807547780722377
1761392250939946200,1.3389462890625,-4.421543353819847,4.539025239384174,3.52226928601861
1761392250950028300,1.3490283203125,-3.365439140406251,4.3444463778749105,3.6103818692356344
1761392250960110000,1.359110107421875,-2.3266537260621787,4.186347819761932,3.5899206804871557
1761392250970193200,1.369193115234375,-1.9852900198757648,4.087036089399457,3.7102573709607123
1761392250980275200,1.379275146484375,-2.329745262336731,4.1744492921754714,3.860571851068735
1761392250990357200,1.389357177734375,-2.9555425807416436,4.244313978779315,3.8032863677918907
1761392251000439000,1.39943896484375,-3.639961307202279,4.218861849875748,3.7262978206574915
1761392251010521000,1.40952099609375,-4.06606753565073,4.183971153758466,3.7317303671002384
1761392251020603100,1.41960302734375,-4.250318772152066,3.9943253647372123,3.537884203779697
1761392251030686200,1.429686279296875,-4.339937083756923,3.554095333868265,3.1660259906083343
1761392251040768300,1.439768310546875,-4.609814931878447,3.2827786851152774,2.589064891564846
1761392251050850000,1.44985009765625,-4.769392622633278,3.281227948541939,1.70681619284451
1761392251060932000,1.45993212890625,-4.86266624187529,3.4036218638062476,0.7974901021063328
1761392251071014100,1.47001416015625,-4.754724045811593,3.8306951837211844,-0.023968904608488082
1761392251081097200,1.48009716796875,-4.2568920130625365,4.223150486980378,-0.762155169352889
1761392251091179000,1.490178955078125,-3.3562563015192746,4.547667687784135,-1.4665964008837937
1761392251101261000,1.500260986328125,-2.329913458510488,4.6145670948415995,-1.4220681078493593
1761392251111343000,1.510343017578125,-1.895522947449982,3.9906083900406952,-0.7654080336689949
1761392251121425200,1.520425048828125,-2.1838988675534723,3.3308149862706657,-0.20196458784639834
1761392251131507200,1.530507080078125,-2.9286329465061423,2.7951240552484986,0.06641220806241036
1761392251141590000,1.540590087890625,-4.058408837591111,2.136105142982304,-0.0672118340075016
1761392251151672000,1.550672119140625,-5.072082314771413,1.812062281692028,-0.21088030022978782
1761392251161754000,1.560754150390625,-5.393368278568983,1.5303537105232476,-0.2444435471355915
1761392251171836200,1.570836181640625,-4.914940618991851,1.0348571349844335,-0.12950959248840807
1761392251181918200,1.580918212890625,-4.010579164923727,0.38428514854609963,0.21787118203043937
1761392251192000300,1.591000244140625,-2.998846300417185,-0.4604389984220266,0.600925327476859
1761392251202083000,1.6010830078125,-2.2336484023675323,-1.3299331372484564,0.8980793050587177
1761392251212165000,1.6111650390625,-2.0122417396873233,-2.0845929824098945,1.2576532061964272
1761392251222247200,1.6212470703125,-2.2718208966344595,-2.750859966108203,1.6190145752727985
1761392251232329200,1.6313291015625,-2.8267195092126727,-3.1998566562786697,1.693901181691885
1761392251242411300,1.641411376953125,-3.5077541461929678,-3.6784605492055413,1.616178475064039
1761392251252494000,1.651494140625,-4.1082375751212235,-4.090808885936439,1.4931366172850131
1761392251262576000,1.661576171875,-4.205546148967743,-4.312868459567428,1.5608797816902398
1761392251272658200,1.671658203125,-4.44354417322576,-4.452802999958395,1.8249071502178906
1761392251282740200,1.681740234375,-4.560447674380242,-4.462567730386555,2.5757249329984186
1761392251292822000,1.691822021484375,-4.771046235059202,-4.551296691936254,3.7648049537062644
1761392251302904000,1.701904052734375,-4.879299689029157,-4.729972758653759,4.911298463097214
1761392251312987100,1.711987060546875,-5.0637692444562905,-5.025787012064456,5.616071703061461
1761392251323069200,1.722069091796875,-5.569457835924625,-5.2138294575423,6.03739741923511
1761392251333151000,1.73215087890625,-6.6285004408776755,-5.122858562284708,6.346366337773204
1761392251343233000,1.74223291015625,-8.029071002668141,-4.45676722741425,6.4007753888309
1761392251353315000,1.752315185546875,-8.863648434153198,-2.902777789759636,5.920881163832545
1761392251363398400,1.7623984375,-8.70903596459031,-1.382647951608896,5.388087123295665
1761392251373480200,1.772480224609375,-7.815766690161824,-0.9073416389226913,5.100445654946565
1761392251383562000,1.78256201171875,-6.7853253257930275,-1.044144311028719,4.891514150696993
1761392251393644000,1.79264404296875,-6.013759354016185,-1.6786866614252327,4.704208202800155
1761392251403726000,1.80272607421875,-7.060570253905653,-1.981324623376131,4.5141602627187964
1761392251413808000,1.81280810546875,-9.664248777234553,-1.5930904449433088,3.9993472845524547
1761392251423891200,1.82289111328125,-12.451791583573817,-0.6781295631885528,3.1045383794665335
1761392251433973200,1.83297314453125,-14.329281738466024,0.061787470871210094,1.8410042985379695
1761392251444055300,1.84305517578125,-14.623179344600437,0.33491818330883977,0.3059212214052677
1761392251454137000,1.85313720703125,-13.727577243310213,0.27224925342798234,-0.7255962477624416
1761392251464219100,1.86321923828125,-12.202951262784003,0.3143891900211572,-1.1805524308592081
1761392251474302200,1.87330224609375,-10.728637419390678,0.6944342167794704,-1.096612164890766
1761392251484384300,1.88338427734375,-9.717263159063458,1.2609452334791422,-0.37872634537518024
1761392251494466300,1.89346630859375,-8.856130898129939,1.877674863809347,0.6822644710361957
1761392251504548400,1.90354833984375,-8.062350756457448,2.2916899647086857,1.7548633076548574
1761392251514630400,1.91363037109375,-7.926959704715013,2.7499036882966754,2.7057348762243985
1761392251524713200,1.923713134765625,-8.450821081733704,3.329764600434899,3.135875182494521
1761392251534795300,1.933795166015625,-8.707179523068666,4.187160012927651,2.9778496896177526
1761392251544877300,1.943877197265625,-8.525785429564118,4.8191620311915875,2.624724233967066
1761392251554959400,1.95395947265625,-7.920102678427099,4.961950791969895,2.007061122179031
1761392251565041400,1.96404150390625,-7.167724222201109,4.870584759914875,1.2376058589458465
1761392251575124200,1.974124267578125,-6.560647970879078,4.7280905981689685,0.8278267881810665
1761392251585206300,1.984206298828125,-6.218758779513836,4.591850820642709,0.7255436407923698
1761392251595288300,1.994288330078125,-6.155359781792759,4.710545589128136,0.8316431315988302
1761392251605370400,2.004370361328125,-6.230322960579395,4.973737675875425,0.8579308345437049
1761392251615452400,2.014452392578125,-6.143358378353715,5.668599178156256,0.5185831443548202
1761392251625534200,2.0245341796875,-5.53955252700448,6.377577468594908,0.040108138504624365
1761392251635617300,2.0346171875,-3.994303445166349,6.532196952420473,-0.18889058673977852
1761392251645699300,2.04469921875,-2.160230991718173,5.443190586358308,0.5151923328727483
1761392251655781400,2.054781494140625,-1.302113694691658,3.718126204639673,1.8356255281090734
1761392251665863200,2.06486328125,-2.0759750839293,2.247602985700965,2.6686411171048876
1761392251675945200,2.0749453125,-4.120197185245156,1.7373142069607972,3.0367256569564343
1761392251686028300,2.0850283203125,-6.3789996103525155,1.9342004686295986,2.8418863909453154
1761392251696110300,2.0951103515625,-7.436740485057235,2.2487170844227076,2.3412872315704822
1761392251706192100,2.105192138671875,-7.1713044187754384,2.317520571535826,1.8760200823396442
1761392251716274200,2.115274169921875,-6.136016783419251,1.776278436127305,1.5513888997673988
1761392251726356200,2.125356201171875,-4.993519650188088,1.1312877569526434,1.3884621908456087
1761392251736439300,2.135439208984375,-4.221936142754554,0.40314650088250636,1.4682383228719234
1761392251746521300,2.145521240234375,-4.236812517108023,-0.2754436655551195,1.743614768409729
1761392251756603100,2.15560302734375,-4.714823997099697,-0.4786877718180418,2.0963181992560624
1761392251766685200,2.165685302734375,-5.42179533163011,-0.3236152835279703,2.467050623267889
1761392251776767200,2.175767333984375,-5.924249763482809,-0.12791443225145338,2.830595766124129
1761392251786850300,2.185850341796875,-6.092574532055854,0.1050870988935232,3.222012081724405
1761392251796928300,2.19592822265625,-6.071897654730082,0.43178865799903865,3.5171202326923607
1761392251807010000,2.206010009765625,-5.586906983375549,0.6655804627388715,3.7602614650577304
1761392251817092000,2.216092041015625,-5.19208348968029,0.5252928711265326,4.507139570301771
1761392251827174100,2.226174072265625,-5.3378638334900135,0.17828852870464323,5.690602920171618
1761392251837257200,2.23625732421875,-5.711978885677457,-0.06116086340546607,6.459295966860652
1761392251847339300,2.24633935546875,-6.334872883856296,-0.09912322205305099,6.8437143863975995
1761392251857421000,2.256421142578125,-6.756383308947086,0.03494154952168464,6.953024655944109
1761392251867503000,2.266503173828125,-6.8817655923724175,0.3105827834755182,6.644919660758972
1761392251877585200,2.276585205078125,-7.3431836649596685,0.5370797550320625,6.226381529477238
1761392251887668200,2.286668212890625,-7.768062105178832,0.6947042658925056,5.803681017819047
1761392251897750000,2.29675,-8.109055224487186,0.9713035312235355,5.425317660537361
1761392251907832000,2.30683203125,-8.333408169752358,1.3685925382494926,5.074123465210199
1761392251917914000,2.3169140625,-8.448535601145029,2.360546643313765,4.572184581664204
1761392251927997400,2.32699755859375,-8.285967204141617,3.6436557778060434,3.848936358332634
1761392251938079200,2.337079345703125,-7.822827130067348,4.109009436276555,3.6795419147014616
1761392251948161300,2.347161376953125,-7.809883477342129,3.73534563498795,3.837143044686317
1761392251958243000,2.3572431640625,-8.271098720833658,3.3113135824650524,3.710584118697047
1761392251968325000,2.3673251953125,-9.265835734614729,3.2569086230605837,3.2975235420435665
1761392251978408400,2.377408447265625,-10.271687432128191,3.777379188597202,2.6478280461788177
1761392251988490200,2.387490234375,-10.602511624121666,4.645892791953683,1.9362924724727868
1761392251998572300,2.397572265625,-10.179302578419446,4.984982707989215,1.6085861202389
1761392252008654300,2.407654296875,-9.669279172617196,4.675889870810509,1.2831173177987336
1761392252018736400,2.417736328125,-9.372470647472143,4.428748170632124,0.8776520185798407
1761392252028819200,2.427819091796875,-8.994667262160778,4.433648217633366,0.1345879186660051
1761392252038901200,2.4379013671875,-8.103406989467144,4.540612800836563,-0.584714781910181
1761392252048983300,2.4479833984375,-6.807707253471016,4.503139687010646,-0.9028583560287952
1761392252059065300,2.4580654296875,-5.660475492933392,4.211031886902451,-0.9819862532794476
1761392252069147400,2.4681474609375,-5.086418883159756,3.9354005898207425,-1.0472685805290938
1761392252079230200,2.478230224609375,-5.1575785780102015,3.85071505844295,-1.1802379580825566
1761392252089312300,2.488312255859375,-5.4723056216835975,3.719987322336435,-1.4799720152854918
1761392252099394300,2.498394287109375,-5.567886641085147,3.7789246644735335,-1.8655162239819765
1761392252109476400,2.508476318359375,-5.342189879995584,3.858960324218869,-2.3513521139889955
1761392252119558400,2.518558349609375,-4.802902385786175,3.997010366037488,-3.0099364342302084
1761392252129641200,2.52864111328125,-4.150090219205618,4.1188101148009295,-3.6673376821666954
1761392252139723300,2.53872314453125,-3.4249276866853235,4.081063444730639,-4.192212620142102
1761392252149805300,2.548805419921875,-2.6602976516515016,4.037998209986091,-4.487474500367045
1761392252159887400,2.558887451171875,-2.0492524966984984,3.828864461162686,-4.578021617254614
1761392252169970200,2.56897021484375,-1.7996183951824902,3.4244127229005095,-4.446232973918319
1761392252180052200,2.57905224609375,-1.6509493441939354,3.1082500934660433,-4.422545224338769
1761392252190134300,2.58913427734375,-1.311305885928869,3.0550381432384253,-4.848281742691993
1761392252200216300,2.59921630859375,-0.8036272896870971,3.111577192062139,-5.47506105787158
1761392252210298400,2.60929833984375,-0.37422640360742804,2.884990788656473,-5.884572417610883
1761392252220381200,2.619381103515625,-0.598251139831543,2.433847441846132,-6.374394162383675
1761392252230463200,2.629463134765625,-0.867285522866249,2.3993290861725804,-7.167488659879565
1761392252240545300,2.639545166015625,-0.7154232287943363,2.3874521858960387,-8.171527755013107
1761392252250627300,2.64962744140625,0.16399170780479908,2.329412669381499,-8.807743007057905
1761392252260710100,2.659710205078125,1.3217477849662302,1.9529571915477513,-8.50578835119605
1761392252270792200,2.669792236328125,1.7028338452100753,1.1995827100217342,-7.575973014658689
1761392252280874200,2.679874267578125,1.3332061675697564,1.192225917518139,-6.892458835822343
1761392252290956300,2.689956298828125,0.8798293626189231,1.044511390775442,-6.613004765582084
1761392252301038300,2.700038330078125,0.6427806019097566,0.23717384839355946,-6.646573857706785
1761392252311121200,2.71012109375,0.8071078252792357,-0.6306318989545107,-6.882106953155994
1761392252321203200,2.720203125,1.1469389150708913,-1.3191016543716192,-7.1896607441991565
1761392252331285200,2.73028515625,1.2740624892055987,-1.6455086144447326,-7.6141633368432515
1761392252341367300,2.7403671875,0.9109007927089929,-1.687090332633257,-7.5911080399483435
1761392252351449300,2.750449462890625,0.07965338242948054,-1.394791393867135,-7.7861764385402195
1761392252361532200,2.7605322265625,-0.21065467478036878,-0.8726227922409773,-8.037444278737903
1761392252371614200,2.7706142578125,0.08595335935652255,-0.6401607748001813,-7.9563810295104975
1761392252381696300,2.7806962890625,0.7148585806488991,-0.015647650986909865,-7.756034982776641
1761392252391778300,2.7907783203125,1.5094751731455325,0.44707098280489443,-7.364450909394026
1761392252401861000,2.800861083984375,1.440308697938919,0.22490005775392055,-6.6683332695722575
1761392252411943200,2.810943115234375,0.5583540137290954,-0.23830665181577204,-6.449722082829475
1761392252422025200,2.821025146484375,-0.39499826574027536,0.11703355727493762,-6.774026517665386
1761392252432107300,2.831107177734375,-0.7208592823684216,0.8490572077363729,-7.4243568043023345
1761392252442189300,2.841189208984375,-0.32520927472114564,1.5549901391297578,-7.999671889704465
1761392252452272000,2.851272216796875,0.7330407185494899,1.6370307089567184,-7.80038733472228
1761392252462354200,2.861354248046875,1.9011510164648293,1.1904273436635733,-7.0551628419041625
1761392252472436200,2.871436279296875,2.885899135673046,0.866990923833847,-6.321797129184008
1761392252482518300,2.881518310546875,3.2339760757625102,0.5510369687139988,-5.389473024696112
1761392252492601000,2.89160107421875,2.8172400254666803,0.19833529143333434,-4.962824652194977
1761392252502683100,2.90168310546875,2.0088374842017886,0.22739187456965446,-4.9014673894345755
1761392252512765200,2.91176513671875,0.9897989728569984,0.2864659948289394,-4.812372517181933
1761392252522847200,2.92184716796875,0.13757716360986233,0.2201391269624233,-4.49037431346178
1761392252532929300,2.93192919921875,-0.03761339907944202,0.1188683714866638,-4.182696311517059
1761392252543012000,2.94201220703125,0.1510930632650852,0.0981207670122385,-4.151050296409428
1761392252553094100,2.95209423828125,-0.5291752655178308,0.09312252033352851,-4.210900077216327
1761392252563176200,2.96217626953125,-1.3720453090518712,0.5725321766853332,-4.34388757494837
1761392252573258200,2.97225830078125,-2.208846261805296,1.1669184577822684,-4.352471571159363
1761392252583341300,2.98234130859375,-3.1037709022253748,1.523876038941741,-4.302459878277778
1761392252593423000,2.992423095703125,-3.5119992364168167,1.8820307209312914,-4.418066617619991
1761392252603505200,3.002505126953125,-3.915477161210775,2.1116654059916735,-4.343517864853143
1761392252613587200,3.012587158203125,-4.111780654555559,2.130124607267976,-4.175345364232361
1761392252623669200,3.022669189453125,-4.401012022444606,1.9620470914542674,-3.854678116855025
1761392252633752300,3.03275244140625,-5.229781059911847,1.749235530900955,-3.6961911439463493
1761392252643834400,3.04283447265625,-5.682155994343757,1.7799603395104406,-3.9857682565331456
1761392252653916400,3.05291650390625,-5.871576157915592,1.8294541459977627,-4.437959066569805
1761392252663998200,3.062998291015625,-5.742015127500891,1.7857669799625873,-4.841842649555206
1761392252674081300,3.073081298828125,-5.0938767979502675,1.7036200271517037,-5.055111890748143
1761392252684163300,3.083163330078125,-4.696370348781347,1.5019383478999138,-5.188821857535839
1761392252694245400,3.093245361328125,-4.2289778779596086,1.299998602233827,-5.603432586240768
1761392252704327400,3.103327392578125,-4.183876168951392,1.5212503666132688,-6.330064022269845
1761392252714409500,3.113409423828125,-4.835479544264078,1.9031871984675526,-6.805429371666908
1761392252724492300,3.1234921875,-5.8159138919264075,2.412101766245067,-6.966493793848157
1761392252734574300,3.13357421875,-6.452915910434722,2.823270245541632,-6.896876067742705
1761392252744656400,3.143656494140625,-6.505402468997239,3.1206185766518115,-6.536628212866186
1761392252754738400,3.153738525390625,-6.311677301707864,3.4392975728213786,-6.089135789778828
1761392252764821200,3.1638212890625,-5.931566808497905,3.6283991719633337,-5.592023887997866
1761392252774903300,3.1739033203125,-5.460038845306634,3.787946175318956,-5.100001418310404
1761392252784985300,3.1839853515625,-5.188654684275388,4.186822159275413,-4.605945981490612
1761392252795067400,3.1940673828125,-5.2819718503981825,4.534705330358445,-4.090503473249077
1761392252805150200,3.204150146484375,-5.56620380256474,5.236113185542822,-3.7009471063017845
1761392252815232300,3.214232177734375,-5.924097203269601,5.86341097163856,-3.1242332600176335
1761392252825314300,3.224314208984375,-7.037904248589276,6.3737020884662865,-2.183295056441426
1761392252835396400,3.234396240234375,-8.364173894894122,7.800148849791288,-1.777192043840885
1761392252845478400,3.244478515625,-8.662852890086173,8.865877216118573,-2.0717951678961515
1761392252855561200,3.254561279296875,-9.014919776594638,9.241040900576115,-2.593333654925227
1761392252865643300,3.264643310546875,-8.874730384659767,9.152171946033835,-2.6943431291162967
1761392252875725300,3.274725341796875,-8.481637660279869,8.436044368362426,-2.434540100285411
1761392252885807400,3.284807373046875,-8.295688972210884,7.471014510580897,-2.259966208189726
1761392252895890200,3.29489013671875,-8.475399642673134,6.82273238864541,-2.131516938409209
1761392252905972200,3.30497216796875,-8.790335945183038,6.334463718533516,-1.6539800901919601
1761392252916054300,3.31505419921875,-8.799464423534273,5.313542462182045,-0.6834323457717895
1761392252926136300,3.32513623046875,-8.798439756661653,3.724832716540992,0.38883740502297875
1761392252936218400,3.33521826171875,-8.365433539566396,2.5887021957322953,0.7044979301542044
1761392252946301200,3.34530126953125,-7.374457924145459,2.055902894498408,0.2776835534363985
1761392252956383200,3.35538330078125,-6.056040160384774,1.9051777877628802,-0.3680447923630476
1761392252966465300,3.36546533203125,-4.683483394679427,2.106770619687438,-1.0929048348054289
1761392252976547300,3.37554736328125,-3.63614642508924,2.4113825120598076,-1.730145630505681
1761392252986630400,3.38563037109375,-2.852513583421707,2.798042280782759,-2.2117077887162564
1761392252996712400,3.39571240234375,-2.414350714215636,3.3553350950211285,-2.6399150810971856
1761392253006794200,3.405794189453125,-2.236622742003202,3.9915021240100264,-2.8511066392332314
1761392253016876300,3.415876220703125,-2.0397931789577006,4.546868354099988,-2.714536606839299
1761392253026959400,3.42595947265625,-1.7980699966967104,4.87389490737617,-2.2456042130991816
1761392253037041400,3.43604150390625,-1.6753221534281968,5.032866741192341,-1.1992246903643011
1761392253047123500,3.44612353515625,-2.304678041097522,4.629960771067441,0.6023758185461163
1761392253057205500,3.45620556640625,-2.820228685888648,4.329773124878108,1.907055856594443
1761392253067287600,3.46628759765625,-2.877676081728935,4.612553124670684,2.3568483733177183
1761392253077370400,3.476370361328125,-2.7939292925059793,4.5520700143963095,2.603826407366991
1761392253087452400,3.486452392578125,-2.8375778800964353,4.8136429755091665,2.394960661830008
1761392253097534500,3.496534423828125,-2.653731717264652,5.405829700735211,1.927849053776264
1761392253107616500,3.506616455078125,-2.1477567100703716,6.034349137580395,1.3686857694908976
1761392253117699300,3.51669921875,-1.0979220784455537,6.3625482417672865,0.7658280126467347
1761392253127781400,3.526781494140625,0.10439677854180335,6.516617690494656,0.4896674309939146
1761392253137863400,3.536863525390625,1.260335577148199,6.652860390630364,0.6209823193386197
1761392253147945500,3.546945556640625,2.0020365720152853,6.679826138967275,0.9796347217172384
1761392253158028300,3.5570283203125,2.221067445474863,6.424779364752769,1.385570853318274
1761392253168110300,3.5671103515625,1.7923755844473839,6.100625152042507,1.7681231867223977
1761392253178192400,3.5771923828125,0.761830759704113,5.798164300224185,1.8864821473821995
1761392253188274400,3.5872744140625,-0.2506780576109886,5.64005755880475,1.8104723821520805
1761392253198356500,3.5973564453125,-1.2238438755750656,5.55055732062161,1.6985197814032433
1761392253208439300,3.607439208984375,-1.867566726770997,5.547399148851633,1.6113196368560194
1761392253218521300,3.617521240234375,-1.8363602721244097,5.462903002566099,1.5683960025392472
1761392253228603400,3.627603271484375,-1.519593831577897,5.3681572649449105,1.4730914619915187
1761392253238685400,3.637685546875,-1.3864847532927989,5.41918368782699,1.208109715348482
1761392253248768300,3.647768310546875,-1.2622060471951961,5.609182528069615,0.6534986875399946
1761392253258850300,3.657850341796875,-1.0973533386468888,5.868671084123849,-0.08194850762933492
1761392253268932400,3.667932373046875,-1.0393617529273032,6.211633457678556,-0.9737116152785718
1761392253279014400,3.678014404296875,-0.9820745160847901,6.431182802054286,-1.822790450324863
1761392253289097200,3.68809716796875,-0.8173737832278013,6.731818192011118,-2.539147598968446
1761392253299179300,3.69817919921875,-0.6911123788803816,6.958200597277283,-2.844633643826842
1761392253309261300,3.70826123046875,-0.7218091304391622,7.028116429546475,-2.686669525748491
1761392253319343400,3.71834326171875,-0.46418753730058665,7.054371983787417,-2.258094422968477
1761392253329426200,3.72842626953125,-0.20017887347340582,6.693923637902737,-1.532320626682043
1761392253339508200,3.73850830078125,-0.307006094032526,6.173527891167998,-0.8091127353608608
1761392253349590300,3.74859033203125,-0.6159580614358187,5.762296868029236,-0.48180868031755086
1761392253359672300,3.75867236328125,-1.050154949620366,5.509893886321783,-0.6213086286835372
1761392253369754400,3.76875439453125,-1.5575509295284746,5.250113653844594,-0.956122474835068
1761392253379837200,3.778837158203125,-2.1152683989197016,5.1168736426562065,-1.4227940840363502
1761392253389919200,3.788919189453125,-2.8246692986845967,4.990020702156424,-1.7868246723219752
1761392253400001300,3.799001220703125,-3.3311908338457346,4.578652316373587,-1.7314118510492145
1761392253410083300,3.809083251953125,-3.429208140483498,4.2319589395970105,-1.324223235169053
1761392253420166100,3.819166259765625,-3.446011391246319,3.5938586044579743,-0.49925753550752994
1761392253430248200,3.829248291015625,-3.908983123016357,2.770928356146812,0.6567082972362637
1761392253440330200,3.839330322265625,-4.563299848940968,1.9963307615891097,1.5295790728889405
1761392253450412300,3.849412353515625,-5.592992440769076,0.9952610376551747,2.3755919444933533
1761392253460495400,3.859495361328125,-5.868158458426595,-0.10052052163034676,3.0604832569018003
1761392253470577200,3.8695771484375,-5.224387091913819,-0.9512243275299668,3.293084390552342
1761392253480659200,3.8796591796875,-4.383452400356531,-1.8799544991791248,3.3657617964893576
1761392253490741200,3.8897412109375,-3.610709786015749,-2.851542108041048,3.420683765505254
1761392253500823300,3.8998232421875,-2.9268408023923635,-3.631905134257674,3.6357244002848863
1761392253510906000,3.909906005859375,-2.602565009129047,-4.317410194650292,4.104789772754907
1761392253520988200,3.91998828125,-2.243189845433831,-5.005699917325377,4.816746202221513
1761392253531070200,3.9300703125,-2.0698481254816055,-5.822692007759213,5.510297206425666
1761392253541152300,3.94015234375,-2.0761831737220287,-7.009133496657014,6.510420004898309
1761392253551235300,3.9502353515625,-2.1377099478304387,-8.061202755466104,7.750503067612647
1761392253561317400,3.9603173828125,-2.4188053555369375,-8.652429111227393,8.635936826109885
1761392253571399200,3.970399169921875,-3.2877100040376184,-8.8953868037194,9.230822288900614
1761392253581481200,3.980481201171875,-4.898647655838728,-8.82052650078535,9.751445414650439
1761392253591564500,3.990564453125,-6.740306034371256,-8.932629031398893,10.238680650061369
1761392253601646300,4.000646240234375,-8.582968621510267,-8.369989887696503,10.640862105304002
1761392253611728400,4.010728271484375,-9.54672071444094,-7.526601957768201,11.065325534981488
1761392253621810400,4.020810546875,-9.613403556138277,-7.171539396575093,11.525032127475738
1761392253631893500,4.0308935546875,-9.10115312193632,-7.104440375292301,11.680545345270634
1761392253641975300,4.040975341796875,-8.294629818546772,-7.407084766983986,11.531125183653831
1761392253652057300,4.051057373046875,-7.546736983302235,-7.418615045779943,10.929147132253647
1761392253662139400,4.061139404296875,-7.841699003797769,-6.686178138342499,9.956747037965059
1761392253672221400,4.071221435546875,-8.492482294899224,-4.264413932999968,8.329158695614337
1761392253682304300,4.08130419921875,-8.44573457224965,-1.8313965122371911,7.23404173771739
1761392253692386300,4.09138623046875,-8.201870870828628,-1.034365844336152,6.6140522288084025
1761392253702468400,4.10146826171875,-7.228043374085426,-1.9582307480365038,6.293682795333862
1761392253712550400,4.11155029296875,-6.570673690330982,-2.980287145897746,5.719284824776649
1761392253722633500,4.121633544921875,-6.841019740486145,-3.1009640281111,4.696898756569624
1761392253732715300,4.13171533203125,-7.594804556378722,-2.388893032354116,3.4573639753878114
1761392253742797300,4.14179736328125,-8.33700765554905,-1.582780063331127,2.5351725578576323
1761392253752879400,4.15187939453125,-8.564029527762532,-0.6889858882457017,1.4928659836500882
1761392253762962400,4.16196240234375,-8.079105491903423,-0.42466976590454575,0.8263713286757469
1761392253773044200,4.172044189453125,-7.180207271677255,-0.7696978398174047,0.7218892099380493
1761392253783126300,4.182126220703125,-5.968001811447739,-0.7936117993682622,0.8320049506485462
1761392253793208300,4.192208251953125,-4.925698159849643,-0.6881734028190374,1.0186538959413767
1761392253803293700,4.202293701171875,-3.945127618587017,-0.6949743150055409,0.866964620348811
1761392253813376800,4.212376708984375,-2.828574489429593,-0.7762865705579519,0.7673077298104762
1761392253823458600,4.22245849609375,-2.269282171937078,-0.7611509607464074,0.6017313831627369
1761392253833540600,4.23254052734375,-2.1090929251551627,-0.4564055051222443,0.2824456532716751
1761392253843622700,4.24262255859375,-2.3430735304653645,0.10244126055985689,0.18512860385775565
1761392253853705700,4.252705810546875,-2.5986165637642142,0.5664300604179501,0.4421358644902706
1761392253863787800,4.262787841796875,-2.886076830327511,0.8904752597957849,1.0327174926072358
1761392253873869600,4.27286962890625,-3.109665805482864,1.1197764751181005,1.7926058860719203
1761392253883951600,4.28295166015625,-3.3286043244838712,1.245292321795225,2.526324650013447
1761392253894034700,4.29303466796875,-3.6999715392678976,1.5988272350296377,2.8778075991541145
1761392253904116700,4.30311669921875,-3.846438696298003,1.936885177668929,2.9919033494114875
1761392253914198500,4.313198486328125,-4.079872189119458,2.131997999924421,3.0200054083019494
1761392253924280600,4.323280517578125,-4.086314204865694,2.2459753844991326,3.2676059581637382
1761392253934363600,4.33336376953125,-3.583371697235107,2.5394343069553376,3.0416578526616096
1761392253944445700,4.34344580078125,-2.4940555345714093,2.6113617713078856,2.19764857596457
1761392253954527700,4.35352783203125,-1.4954581921003758,1.6389254366621373,1.4658645794779062
1761392253964609500,4.363609619140625,-1.873227675142139,0.5198883817344904,1.1334534105539322
1761392253974692900,4.37369287109375,-3.6399046085789797,-0.7820099166408181,1.05415717099905
1761392253984774700,4.383774658203125,-6.342719505703449,-0.9490613042771816,0.4715969367742538
1761392253994856700,4.393856689453125,-7.824691754895448,-0.36408845595270395,-0.42449557838141916
1761392254004938500,4.4039384765625,-7.995327723020314,-0.5753752911567688,-0.500569348758459
1761392254015020500,4.4140205078125,-7.656672106748819,-1.0426230928108096,-0.008943184912204742
1761392254025104000,4.424103759765625,-7.057028635776042,-1.5029799659073353,0.8109645007073879
1761392254035186000,4.43418603515625,-6.6740113152086735,-2.325357256510854,1.5234475843966007
1761392254045267700,4.444267822265625,-6.034055707591771,-3.277509220279753,1.5642968966573476
1761392254055349500,4.454349609375,-5.573572870028019,-4.001051750382781,1.0328840813457965
1761392254065432800,4.464432861328125,-4.846399874468148,-4.664257300683856,-0.06755436383485794
1761392254075515000,4.474514892578125,-4.469801773293316,-4.832584115083515,-1.0855980189234018
1761392254085596700,4.4845966796875,-4.424652718012035,-5.100815072780847,-1.483752118346095
1761392254095678700,4.4946787109375,-4.874077278205752,-5.303226235350966,-1.595969799771905
1761392254105761800,4.50476171875,-5.49887681774497,-5.338828879129887,-1.2252701089859008
1761392254115843800,4.51484375,-5.779981577801704,-5.5974540963530535,-0.4816320085763931
1761392254125926000,4.52492578125,-5.623081874084472,-5.850687683665752,0.23187515746355056
1761392254136007700,4.535007568359375,-5.10592028696537,-6.119437989062071,0.7904284931570291
1761392254146089700,4.54508984375,-4.501666984109581,-6.420380253010988,1.1709697789996862
1761392254156172800,4.5551728515625,-4.36503674596101,-6.5502013956665985,1.2374100441128015
1761392254166254800,4.5652548828125,-4.231104660855234,-6.389750136947631,1.152332883068919
1761392254176336600,4.575336669921875,-4.359811704789101,-5.763397522747517,1.1741565923422574
1761392254186418700,4.585418701171875,-4.9555777498066425,-5.195678883823752,1.4082353973299264
1761392254196501800,4.595501708984375,-5.844452004146576,-4.60160356837213,1.7355249854564665
1761392254206583800,4.605583740234375,-6.859812119239568,-3.636119537082314,2.1975153049737215
1761392254216665900,4.615665771484375,-7.835507747942208,-2.403001052683592,2.8970640882879493
1761392254226747600,4.62574755859375,-8.725297363561392,-0.7293532622084021,3.348746948802471
1761392254236830700,4.635830810546875,-9.28819778854847,0.5271545733451843,3.8771430466413497
1761392254246912800,4.645912841796875,-9.440306750857829,1.4533406134694813,4.05918537492156
1761392254256994800,4.655994873046875,-9.425425992590188,1.9116189267262815,3.391298388805985
1761392254267076600,4.66607666015625,-9.20607947731018,1.1450837156582623,2.43032686650455
1761392254277159700,4.67615966796875,-9.313266763353347,0.30827728301212187,1.1006535492360592
1761392254287241700,4.68624169921875,-9.796748199188709,0.42835634546279905,-0.7465390825480223
1761392254297323800,4.69632373046875,-10.04620811318159,1.1395213322907685,-2.2891280052661895
1761392254307405800,4.70640576171875,-10.151464138901233,1.6303193747498095,-3.0013772801995278
1761392254317488600,4.716488525390625,-10.042857633709907,2.0382539866916836,-3.322525296831131
1761392254327570700,4.72657080078125,-9.86395769510865,2.2309202925778924,-3.300021788600087
1761392254337652700,4.73665283203125,-9.48243441249132,1.985097127652168,-2.6231261511206627
1761392254347734800,4.74673486328125,-8.766317940735817,1.7440680651351808,-1.9213748893260956
1761392254357816600,4.756816650390625,-8.10630387995243,1.6364834503374992,-1.6131079815775156
1761392254367899600,4.766899658203125,-7.659567828190326,2.342033373762667,-1.968801241889596
1761392254377981700,4.776981689453125,-6.800229464936256,2.84228737296164,-2.364219194346666
1761392254388063700,4.787063720703125,-5.673835909765958,3.09754136018604,-2.5515339100718495
1761392254398145800,4.797145751953125,-4.76161263628155,3.60956996833086,-2.3472990392059088
1761392254408228600,4.807228515625,-3.9276846086159347,3.6669095198825,-1.7717168273001909
1761392254418310700,4.817310546875,-3.463419037643075,3.339088016836345,-1.0049930348575116
1761392254428392700,4.827392822265625,-3.349486953514814,2.866773287181556,-0.2449842298835516
1761392254438474800,4.837474853515625,-3.876873874311149,2.744565249878168,0.02180558909475803
1761392254448557600,4.8475576171875,-4.756686870317161,2.8234654758527875,-0.22895137897133827
1761392254458639600,4.8576396484375,-5.161113181877136,3.2345240650340914,-0.9896265388995409
1761392254468721700,4.8677216796875,-4.491574921423196,3.7054400338068603,-1.9892630151599644
1761392254478803700,4.8778037109375,-2.692246156837046,4.362622670556605,-2.774776848268509
1761392254488885800,4.8878857421875,-0.24212270297259092,4.406093563492596,-2.937451628255844
1761392254498968600,4.897968505859375,2.05398288622126,3.969004753258824,-2.8445868820756672
1761392254509050600,4.908050537109375,2.891508207726478,3.0646123195305464,-2.3762498238801957
1761392254519132700,4.918132568359375,1.9659084430575369,2.591440973046422,-2.0753566597700117
1761392254529214700,4.928214599609375,0.08077873319759965,2.6867040125399826,-2.2567402318805456
1761392254539297800,4.9382978515625,-1.5908474883221089,3.051091451439261,-2.388704816305637
1761392254549379600,4.948379638671875,-2.7916706999242304,3.120274000997841,-2.2271499802589414
1761392254559461600,4.958461669921875,-3.0019314069509506,2.921722144204378,-2.1276871509879824
1761392254569543700,4.968543701171875,-2.37340670940876,2.4856290670096874,-1.9423896203041076
1761392254579626800,4.978626708984375,-1.5013549950540064,1.7521648623511195,-1.7006997557908297
1761392254589708800,4.988708740234375,-0.7798176672935485,1.0771640987075866,-1.413017955431342
1761392254599790800,4.998790771484375,-0.7074597025692463,0.419490682766214,-1.1626637229472399
1761392254609873000,5.008872802734375,-1.5127414814651012,0.10958894035741686,-1.0657008937984704
1761392254619955700,5.018955810546875,-2.8453812473237514,0.011784253557026385,-0.9811357739299535
1761392254630037800,5.029037841796875,-4.207540537655353,0.021124255767092107,-0.7125415358781814
1761392254640119800,5.039119873046875,-5.11263527443409,0.07713650423772632,-0.3506739708453417
1761392254650201900,5.049201904296875,-5.100601137769222,0.08194931134693324,0.15819266613721847
1761392254660284700,5.05928466796875,-4.596832116186619,0.011160130309313536,0.8898270250201225
1761392254670366700,5.06936669921875,-3.7894372906595466,-0.03204012899175286,1.6123264758110045
1761392254680448800,5.07944873046875,-2.9924159751087425,-0.18133206111900507,2.299436633312702
1761392254690530800,5.08953076171875,-2.576632695493102,-0.5762875836960971,2.7523329612702128
1761392254700612900,5.09961279296875,-2.6104472868114708,-0.920571561243385,2.233128470146656
1761392254710695700,5.10969580078125,-2.7247908743500706,-1.0971024326257408,1.1283271535813808
1761392254720777700,5.11977783203125,-2.780114117643237,-1.4465654202461242,-0.35433015526533124
1761392254730859800,5.12985986328125,-1.8272522520393133,-1.5664122813761234,-1.9748709171921013
1761392254740941800,5.13994189453125,-1.2314059813924132,-1.6118670416057108,-3.770102475592494
1761392254751024600,5.150024658203125,-1.0772381868571042,-1.6233594726093112,-5.4634477769672865
1761392254761106700,5.160106689453125,-0.6525444555550813,-1.1723027811691165,-6.446472141122817
1761392254771188700,5.170188720703125,-0.248872907885164,-0.5753495721936226,-7.05930885566771
1761392254781270800,5.180270751953125,-0.14779080684930085,-0.6576724660933018,-7.530235930356383
1761392254791353600,5.190353515625,-1.117235266202688,-1.2897072175830602,-7.8273092439174645
1761392254801432600,5.2004326171875,-3.0497391600474715,-1.1170502650246024,-8.777435547077655
1761392254811514600,5.2105146484375,-4.792885726423561,0.5966854979500175,-10.373273829424381
1761392254821596700,5.2205966796875,-5.94325023202896,2.7115739576414226,-11.815120988976954
1761392254831678700,5.2306787109375,-6.266999955591559,4.877374566185474,-12.794241915953158
1761392254841761500,5.240761474609375,-5.519253250819444,6.07626403324604,-13.284725924026965
1761392254851843600,5.250843505859375,-3.8653935721367594,6.150749657648801,-13.470856398403644
1761392254861925600,5.260925537109375,-1.9188667058974502,5.884508120203018,-12.8820815274477
1761392254872007700,5.271007568359375,0.04563070131838321,5.816950833758711,-12.188146492362021
1761392254882090800,5.2810908203125,1.6216344023823737,5.864153314438462,-11.906464224678277
1761392254892172800,5.2911728515625,2.44605781186074,6.116162328392267,-11.930638880991935
1761392254902254800,5.3012548828125,3.001126520308852,6.483864006406068,-11.58107141008377
1761392254912336600,5.311336669921875,3.316682416021824,6.890737418857216,-11.242114180517197
1761392254922419700,5.321419677734375,3.54791284584105,7.651981903105974,-11.236327413809299
1761392254932501800,5.331501708984375,3.6561323975414037,8.126981926321983,-10.849648648124933
1761392254942583800,5.341583740234375,3.678282270029187,8.046999458068608,-10.46158456556201
1761392254952665900,5.351665771484375,3.123500854089856,7.609738506138324,-10.617575922262668
1761392254962748700,5.361748779296875,2.198111517301202,6.566971328681707,-11.185246045869588
1761392254972830700,5.371830810546875,1.3226432725012303,5.038373521915078,-12.227808640664815
1761392254982912800,5.381912841796875,0.7770961333751678,3.4512440312027928,-13.500137437945604
1761392254992994800,5.391994873046875,0.7835176908552646,2.3660165991574527,-14.461394206929207
1761392255003076900,5.402076904296875,0.6000941373497247,2.0418466043561696,-15.900455535155533
1761392255013159700,5.41215966796875,0.15507891803085802,2.3865783256709574,-17.635883489978312
1761392255023241700,5.42224169921875,-0.568037787875533,2.863300934895873,-18.936456384968757
1761392255033323800,5.43232373046875,-1.9994062235116958,3.28336174570024,-19.835404289555548
1761392255043405800,5.44240576171875,-3.3179514130443333,3.6423803510427475,-19.78374190685749
1761392255053488600,5.452488525390625,-4.26896209782362,4.341270378187298,-19.15147159304619
1761392255063570700,5.46257080078125,-4.6063282588064665,6.2406023625314235,-18.314836059987545
1761392255073652700,5.47265283203125,-4.636875372761487,8.733775269049406,-17.325920884227752
1761392255083734800,5.48273486328125,-4.387283356821537,10.921896722733974,-15.830267315685749
1761392255093817600,5.492817626953125,-4.011767790186405,12.264798354887962,-13.180984979045391
1761392255103899600,5.502899658203125,-4.247354077127576,11.584456960868835,-10.78627946102023
1761392255113981700,5.512981689453125,-4.389184222006797,10.743858369398117,-9.070781364548205
1761392255124063700,5.523063720703125,-4.915775316250324,10.369585496300457,-7.144225273191928
1761392255134146800,5.533146728515625,-5.2454526762962335,10.229474430298804,-4.817511341375112
1761392255144228600,5.543228515625,-4.91082090871334,9.914064080536365,-2.524792618140578
1761392255154310700,5.553310546875,-4.892162969994545,9.307494609692693,-0.47820028056204317
1761392255164392700,5.563392822265625,-5.50698881253004,8.923400015282631,0.7718325137585401
1761392255174474800,5.573474853515625,-5.903219834935665,8.896855707228184,1.410981481167674
1761392255184557600,5.5835576171875,-5.851562712934613,8.840024981981516,1.9360171626627445
1761392255194639600,5.5936396484375,-5.67051348734498,8.699696473836898,1.9121108018964528
1761392255204721700,5.6037216796875,-5.175946009349823,7.784431056177616,1.874911244314909
1761392255214803700,5.6138037109375,-4.47731901705563,6.780526401078701,1.8138064950108528
1761392255224886500,5.623886474609375,-4.096352783799171,6.2200494038462635,1.7955676584869622
1761392255234968600,5.633968505859375,-4.3839767164915795,5.741320130974054,2.058871973437071
1761392255245050600,5.644050537109375,-5.199683443289995,5.636773714828491,2.2815303897440433
1761392255255132700,5.654132568359375,-6.077766839024425,5.563936442154645,2.6467253456339237
1761392255265215700,5.6642158203125,-6.342143167120218,5.809463692873716,2.586125330981612
1761392255275297500,5.674297607421875,-6.031172845631837,6.311610666212439,2.2658502977922557
1761392255285379600,5.684379638671875,-4.824536125445365,6.333535497772694,2.1810139597669242
1761392255295461600,5.694461669921875,-3.3133611626446244,6.279909121525288,1.8136571496680378
1761392255305543700,5.704543701171875,-2.582252288940549,5.995028350061178,1.3369558754920958
1761392255315626500,5.71462646484375,-3.202376822406053,5.484732557058334,1.6461188552975654
1761392255325708500,5.72470849609375,-3.8588136092245575,4.636996368792653,2.8962960265249014
1761392255335790600,5.73479052734375,-3.980305314952135,4.013322910673916,3.7342297827005386
1761392255345872600,5.74487255859375,-4.067337117195129,3.508073879666626,4.340503193207085
1761392255355955700,5.754955810546875,-3.9092438197791575,2.9071693027168513,4.980858321535587
1761392255366037500,5.76503759765625,-3.4780998894244433,3.0676953802376983,4.829667935375869
1761392255376119600,5.77511962890625,-2.805369554930925,3.8344308631181714,3.8764714309900996
1761392255386201600,5.78520166015625,-1.8617694386690853,4.649709719893336,2.6438588502869007
1761392255396285000,5.795284912109375,-0.7437076585143804,4.926202602240443,1.6477970176428556
1761392255406366500,5.805366455078125,0.6762813049733638,4.6534880693882705,1.0261781539663672
1761392255416448500,5.815448486328125,2.397586041897535,3.8701860671103,0.8460983579307794
1761392255426530600,5.825530517578125,3.07011705442667,2.9057191039085386,0.7364768304780125
1761392255436612600,5.835612548828125,1.9425912803560494,2.2796686875253913,0.4983008193045854
1761392255446695700,5.84569580078125,0.07470949628651141,2.181118881446123,0.052696986442804336
1761392255456777700,5.85577783203125,-2.2284482033759354,2.3399790715813635,-0.38272359831780195
1761392255466859800,5.86585986328125,-4.580363796466589,2.061890444475412,-0.7095166350990534
1761392255476941600,5.875941650390625,-5.875391332289576,1.3353840961307286,-0.5930974103301763
1761392255487025000,5.88602490234375,-5.3407238990962504,0.7092407407671213,-0.6003773382052778
1761392255497106700,5.896106689453125,-4.10594186539948,0.4902987146347761,-0.974057213845849
1761392255507188700,5.906188720703125,-2.645391758942604,0.6048012921273708,-1.6550521033376455
1761392255517270800,5.916270751953125,-1.3575392293155193,0.9807108265161514,-2.269640629985928
1761392255527353900,5.926353759765625,-0.19050152906775472,1.1741302888572216,-2.8058558771431445
1761392255537435600,5.936435546875,0.8489742056280374,1.2771078482508658,-2.8752622985854743
1761392255547517700,5.946517578125,1.176556054699421,1.6150164455473421,-2.281027116397023
1761392255557599700,5.956599853515625,1.285280048790574,1.8059399994194507,-1.006484880850464
1761392255567681800,5.966681884765625,1.011903837159276,1.0955611945331096,0.46138051705583927
1761392255577764900,5.976764892578125,-0.12097966455221175,-0.2261000811934471,1.757633941411972
1761392255587846700,5.9868466796875,-1.9260557406187055,-1.0298843150079249,2.0742520595289764
1761392255597928700,5.9969287109375,-4.030811513352394,-0.9920961438834667,1.487291982910037
1761392255608010800,6.0070107421875,-5.509540250578523,-0.27970190752148627,0.14450623222067951
1761392255618093800,6.01709375,-5.525018390217423,1.096832529643178,-1.695736288164556
1761392255628175600,6.027175537109375,-4.0427012731105085,1.834955081501603,-2.782905501927435
1761392255638257700,6.037257568359375,-2.3079455184608695,2.4521353782087565,-3.0761145412757993
1761392255648339700,6.047339599609375,-0.48884851582646366,2.7908085301369425,-2.6091905647486446
1761392255658422800,6.0574228515625,-0.13477087401747703,2.247334105631709,-1.5005737815484403
1761392255668504800,6.0675048828125,-1.180763443261385,1.5577917525470255,-0.3038158100912347
1761392255678586600,6.077586669921875,-2.810982134115696,1.0947294198840856,0.7159310321860015
1761392255688668700,6.087668701171875,-3.8481472537815566,0.7672972084164619,1.3354955936811863
1761392255698750700,6.097750732421875,-4.10040176692903,0.8669108443349599,1.865524407288432
1761392255708833800,6.107833740234375,-3.782816411215067,0.9593757775425911,2.708852131462097
1761392255718915600,6.11791552734375,-3.148398563981056,0.6487193443089723,3.9498771512016653
1761392255728997600,6.12799755859375,-2.384426700595021,-0.009516600885987282,5.2312347658514975
1761392255739079700,6.13807958984375,-1.3901467829316854,-0.3798953891545534,6.162540633207559
1761392255749162800,6.148162841796875,-0.12147124746143817,-0.6348930635303258,6.912832930809259
1761392255759244800,6.158244873046875,1.049780271089077,-0.6651461629748344,7.258034607723355
1761392255769326600,6.16832666015625,2.1474223635494707,-0.3330664179623127,7.307350135034322
1761392255779408600,6.17840869140625,2.6287860765784976,-0.19547756391465662,7.475098565024137
1761392255789491700,6.18849169921875,2.795623236942291,0.18432605530321597,7.541326648691296
1761392255799574000,6.198573974609375,2.812361605775356,0.7366589090466499,7.860480276635289
1761392255809656000,6.208656005859375,2.5386884570240973,0.9227432061940432,8.323052195432782
1761392255819738000,6.218738037109375,2.0464900462478397,0.7598357864946127,9.035410775959491
1761392255829820200,6.228820068359375,0.9201414992630481,0.5856055932700633,10.00878000754118
1761392255839903200,6.2389033203125,-0.45966976761519907,0.25259704297482966,10.797952363157272
1761392255849985300,6.2489853515625,-1.0925637662827967,0.3462397877901792,11.293388440680504
1761392255860067000,6.259067138671875,-2.1609330025076865,0.6720359224885701,11.080274097788333
1761392255870149000,6.269149169921875,-3.1209955932706595,0.8024713976502418,10.30124670408964
1761392255880232400,6.279232421875,-2.834682743176818,0.8793103071808814,9.594997546353936
1761392255890314200,6.289314208984375,-2.8044536091297863,1.170624911084771,8.993135814809799
1761392255900396300,6.299396240234375,-2.4535130963027476,1.0524877764821052,8.830785444471239
1761392255910478300,6.309478271484375,-2.7485335689872503,0.9552145662099123,8.684460326260329
1761392255920560400,6.319560302734375,-3.3004800537616013,1.6730810965031384,7.21602501951158
1761392255930643200,6.329643310546875,-3.3834207872986792,2.62814836319685,4.989402862519025
1761392255940725200,6.339725341796875,-3.4662691663771867,2.9700790556162593,3.2129438091278075
1761392255950807300,6.349807373046875,-2.479658175906539,1.4717045376777649,2.9101074019953606
1761392255960889300,6.359889404296875,-1.277514090964198,-0.43085342297554013,3.495838082949817
1761392255970972400,6.369972412109375,-0.7064110702991485,-1.0758429331064223,4.279903470815718
1761392255981054200,6.38005419921875,-0.5459200640916824,-1.153299097752571,4.7909831076726315
1761392255991136300,6.39013623046875,-1.3278139531373976,-1.100581068521738,5.0186669509261845
1761392256001218300,6.40021826171875,-2.7282413070648905,-0.9488444466561079,4.686621692705154
1761392256011301400,6.41030126953125,-4.423928203129768,-1.076716208809614,4.014212260729074
1761392256021383200,6.420383056640625,-5.198627796757221,-1.0236895520210265,2.576367322555184
1761392256031465200,6.43046533203125,-4.576822178336978,-0.6987205157965422,1.1236153226286172
1761392256041547300,6.44054736328125,-4.369170777025818,-0.35745033311247826,0.5272638789385556
1761392256051629300,6.45062939453125,-2.8873382285654543,-0.4284498689651489,0.28591245259940623
1761392256061712400,6.46071240234375,-1.4916191984593867,-0.003389642438292503,0.3283046103879809
1761392256071794200,6.470794189453125,-0.42161680807471275,0.5406032529830932,0.709112438212335
1761392256081876200,6.480876220703125,0.6172434250712394,0.4783107551991939,0.9575716507300734
1761392256091958300,6.490958251953125,1.327253981167078,0.5493032767891883,1.0548775942280888
1761392256102041300,6.501041259765625,2.249406235730648,0.8559647951677442,1.174299215683341
1761392256112123100,6.511123046875,2.654056126913428,1.0504191535145044,1.4047583688691259
1761392256122205200,6.521205078125,3.031488340824842,1.4376730887383222,2.121793124513328
1761392256132287200,6.531287353515625,3.0182483355015512,1.3437392520219087,2.5129662790074945
1761392256142369300,6.541369384765625,2.868166495105624,1.274711016242206,2.469640347500145
1761392256152452400,6.551452392578125,3.5491298204153776,1.2307111309960483,2.452577861279249
1761392256162534100,6.5615341796875,3.7928964912027117,0.5853551256403327,2.3581518571317193
1761392256172616200,6.5716162109375,3.061041183045506,-0.17114099503755567,2.346725915493071
1761392256182698200,6.5816982421875,1.6791776598125696,-0.9100324854418634,2.1457190667629242
1761392256192781300,6.59178125,-0.3069616703689098,-0.33386633616834877,1.013632560648024
1761392256202863000,6.601863037109375,-1.810299948194623,1.6339555392950773,0.7278177232041955
1761392256212945200,6.611945068359375,-1.5973410881251096,3.1570231844633816,1.0565598482266068
1761392256223027200,6.622027099609375,-2.383885433325171,3.718605804850161,1.7591896464213728
1761392256233110300,6.6321103515625,-3.006191987004876,2.938963786384463,2.7564070788413284
1761392256243192300,6.6421923828125,-3.213116243085265,1.7200602898210287,3.6923718779191375
1761392256253274000,6.652274169921875,-4.214121085089445,1.0352058022916317,4.177256750811636
1761392256263356200,6.662356201171875,-5.349553102239966,0.436517732347548,4.25921724113971
1761392256273438200,6.672438232421875,-5.492978991878032,-0.28348171832114455,3.7087776537969708
1761392256283521300,6.682521240234375,-4.740664248538017,-1.2108522920548914,3.1528041054636238
1761392256293603000,6.69260302734375,-6.0288318354636425,-0.9270493789553642,2.5531492363139985
1761392256303685000,6.70268505859375,-5.52090277159214,-0.07663987982720136,1.7093761064603923
1761392256313767200,6.71276708984375,-5.289331565511226,0.5116732188358902,1.0370587366819382
1761392256323850200,6.722850341796875,-5.5920355784356595,1.0458473155543206,0.8126847486287355
1761392256333932300,6.732932373046875,-6.43466304538548,1.339273504784703,1.2831234552785753
1761392256344014000,6.74301416015625,-6.868577024975418,1.1519929835900664,1.8660349871590733
1761392256354096000,6.75309619140625,-7.1826722004860635,0.6676501086197794,2.357578733418882
1761392256364178200,6.76317822265625,-6.588124006825685,0.2970511017292738,2.6358120296925303
1761392256374261200,6.77326123046875,-6.422880837655067,0.2542977094128728,3.067679890407622
1761392256384343000,6.783343017578125,-6.532150775191187,0.42241701854169367,3.532780450899899
1761392256394425000,6.793425048828125,-5.388444850692153,0.5509367232099175,3.751211897161603
1761392256404507100,6.803507080078125,-3.91175667938292,0.6172676827296615,3.942667658214271
1761392256414590500,6.813590576171875,-2.6814620202332735,0.6424596993923187,4.001851376327872
1761392256424672000,6.823672119140625,-1.4721166256099938,0.7536068289771676,3.7571637913033364
1761392256434754000,6.833754150390625,-0.11484452279806136,1.0112842439562082,3.33879020293355
1761392256444836000,6.843836181640625,1.009385716858506,1.128211125986278,2.8505335155203935
1761392256454919400,6.85391943359375,1.1107809754967688,1.0484881854519248,2.5115485211640594
1761392256465001500,6.86400146484375,0.24954174705743787,1.1039631121754645,2.7184537802830335
1761392256475083300,6.874083251953125,-1.058624087280035,1.4548331901147962,2.986103723222017
1761392256485165300,6.884165283203125,-1.6613690313994884,2.0270593695908783,2.9714892146751284
1761392256495247400,6.894247314453125,-1.4531114808887242,2.7118253020539878,2.844201389889419
1761392256505330400,6.904330322265625,-1.2883458661019802,3.1849852503612635,2.8267849756643173
1761392256515412200,6.914412109375,-1.4864777439177035,3.213530376844108,2.8452728185132146
1761392256525494300,6.924494384765625,-1.8540946662575006,3.0144901520118115,2.6565505740776656
1761392256535576300,6.934576416015625,-2.126375483867526,2.5424144918099043,2.355565640030801
1761392256545659400,6.944659423828125,-2.1815958513081073,1.8810425866767764,2.113650150068104
1761392256555741200,6.9547412109375,-3.2771669827133416,1.9218433836206792,1.5901654974073172
1761392256565823200,6.9648232421875,-4.592402609306574,2.543920804719627,0.7227800212979316
1761392256575905300,6.9749052734375,-4.874564184939861,3.3636849902153014,-0.4427520966924727
1761392256585987300,6.9849873046875,-4.336825089216232,3.936579862733185,-1.3703639318361878
1761392256596070400,6.9950703125,-3.9513668052375315,4.1090123588860035,-1.8328499259158968
1761392256606152200,7.005152099609375,-3.3190386237591505,3.994111137464642,-2.0460082540802658
1761392256616234200,7.015234130859375,-1.883257047855854,3.138316438166797,-1.6968806358940898
1761392256626316300,7.02531640625,-1.1644839241117237,2.1900258260011674,-1.275216627676785
1761392256636399400,7.0353994140625,-0.8046960879623889,1.5381936103686689,-1.0784731354795396
1761392256646481200,7.045481201171875,-0.5784177275925875,1.1613514713048934,-0.9587208207651973
1761392256656563200,7.055563232421875,-0.29515199010968207,1.1707242798060178,-1.1202842785097658
1761392256666645200,7.065645263671875,-0.0543237108618021,1.3785177199363707,-1.476632203338295
1761392256676727300,7.075727294921875,0.23197511070668697,1.4730200041905044,-2.0173517761774358
1761392256686810400,7.085810302734375,0.8323170853376388,1.817561755891144,-2.3383704673409462
1761392256696892200,7.09589208984375,1.1618436387360096,2.520930097493529,-2.0929054682031274
1761392256706974200,7.10597412109375,1.251471302691102,3.513069203735888,-1.2007421091899275
1761392256717056300,7.11605615234375,-3.644309857800603,1.9833394703298806,-0.8602649765796959
1761392256727139300,7.126139404296875,-1.602970618444681,-0.03837210849225521,-0.5743279009956866
1761392256737221000,7.13622119140625,0.1775806726962328,0.7628858217149972,-0.12751918585617095
1761392256747303200,7.14630322265625,0.3247603619098663,1.3631126455336808,-1.1354511602424084
1761392256757385200,7.15638525390625,0.9394757298082113,1.3084493274539708,-1.6338231450870633
1761392256767467300,7.16646728515625,0.14951310059726236,1.4126219418510795,-1.4465896779045462
