time,seconds_elapsed,z,y,x
1761392249689755600,0.088755615234375,-1.4119951725006104,-1.4459651708602905,-0.654819667339325
1761392249699837700,0.098837646484375,-1.4640275239944458,-1.1853679418563843,-0.6987847089767456
1761392249709920800,0.108920654296875,-1.4922916889190674,-0.9450370669364929,-0.6666022539138794
1761392249720002600,0.11900244140625,-1.4986991882324219,-0.9138219356536865,-0.6648421883583069
1761392249730084600,0.129084716796875,-1.5262895822525024,-0.8759298920631409,-0.789164662361145
1761392249740166700,0.139166748046875,-1.5171695947647095,-0.8600068688392639,-1.063459038734436
1761392249750248700,0.149248779296875,-1.481331706047058,-1.079751968383789,-1.6542408466339111
1761392249760330800,0.159330810546875,-1.3760018348693848,-1.4835634231567383,-2.1497228145599365
1761392249770412800,0.169412841796875,-1.3007917404174805,-1.493226170539856,-2.4042651653289795
1761392249780495600,0.17949560546875,-1.1708004474639893,-0.9232561588287354,-2.2731773853302
1761392249790577700,0.18957763671875,-1.0486502647399902,0.048821866512298584,-1.9382939338684082
1761392249800662800,0.199662841796875,-0.9337537884712219,0.9212031364440918,-1.42432701587677
1761392249810744800,0.209744873046875,-0.9013566970825195,1.283279538154602,-0.8549290299415588
1761392249820827000,0.219826904296875,-0.9857991337776184,1.3977270126342773,-0.3637518584728241
1761392249830908700,0.22990869140625,-1.0556291341781616,1.6577280759811401,0.03038506954908371
1761392249840990700,0.23999072265625,-1.1413270235061646,1.7407480478286743,0.3594830632209778
1761392249851073800,0.25007373046875,-1.3428208827972412,1.336177945137024,0.6528060436248779
1761392249861155800,0.26015576171875,-1.4466522932052612,0.9830361604690552,0.9078521728515625
1761392249871237600,0.270237548828125,-1.4069045782089233,0.7376106381416321,1.1648064851760864
1761392249881319700,0.280319580078125,-1.3382315635681152,0.4995408356189728,1.4262350797653198
1761392249891401700,0.290401611328125,-1.3239034414291382,0.27130448818206787,1.5436416864395142
1761392249901483800,0.30048388671875,-1.3470319509506226,0.23522555828094482,1.51213538646698
1761392249911565800,0.31056591796875,-1.3783820867538452,0.44155770540237427,1.4034440517425537
1761392249921648600,0.320648681640625,-1.4426668882369995,0.6540806293487549,1.1778167486190796
1761392249931730700,0.330730712890625,-1.52303946018219,0.844526469707489,0.7898030281066895
1761392249941812700,0.340812744140625,-1.5648694038391113,1.181939959526062,0.20390546321868896
1761392249951894800,0.350894775390625,-1.571220874786377,1.569657325744629,-0.4814651608467102
1761392249961976800,0.360976806640625,-1.6165465116500854,2.018934965133667,-0.9689182043075562
1761392249972059000,0.371058837890625,-1.661418080329895,2.285179853439331,-1.167618989944458
1761392249982140700,0.381140625,-1.6725562810897827,2.1705639362335205,-1.187408685684204
1761392249992223700,0.3912236328125,-1.7528609037399292,1.7774224281311035,-1.1332013607025146
1761392250002305800,0.401305908203125,-1.9200084209442139,1.3887351751327515,-0.9853250980377197
1761392250012387800,0.411387939453125,-2.071244716644287,1.0828900337219238,-0.7856679558753967
1761392250022469600,0.4214697265625,-2.1327803134918213,0.7043219208717346,-0.5876877307891846
1761392250032551700,0.4315517578125,-2.0960710048675537,0.30660414695739746,-0.3887037932872772
1761392250042633700,0.4416337890625,-1.995934247970581,-0.041980206966400146,-0.16952484846115112
1761392250052715800,0.4517158203125,-1.9274119138717651,-0.3378611207008362,0.0913940966129303
1761392250062798800,0.461798828125,-1.8906443119049072,-0.4671749174594879,0.3807329535484314
1761392250072880600,0.471880615234375,-1.7809420824050903,-0.5483472347259521,0.5718398094177246
1761392250082962700,0.481962646484375,-1.6690179109573364,-0.4524633288383484,0.5618649125099182
1761392250093044700,0.492044677734375,-1.7086389064788818,-0.6250354051589966,0.39575985074043274
1761392250103126800,0.502126708984375,-1.742398977279663,-0.5629890561103821,0.3381980061531067
1761392250113208800,0.512208740234375,-1.7148091793060303,-0.5246542096138,0.3777851164340973
1761392250123291000,0.522290771484375,-1.650268793106079,-0.5574758052825928,0.4247259795665741
1761392250133373700,0.532373779296875,-1.6070443391799927,-0.5801478028297424,0.44897565245628357
1761392250143455700,0.542455810546875,-1.5763874053955078,-0.6504262089729309,0.44974905252456665
1761392250153537800,0.552537841796875,-1.508101463317871,-0.767202615737915,0.47990936040878296
1761392250163619800,0.562619873046875,-1.3672232627868652,-1.0182726383209229,0.6080313920974731
1761392250173702000,0.572701904296875,-1.2014504671096802,-1.3682363033294678,0.8107477426528931
1761392250183783700,0.58278369140625,-1.0085028409957886,-1.6471952199935913,0.9925526976585388
1761392250193865700,0.59286572265625,-0.8089799284934998,-1.8068487644195557,1.076766848564148
1761392250203948800,0.60294873046875,-0.6400132775306702,-1.8040133714675903,1.02543044090271
1761392250214030800,0.61303076171875,-0.6008336544036865,-1.6677916049957275,0.8596803545951843
1761392250224112600,0.623112548828125,-0.74718177318573,-1.5545212030410767,0.6493101119995117
1761392250234194700,0.633194580078125,-1.0139868259429932,-1.3899264335632324,0.4515341520309448
1761392250244276700,0.64327685546875,-1.2414271831512451,-0.9963588714599609,0.20767410099506378
1761392250254358800,0.65335888671875,-1.4055553674697876,-0.7354242205619812,0.09934123605489731
1761392250264440800,0.66344091796875,-1.4696646928787231,-0.5612295269966125,-0.00034434671397320926
1761392250274523600,0.673523681640625,-1.4331220388412476,-0.44063252210617065,-0.16551358997821808
1761392250284605700,0.683605712890625,-1.3110792636871338,-0.382366806268692,-0.36139628291130066
1761392250294687700,0.693687744140625,-1.1326242685317993,-0.3179422914981842,-0.47627121210098267
1761392250304769800,0.703769775390625,-1.0206100940704346,-0.19430236518383026,-0.5134057998657227
1761392250314851800,0.713851806640625,-1.0211666822433472,-0.1000128835439682,-0.5394245982170105
1761392250324934000,0.723933837890625,-1.0627399682998657,-0.020506873726844788,-0.5702645182609558
1761392250335016700,0.7340166015625,-1.1529992818832397,0.02095082215964794,-0.5685904622077942
1761392250345098800,0.7440986328125,-1.2929694652557373,-0.0883607566356659,-0.43483296036720276
1761392250355180800,0.754180908203125,-1.4145283699035645,-0.19410715997219086,-0.1787143498659134
1761392250365262800,0.764262939453125,-1.435024619102478,-0.22878816723823547,0.12328065186738968
1761392250375344600,0.7743447265625,-1.350051999092102,-0.18353520333766937,0.3360099792480469
1761392250385426700,0.7844267578125,-1.2646247148513794,-0.13904443383216858,0.4220244884490967
1761392250395508700,0.7945087890625,-1.2449452877044678,-0.24967853724956512,0.446358323097229
1761392250405591800,0.804591796875,-1.2660212516784668,-0.4922914505004883,0.4688689410686493
1761392250415673900,0.814673828125,-1.2698556184768677,-0.8214091658592224,0.49986255168914795
1761392250425755600,0.824755615234375,-1.269309163093567,-1.297623872756958,0.5683310627937317
1761392250435837700,0.834837646484375,-1.2140650749206543,-1.7548130750656128,0.6987988352775574
1761392250445919700,0.844919677734375,-1.1275131702423096,-2.179844856262207,0.8130660057067871
1761392250456001800,0.855001708984375,-1.1075609922409058,-2.500669479370117,0.85619056224823
1761392250466084600,0.865084716796875,-1.0931767225265503,-2.709929943084717,0.7954784631729126
1761392250476166700,0.875166748046875,-0.9848188757896423,-2.892239570617676,0.6465601325035095
1761392250486248700,0.885248779296875,-0.7917950749397278,-2.8335304260253906,0.5647198557853699
1761392250496330800,0.895330810546875,-0.6083871722221375,-2.543653964996338,0.6111576557159424
1761392250506412800,0.905412841796875,-0.4685640037059784,-2.3014979362487793,0.7797520160675049
1761392250516494800,0.915494873046875,-0.3453406095504761,-2.2546582221984863,0.9033237099647522
1761392250526576600,0.92557666015625,-0.3005686104297638,-2.2713027000427246,0.9170368909835815
1761392250536659700,0.93565966796875,-0.26986557245254517,-2.2601945400238037,0.8494083285331726
1761392250546741800,0.94574169921875,-0.1585443764925003,-2.2057676315307617,0.7599740028381348
1761392250556823800,0.95582373046875,-0.04135143384337425,-2.0814332962036133,0.7413390874862671
1761392250566905900,0.96590576171875,0.0996786579489708,-1.925549030303955,0.819050669670105
1761392250576987600,0.975987548828125,0.3080401122570038,-1.7979609966278076,0.9473479390144348
1761392250587069700,0.986069580078125,0.4991046190261841,-1.7453241348266602,1.0819272994995117
1761392250597152800,0.99615283203125,0.6946690678596497,-1.8364777565002441,1.2520476579666138
1761392250607234800,1.00623486328125,0.9302603006362915,-1.956017017364502,1.4716036319732666
1761392250617316600,1.016316650390625,1.2105321884155273,-2.1469602584838867,1.7348397970199585
1761392250627398700,1.026398681640625,1.4024461507797241,-2.368804693222046,2.018747091293335
1761392250637480700,1.036480712890625,1.5135340690612793,-2.522446632385254,2.2348971366882324
1761392250647562800,1.046562744140625,1.670238971710205,-2.4941844940185547,2.2954447269439697
1761392250657644800,1.056644775390625,1.8634675741195679,-2.2742838859558105,2.2371978759765625
1761392250667727600,1.0667275390625,2.058248996734619,-2.0029613971710205,2.154277801513672
1761392250677809700,1.0768095703125,2.1509859561920166,-1.876132845878601,2.140129566192627
1761392250687891700,1.0868916015625,2.0658340454101562,-1.8626893758773804,2.244597911834717
1761392250697973800,1.096973876953125,1.899632215499878,-1.7881057262420654,2.3995776176452637
1761392250708055800,1.107055908203125,1.8013368844985962,-1.6213873624801636,2.6030638217926025
1761392250718137900,1.117137939453125,1.8388855457305908,-1.2955535650253296,2.9417564868927
1761392250728220700,1.127220703125,2.029404878616333,-1.0185123682022095,3.3213610649108887
1761392250738302700,1.137302734375,2.309772491455078,-0.9672297239303589,3.550868272781372
1761392250748384800,1.147384765625,2.517202854156494,-1.0736416578292847,3.5630478858947754
1761392250758466800,1.157466796875,2.6226274967193604,-1.2076841592788696,3.471082925796509
1761392250768548600,1.167548583984375,2.5616445541381836,-1.417616367340088,3.3967344760894775
1761392250778630700,1.177630615234375,2.409273147583008,-1.7181618213653564,3.477921724319458
1761392250788713700,1.187713623046875,2.3737435340881348,-1.8864634037017822,3.7138426303863525
1761392250798796300,1.19779638671875,2.440333843231201,-1.8791009187698364,3.9816553592681885
1761392250808878000,1.207878173828125,2.496290683746338,-1.6043305397033691,4.148956775665283
1761392250818960100,1.217960205078125,2.4871792793273926,-1.1336623430252075,4.126752853393555
1761392250829042200,1.228042236328125,2.3532495498657227,-0.6730228662490845,4.0042405128479
1761392250839124200,1.238124267578125,2.108895778656006,-0.25863608717918396,3.9000203609466553
1761392250849207000,1.24820703125,1.8123775720596313,0.14320962131023407,3.7974555492401123
1761392250859289000,1.2582890625,1.535051941871643,0.570087730884552,3.644684076309204
1761392250869371100,1.26837109375,1.3576022386550903,0.932479739189148,3.409325122833252
1761392250879453200,1.278453125,1.2847377061843872,1.1922907829284668,3.1766273975372314
1761392250889535200,1.28853515625,1.295508861541748,1.296568512916565,3.0369107723236084
1761392250899617300,1.2986171875,1.3382890224456787,1.2396976947784424,3.0196778774261475
1761392250909700000,1.3087001953125,1.3433455228805542,1.0538972616195679,3.1158058643341064
1761392250919782100,1.3187822265625,1.3251545429229736,0.8439323306083679,3.2904107570648193
1761392250929864200,1.3288642578125,1.2909196615219116,0.6533327698707581,3.3841912746429443
1761392250939946200,1.3389462890625,1.1912212371826172,0.5215688943862915,3.304746389389038
1761392250950028300,1.3490283203125,1.0528011322021484,0.5532402992248535,3.050034999847412
1761392250960110000,1.359110107421875,0.9548606872558594,0.6849751472473145,2.6913692951202393
1761392250970193200,1.369193115234375,0.9017018675804138,0.8322231769561768,2.361863851547241
1761392250980275200,1.379275146484375,0.9024105072021484,0.9238321781158447,2.1616199016571045
1761392250990357200,1.389357177734375,0.9191450476646423,0.8336858153343201,2.118421792984009
1761392251000439000,1.39943896484375,0.9468400478363037,0.5393180847167969,2.1889865398406982
1761392251010521000,1.40952099609375,0.9762488007545471,0.1424969583749771,2.3114993572235107
1761392251020603100,1.41960302734375,1.0305863618850708,-0.2317109853029251,2.408982515335083
1761392251030686200,1.429686279296875,1.1030421257019043,-0.5519595742225647,2.4904367923736572
1761392251040768300,1.439768310546875,1.137937068939209,-0.7153596878051758,2.609650135040283
1761392251050850000,1.44985009765625,1.1250399351119995,-0.6961939930915833,2.7914490699768066
1761392251060932000,1.45993212890625,1.063910961151123,-0.4507029950618744,3.0136022567749023
1761392251071014100,1.47001416015625,0.9073967933654785,-0.05403447151184082,3.155247449874878
1761392251081097200,1.48009716796875,0.6392489671707153,0.32116737961769104,3.1104609966278076
1761392251091179000,1.490178955078125,0.338689386844635,0.6566420197486877,2.8013174533843994
1761392251101261000,1.500260986328125,0.17413584887981415,0.9428735375404358,2.3134217262268066
1761392251111343000,1.510343017578125,0.1301524043083191,1.1843948364257812,1.8454105854034424
1761392251121425200,1.520425048828125,0.17704908549785614,1.3729060888290405,1.5359065532684326
1761392251131507200,1.530507080078125,0.31657660007476807,1.4308708906173706,1.439440131187439
1761392251141590000,1.540590087890625,0.44647708535194397,1.3500537872314453,1.5563204288482666
1761392251151672000,1.550672119140625,0.549540102481842,1.239431381225586,1.814742922782898
1761392251161754000,1.560754150390625,0.6147587895393372,1.176954984664917,2.0768373012542725
1761392251171836200,1.570836181640625,0.6406002044677734,1.202438235282898,2.2116425037384033
1761392251181918200,1.580918212890625,0.6691280007362366,1.3448694944381714,2.194949150085449
1761392251192000300,1.591000244140625,0.6895890831947327,1.4774298667907715,2.0742568969726562
1761392251202083000,1.6010830078125,0.6945915818214417,1.4627699851989746,1.8916646242141724
1761392251212165000,1.6111650390625,0.7114403247833252,1.3376679420471191,1.7180014848709106
1761392251222247200,1.6212470703125,0.7177237868309021,1.2115143537521362,1.6462739706039429
1761392251232329200,1.6313291015625,0.7005721926689148,1.1153696775436401,1.7376772165298462
1761392251242411300,1.641411376953125,0.6447464823722839,1.0494343042373657,1.9312567710876465
1761392251252494000,1.651494140625,0.5272523760795593,1.1422772407531738,2.170717716217041
1761392251262576000,1.661576171875,0.42275044322013855,1.331820011138916,2.403954029083252
1761392251272658200,1.671658203125,0.39377206563949585,1.5780816078186035,2.6453194618225098
1761392251282740200,1.681740234375,0.441656231880188,1.7081294059753418,2.876699447631836
1761392251292822000,1.691822021484375,0.5236496329307556,1.7153159379959106,3.0649242401123047
1761392251302904000,1.701904052734375,0.5620737075805664,1.673823356628418,3.175644874572754
1761392251312987100,1.711987060546875,0.5016636252403259,1.6817134618759155,3.2116308212280273
1761392251323069200,1.722069091796875,0.38151541352272034,1.7318187952041626,3.2228996753692627
1761392251333151000,1.73215087890625,0.29816004633903503,1.829242467880249,3.3413970470428467
1761392251343233000,1.74223291015625,0.26109445095062256,2.085838556289673,3.628800392150879
1761392251353315000,1.752315185546875,0.25227272510528564,2.542869806289673,3.9413399696350098
1761392251363398400,1.7623984375,0.24241903424263,3.082972288131714,4.047359943389893
1761392251373480200,1.772480224609375,0.16100220382213593,3.5131025314331055,3.8429489135742188
1761392251383562000,1.78256201171875,0.011426825076341629,3.8189172744750977,3.4184186458587646
1761392251393644000,1.79264404296875,-0.1238045021891594,3.7412891387939453,2.9476394653320312
1761392251403726000,1.80272607421875,-0.0976160392165184,3.2927122116088867,2.699427843093872
1761392251413808000,1.81280810546875,0.09726157039403915,2.724816083908081,2.703204870223999
1761392251423891200,1.82289111328125,0.2775959372520447,2.2884433269500732,2.8430252075195312
1761392251433973200,1.83297314453125,0.2557079493999481,2.15488338470459,2.9287142753601074
1761392251444055300,1.84305517578125,0.023629162460565567,2.4760332107543945,2.7734949588775635
1761392251454137000,1.85313720703125,-0.2715044915676117,3.2057149410247803,2.424685001373291
1761392251464219100,1.86321923828125,-0.5088027715682983,4.0853776931762695,2.0037472248077393
1761392251474302200,1.87330224609375,-0.630682110786438,4.814150810241699,1.6520099639892578
1761392251484384300,1.88338427734375,-0.6205902695655823,5.225520610809326,1.4268162250518799
1761392251494466300,1.89346630859375,-0.4882192015647888,5.223855495452881,1.297399878501892
1761392251504548400,1.90354833984375,-0.2836325168609619,4.724670886993408,1.2302720546722412
1761392251514630400,1.91363037109375,0.03862462565302849,3.8939998149871826,1.3770865201950073
1761392251524713200,1.923713134765625,0.45262953639030457,3.0387685298919678,1.7442916631698608
1761392251534795300,1.933795166015625,0.8470948338508606,2.3560996055603027,2.169283628463745
1761392251544877300,1.943877197265625,1.0920659303665161,1.9559165239334106,2.441032886505127
1761392251554959400,1.95395947265625,1.1630396842956543,1.8201019763946533,2.5269482135772705
1761392251565041400,1.96404150390625,1.1272263526916504,1.8852083683013916,2.4810168743133545
1761392251575124200,1.974124267578125,1.13546884059906,2.0075459480285645,2.3939101696014404
1761392251585206300,1.984206298828125,1.2172281742095947,2.0653867721557617,2.366339683532715
1761392251595288300,1.994288330078125,1.3421660661697388,1.9327532052993774,2.4471189975738525
1761392251605370400,2.004370361328125,1.4223029613494873,1.6112926006317139,2.6200766563415527
1761392251615452400,2.014452392578125,1.3293466567993164,1.3569825887680054,2.828981399536133
1761392251625534200,2.0245341796875,1.1201231479644775,1.4910365343093872,2.9293265342712402
1761392251635617300,2.0346171875,0.9665884375572205,1.925238847732544,2.657329797744751
1761392251645699300,2.04469921875,0.9791615009307861,2.3369953632354736,2.057264566421509
1761392251655781400,2.054781494140625,1.1689125299453735,2.4929885864257812,1.4679529666900635
1761392251665863200,2.06486328125,1.439073920249939,2.2969064712524414,1.213779330253601
1761392251675945200,2.0749453125,1.7284998893737793,1.849915623664856,1.410909652709961
1761392251686028300,2.0850283203125,1.9862289428710938,1.4121241569519043,1.890882968902588
1761392251696110300,2.0951103515625,2.165832996368408,1.1676536798477173,2.3306496143341064
1761392251706192100,2.105192138671875,2.2738630771636963,1.1397095918655396,2.545297622680664
1761392251716274200,2.115274169921875,2.2989566326141357,1.2631248235702515,2.526486873626709
1761392251726356200,2.125356201171875,2.225336790084839,1.4261850118637085,2.348029375076294
1761392251736439300,2.135439208984375,2.0638930797576904,1.453313946723938,2.121166944503784
1761392251746521300,2.145521240234375,1.8507193326950073,1.374369502067566,1.9617856740951538
1761392251756603100,2.15560302734375,1.6964173316955566,1.29618501663208,1.941005825996399
1761392251766685200,2.165685302734375,1.582079291343689,1.2956966161727905,2.0219967365264893
1761392251776767200,2.175767333984375,1.5017725229263306,1.3673592805862427,2.130277395248413
1761392251786850300,2.185850341796875,1.4315353631973267,1.5040854215621948,2.2462003231048584
1761392251796928300,2.19592822265625,1.3437570333480835,1.8434520959854126,2.34873366355896
1761392251807010000,2.206010009765625,1.2928045988082886,2.2352936267852783,2.357126474380493
1761392251817092000,2.216092041015625,1.3125014305114746,2.4601900577545166,2.28652024269104
1761392251827174100,2.226174072265625,1.3391984701156616,2.4599056243896484,2.2889811992645264
1761392251837257200,2.23625732421875,1.3007794618606567,2.209587574005127,2.414874315261841
1761392251847339300,2.24633935546875,1.288727045059204,1.9348679780960083,2.6033644676208496
1761392251857421000,2.256421142578125,1.3207014799118042,1.8334524631500244,2.7886621952056885
1761392251867503000,2.266503173828125,1.353580117225647,1.8457729816436768,2.936347484588623
1761392251877585200,2.276585205078125,1.3930974006652832,1.9734121561050415,3.0671565532684326
1761392251887668200,2.286668212890625,1.448912262916565,2.1621968746185303,3.1744091510772705
1761392251897750000,2.29675,1.5127005577087402,2.368452548980713,3.2475407123565674
1761392251907832000,2.30683203125,1.550394892692566,2.552614212036133,3.31561017036438
1761392251917914000,2.3169140625,1.4996289014816284,2.6622049808502197,3.3724396228790283
1761392251927997400,2.32699755859375,1.398566484451294,2.7440552711486816,3.2889716625213623
1761392251938079200,2.337079345703125,1.3831782341003418,2.77144718170166,3.024322509765625
1761392251948161300,2.347161376953125,1.454145908355713,2.7605061531066895,2.744943618774414
1761392251958243000,2.3572431640625,1.5150166749954224,2.6405858993530273,2.6003305912017822
1761392251968325000,2.3673251953125,1.5206189155578613,2.4331281185150146,2.6331100463867188
1761392251978408400,2.377408447265625,1.4796555042266846,2.288388967514038,2.738330364227295
1761392251988490200,2.387490234375,1.4709256887435913,2.24438214302063,2.719285011291504
1761392251998572300,2.397572265625,1.482369303703308,2.2390244007110596,2.53497576713562
1761392252008654300,2.407654296875,1.4352470636367798,2.2700352668762207,2.3269851207733154
1761392252018736400,2.417736328125,1.2917205095291138,2.362703800201416,2.1952672004699707
1761392252028819200,2.427819091796875,1.0562286376953125,2.5372931957244873,2.103968858718872
1761392252038901200,2.4379013671875,0.8262382745742798,2.781238079071045,1.8989784717559814
1761392252048983300,2.4479833984375,0.7058998942375183,2.990008592605591,1.5405899286270142
1761392252059065300,2.4580654296875,0.6456937789916992,3.083411455154419,1.1657418012619019
1761392252069147400,2.4681474609375,0.6128338575363159,2.996803045272827,0.8871756792068481
1761392252079230200,2.478230224609375,0.5796228647232056,2.7397842407226562,0.7799394726753235
1761392252089312300,2.488312255859375,0.5106164216995239,2.3900668621063232,0.7848562002182007
1761392252099394300,2.498394287109375,0.4922562837600708,2.11824893951416,0.8428510427474976
1761392252109476400,2.508476318359375,0.5173826813697815,2.0562915802001953,0.8865298628807068
1761392252119558400,2.518558349609375,0.48147714138031006,2.1574952602386475,0.8925989270210266
1761392252129641200,2.52864111328125,0.3506626784801483,2.3244094848632812,0.8384946584701538
1761392252139723300,2.53872314453125,0.1447923332452774,2.516263008117676,0.7305828332901001
1761392252149805300,2.548805419921875,-0.09527938067913055,2.6590964794158936,0.6088393926620483
1761392252159887400,2.558887451171875,-0.31767943501472473,2.5877068042755127,0.5462907552719116
1761392252169970200,2.56897021484375,-0.48618242144584656,2.3181521892547607,0.5241106152534485
1761392252180052200,2.57905224609375,-0.6263232827186584,2.0232503414154053,0.52952641248703
1761392252190134300,2.58913427734375,-0.7673647999763489,1.8457080125808716,0.5132723450660706
1761392252200216300,2.59921630859375,-0.8616471290588379,1.7961612939834595,0.43599408864974976
1761392252210298400,2.60929833984375,-0.8918952941894531,1.6626756191253662,0.34706979990005493
1761392252220381200,2.619381103515625,-0.9846087098121643,1.5112419128417969,0.30501076579093933
1761392252230463200,2.629463134765625,-1.2707350254058838,1.5281513929367065,0.291360467672348
1761392252240545300,2.639545166015625,-1.7194286584854126,1.8721835613250732,0.19005516171455383
1761392252250627300,2.64962744140625,-2.1021454334259033,2.477282762527466,-0.12683384120464325
1761392252260710100,2.659710205078125,-2.260711908340454,2.98374342918396,-0.543187141418457
1761392252270792200,2.669792236328125,-2.3089778423309326,3.084547281265259,-0.8095138669013977
1761392252280874200,2.679874267578125,-2.3082993030548096,2.8259387016296387,-0.8189305663108826
1761392252290956300,2.689956298828125,-2.282590866088867,2.251448154449463,-0.6966618895530701
1761392252301038300,2.700038330078125,-2.2814483642578125,1.5746270418167114,-0.5788124799728394
1761392252311121200,2.71012109375,-2.3162574768066406,1.043887734413147,-0.5648223757743835
1761392252321203200,2.720203125,-2.391371965408325,0.7157769799232483,-0.6695029735565186
1761392252331285200,2.73028515625,-2.437387228012085,0.6129550337791443,-0.7959150075912476
1761392252341367300,2.7403671875,-2.464723587036133,0.6384167075157166,-0.8340644836425781
1761392252351449300,2.750449462890625,-2.6068027019500732,0.8531865477561951,-0.81307053565979
1761392252361532200,2.7605322265625,-2.8255906105041504,1.2216417789459229,-0.8191127181053162
1761392252371614200,2.7706142578125,-3.1063551902770996,1.6353849172592163,-0.9527895450592041
1761392252381696300,2.7806962890625,-3.3970746994018555,2.008941888809204,-1.200257658958435
1761392252391778300,2.7907783203125,-3.563290596008301,2.0113065242767334,-1.4635697603225708
1761392252401861000,2.800861083984375,-3.542109251022339,1.6205599308013916,-1.514826774597168
1761392252411943200,2.810943115234375,-3.4232656955718994,1.100760579109192,-1.256961464881897
1761392252422025200,2.821025146484375,-3.3356103897094727,0.8211044669151306,-0.8047902584075928
1761392252432107300,2.831107177734375,-3.297013998031616,0.8923752307891846,-0.32660287618637085
1761392252442189300,2.841189208984375,-3.367185354232788,1.1724185943603516,0.014434599317610264
1761392252452272000,2.851272216796875,-3.4506423473358154,1.3637038469314575,0.08691199868917465
1761392252462354200,2.861354248046875,-3.5054287910461426,1.4065346717834473,-0.048112135380506516
1761392252472436200,2.871436279296875,-3.5070362091064453,1.3160310983657837,-0.23276560008525848
1761392252482518300,2.881518310546875,-3.434170722961426,1.0964205265045166,-0.3589632213115692
1761392252492601000,2.89160107421875,-3.398822069168091,0.7911514043807983,-0.35301345586776733
1761392252502683100,2.90168310546875,-3.4140207767486572,0.4814473092556,-0.19736526906490326
1761392252512765200,2.91176513671875,-3.40519118309021,0.26773929595947266,0.037452299147844315
1761392252522847200,2.92184716796875,-3.3503382205963135,0.23447509109973907,0.23124653100967407
1761392252532929300,2.93192919921875,-3.26149320602417,0.29391443729400635,0.35125231742858887
1761392252543012000,2.94201220703125,-3.110325813293457,0.16179102659225464,0.39829784631729126
1761392252553094100,2.95209423828125,-2.978940010070801,-0.10582150518894196,0.472174733877182
1761392252563176200,2.96217626953125,-2.9188973903656006,-0.46290427446365356,0.5344620943069458
1761392252573258200,2.97225830078125,-2.951802968978882,-0.8432079553604126,0.5530991554260254
1761392252583341300,2.98234130859375,-3.1077640056610107,-1.024750828742981,0.5551077127456665
1761392252593423000,2.992423095703125,-3.2888576984405518,-0.9295023083686829,0.537958562374115
1761392252603505200,3.002505126953125,-3.342027425765991,-0.5587636828422546,0.5498836636543274
1761392252613587200,3.012587158203125,-3.1950769424438477,-0.15400394797325134,0.6098628044128418
1761392252623669200,3.022669189453125,-2.9790101051330566,-0.12741175293922424,0.7614054679870605
1761392252633752300,3.03275244140625,-2.8668248653411865,-0.46984952688217163,0.9992063045501709
1761392252643834400,3.04283447265625,-2.8919363021850586,-1.0421266555786133,1.3108958005905151
1761392252653916400,3.05291650390625,-2.9981799125671387,-1.5882885456085205,1.6013518571853638
1761392252663998200,3.062998291015625,-3.0734200477600098,-1.8597700595855713,1.7485929727554321
1761392252674081300,3.073081298828125,-3.042795419692993,-1.8929466009140015,1.6599291563034058
1761392252684163300,3.083163330078125,-2.9518773555755615,-1.6425296068191528,1.4266479015350342
1761392252694245400,3.093245361328125,-2.890397787094116,-1.258015513420105,1.1746466159820557
1761392252704327400,3.103327392578125,-2.876338243484497,-0.9489428997039795,1.0469586849212646
1761392252714409500,3.113409423828125,-2.9259252548217773,-0.8401085138320923,1.1544928550720215
1761392252724492300,3.1234921875,-2.9949097633361816,-0.9252293109893799,1.4756569862365723
1761392252734574300,3.13357421875,-3.0511832237243652,-1.1705902814865112,1.8433854579925537
1761392252744656400,3.143656494140625,-3.097585678100586,-1.5062410831451416,2.1511664390563965
1761392252754738400,3.153738525390625,-3.1338908672332764,-1.8140579462051392,2.381735324859619
1761392252764821200,3.1638212890625,-3.145530939102173,-1.9683763980865479,2.519834041595459
1761392252774903300,3.1739033203125,-3.1487607955932617,-1.9327383041381836,2.497499465942383
1761392252784985300,3.1839853515625,-3.1439146995544434,-1.7099437713623047,2.403892993927002
1761392252795067400,3.1940673828125,-3.1182355880737305,-1.3872510194778442,2.302879810333252
1761392252805150200,3.204150146484375,-3.0754265785217285,-1.1554890871047974,2.2507543563842773
1761392252815232300,3.214232177734375,-2.9951224327087402,-1.404685139656067,2.293780565261841
1761392252825314300,3.224314208984375,-2.8558878898620605,-2.1488351821899414,2.4731690883636475
1761392252835396400,3.234396240234375,-2.738884687423706,-2.9485859870910645,2.7274138927459717
1761392252845478400,3.244478515625,-2.7277534008026123,-3.576111078262329,2.855799913406372
1761392252855561200,3.254561279296875,-2.7177555561065674,-3.7861430644989014,2.704139232635498
1761392252865643300,3.264643310546875,-2.673715114593506,-3.520735740661621,2.2281317710876465
1761392252875725300,3.274725341796875,-2.556928873062134,-2.921088933944702,1.5987712144851685
1761392252885807400,3.284807373046875,-2.4408884048461914,-2.229173183441162,1.1215170621871948
1761392252895890200,3.29489013671875,-2.3448102474212646,-1.727087140083313,1.0079401731491089
1761392252905972200,3.30497216796875,-2.2117722034454346,-1.6074150800704956,1.191286325454712
1761392252916054300,3.31505419921875,-2.0080254077911377,-1.898067593574524,1.5495562553405762
1761392252926136300,3.32513623046875,-1.8176904916763306,-2.4218103885650635,1.9735748767852783
1761392252936218400,3.33521826171875,-1.757591724395752,-2.9731969833374023,2.321432590484619
1761392252946301200,3.34530126953125,-1.8074467182159424,-3.372222423553467,2.509105682373047
1761392252956383200,3.35538330078125,-1.9102425575256348,-3.5326929092407227,2.5113959312438965
1761392252966465300,3.36546533203125,-2.0338447093963623,-3.4306135177612305,2.3573572635650635
1761392252976547300,3.37554736328125,-2.158665418624878,-3.058806896209717,2.0706307888031006
1761392252986630400,3.38563037109375,-2.259984016418457,-2.5896542072296143,1.753299593925476
1761392252996712400,3.39571240234375,-2.380721092224121,-2.223175287246704,1.4592796564102173
1761392253006794200,3.405794189453125,-2.5035979747772217,-1.9996874332427979,1.2436765432357788
1761392253016876300,3.415876220703125,-2.623364210128784,-1.9168932437896729,1.1070696115493774
1761392253026959400,3.42595947265625,-2.7624893188476562,-2.0794315338134766,1.0281884670257568
1761392253037041400,3.43604150390625,-2.8259615898132324,-2.526792287826538,1.0464987754821777
1761392253047123500,3.44612353515625,-2.6573638916015625,-2.8349266052246094,1.2439953088760376
1761392253057205500,3.45620556640625,-2.334054708480835,-2.7509024143218994,1.5642644166946411
1761392253067287600,3.46628759765625,-1.9687037467956543,-2.391841173171997,1.9473739862442017
1761392253077370400,3.476370361328125,-1.5970710515975952,-2.09354305267334,2.3286514282226562
1761392253087452400,3.486452392578125,-1.2828994989395142,-2.0808444023132324,2.751024007797241
1761392253097534500,3.496534423828125,-1.1138354539871216,-2.3993685245513916,3.094836473464966
1761392253107616500,3.506616455078125,-1.0996652841567993,-2.836205005645752,3.275995969772339
1761392253117699300,3.51669921875,-1.2241665124893188,-3.179537057876587,3.22585129737854
1761392253127781400,3.526781494140625,-1.4113574028015137,-3.2645955085754395,2.884366512298584
1761392253137863400,3.536863525390625,-1.5734297037124634,-3.0137782096862793,2.2945494651794434
1761392253147945500,3.546945556640625,-1.5800268650054932,-2.4232985973358154,1.6513580083847046
1761392253158028300,3.5570283203125,-1.4462785720825195,-1.7969008684158325,1.073917031288147
1761392253168110300,3.5671103515625,-1.3131868839263916,-1.4438972473144531,0.6534872651100159
1761392253178192400,3.5771923828125,-1.2643163204193115,-1.4090337753295898,0.44829362630844116
1761392253188274400,3.5872744140625,-1.305086374282837,-1.7551733255386353,0.4234146475791931
1761392253198356500,3.5973564453125,-1.3977736234664917,-2.3145527839660645,0.5212517380714417
1761392253208439300,3.607439208984375,-1.4179489612579346,-2.717686176300049,0.5781019330024719
1761392253218521300,3.617521240234375,-1.286327838897705,-2.8070883750915527,0.5131887197494507
1761392253228603400,3.627603271484375,-1.0824596881866455,-2.707970142364502,0.36706483364105225
1761392253238685400,3.637685546875,-0.8818501234054565,-2.5171992778778076,0.17627489566802979
1761392253248768300,3.647768310546875,-0.7036577463150024,-2.268658399581909,-0.053576141595840454
1761392253258850300,3.657850341796875,-0.6376249194145203,-2.0388550758361816,-0.33325546979904175
1761392253268932400,3.667932373046875,-0.6845943331718445,-1.8538141250610352,-0.5774649381637573
1761392253279014400,3.678014404296875,-0.7875939607620239,-1.6649038791656494,-0.8095412850379944
1761392253289097200,3.68809716796875,-0.8965438604354858,-1.4628890752792358,-1.0213392972946167
1761392253299179300,3.69817919921875,-0.9602645039558411,-1.300002098083496,-1.1813443899154663
1761392253309261300,3.70826123046875,-0.9592748880386353,-1.1465801000595093,-1.2440783977508545
1761392253319343400,3.71834326171875,-0.926494300365448,-1.051568627357483,-1.1873581409454346
1761392253329426200,3.72842626953125,-0.8876227736473083,-1.2176856994628906,-1.0922452211380005
1761392253339508200,3.73850830078125,-0.8547660708427429,-1.7227147817611694,-1.0443761348724365
1761392253349590300,3.74859033203125,-0.9123255014419556,-2.423771858215332,-1.0732421875
1761392253359672300,3.75867236328125,-1.0214695930480957,-3.0221359729766846,-1.1913158893585205
1761392253369754400,3.76875439453125,-1.1225814819335938,-3.2846591472625732,-1.3652188777923584
1761392253379837200,3.778837158203125,-1.2009189128875732,-3.0897178649902344,-1.5069923400878906
1761392253389919200,3.788919189453125,-1.2303756475448608,-2.3765652179718018,-1.5157825946807861
1761392253400001300,3.799001220703125,-1.1745517253875732,-1.4175671339035034,-1.4470030069351196
1761392253410083300,3.809083251953125,-0.9908890128135681,-0.7024931311607361,-1.3144351243972778
1761392253420166100,3.819166259765625,-0.8283796906471252,-0.6742918491363525,-1.1567658185958862
1761392253430248200,3.829248291015625,-0.7058828473091125,-1.404548168182373,-0.9565837383270264
1761392253440330200,3.839330322265625,-0.5904380083084106,-2.6948137283325195,-0.6346209049224854
1761392253450412300,3.849412353515625,-0.4745350778102875,-3.927557945251465,-0.24485768377780914
1761392253460495400,3.859495361328125,-0.3128732144832611,-4.595335483551025,0.056476857513189316
1761392253470577200,3.8695771484375,-0.08385361731052399,-4.5517449378967285,0.22540809214115143
1761392253480659200,3.8796591796875,0.15770094096660614,-3.9056262969970703,0.3020586669445038
1761392253490741200,3.8897412109375,0.40202173590660095,-3.0513360500335693,0.3068352937698364
1761392253500823300,3.8998232421875,0.6071296334266663,-2.474479913711548,0.2714155316352844
1761392253510906000,3.909906005859375,0.7351675033569336,-2.2448487281799316,0.23417361080646515
1761392253520988200,3.91998828125,0.7438456416130066,-2.383280038833618,0.19831974804401398
1761392253531070200,3.9300703125,0.6425720453262329,-2.7237939834594727,0.20854414999485016
1761392253541152300,3.94015234375,0.5341403484344482,-3.046814441680908,0.18702341616153717
1761392253551235300,3.9502353515625,0.5424031019210815,-3.159181833267212,0.08070709556341171
1761392253561317400,3.9603173828125,0.7237832546234131,-2.9499826431274414,0.005434712860733271
1761392253571399200,3.970399169921875,1.038413643836975,-2.5407521724700928,0.10043951869010925
1761392253581481200,3.980481201171875,1.4624176025390625,-2.1145524978637695,0.5004218220710754
1761392253591564500,3.990564453125,1.8783917427062988,-2.0592148303985596,1.218259572982788
1761392253601646300,4.000646240234375,2.168309211730957,-2.3613367080688477,2.1480698585510254
1761392253611728400,4.010728271484375,2.37216854095459,-2.808673143386841,3.111243724822998
1761392253621810400,4.020810546875,2.5460329055786133,-3.126405954360962,3.8308849334716797
1761392253631893500,4.0308935546875,2.73433256149292,-2.9838523864746094,4.263847827911377
1761392253641975300,4.040975341796875,2.897646903991699,-2.3266029357910156,4.489041328430176
1761392253652057300,4.051057373046875,3.0567891597747803,-1.6195971965789795,4.72939920425415
1761392253662139400,4.061139404296875,3.151764154434204,-1.367766261100769,5.172489643096924
1761392253672221400,4.071221435546875,3.0981929302215576,-1.5715209245681763,5.633504867553711
1761392253682304300,4.08130419921875,2.8364388942718506,-2.1098084449768066,5.815797328948975
1761392253692386300,4.09138623046875,2.4539716243743896,-2.490046739578247,5.469981670379639
1761392253702468400,4.10146826171875,2.1151998043060303,-2.405785083770752,4.743468761444092
1761392253712550400,4.11155029296875,1.892655611038208,-1.9406836032867432,3.979637384414673
1761392253722633500,4.121633544921875,1.8011603355407715,-1.2614920139312744,3.474944591522217
1761392253732715300,4.13171533203125,1.8092365264892578,-0.5914041996002197,3.3240816593170166
1761392253742797300,4.14179736328125,1.7808201313018799,-0.12305109202861786,3.3669447898864746
1761392253752879400,4.15187939453125,1.6765544414520264,0.12521357834339142,3.4694435596466064
1761392253762962400,4.16196240234375,1.6041995286941528,0.18185341358184814,3.5159499645233154
1761392253773044200,4.172044189453125,1.6001430749893188,0.15170696377754211,3.5089211463928223
1761392253783126300,4.182126220703125,1.6370898485183716,0.09633319079875946,3.5363056659698486
1761392253793208300,4.192208251953125,1.6637006998062134,0.10151118040084839,3.5391993522644043
1761392253803293700,4.202293701171875,1.602005958557129,0.2943434715270996,3.385892391204834
1761392253813376800,4.212376708984375,1.4410759210586548,0.5719447135925293,3.131943941116333
1761392253823458600,4.22245849609375,1.1767160892486572,0.8348743915557861,2.914801597595215
1761392253833540600,4.23254052734375,0.9381208419799805,1.0440622568130493,2.7943274974823
1761392253843622700,4.24262255859375,0.8549780249595642,1.1799830198287964,2.821448802947998
1761392253853705700,4.252705810546875,0.9130074977874756,1.1650972366333008,2.99314546585083
1761392253863787800,4.262787841796875,1.041318655014038,0.9655130505561829,3.245403528213501
1761392253873869600,4.27286962890625,1.1871460676193237,0.6258782744407654,3.5440220832824707
1761392253883951600,4.28295166015625,1.27626371383667,0.14164847135543823,3.892561435699463
1761392253894034700,4.29303466796875,1.3007951974868774,-0.35945191979408264,4.294282913208008
1761392253904116700,4.30311669921875,1.2437111139297485,-0.9099608659744263,4.707137107849121
1761392253914198500,4.313198486328125,1.1969079971313477,-1.4539262056350708,5.057171821594238
1761392253924280600,4.323280517578125,1.1860078573226929,-1.8061741590499878,5.256718635559082
1761392253934363600,4.33336376953125,1.0929133892059326,-1.8153637647628784,5.167204856872559
1761392253944445700,4.34344580078125,0.9945657849311829,-1.466688871383667,4.569330215454102
1761392253954527700,4.35352783203125,0.92925626039505,-0.9416247606277466,3.5941741466522217
1761392253964609500,4.363609619140625,0.8659558296203613,-0.44532421231269836,2.8299813270568848
1761392253974692900,4.37369287109375,0.6523064374923706,-0.33461740612983704,2.6726322174072266
1761392253984774700,4.383774658203125,0.31220290064811707,-0.389982134103775,2.96628737449646
1761392253994856700,4.393856689453125,0.11872664839029312,-0.42551642656326294,3.2813384532928467
1761392254004938500,4.4039384765625,0.12158501893281937,-0.41855359077453613,3.4635508060455322
1761392254015020500,4.4140205078125,0.2746097147464752,-0.4864588677883148,3.549853801727295
1761392254025104000,4.424103759765625,0.5024921298027039,-0.766982913017273,3.5245330333709717
1761392254035186000,4.43418603515625,0.6634491086006165,-1.076820969581604,3.4265177249908447
1761392254045267700,4.444267822265625,0.6734449863433838,-1.2700508832931519,3.245476484298706
1761392254055349500,4.454349609375,0.49402916431427,-1.175531268119812,3.0074281692504883
1761392254065432800,4.464432861328125,0.21816694736480713,-0.813673198223114,2.7115659713745117
1761392254075515000,4.474514892578125,0.008452074602246284,-0.15050002932548523,2.4336512088775635
1761392254085596700,4.4845966796875,-0.08801374584436417,0.5228634476661682,2.268357038497925
1761392254095678700,4.4946787109375,-0.1347239911556244,0.931885838508606,2.2789041996002197
1761392254105761800,4.50476171875,-0.11093290895223618,1.0514665842056274,2.454350233078003
1761392254115843800,4.51484375,-0.06253528594970703,0.9178696274757385,2.7090225219726562
1761392254125926000,4.52492578125,-0.0374152809381485,0.6477827429771423,2.9398491382598877
1761392254136007700,4.535007568359375,-0.04373389855027199,0.31247320771217346,3.108700752258301
1761392254146089700,4.54508984375,-0.11035739630460739,-0.10860078036785126,3.204190254211426
1761392254156172800,4.5551728515625,-0.23640641570091248,-0.38868674635887146,3.2281248569488525
1761392254166254800,4.5652548828125,-0.3378691077232361,-0.3607957363128662,3.160118579864502
1761392254176336600,4.575336669921875,-0.36278271675109863,-0.09918969869613647,3.100342035293579
1761392254186418700,4.585418701171875,-0.3373713791370392,0.22614045441150665,3.065383195877075
1761392254196501800,4.595501708984375,-0.2297506332397461,0.4644579589366913,3.068499803543091
1761392254206583800,4.605583740234375,-0.01037647482007742,0.6161835789680481,3.137620210647583
1761392254216665900,4.615665771484375,0.266146183013916,0.6328603029251099,3.290898323059082
1761392254226747600,4.62574755859375,0.5497725605964661,0.5631669759750366,3.5108487606048584
1761392254236830700,4.635830810546875,0.85185706615448,0.4477231800556183,3.69620418548584
1761392254246912800,4.645912841796875,1.108744740486145,0.16467097401618958,3.755570411682129
1761392254256994800,4.655994873046875,1.2074726819992065,-0.23009684681892395,3.657721519470215
1761392254267076600,4.66607666015625,1.2035613059997559,-0.586226761341095,3.4246532917022705
1761392254277159700,4.67615966796875,1.0834623575210571,-0.6851817965507507,3.195274829864502
1761392254287241700,4.68624169921875,0.8295451402664185,-0.4102216064929962,3.0054991245269775
1761392254297323800,4.69632373046875,0.6028313040733337,0.13605770468711853,2.821944236755371
1761392254307405800,4.70640576171875,0.4730018973350525,0.7256922125816345,2.6699206829071045
1761392254317488600,4.716488525390625,0.3237445056438446,1.1039279699325562,2.584502696990967
1761392254327570700,4.72657080078125,0.11422643810510635,1.1799172163009644,2.521806001663208
1761392254337652700,4.73665283203125,-0.05126851424574852,1.0601508617401123,2.422905683517456
1761392254347734800,4.74673486328125,-0.1277257353067398,0.7937660813331604,2.32108473777771
1761392254357816600,4.756816650390625,-0.17310281097888947,0.451334685087204,2.3008034229278564
1761392254367899600,4.766899658203125,-0.295953631401062,0.2842375934123993,2.324805498123169
1761392254377981700,4.776981689453125,-0.4842606782913208,0.4477919042110443,2.3202900886535645
1761392254388063700,4.787063720703125,-0.6889097094535828,0.8547167778015137,2.215069055557251
1761392254398145800,4.797145751953125,-0.8342533111572266,1.3870244026184082,2.012958526611328
1761392254408228600,4.807228515625,-0.954879879951477,1.8280696868896484,1.7832428216934204
1761392254418310700,4.817310546875,-0.991789698600769,2.064771890640259,1.6040635108947754
1761392254428392700,4.827392822265625,-0.906392514705658,1.9552377462387085,1.6215447187423706
1761392254438474800,4.837474853515625,-0.7631959319114685,1.4835125207901,1.9210823774337769
1761392254448557600,4.8475576171875,-0.6015691757202148,0.8577967286109924,2.4194836616516113
1761392254458639600,4.8576396484375,-0.49451813101768494,0.33231881260871887,2.9434027671813965
1761392254468721700,4.8677216796875,-0.6020362973213196,0.09242633730173111,3.2059996128082275
1761392254478803700,4.8778037109375,-0.8736811280250549,0.2826777696609497,2.9810919761657715
1761392254488885800,4.8878857421875,-1.2044529914855957,0.864554226398468,2.306688070297241
1761392254498968600,4.897968505859375,-1.4438364505767822,1.5100985765457153,1.4323444366455078
1761392254509050600,4.908050537109375,-1.544106125831604,1.9099900722503662,0.674556314945221
1761392254519132700,4.918132568359375,-1.549328088760376,1.9480937719345093,0.34844160079956055
1761392254529214700,4.928214599609375,-1.4958113431930542,1.795364499092102,0.4832087457180023
1761392254539297800,4.9382978515625,-1.2955487966537476,1.566222071647644,0.8464710712432861
1761392254549379600,4.948379638671875,-1.0198590755462646,1.3782798051834106,1.2750706672668457
1761392254559461600,4.958461669921875,-0.7892011404037476,1.258382797241211,1.5832226276397705
1761392254569543700,4.968543701171875,-0.6219660639762878,1.1548027992248535,1.6215065717697144
1761392254579626800,4.978626708984375,-0.548882007598877,1.0693182945251465,1.385108232498169
1761392254589708800,4.988708740234375,-0.4757511019706726,1.0534833669662476,1.0009539127349854
1761392254599790800,4.998790771484375,-0.4163900315761566,1.0812921524047852,0.6384883522987366
1761392254609873000,5.008872802734375,-0.39182183146476746,1.1411546468734741,0.4810457229614258
1761392254619955700,5.018955810546875,-0.3791837990283966,1.1979012489318848,0.5669928789138794
1761392254630037800,5.029037841796875,-0.3224875032901764,1.2914237976074219,0.8430917859077454
1761392254640119800,5.039119873046875,-0.2701270878314972,1.469090223312378,1.1916868686676025
1761392254650201900,5.049201904296875,-0.24222302436828613,1.6547961235046387,1.4606711864471436
1761392254660284700,5.05928466796875,-0.19011135399341583,1.8095529079437256,1.6085662841796875
1761392254670366700,5.06936669921875,-0.14003300666809082,1.9091248512268066,1.6505212783813477
1761392254680448800,5.07944873046875,-0.07547904551029205,1.8768569231033325,1.6531007289886475
1761392254690530800,5.08953076171875,-0.0001347559446003288,1.7104458808898926,1.7061272859573364
1761392254700612900,5.09961279296875,-0.0793725848197937,1.4212062358856201,1.875786542892456
1761392254710695700,5.10969580078125,-0.3182021975517273,1.0923346281051636,2.0834436416625977
1761392254720777700,5.11977783203125,-0.7049744129180908,1.0354067087173462,2.1512136459350586
1761392254730859800,5.12985986328125,-1.1255046129226685,1.0946934223175049,1.9871599674224854
1761392254740941800,5.13994189453125,-1.4746646881103516,1.2189443111419678,1.7846451997756958
1761392254751024600,5.150024658203125,-1.9527583122253418,1.528501272201538,1.6453826427459717
1761392254761106700,5.160106689453125,-2.5306334495544434,1.821076512336731,1.3922843933105469
1761392254771188700,5.170188720703125,-3.039315700531006,1.989256739616394,0.8406334519386292
1761392254781270800,5.180270751953125,-3.3981857299804688,1.9477721452713013,0.021563082933425903
1761392254791353600,5.190353515625,-3.7198519706726074,1.783211588859558,-0.7148798108100891
1761392254801432600,5.2004326171875,-4.111043930053711,1.80473792552948,-1.0477399826049805
1761392254811514600,5.2105146484375,-4.512701511383057,2.015782594680786,-0.9389882683753967
1761392254821596700,5.2205966796875,-4.882425785064697,2.2692759037017822,-0.5824460983276367
1761392254831678700,5.2306787109375,-5.202854633331299,2.5124218463897705,-0.16524675488471985
1761392254841761500,5.240761474609375,-5.5124101638793945,2.690091848373413,0.1257246434688568
1761392254851843600,5.250843505859375,-5.861560821533203,2.7834360599517822,0.15575550496578217
1761392254861925600,5.260925537109375,-6.229979515075684,2.780466079711914,-0.0843721404671669
1761392254872007700,5.271007568359375,-6.520115852355957,2.6962080001831055,-0.5484687089920044
1761392254882090800,5.2810908203125,-6.732656478881836,2.462489604949951,-1.1086984872817993
1761392254892172800,5.2911728515625,-6.911844253540039,2.256702184677124,-1.6162950992584229
1761392254902254800,5.3012548828125,-7.092918395996094,2.191549301147461,-2.002638816833496
1761392254912336600,5.311336669921875,-7.217875003814697,2.318467140197754,-2.249354839324951
1761392254922419700,5.321419677734375,-7.186488151550293,2.601978063583374,-2.403198480606079
1761392254932501800,5.331501708984375,-7.081121444702148,2.885699510574341,-2.434706687927246
1761392254942583800,5.341583740234375,-6.957470893859863,2.8043997287750244,-2.30010986328125
1761392254952665900,5.351665771484375,-6.822263240814209,2.2425765991210938,-1.9270700216293335
1761392254962748700,5.361748779296875,-6.689301013946533,1.2875531911849976,-1.346405267715454
1761392254972830700,5.371830810546875,-6.566659450531006,0.16159582138061523,-0.7301561832427979
1761392254982912800,5.381912841796875,-6.4829325675964355,-0.6801987886428833,-0.30022239685058594
1761392254992994800,5.391994873046875,-6.339064121246338,-1.0037003755569458,-0.07331043481826782
1761392255003076900,5.402076904296875,-6.214596271514893,-0.6972752213478088,0.14620061218738556
1761392255013159700,5.41215966796875,-6.227700233459473,-0.06600245088338852,0.48360687494277954
1761392255023241700,5.42224169921875,-6.390101432800293,0.189817875623703,0.8723330497741699
1761392255033323800,5.43232373046875,-6.626224040985107,-0.06033790856599808,1.2807728052139282
1761392255043405800,5.44240576171875,-6.830835342407227,-0.6582159996032715,1.59678316116333
1761392255053488600,5.452488525390625,-7.028400421142578,-1.3565948009490967,1.7765614986419678
1761392255063570700,5.46257080078125,-7.1924896240234375,-2.029794216156006,1.833335280418396
1761392255073652700,5.47265283203125,-7.166796684265137,-2.3943674564361572,1.7980148792266846
1761392255083734800,5.48273486328125,-6.826053619384766,-2.367586851119995,1.7037469148635864
1761392255093817600,5.492817626953125,-6.28237771987915,-2.0588114261627197,1.602772831916809
1761392255103899600,5.502899658203125,-5.84254789352417,-1.6782373189926147,1.449353814125061
1761392255113981700,5.512981689453125,-5.5959553718566895,-1.5776110887527466,1.279693603515625
1761392255124063700,5.523063720703125,-5.398672580718994,-1.875396728515625,1.1941529512405396
1761392255134146800,5.533146728515625,-5.130568027496338,-2.3810715675354004,1.1091700792312622
1761392255144228600,5.543228515625,-4.752195835113525,-3.0475924015045166,0.9269971251487732
1761392255154310700,5.553310546875,-4.315517902374268,-3.77415132522583,0.7309868335723877
1761392255164392700,5.563392822265625,-3.8481717109680176,-4.038148880004883,0.7818045020103455
1761392255174474800,5.573474853515625,-3.2889482975006104,-3.8385353088378906,1.0416712760925293
1761392255184557600,5.5835576171875,-2.8116295337677,-3.5388600826263428,1.2274514436721802
1761392255194639600,5.5936396484375,-2.6166954040527344,-3.3149590492248535,1.1772676706314087
1761392255204721700,5.6037216796875,-2.557037353515625,-3.162255048751831,0.8870262503623962
1761392255214803700,5.6138037109375,-2.554309368133545,-3.107494592666626,0.5426552891731262
1761392255224886500,5.623886474609375,-2.5495803356170654,-3.218229055404663,0.320046991109848
1761392255234968600,5.633968505859375,-2.518416166305542,-3.484585762023926,0.29943305253982544
1761392255245050600,5.644050537109375,-2.4334888458251953,-3.7905898094177246,0.5293967127799988
1761392255255132700,5.654132568359375,-2.246439218521118,-3.932978630065918,0.9603840708732605
1761392255265215700,5.6642158203125,-2.016875982284546,-3.83601975440979,1.4589803218841553
1761392255275297500,5.674297607421875,-1.7816704511642456,-3.3667349815368652,1.7792561054229736
1761392255285379600,5.684379638671875,-1.6070497035980225,-2.725839614868164,1.7025506496429443
1761392255295461600,5.694461669921875,-1.625334620475769,-2.2478528022766113,1.3551695346832275
1761392255305543700,5.704543701171875,-1.841772437095642,-2.2044484615325928,0.9963394403457642
1761392255315626500,5.71462646484375,-1.942269206047058,-2.262984275817871,0.7769748568534851
1761392255325708500,5.72470849609375,-1.819877028465271,-2.0975539684295654,0.7332473397254944
1761392255335790600,5.73479052734375,-1.639511227607727,-1.6363869905471802,0.9285771250724792
1761392255345872600,5.74487255859375,-1.380265235900879,-0.9339050650596619,1.3161767721176147
1761392255355955700,5.754955810546875,-0.942702054977417,-0.2946223020553589,1.7791396379470825
1761392255366037500,5.76503759765625,-0.5071902275085449,-0.02839568816125393,2.284575939178467
1761392255376119600,5.77511962890625,-0.27459588646888733,-0.233958438038826,2.6935558319091797
1761392255386201600,5.78520166015625,-0.31631162762641907,-0.8742896914482117,2.88276743888855
1761392255396285000,5.795284912109375,-0.5944292545318604,-1.6971439123153687,2.709821939468384
1761392255406366500,5.805366455078125,-0.9156177043914795,-2.202677011489868,1.9674595594406128
1761392255416448500,5.815448486328125,-1.0383065938949585,-2.1527328491210938,0.8463429808616638
1761392255426530600,5.825530517578125,-0.9765923619270325,-1.687187671661377,-0.23262152075767517
1761392255436612600,5.835612548828125,-0.7745601534843445,-0.925757110118866,-0.9091909527778625
1761392255446695700,5.84569580078125,-0.4863227605819702,-0.30825451016426086,-1.0708826780319214
1761392255456777700,5.85577783203125,-0.2795645296573639,-0.25604963302612305,-0.7165272235870361
1761392255466859800,5.86585986328125,-0.22966036200523376,-0.750166118144989,-0.06028011813759804
1761392255476941600,5.875941650390625,-0.24464410543441772,-1.4387367963790894,0.5364322662353516
1761392255487025000,5.88602490234375,-0.27899035811424255,-2.053314208984375,0.872547447681427
1761392255497106700,5.896106689453125,-0.2985944151878357,-2.3209784030914307,1.004744052886963
1761392255507188700,5.906188720703125,-0.2401484251022339,-2.216745138168335,0.9734556674957275
1761392255517270800,5.916270751953125,-0.17520910501480103,-1.8438187837600708,0.7973344326019287
1761392255527353900,5.926353759765625,-0.21938161551952362,-1.3199758529663086,0.487304151058197
1761392255537435600,5.936435546875,-0.3097890019416809,-0.9543291330337524,0.14463680982589722
1761392255547517700,5.946517578125,-0.40292268991470337,-0.80500328540802,-0.15381939709186554
1761392255557599700,5.956599853515625,-0.4373280704021454,-0.8788806796073914,-0.38225096464157104
1761392255567681800,5.966681884765625,-0.2868325710296631,-1.2471295595169067,-0.4173138737678528
1761392255577764900,5.976764892578125,-0.025949308648705482,-1.8106355667114258,-0.1264716535806656
1761392255587846700,5.9868466796875,0.2588382065296173,-2.3705978393554688,0.5471043586730957
1761392255597928700,5.9969287109375,0.5236262083053589,-2.797966241836548,1.4572407007217407
1761392255608010800,6.0070107421875,0.5721218585968018,-2.957479238510132,2.2465243339538574
1761392255618093800,6.01709375,0.37683969736099243,-2.7292633056640625,2.652156114578247
1761392255628175600,6.027175537109375,0.1145300418138504,-2.2892985343933105,2.5234689712524414
1761392255638257700,6.037257568359375,-0.08169486373662949,-1.7161540985107422,1.8993116617202759
1761392255648339700,6.047339599609375,-0.1318054348230362,-1.3024343252182007,0.9770509600639343
1761392255658422800,6.0574228515625,-0.05669790133833885,-1.238306999206543,0.13910675048828125
1761392255668504800,6.0675048828125,0.06094963848590851,-1.5196404457092285,-0.37829190492630005
1761392255678586600,6.077586669921875,0.12070617824792862,-1.7993786334991455,-0.5151925086975098
1761392255688668700,6.087668701171875,0.16500866413116455,-1.8354088068008423,-0.40565750002861023
1761392255698750700,6.097750732421875,0.2496417909860611,-1.568761944770813,-0.15441887080669403
1761392255708833800,6.107833740234375,0.44383710622787476,-1.1865383386611938,0.17391586303710938
1761392255718915600,6.11791552734375,0.7368381023406982,-0.9398114085197449,0.4935913383960724
1761392255728997600,6.12799755859375,1.070313811302185,-0.9429417252540588,0.7862011194229126
1761392255739079700,6.13807958984375,1.375152826309204,-1.1657133102416992,0.9373512268066406
1761392255749162800,6.148162841796875,1.5476713180541992,-1.4917899370193481,0.900339663028717
1761392255759244800,6.158244873046875,1.5794798135757446,-1.766765832901001,0.7761300802230835
1761392255769326600,6.16832666015625,1.5648857355117798,-1.9619539976119995,0.5845627784729004
1761392255779408600,6.17840869140625,1.5441420078277588,-1.9298043251037598,0.37785062193870544
1761392255789491700,6.18849169921875,1.5458486080169678,-1.5533899068832397,0.12571105360984802
1761392255799574000,6.198573974609375,1.6100480556488037,-0.9496361017227173,-0.22171348333358765
1761392255809656000,6.208656005859375,1.725003957748413,-0.3321947157382965,-0.6017385721206665
1761392255819738000,6.218738037109375,1.901262879371643,0.011500595137476921,-0.8454766869544983
1761392255829820200,6.228820068359375,2.152168035507202,-0.07405532151460648,-0.8388347625732422
1761392255839903200,6.2389033203125,2.4000184535980225,-0.37018683552742004,-0.5498524904251099
1761392255849985300,6.2489853515625,2.6202292442321777,-0.6576665639877319,0.029146166518330574
1761392255860067000,6.259067138671875,2.7630252838134766,-0.6503809690475464,0.7888043522834778
1761392255870149000,6.269149169921875,2.869826316833496,-0.19733171164989471,1.4932628870010376
1761392255880232400,6.279232421875,2.957148551940918,0.343881219625473,1.7865475416183472
1761392255890314200,6.289314208984375,3.143434762954712,0.850579023361206,1.719093680381775
1761392255900396300,6.299396240234375,3.519739866256714,1.0306918621063232,1.6407966613769531
1761392255910478300,6.309478271484375,3.8912737369537354,0.7960460186004639,1.7439299821853638
1761392255920560400,6.319560302734375,3.8800251483917236,0.46736347675323486,1.9349631071090698
1761392255930643200,6.329643310546875,3.330178737640381,0.1461055427789688,2.0019497871398926
1761392255940725200,6.339725341796875,2.5764412879943848,0.22486506402492523,1.8568882942199707
1761392255950807300,6.349807373046875,2.0143465995788574,0.6612972617149353,1.4556771516799927
1761392255960889300,6.359889404296875,1.6993342638015747,1.1291168928146362,0.8387979865074158
1761392255970972400,6.369972412109375,1.5889055728912354,1.4517700672149658,0.17172887921333313
1761392255981054200,6.38005419921875,1.6779789924621582,1.5044606924057007,-0.40846580266952515
1761392255991136300,6.39013623046875,1.9095261096954346,1.3214330673217773,-0.750537633895874
1761392256001218300,6.40021826171875,2.133793830871582,0.9010789394378662,-0.8503845930099487
1761392256011301400,6.41030126953125,2.1778082847595215,0.7281697392463684,-0.6418548226356506
1761392256021383200,6.420383056640625,2.0566956996917725,1.0355366468429565,-0.319344162940979
1761392256031465200,6.43046533203125,1.8314542770385742,1.3512623310089111,-0.1686960756778717
1761392256041547300,6.44054736328125,1.6964373588562012,1.777222990989685,-0.10227523744106293
1761392256051629300,6.45062939453125,1.6627222299575806,2.136685848236084,-0.12633396685123444
1761392256061712400,6.46071240234375,1.6324999332427979,2.223877429962158,-0.16426776349544525
1761392256071794200,6.470794189453125,1.5196495056152344,1.9329931735992432,-0.20717476308345795
1761392256081876200,6.480876220703125,1.2984052896499634,1.3712738752365112,-0.23803919553756714
1761392256091958300,6.490958251953125,1.0409330129623413,0.9075682759284973,-0.2625117897987366
1761392256102041300,6.501041259765625,0.8548166751861572,0.5649678111076355,-0.30044877529144287
1761392256112123100,6.511123046875,0.7168140411376953,0.36052170395851135,-0.34506818652153015
1761392256122205200,6.521205078125,0.6364520788192749,0.20869648456573486,-0.41481611132621765
1761392256132287200,6.531287353515625,0.6198294162750244,-0.11027804017066956,-0.53214430809021
1761392256142369300,6.541369384765625,0.708698034286499,-0.2777232229709625,-0.7568530440330505
1761392256152452400,6.551452392578125,0.9855797290802002,-0.19122375547885895,-1.172780990600586
1761392256162534100,6.5615341796875,1.350607991218567,0.10824231803417206,-1.6817134618759155
1761392256172616200,6.5716162109375,1.669724702835083,0.6682574152946472,-1.9624115228652954
1761392256182698200,6.5816982421875,1.7559027671813965,1.4399738311767578,-1.8555678129196167
1761392256192781300,6.59178125,1.5523630380630493,1.9734086990356445,-1.486653447151184
1761392256202863000,6.601863037109375,1.1778324842453003,2.3887667655944824,-1.0800799131393433
1761392256212945200,6.611945068359375,0.8198632001876831,2.369797468185425,-0.8451789617538452
1761392256223027200,6.622027099609375,0.6436823010444641,1.846276044845581,-0.7362857460975647
1761392256233110300,6.6321103515625,0.6536904573440552,1.04725182056427,-0.5979720950126648
1761392256243192300,6.6421923828125,0.7402392029762268,-0.024358602240681648,-0.45450812578201294
1761392256253274000,6.652274169921875,0.824663519859314,-1.1719386577606201,-0.26367026567459106
1761392256263356200,6.662356201171875,0.8519135117530823,-1.831094741821289,-0.04327050969004631
1761392256273438200,6.672438232421875,0.8773863911628723,-1.6610788106918335,0.04514404386281967
1761392256283521300,6.682521240234375,0.8386533856391907,-1.3729116916656494,-0.2030348777770996
1761392256293603000,6.69260302734375,0.7869436144828796,-0.5951650738716125,-0.47646987438201904
1761392256303685000,6.70268505859375,0.738959014415741,0.12640000879764557,-0.6341604590415955
1761392256313767200,6.71276708984375,0.6910839080810547,0.9403725862503052,-0.6238846182823181
1761392256323850200,6.722850341796875,0.6967812180519104,1.44310462474823,-0.4854167699813843
1761392256333932300,6.732932373046875,0.7467418313026428,1.5325062274932861,-0.24830621480941772
1761392256344014000,6.74301416015625,0.8549961447715759,1.1796000003814697,0.003769438248127699
1761392256354096000,6.75309619140625,1.006225347518921,0.7751386165618896,0.3235418498516083
1761392256364178200,6.76317822265625,1.1012314558029175,0.41484007239341736,0.8104673027992249
1761392256374261200,6.77326123046875,1.148099660873413,0.07580581307411194,1.3573803901672363
1761392256384343000,6.783343017578125,1.1980429887771606,-0.06657689809799194,1.896182894706726
1761392256394425000,6.793425048828125,1.284329891204834,-0.02647927775979042,2.3738925457000732
1761392256404507100,6.803507080078125,1.419335126876831,0.1628246009349823,2.6503374576568604
1761392256414590500,6.813590576171875,1.6196956634521484,0.44841721653938293,2.639587879180908
1761392256424672000,6.823672119140625,1.7663205862045288,0.8814192414283752,2.4761171340942383
1761392256434754000,6.833754150390625,1.7909857034683228,1.4909006357192993,2.202824115753174
1761392256444836000,6.843836181640625,1.714247703552246,2.0348517894744873,1.8600544929504395
1761392256454919400,6.85391943359375,1.6042003631591797,2.2850704193115234,1.5391066074371338
1761392256465001500,6.86400146484375,1.4847503900527954,2.2408297061920166,1.2904133796691895
1761392256475083300,6.874083251953125,1.3899946212768555,2.1617603302001953,1.143403172492981
1761392256485165300,6.884165283203125,1.3446636199951172,2.2742769718170166,1.0782159566879272
1761392256495247400,6.894247314453125,1.378678560256958,2.492633819580078,1.028706431388855
1761392256505330400,6.904330322265625,1.4857476949691772,2.5772266387939453,0.9002357721328735
1761392256515412200,6.914412109375,1.6061230897903442,2.480588436126709,0.7155274748802185
1761392256525494300,6.924494384765625,1.6993907690048218,2.2509098052978516,0.5090224742889404
1761392256535576300,6.934576416015625,1.703112244606018,2.10518479347229,0.3384656608104706
1761392256545659400,6.944659423828125,1.6390509605407715,1.8748142719268799,0.19724462926387787
1761392256555741200,6.9547412109375,1.582877516746521,1.5914770364761353,0.1977250576019287
1761392256565823200,6.9648232421875,1.559349536895752,1.5043299198150635,0.38736236095428467
1761392256575905300,6.9749052734375,1.5056465864181519,1.6797789335250854,0.6755874752998352
1761392256585987300,6.9849873046875,1.3970636129379272,1.8598464727401733,0.8774468302726746
1761392256596070400,6.9950703125,1.2975711822509766,1.8450614213943481,0.933520495891571
1761392256606152200,7.005152099609375,1.2082420587539673,1.863447666168213,0.9091054797172546
1761392256616234200,7.015234130859375,1.1455951929092407,1.8413766622543335,0.752776563167572
1761392256626316300,7.02531640625,1.1040197610855103,1.7387669086456299,0.5052333474159241
1761392256636399400,7.0353994140625,1.0882115364074707,1.6004034280776978,0.25622671842575073
1761392256646481200,7.045481201171875,1.0927908420562744,1.5058513879776,0.021464811637997627
1761392256656563200,7.055563232421875,1.1145927906036377,1.5401015281677246,-0.19424563646316528
1761392256666645200,7.065645263671875,1.1102864742279053,1.8024157285690308,-0.3375793695449829
1761392256676727300,7.075727294921875,1.054104208946228,2.223198890686035,-0.3978927731513977
1761392256686810400,7.085810302734375,0.925442099571228,2.5985569953918457,-0.4163056015968323
1761392256696892200,7.09589208984375,0.6488070487976074,2.67683744430542,0.015542740933597088
1761392256706974200,7.10597412109375,0.47299259901046753,1.3342759609222412,0.26761412620544434
1761392256717056300,7.11605615234375,0.6316083073616028,0.5619592070579529,0.42872339487075806
1761392256727139300,7.126139404296875,0.8062163591384888,0.28190067410469055,0.502184271812439
1761392256737221000,7.13622119140625,0.889818549156189,0.16349013149738312,0.39458778500556946
1761392256747303200,7.14630322265625,0.9160605669021606,0.30279475450515747,0.1708867847919464
1761392256757385200,7.15638525390625,0.9884889721870422,0.4095824658870697,-0.039269376546144485
1761392256767467300,7.16646728515625,1.0401345491409302,0.344745934009552,-0.074399933218956
1761392256777550300,7.17655029296875,0.9468832015991211,0.4323863089084625,0.19074678421020508
