time,seconds_elapsed,z,y,x
1761392249750248700,0.149248779296875,-1.4947293996810913,-1.0713924169540405,-1.656528353691101
1761392249760330800,0.159330810546875,-1.389399528503418,-1.4752038717269897,-2.152010202407837
1761392249770412800,0.169412841796875,-1.3141894340515137,-1.484866976737976,-2.406552791595459
1761392249780495600,0.17949560546875,-1.1841981410980225,-0.9148969650268555,-2.2754650115966797
1761392249790577700,0.18957763671875,-1.0620479583740234,0.05718141421675682,-1.9405814409255981
1761392249800662800,0.199662841796875,-0.9471514821052551,0.9295626878738403,-1.42661452293396
1761392249810744800,0.209744873046875,-0.9147542119026184,1.291640043258667,-0.8572162389755249
1761392249820827000,0.219826904296875,-0.9991966485977173,1.4060875177383423,-0.36603909730911255
1761392249830908700,0.22990869140625,-1.0690277814865112,1.6660807132720947,0.028095658868551254
1761392249840990700,0.23999072265625,-1.1547256708145142,1.749100685119629,0.35719364881515503
1761392249851073800,0.25007373046875,-1.3562188148498535,1.3445358276367188,0.6505180597305298
1761392249861155800,0.26015576171875,-1.4600502252578735,0.99139404296875,0.9055641889572144
1761392249871237600,0.270237548828125,-1.4203020334243774,0.7459718585014343,1.1625194549560547
1761392249881319700,0.280319580078125,-1.3516290187835693,0.5079020261764526,1.423948049545288
1761392249891401700,0.290401611328125,-1.3373011350631714,0.27966371178627014,1.5413540601730347
1761392249901483800,0.30048388671875,-1.3604296445846558,0.2435847818851471,1.5098477602005005
1761392249911565800,0.31056591796875,-1.3917794227600098,0.44991955161094666,1.4011571407318115
1761392249921648600,0.320648681640625,-1.456064224243164,0.6624425053596497,1.1755298376083374
1761392249931730700,0.330730712890625,-1.5364381074905396,0.8528791069984436,0.7875136137008667
1761392249941812700,0.340812744140625,-1.578268051147461,1.1902925968170166,0.2016160488128662
1761392249951894800,0.350894775390625,-1.584619164466858,1.5780125856399536,-0.48375385999679565
1761392249961976800,0.360976806640625,-1.6299448013305664,2.0272903442382812,-0.9712069034576416
1761392249972059000,0.371058837890625,-1.67481529712677,2.2935431003570557,-1.1699055433273315
1761392249982140700,0.381140625,-1.6859534978866577,2.178927183151245,-1.1896952390670776
1761392249992223700,0.3912236328125,-1.7662585973739624,1.785781979560852,-1.1354888677597046
1761392250002305800,0.401305908203125,-1.933406114578247,1.3970947265625,-0.9876126050949097
1761392250012387800,0.411387939453125,-2.0846428871154785,1.0912456512451172,-0.7879565358161926
1761392250022469600,0.4214697265625,-2.1461784839630127,0.712677538394928,-0.5899763107299805
1761392250032551700,0.4315517578125,-2.109468460083008,0.3149653375148773,-0.39099085330963135
1761392250042633700,0.4416337890625,-2.009331703186035,-0.03361900895833969,-0.17181189358234406
1761392250052715800,0.4517158203125,-1.9408098459243774,-0.32950320839881897,0.08910614252090454
1761392250062798800,0.461798828125,-1.9040422439575195,-0.4588170051574707,0.37844499945640564
1761392250072880600,0.471880615234375,-1.794339895248413,-0.5399889945983887,0.569551944732666
1761392250082962700,0.481962646484375,-1.6824157238006592,-0.4441050887107849,0.5595770478248596
1761392250093044700,0.492044677734375,-1.722036361694336,-0.6166741847991943,0.3934727907180786
1761392250103126800,0.502126708984375,-1.7557964324951172,-0.5546278357505798,0.33591094613075256
1761392250113208800,0.512208740234375,-1.728205919265747,-0.5162877440452576,0.37549951672554016
1761392250123291000,0.522290771484375,-1.663665533065796,-0.5491093397140503,0.42244037985801697
1761392250133373700,0.532373779296875,-1.6204419136047363,-0.5717872381210327,0.4466884136199951
1761392250143455700,0.542455810546875,-1.5897849798202515,-0.6420656442642212,0.4474618136882782
1761392250153537800,0.552537841796875,-1.5214985609054565,-0.7588387727737427,0.4776230454444885
1761392250163619800,0.562619873046875,-1.3806203603744507,-1.0099087953567505,0.6057450771331787
1761392250173702000,0.572701904296875,-1.214847445487976,-1.359871745109558,0.808461606502533
1761392250183783700,0.58278369140625,-1.0218998193740845,-1.6388306617736816,0.9902665615081787
1761392250193865700,0.59286572265625,-0.822377622127533,-1.7984895706176758,1.0744792222976685
1761392250203948800,0.60294873046875,-0.6534109711647034,-1.7956541776657104,1.0231428146362305
1761392250214030800,0.61303076171875,-0.614231526851654,-1.659433364868164,0.8573924899101257
1761392250224112600,0.623112548828125,-0.7605796456336975,-1.5461629629135132,0.6470222473144531
1761392250234194700,0.633194580078125,-1.0273841619491577,-1.3815646171569824,0.4492473006248474
1761392250244276700,0.64327685546875,-1.2548245191574097,-0.9879969954490662,0.20538723468780518
1761392250254358800,0.65335888671875,-1.4189523458480835,-0.7270593643188477,0.09705519676208496
1761392250264440800,0.66344091796875,-1.483061671257019,-0.552864670753479,-0.0026303897611796856
1761392250274523600,0.673523681640625,-1.4465190172195435,-0.43226802349090576,-0.16779972612857819
1761392250284605700,0.683605712890625,-1.3244762420654297,-0.3740023076534271,-0.36368241906166077
1761392250294687700,0.693687744140625,-1.1460211277008057,-0.30957645177841187,-0.4785569906234741
1761392250304769800,0.703769775390625,-1.034006953239441,-0.18593654036521912,-0.5156915783882141
1761392250314851800,0.713851806640625,-1.0345633029937744,-0.09164539724588394,-0.5417098999023438
1761392250324934000,0.723933837890625,-1.076136589050293,-0.012139389291405678,-0.5725498199462891
1761392250335016700,0.7340166015625,-1.1663957834243774,0.02931930124759674,-0.5708755254745483
1761392250345098800,0.7440986328125,-1.306365966796875,-0.07999227941036224,-0.4371179938316345
1761392250355180800,0.754180908203125,-1.427924633026123,-0.1857370287179947,-0.18099893629550934
1761392250365262800,0.764262939453125,-1.4484208822250366,-0.2204180359840393,0.12099607288837433
1761392250375344600,0.7743447265625,-1.3634495735168457,-0.17517466843128204,0.3337227404117584
1761392250385426700,0.7844267578125,-1.278022289276123,-0.13068389892578125,0.4197372496128082
1761392250395508700,0.7945087890625,-1.2583420276641846,-0.241311714053154,0.4440728425979614
1761392250405591800,0.804591796875,-1.2794179916381836,-0.48392462730407715,0.4665834605693817
1761392250415673900,0.814673828125,-1.2832529544830322,-0.8130472898483276,0.49757570028305054
1761392250425755600,0.824755615234375,-1.2827064990997314,-1.289262056350708,0.5660442113876343
1761392250435837700,0.834837646484375,-1.227462649345398,-1.746452808380127,0.6965115070343018
1761392250445919700,0.844919677734375,-1.1409107446670532,-2.1714847087860107,0.8107786774635315
1761392250456001800,0.855001708984375,-1.1209577322006226,-2.492302894592285,0.8539049625396729
1761392250466084600,0.865084716796875,-1.106573462486267,-2.7015633583068848,0.7931928634643555
1761392250476166700,0.875166748046875,-0.998215913772583,-2.8838751316070557,0.6442739963531494
1761392250486248700,0.885248779296875,-0.8051921129226685,-2.8251659870147705,0.5624337196350098
1761392250496330800,0.895330810546875,-0.6217836737632751,-2.535285472869873,0.6088725924491882
1761392250506412800,0.905412841796875,-0.4819605052471161,-2.2931294441223145,0.7774669528007507
1761392250516494800,0.915494873046875,-0.35873696208000183,-2.246288776397705,0.9010389447212219
1761392250526576600,0.92557666015625,-0.31396496295928955,-2.2629332542419434,0.9147521257400513
1761392250536659700,0.93565966796875,-0.2832624912261963,-2.2518293857574463,0.8471223711967468
1761392250546741800,0.94574169921875,-0.17194131016731262,-2.1974024772644043,0.757688045501709
1761392250556823800,0.95582373046875,-0.05474792793393135,-2.0730648040771484,0.7390540242195129
1761392250566905900,0.96590576171875,0.0862821638584137,-1.9171805381774902,0.8167656064033508
1761392250576987600,0.975987548828125,0.294643759727478,-1.7895915508270264,0.9450631737709045
1761392250587069700,0.986069580078125,0.4857082664966583,-1.736954689025879,1.0796425342559814
1761392250597152800,0.99615283203125,0.681272029876709,-1.8281135559082031,1.2497614622116089
1761392250607234800,1.00623486328125,0.9168632626533508,-1.947652816772461,1.4693174362182617
1761392250617316600,1.016316650390625,1.1971356868743896,-2.1385915279388428,1.7325547933578491
1761392250627398700,1.026398681640625,1.3890496492385864,-2.360435962677002,2.0164620876312256
1761392250637480700,1.036480712890625,1.5001384019851685,-2.5140721797943115,2.2326138019561768
1761392250647562800,1.046562744140625,1.6568433046340942,-2.4858100414276123,2.293161392211914
1761392250657644800,1.056644775390625,1.8500703573226929,-2.265921115875244,2.2349112033843994
1761392250667727600,1.0667275390625,2.044851779937744,-1.9945985078811646,2.151991128921509
1761392250677809700,1.0768095703125,2.1375892162323,-1.8677667379379272,2.1378438472747803
1761392250687891700,1.0868916015625,2.0524373054504395,-1.8543232679367065,2.24231219291687
1761392250697973800,1.096973876953125,1.8862359523773193,-1.7797355651855469,2.3972930908203125
1761392250708055800,1.107055908203125,1.7879406213760376,-1.613017201423645,2.6007792949676514
1761392250718137900,1.117137939453125,1.8254894018173218,-1.287182092666626,2.939472198486328
1761392250728220700,1.127220703125,2.0160088539123535,-1.0101408958435059,3.3190767765045166
1761392250738302700,1.137302734375,2.2963757514953613,-0.9588629007339478,3.5485827922821045
1761392250748384800,1.147384765625,2.5038061141967773,-1.0652748346328735,3.560762405395508
1761392250758466800,1.157466796875,2.609231472015381,-1.1993130445480347,3.4687986373901367
1761392250768548600,1.167548583984375,2.548248291015625,-1.409245252609253,3.3944501876831055
1761392250778630700,1.177630615234375,2.39587664604187,-1.709794044494629,3.4756364822387695
1761392250788713700,1.187713623046875,2.360347032546997,-1.8780956268310547,3.711557388305664
1761392250798796300,1.19779638671875,2.4269371032714844,-1.8707340955734253,3.979369878768921
1761392250808878000,1.207878173828125,2.482893943786621,-1.595963716506958,4.146671295166016
1761392250818960100,1.217960205078125,2.473782539367676,-1.1252951622009277,4.124467372894287
1761392250829042200,1.228042236328125,2.339852809906006,-0.6646556854248047,4.001955032348633
1761392250839124200,1.238124267578125,2.0954995155334473,-0.2502649426460266,3.897736072540283
1761392250849207000,1.24820703125,1.7989814281463623,0.15158075094223022,3.7951712608337402
1761392250859289000,1.2582890625,1.521655797958374,0.5784592032432556,3.642399787902832
1761392250869371100,1.26837109375,1.3442060947418213,0.9408512115478516,3.40704083442688
1761392250879453200,1.278453125,1.2713415622711182,1.2006622552871704,3.1743431091308594
1761392250889535200,1.28853515625,1.282112717628479,1.3049399852752686,3.0346264839172363
1761392250899617300,1.2986171875,1.3248934745788574,1.2480731010437012,3.017394781112671
1761392250909700000,1.3087001953125,1.329949975013733,1.0622726678848267,3.11352276802063
1761392250919782100,1.3187822265625,1.3117586374282837,0.8523054718971252,3.2881269454956055
1761392250929864200,1.3288642578125,1.2775237560272217,0.6617059111595154,3.3819074630737305
1761392250939946200,1.3389462890625,1.1778252124786377,0.5299413800239563,3.302462339401245
1761392250950028300,1.3490283203125,1.039405107498169,0.5616127848625183,3.047750949859619
1761392250960110000,1.359110107421875,0.9414655566215515,0.6933538913726807,2.689087152481079
1761392250970193200,1.369193115234375,0.888306736946106,0.840601921081543,2.359581708908081
1761392250980275200,1.379275146484375,0.8890150785446167,0.9322089552879333,2.159337043762207
1761392250990357200,1.389357177734375,0.9057496190071106,0.8420625925064087,2.1161389350891113
1761392251000439000,1.39943896484375,0.9334441423416138,0.5476912260055542,2.1867027282714844
1761392251010521000,1.40952099609375,0.9628528952598572,0.15087008476257324,2.309215545654297
1761392251020603100,1.41960302734375,1.01719069480896,-0.22333620488643646,2.4066991806030273
1761392251030686200,1.429686279296875,1.0896464586257935,-0.5435847640037537,2.4881534576416016
1761392251040768300,1.439768310546875,1.1245414018630981,-0.7069845795631409,2.6073670387268066
1761392251050850000,1.44985009765625,1.1116442680358887,-0.6878188848495483,2.78916597366333
1761392251060932000,1.45993212890625,1.0505163669586182,-0.44232022762298584,3.0113210678100586
1761392251071014100,1.47001416015625,0.8940021991729736,-0.04565170034766197,3.152966260910034
1761392251081097200,1.48009716796875,0.625853955745697,0.3295471668243408,3.1081790924072266
1761392251091179000,1.490178955078125,0.3252943754196167,0.6650217771530151,2.7990355491638184
1761392251101261000,1.500260986328125,0.16074079275131226,0.9512529969215393,2.3111398220062256
1761392251111343000,1.510343017578125,0.1167573481798172,1.1927742958068848,1.8431285619735718
1761392251121425200,1.520425048828125,0.16365377604961395,1.3812835216522217,1.5336239337921143
1761392251131507200,1.530507080078125,0.3031812906265259,1.4392483234405518,1.4371575117111206
1761392251141590000,1.540590087890625,0.43308189511299133,1.3584321737289429,1.554038166999817
1761392251151672000,1.550672119140625,0.5361449122428894,1.2478097677230835,1.8124606609344482
1761392251161754000,1.560754150390625,0.6013635396957397,1.1853327751159668,2.074554920196533
1761392251171836200,1.570836181640625,0.627204954624176,1.2108160257339478,2.209360122680664
1761392251181918200,1.580918212890625,0.6557334065437317,1.3532522916793823,2.1926679611206055
1761392251192000300,1.591000244140625,0.6761944890022278,1.4858126640319824,2.0719757080078125
1761392251202083000,1.6010830078125,0.6811975836753845,1.471157431602478,1.8893848657608032
1761392251212165000,1.6111650390625,0.6980463266372681,1.3460553884506226,1.7157217264175415
1761392251222247200,1.6212470703125,0.7043293714523315,1.2198984622955322,1.6439932584762573
1761392251232329200,1.6313291015625,0.6871777772903442,1.1237537860870361,1.7353965044021606
1761392251242411300,1.641411376953125,0.6313514709472656,1.057814121246338,1.9289748668670654
1761392251252494000,1.651494140625,0.513857364654541,1.150657057762146,2.16843581199646
1761392251262576000,1.661576171875,0.40935590863227844,1.3402034044265747,2.4016730785369873
1761392251272658200,1.671658203125,0.38037753105163574,1.5864650011062622,2.643038511276245
1761392251282740200,1.681740234375,0.4282619059085846,1.7165144681930542,2.8744189739227295
1761392251292822000,1.691822021484375,0.5102553367614746,1.723701000213623,3.0626437664031982
1761392251302904000,1.701904052734375,0.548679530620575,1.6822094917297363,3.1733646392822266
1761392251312987100,1.711987060546875,0.4882694482803345,1.6900995969772339,3.2093505859375
1761392251323069200,1.722069091796875,0.36812087893486023,1.7402021884918213,3.220618724822998
1761392251333151000,1.73215087890625,0.2847655117511749,1.8376258611679077,3.339116096496582
1761392251343233000,1.74223291015625,0.24770013988018036,2.094223737716675,3.6265199184417725
1761392251353315000,1.752315185546875,0.23887841403484344,2.551254987716675,3.9390594959259033
1761392251363398400,1.7623984375,0.22902502119541168,3.0913596153259277,4.045080184936523
1761392251373480200,1.772480224609375,0.1476081907749176,3.5214898586273193,3.8406691551208496
1761392251383562000,1.78256201171875,-0.001967489719390869,3.8273024559020996,3.416138172149658
1761392251393644000,1.79264404296875,-0.1371988207101822,3.7496743202209473,2.945358991622925
1761392251403726000,1.80272607421875,-0.11101078987121582,3.3010940551757812,2.697146415710449
1761392251413808000,1.81280810546875,0.08386681973934174,2.7331979274749756,2.700923442840576
1761392251423891200,1.82289111328125,0.2642018496990204,2.296830177307129,2.840745210647583
1761392251433973200,1.83297314453125,0.24231384694576263,2.1632702350616455,2.926434278488159
1761392251444055300,1.84305517578125,0.010234500281512737,2.4844155311584473,2.7712137699127197
1761392251454137000,1.85313720703125,-0.28489914536476135,3.214097261428833,2.4224038124084473
1761392251464219100,1.86321923828125,-0.5221970677375793,4.09376335144043,2.001466751098633
1761392251474302200,1.87330224609375,-0.644076406955719,4.822536468505859,1.649729609489441
1761392251484384300,1.88338427734375,-0.6339839696884155,5.23391056060791,1.4245370626449585
1761392251494466300,1.89346630859375,-0.5016129016876221,5.232245445251465,1.2951207160949707
1761392251504548400,1.90354833984375,-0.29702675342559814,4.733056545257568,1.2279918193817139
1761392251514630400,1.91363037109375,0.025230398401618004,3.9023854732513428,1.37480628490448
1761392251524713200,1.923713134765625,0.43923595547676086,3.047159433364868,1.7420127391815186
1761392251534795300,1.933795166015625,0.8337012529373169,2.364490509033203,2.1670048236846924
1761392251544877300,1.943877197265625,1.0786722898483276,1.9643069505691528,2.438753843307495
1761392251554959400,1.95395947265625,1.1496460437774658,1.8284924030303955,2.5246691703796387
1761392251565041400,1.96404150390625,1.1138328313827515,1.8935998678207397,2.4787380695343018
1761392251575124200,1.974124267578125,1.1220753192901611,2.015937328338623,2.3916313648223877
1761392251585206300,1.984206298828125,1.2038344144821167,2.0737764835357666,2.364060401916504
1761392251595288300,1.994288330078125,1.3287723064422607,1.9411430358886719,2.4448397159576416
1761392251605370400,2.004370361328125,1.4089086055755615,1.6196774244308472,2.6177961826324463
1761392251615452400,2.014452392578125,1.3159523010253906,1.3653674125671387,2.8267009258270264
1761392251625534200,2.0245341796875,1.1067293882369995,1.4994263648986816,2.9270472526550293
1761392251635617300,2.0346171875,0.9531947374343872,1.9336286783218384,2.65505051612854
1761392251645699300,2.04469921875,0.965768575668335,2.345391273498535,2.0549869537353516
1761392251655781400,2.054781494140625,1.1555196046829224,2.5013844966888428,1.4656754732131958
1761392251665863200,2.06486328125,1.4256806373596191,2.305299997329712,1.211501121520996
1761392251675945200,2.0749453125,1.7151066064834595,1.8583091497421265,1.408631443977356
1761392251686028300,2.0850283203125,1.9728351831436157,1.42051362991333,1.888603687286377
1761392251696110300,2.0951103515625,2.1524393558502197,1.176043152809143,2.3283703327178955
1761392251706192100,2.105192138671875,2.2604689598083496,1.148095726966858,2.5430173873901367
1761392251716274200,2.115274169921875,2.285562515258789,1.2715109586715698,2.5242066383361816
1761392251726356200,2.125356201171875,2.211944103240967,1.4345818758010864,2.345752239227295
1761392251736439300,2.135439208984375,2.0505003929138184,1.461710810661316,2.118889808654785
1761392251746521300,2.145521240234375,1.8373264074325562,1.3827649354934692,1.9595080614089966
1761392251756603100,2.15560302734375,1.6830244064331055,1.3045804500579834,1.9387282133102417
1761392251766685200,2.165685302734375,1.5686858892440796,1.304089069366455,2.0197184085845947
1761392251776767200,2.175767333984375,1.4883791208267212,1.3757517337799072,2.1279990673065186
1761392251786850300,2.185850341796875,1.4181417226791382,1.5124754905700684,2.2439212799072266
1761392251796928300,2.19592822265625,1.330363392829895,1.8518421649932861,2.346454620361328
1761392251807010000,2.206010009765625,1.2794115543365479,2.2436881065368652,2.354848623275757
1761392251817092000,2.216092041015625,1.2991083860397339,2.4685845375061035,2.2842423915863037
1761392251827174100,2.226174072265625,1.3258057832717896,2.4683034420013428,2.2867043018341064
1761392251837257200,2.23625732421875,1.2873867750167847,2.2179853916168213,2.412597417831421
1761392251847339300,2.24633935546875,1.2753347158432007,1.9432681798934937,2.601088047027588
1761392251857421000,2.256421142578125,1.3073091506958008,1.8418526649475098,2.7863857746124268
1761392251867503000,2.266503173828125,1.3401873111724854,1.8541700839996338,2.934070348739624
1761392251877585200,2.276585205078125,1.3797045946121216,1.9818092584609985,3.0648794174194336
1761392251887668200,2.286668212890625,1.4355196952819824,2.170595407485962,3.1721324920654297
1761392251897750000,2.29675,1.4993079900741577,2.3768510818481445,3.2452640533447266
1761392251907832000,2.30683203125,1.5370018482208252,2.561008930206299,3.3133323192596436
1761392251917914000,2.3169140625,1.4862358570098877,2.6705996990203857,3.370161771774292
1761392251927997400,2.32699755859375,1.385174036026001,2.7524547576904297,3.2866952419281006
1761392251938079200,2.337079345703125,1.3697857856750488,2.779846668243408,3.0220460891723633
1761392251948161300,2.347161376953125,1.4407531023025513,2.7689030170440674,2.742666482925415
1761392251958243000,2.3572431640625,1.5016238689422607,2.6489827632904053,2.598053455352783
1761392251968325000,2.3673251953125,1.507225751876831,2.4415223598480225,2.6308319568634033
1761392251978408400,2.377408447265625,1.4662623405456543,2.296783208847046,2.7360522747039795
1761392251988490200,2.387490234375,1.4575324058532715,2.2527756690979004,2.7170069217681885
1761392251998572300,2.397572265625,1.4689760208129883,2.24741792678833,2.5326976776123047
1761392252008654300,2.407654296875,1.421854019165039,2.2784299850463867,2.324707269668579
1761392252018736400,2.417736328125,1.278327465057373,2.371098518371582,2.1929893493652344
1761392252028819200,2.427819091796875,1.0428365468978882,2.5456953048706055,2.1016931533813477
1761392252038901200,2.4379013671875,0.8128461837768555,2.789640188217163,1.896702766418457
1761392252048983300,2.4479833984375,0.6925074458122253,2.998408079147339,1.538313388824463
1761392252059065300,2.4580654296875,0.6323013305664062,3.091810941696167,1.1634652614593506
1761392252069147400,2.4681474609375,0.5994408130645752,3.005197763442993,0.8848978877067566
1761392252079230200,2.478230224609375,0.5662298202514648,2.7481789588928223,0.7776616811752319
1761392252089312300,2.488312255859375,0.49722492694854736,2.3984737396240234,0.7825817465782166
1761392252099394300,2.498394287109375,0.47886478900909424,2.1266558170318604,0.8405765891075134
1761392252109476400,2.508476318359375,0.5039896965026855,2.0646867752075195,0.8842521905899048
1761392252119558400,2.518558349609375,0.4680841267108917,2.1658904552459717,0.8903212547302246
1761392252129641200,2.52864111328125,0.3372701108455658,2.332808017730713,0.8362178802490234
1761392252139723300,2.53872314453125,0.1313997507095337,2.5246615409851074,0.7283060550689697
1761392252149805300,2.548805419921875,-0.1086716502904892,2.667497396469116,0.6065632700920105
1761392252159887400,2.558887451171875,-0.3310717046260834,2.5961077213287354,0.5440146327018738
1761392252169970200,2.56897021484375,-0.4995741844177246,2.326557159423828,0.5218356251716614
1761392252180052200,2.57905224609375,-0.6397150158882141,2.0316553115844727,0.5272514224052429
1761392252190134300,2.58913427734375,-0.7807567119598389,1.854111909866333,0.5109970569610596
1761392252200216300,2.59921630859375,-0.8750389814376831,1.804565191268921,0.43371880054473877
1761392252210298400,2.60929833984375,-0.9052881598472595,1.6710717678070068,0.34479236602783203
1761392252220381200,2.619381103515625,-0.9980015754699707,1.5196380615234375,0.3027333617210388
1761392252230463200,2.629463134765625,-1.2841272354125977,1.5365525484085083,0.28908443450927734
1761392252240545300,2.639545166015625,-1.7328208684921265,1.880584716796875,0.18777912855148315
1761392252250627300,2.64962744140625,-2.1155383586883545,2.4856791496276855,-0.1291111707687378
1761392252260710100,2.659710205078125,-2.2741048336029053,2.9921398162841797,-0.5454644560813904
1761392252270792200,2.669792236328125,-2.3223705291748047,3.0929458141326904,-0.8117906451225281
1761392252280874200,2.679874267578125,-2.3216919898986816,2.8343372344970703,-0.8212073445320129
1761392252290956300,2.689956298828125,-2.295983076095581,2.259850263595581,-0.6989376544952393
1761392252301038300,2.700038330078125,-2.2948405742645264,1.5830292701721191,-0.5810882449150085
1761392252311121200,2.71012109375,-2.3296494483947754,1.0522916316986084,-0.5670976638793945
1761392252321203200,2.720203125,-2.40476393699646,0.7241808772087097,-0.6717782616615295
1761392252331285200,2.73028515625,-2.4507789611816406,0.6213605999946594,-0.7981898188591003
1761392252341367300,2.7403671875,-2.4781153202056885,0.6468222737312317,-0.8363392949104309
1761392252351449300,2.750449462890625,-2.620194673538208,0.8615904450416565,-0.815345823764801
1761392252361532200,2.7605322265625,-2.838982582092285,1.2300456762313843,-0.8213880062103271
1761392252371614200,2.7706142578125,-3.1197474002838135,1.643786072731018,-0.9550656080245972
1761392252381696300,2.7806962890625,-3.4104669094085693,2.017343044281006,-1.2025337219238281
1761392252391778300,2.7907783203125,-3.5766828060150146,2.0197086334228516,-1.4658454656600952
1761392252401861000,2.800861083984375,-3.5555014610290527,1.6289621591567993,-1.5171024799346924
1761392252411943200,2.810943115234375,-3.436657190322876,1.1091678142547607,-1.2592358589172363
1761392252422025200,2.821025146484375,-3.349001884460449,0.8295117020606995,-0.8070646524429321
1761392252432107300,2.831107177734375,-3.310405731201172,0.9007811546325684,-0.32887762784957886
1761392252442189300,2.841189208984375,-3.3805770874023438,1.1808245182037354,0.0121598606929183
1761392252452272000,2.851272216796875,-3.464034080505371,1.372109055519104,0.08463707566261292
1761392252462354200,2.861354248046875,-3.5188205242156982,1.4149398803710938,-0.05038705840706825
1761392252472436200,2.871436279296875,-3.5204272270202637,1.3244410753250122,-0.23503923416137695
1761392252482518300,2.881518310546875,-3.447561740875244,1.1048305034637451,-0.3612368404865265
1761392252492601000,2.89160107421875,-3.4122138023376465,0.7995569705963135,-0.3552882969379425
1761392252502683100,2.90168310546875,-3.427412509918213,0.4898528754711151,-0.19964009523391724
1761392252512765200,2.91176513671875,-3.4185829162597656,0.27614450454711914,0.03517737612128258
1761392252522847200,2.92184716796875,-3.363729953765869,0.24288031458854675,0.22897160053253174
1761392252532929300,2.93192919921875,-3.2748842239379883,0.3023243844509125,0.3489786982536316
1761392252543012000,2.94201220703125,-3.1237168312072754,0.17020097374916077,0.396024227142334
1761392252553094100,2.95209423828125,-2.9923322200775146,-0.09741964936256409,0.46989887952804565
1761392252563176200,2.96217626953125,-2.9322896003723145,-0.4545024037361145,0.5321862697601318
1761392252573258200,2.97225830078125,-2.9651944637298584,-0.8348010778427124,0.5508247017860413
1761392252583341300,2.98234130859375,-3.1211555004119873,-1.0163439512252808,0.5528332591056824
1761392252593423000,2.992423095703125,-3.30224871635437,-0.9210923910140991,0.5356849431991577
1761392252603505200,3.002505126953125,-3.3554184436798096,-0.5503537654876709,0.5476100444793701
1761392252613587200,3.012587158203125,-3.208468198776245,-0.1455950140953064,0.6075888872146606
1761392252623669200,3.022669189453125,-2.992401361465454,-0.1190028265118599,0.7591315507888794
1761392252633752300,3.03275244140625,-2.880215883255005,-0.46143925189971924,0.9969327449798584
1761392252643834400,3.04283447265625,-2.905327320098877,-1.0337163209915161,1.3086222410202026
1761392252653916400,3.05291650390625,-3.0115723609924316,-1.5798883438110352,1.5990755558013916
1761392252663998200,3.062998291015625,-3.0868124961853027,-1.851369857788086,1.74631667137146
1761392252674081300,3.073081298828125,-3.0561869144439697,-1.8845393657684326,1.6576547622680664
1761392252684163300,3.083163330078125,-2.965268850326538,-1.634122371673584,1.4243735074996948
1761392252694245400,3.093245361328125,-2.9037883281707764,-1.2496014833450317,1.1723741292953491
1761392252704327400,3.103327392578125,-2.8897287845611572,-0.940528929233551,1.044686198234558
1761392252714409500,3.113409423828125,-2.939316749572754,-0.8317012786865234,1.1522184610366821
1761392252724492300,3.1234921875,-3.008301258087158,-0.916822075843811,1.473382592201233
1761392252734574300,3.13357421875,-3.064574718475342,-1.1621830463409424,1.8411110639572144
1761392252744656400,3.143656494140625,-3.1109771728515625,-1.4978338479995728,2.1488921642303467
1761392252754738400,3.153738525390625,-3.147282361984253,-1.8056507110595703,2.3794610500335693
1761392252764821200,3.1638212890625,-3.1589224338531494,-1.959969162940979,2.517559766769409
1761392252774903300,3.1739033203125,-3.16215181350708,-1.9243279695510864,2.4952259063720703
1761392252784985300,3.1839853515625,-3.1573057174682617,-1.7015334367752075,2.4016194343566895
1761392252795067400,3.1940673828125,-3.131627082824707,-1.3788444995880127,2.300605297088623
1761392252805150200,3.204150146484375,-3.088818073272705,-1.1470825672149658,2.2484798431396484
1761392252815232300,3.214232177734375,-3.008513927459717,-1.396277904510498,2.291506290435791
1761392252825314300,3.224314208984375,-2.869279384613037,-2.140427827835083,2.4708948135375977
1761392252835396400,3.234396240234375,-2.7522754669189453,-2.9401726722717285,2.7251412868499756
1761392252845478400,3.244478515625,-2.7411441802978516,-3.567697763442993,2.853527307510376
1761392252855561200,3.254561279296875,-2.731146812438965,-3.7777340412139893,2.7018654346466064
1761392252865643300,3.264643310546875,-2.6871063709259033,-3.512326717376709,2.225857973098755
1761392252875725300,3.274725341796875,-2.5703203678131104,-2.9126815795898438,1.596496820449829
1761392252885807400,3.284807373046875,-2.454279899597168,-2.2207658290863037,1.1192426681518555
1761392252895890200,3.29489013671875,-2.358201265335083,-1.7186768054962158,1.0056666135787964
1761392252905972200,3.30497216796875,-2.225163221359253,-1.5990047454833984,1.1890127658843994
1761392252916054300,3.31505419921875,-2.0214173793792725,-1.8896644115447998,1.5472807884216309
1761392252926136300,3.32513623046875,-1.8310824632644653,-2.41340708732605,1.971299409866333
1761392252936218400,3.33521826171875,-1.770982027053833,-2.964780569076538,2.3191606998443604
1761392252946301200,3.34530126953125,-1.8208370208740234,-3.3638060092926025,2.506833791732788
1761392252956383200,3.35538330078125,-1.923633337020874,-3.524280548095703,2.509122848510742
1761392252966465300,3.36546533203125,-2.0472354888916016,-3.422201156616211,2.355084180831909
1761392252976547300,3.37554736328125,-2.1720566749572754,-3.0503978729248047,2.068356990814209
1761392252986630400,3.38563037109375,-2.2733752727508545,-2.581245183944702,1.751025676727295
1761392252996712400,3.39571240234375,-2.3941121101379395,-2.214763879776001,1.4570064544677734
1761392253006794200,3.405794189453125,-2.51698899269104,-1.9912761449813843,1.241403341293335
1761392253016876300,3.415876220703125,-2.6367552280426025,-1.9084829092025757,1.104796051979065
1761392253026959400,3.42595947265625,-2.7758803367614746,-2.071021318435669,1.0259149074554443
1761392253037041400,3.43604150390625,-2.839352607727051,-2.518381357192993,1.0442254543304443
1761392253047123500,3.44612353515625,-2.670754909515381,-2.8265156745910645,1.2417219877243042
1761392253057205500,3.45620556640625,-2.3474459648132324,-2.742492914199829,1.561990737915039
1761392253067287600,3.46628759765625,-1.9820948839187622,-2.3834316730499268,1.9451003074645996
1761392253077370400,3.476370361328125,-1.6104618310928345,-2.085130453109741,2.326378583908081
1761392253087452400,3.486452392578125,-1.2962902784347534,-2.072431802749634,2.748751163482666
1761392253097534500,3.496534423828125,-1.1272268295288086,-2.390960931777954,3.092562198638916
1761392253107616500,3.506616455078125,-1.1130566596984863,-2.8277974128723145,3.273721694946289
1761392253117699300,3.51669921875,-1.237558126449585,-3.171131134033203,3.223576545715332
1761392253127781400,3.526781494140625,-1.4247490167617798,-3.2561895847320557,2.882091760635376
1761392253137863400,3.536863525390625,-1.5868208408355713,-3.005368232727051,2.292275905609131
1761392253147945500,3.546945556640625,-1.593418002128601,-2.414888620376587,1.6490843296051025
1761392253158028300,3.5570283203125,-1.459669589996338,-1.7884902954101562,1.071643590927124
1761392253168110300,3.5671103515625,-1.32657790184021,-1.4354866743087769,0.6512138247489929
1761392253178192400,3.5771923828125,-1.277706503868103,-1.4006164073944092,0.44602203369140625
1761392253188274400,3.5872744140625,-1.3184765577316284,-1.7467559576034546,0.4211430549621582
1761392253198356500,3.5973564453125,-1.4111645221710205,-2.306140899658203,0.5189786553382874
1761392253208439300,3.607439208984375,-1.4313398599624634,-2.7092742919921875,0.5758288502693176
1761392253218521300,3.617521240234375,-1.2997183799743652,-2.7986743450164795,0.5109162330627441
1761392253228603400,3.627603271484375,-1.0958502292633057,-2.6995561122894287,0.3647923171520233
1761392253238685400,3.637685546875,-0.8952416777610779,-2.5087926387786865,0.1740003377199173
1761392253248768300,3.647768310546875,-0.7170493006706238,-2.260251760482788,-0.05585069581866264
1761392253258850300,3.657850341796875,-0.6510157585144043,-2.0304431915283203,-0.33552855253219604
1761392253268932400,3.667932373046875,-0.6979851722717285,-1.8454021215438843,-0.5797380208969116
1761392253279014400,3.678014404296875,-0.8009841442108154,-1.6564868688583374,-0.8118129372596741
1761392253289097200,3.68809716796875,-0.9099340438842773,-1.4544720649719238,-1.0236109495162964
1761392253299179300,3.69817919921875,-0.9736554622650146,-1.2915911674499512,-1.1836177110671997
1761392253309261300,3.70826123046875,-0.9726658463478088,-1.1381691694259644,-1.246351718902588
1761392253319343400,3.71834326171875,-0.9398852586746216,-1.043157696723938,-1.189631462097168
1761392253329426200,3.72842626953125,-0.9010137319564819,-1.2092747688293457,-1.0945185422897339
1761392253339508200,3.73850830078125,-0.8681567311286926,-1.7143014669418335,-1.0466488599777222
1761392253349590300,3.74859033203125,-0.9257161617279053,-2.415358543395996,-1.0755149126052856
1761392253359672300,3.75867236328125,-1.0348596572875977,-3.013718366622925,-1.1935874223709106
1761392253369754400,3.76875439453125,-1.1359715461730957,-3.2762415409088135,-1.3674904108047485
1761392253379837200,3.778837158203125,-1.2143090963363647,-3.081301212310791,-1.5092641115188599
1761392253389919200,3.788919189453125,-1.2437658309936523,-2.3681485652923584,-1.5180543661117554
1761392253400001300,3.799001220703125,-1.1879422664642334,-1.4091525077819824,-1.4492753744125366
1761392253410083300,3.809083251953125,-1.0042794942855835,-0.6940784454345703,-1.3167074918746948
1761392253420166100,3.819166259765625,-0.841771125793457,-0.665884256362915,-1.159040093421936
1761392253430248200,3.829248291015625,-0.7192742824554443,-1.3961405754089355,-0.9588580131530762
1761392253440330200,3.839330322265625,-0.6038283109664917,-2.6863973140716553,-0.6368927955627441
1761392253450412300,3.849412353515625,-0.48792535066604614,-3.9191415309906006,-0.24712954461574554
1761392253460495400,3.859495361328125,-0.3262636661529541,-4.586920261383057,0.05420462042093277
1761392253470577200,3.8695771484375,-0.09724406898021698,-4.54332971572876,0.22313585877418518
1761392253480659200,3.8796591796875,0.14431074261665344,-3.8972091674804688,0.2997869849205017
1761392253490741200,3.8897412109375,0.38863155245780945,-3.0429189205169678,0.30456361174583435
1761392253500823300,3.8998232421875,0.5937390327453613,-2.466066360473633,0.26914292573928833
1761392253510906000,3.909906005859375,0.7217769026756287,-2.2364351749420166,0.23190100491046906
1761392253520988200,3.91998828125,0.730455219745636,-2.3748645782470703,0.1960476040840149
1761392253531070200,3.9300703125,0.6291816234588623,-2.715378522872925,0.20627200603485107
1761392253541152300,3.94015234375,0.5207497477531433,-3.038400411605835,0.18475089967250824
1761392253551235300,3.9502353515625,0.5290125012397766,-3.1507678031921387,0.07843457907438278
1761392253561317400,3.9603173828125,0.7103917002677917,-2.9415764808654785,0.0031600664369761944
1761392253571399200,3.970399169921875,1.025022029876709,-2.53234601020813,0.0981648713350296
1761392253581481200,3.980481201171875,1.44902765750885,-2.1061336994171143,0.49815061688423157
1761392253591564500,3.990564453125,1.8650017976760864,-2.0507960319519043,1.2159883975982666
1761392253601646300,4.000646240234375,2.154919147491455,-2.3529179096221924,2.145798683166504
1761392253611728400,4.010728271484375,2.358778476715088,-2.8002543449401855,3.1089725494384766
1761392253621810400,4.020810546875,2.532642126083374,-3.117992639541626,3.8286123275756836
1761392253631893500,4.0308935546875,2.7209417819976807,-2.9754390716552734,4.261575222015381
1761392253641975300,4.040975341796875,2.884256362915039,-2.3181889057159424,4.48676872253418
1761392253652057300,4.051057373046875,3.04339861869812,-1.6111831665039062,4.727126598358154
1761392253662139400,4.061139404296875,3.1383731365203857,-1.3593556880950928,5.170216083526611
1761392253672221400,4.071221435546875,3.0848019123077393,-1.5631103515625,5.631231307983398
1761392253682304300,4.08130419921875,2.823047637939453,-2.1013989448547363,5.813523769378662
1761392253692386300,4.09138623046875,2.440580368041992,-2.4816372394561768,5.467708110809326
1761392253702468400,4.10146826171875,2.1018097400665283,-2.397366762161255,4.74119758605957
1761392253712550400,4.11155029296875,1.879265546798706,-1.9322651624679565,3.9773659706115723
1761392253722633500,4.121633544921875,1.7877702713012695,-1.253074288368225,3.472673177719116
1761392253732715300,4.13171533203125,1.7958464622497559,-0.5829864740371704,3.321810245513916
1761392253742797300,4.14179736328125,1.7674294710159302,-0.11463811248540878,3.3646719455718994
1761392253752879400,4.15187939453125,1.6631637811660767,0.1336265504360199,3.4671707153320312
1761392253762962400,4.16196240234375,1.5908089876174927,0.190267413854599,3.5136773586273193
1761392253773044200,4.172044189453125,1.5867525339126587,0.16012096405029297,3.506648540496826
1761392253783126300,4.182126220703125,1.6237001419067383,0.10475429147481918,3.5340352058410645
1761392253793208300,4.192208251953125,1.65031099319458,0.10993228107690811,3.53692889213562
1761392253803293700,4.202293701171875,1.5886149406433105,0.3027544319629669,3.3836190700531006
1761392253813376800,4.212376708984375,1.4276849031448364,0.5803556442260742,3.1296706199645996
1761392253823458600,4.22245849609375,1.1633250713348389,0.8432846665382385,2.9125280380249023
1761392253833540600,4.23254052734375,0.9247297644615173,1.0524725914001465,2.7920539379119873
1761392253843622700,4.24262255859375,0.8415874242782593,1.188396692276001,2.819176197052002
1761392253853705700,4.252705810546875,0.8996168971061707,1.1735109090805054,2.990872859954834
1761392253863787800,4.262787841796875,1.0279284715652466,0.973929762840271,3.2431318759918213
1761392253873869600,4.27286962890625,1.1737558841705322,0.6342949867248535,3.541750431060791
1761392253883951600,4.28295166015625,1.2628731727600098,0.1500631421804428,3.890289068222046
1761392253894034700,4.29303466796875,1.2874046564102173,-0.35103726387023926,4.29201078414917
1761392253904116700,4.30311669921875,1.2303212881088257,-0.9015411138534546,4.704866409301758
1761392253914198500,4.313198486328125,1.1835181713104248,-1.4455064535140991,5.054901123046875
1761392253924280600,4.323280517578125,1.172616720199585,-1.797764539718628,5.2544450759887695
1761392253934363600,4.33336376953125,1.0795222520828247,-1.8069541454315186,5.164931297302246
1761392253944445700,4.34344580078125,0.9811751842498779,-1.4582748413085938,4.5670576095581055
1761392253954527700,4.35352783203125,0.9158656597137451,-0.9332107901573181,3.5919015407562256
1761392253964609500,4.363609619140625,0.8525652289390564,-0.4369102120399475,2.8277087211608887
1761392253974692900,4.37369287109375,0.6389158368110657,-0.3262034058570862,2.6703596115112305
1761392253984774700,4.383774658203125,0.2988114058971405,-0.38157522678375244,2.964012861251831
1761392253994856700,4.393856689453125,0.10533515363931656,-0.41710951924324036,3.2790639400482178
1761392254004938500,4.4039384765625,0.10819439589977264,-0.41013994812965393,3.461278200149536
1761392254015020500,4.4140205078125,0.2612190842628479,-0.4780452251434326,3.547581195831299
1761392254025104000,4.424103759765625,0.48910194635391235,-0.7585659027099609,3.522261381149292
1761392254035186000,4.43418603515625,0.650058925151825,-1.068403959274292,3.424246072769165
1761392254045267700,4.444267822265625,0.6600543856620789,-1.2616368532180786,3.24320387840271
1761392254055349500,4.454349609375,0.4806385934352875,-1.1671172380447388,3.005155563354492
1761392254065432800,4.464432861328125,0.2047761082649231,-0.8052612543106079,2.7092928886413574
1761392254075515000,4.474514892578125,-0.004938768222928047,-0.14208805561065674,2.431378126144409
1761392254085596700,4.4845966796875,-0.10140428692102432,0.5312777757644653,2.266084671020508
1761392254095678700,4.4946787109375,-0.14811453223228455,0.9403001666069031,2.2766318321228027
1761392254105761800,4.50476171875,-0.12432349473237991,1.0598806142807007,2.452077627182007
1761392254115843800,4.51484375,-0.07592587172985077,0.926283597946167,2.70674991607666
1761392254125926000,4.52492578125,-0.05080629885196686,0.6561933755874634,2.937575578689575
1761392254136007700,4.535007568359375,-0.05712491273880005,0.3208838105201721,3.1064271926879883
1761392254146089700,4.54508984375,-0.12374841421842575,-0.1001901626586914,3.2019166946411133
1761392254156172800,4.5551728515625,-0.24979743361473083,-0.3802761435508728,3.22585129737854
1761392254166254800,4.5652548828125,-0.35126012563705444,-0.35238513350486755,3.1578450202941895
1761392254176336600,4.575336669921875,-0.376173734664917,-0.09077908098697662,3.0980684757232666
1761392254186418700,4.585418701171875,-0.3507627844810486,0.23454803228378296,3.0631089210510254
1761392254196501800,4.595501708984375,-0.2431420385837555,0.4728655517101288,3.066225528717041
1761392254206583800,4.605583740234375,-0.023767923936247826,0.6245908141136169,3.135345935821533
1761392254216665900,4.615665771484375,0.25275474786758423,0.6412675380706787,3.2886240482330322
1761392254226747600,4.62574755859375,0.5363820791244507,0.5715816617012024,3.5085763931274414
1761392254236830700,4.635830810546875,0.8384665846824646,0.45613783597946167,3.693931818008423
1761392254246912800,4.645912841796875,1.0953541994094849,0.17308564484119415,3.753298044204712
1761392254256994800,4.655994873046875,1.1940821409225464,-0.22168217599391937,3.655449151992798
1761392254267076600,4.66607666015625,1.1901705265045166,-0.5778141021728516,3.4223804473876953
1761392254277159700,4.67615966796875,1.0700715780258179,-0.6767691373825073,3.1930019855499268
1761392254287241700,4.68624169921875,0.8161540627479553,-0.4018116593360901,3.003225564956665
1761392254297323800,4.69632373046875,0.5894402265548706,0.14446765184402466,2.8196706771850586
1761392254307405800,4.70640576171875,0.4596114456653595,0.7341071963310242,2.6676485538482666
1761392254317488600,4.716488525390625,0.3103540539741516,1.1123429536819458,2.582230567932129
1761392254327570700,4.72657080078125,0.10083598643541336,1.188332200050354,2.51953387260437
1761392254337652700,4.73665283203125,-0.06465896964073181,1.068565845489502,2.420633554458618
1761392254347734800,4.74673486328125,-0.14111743867397308,0.8021712899208069,2.318809747695923
1761392254357816600,4.756816650390625,-0.18649451434612274,0.45973989367485046,2.2985284328460693
1761392254367899600,4.766899658203125,-0.3093435764312744,0.29265666007995605,2.3225343227386475
1761392254377981700,4.776981689453125,-0.4976506233215332,0.4562109708786011,2.318018913269043
1761392254388063700,4.787063720703125,-0.7023009657859802,0.8631253838539124,2.2127950191497803
1761392254398145800,4.797145751953125,-0.847644567489624,1.395432949066162,2.0106844902038574
1761392254408228600,4.807228515625,-0.9682711362838745,1.836478590965271,1.7809689044952393
1761392254418310700,4.817310546875,-1.0051809549331665,2.073180913925171,1.6017895936965942
1761392254428392700,4.827392822265625,-0.9197831749916077,1.9636510610580444,1.619271993637085
1761392254438474800,4.837474853515625,-0.7765865921974182,1.491925835609436,1.9188096523284912
1761392254448557600,4.8475576171875,-0.6149601936340332,0.8662073612213135,2.417210102081299
1761392254458639600,4.8576396484375,-0.5079091191291809,0.34072941541671753,2.941129207611084
1761392254468721700,4.8677216796875,-0.6154268980026245,0.1008399948477745,3.2037270069122314
1761392254478803700,4.8778037109375,-0.8870717287063599,0.2910914123058319,2.9788193702697754
1761392254488885800,4.8878857421875,-1.2178442478179932,0.8729631304740906,2.3044142723083496
1761392254498968600,4.897968505859375,-1.4572277069091797,1.518507480621338,1.4300705194473267
1761392254509050600,4.908050537109375,-1.5574966669082642,1.9184041023254395,0.6722838282585144
1761392254519132700,4.918132568359375,-1.5627186298370361,1.9565078020095825,0.3461690843105316
1761392254529214700,4.928214599609375,-1.5092028379440308,1.8037710189819336,0.480934202671051
1761392254539297800,4.9382978515625,-1.3089402914047241,1.5746285915374756,0.8441964983940125
1761392254549379600,4.948379638671875,-1.033249855041504,1.3866921663284302,1.272797703742981
1761392254559461600,4.958461669921875,-0.8025919198989868,1.2667951583862305,1.5809496641159058
1761392254569543700,4.968543701171875,-0.6353570222854614,1.1632137298583984,1.619233250617981
1761392254579626800,4.978626708984375,-0.5622729659080505,1.0777292251586914,1.3828349113464355
1761392254589708800,4.988708740234375,-0.4891422986984253,1.0618926286697388,0.9986801147460938
1761392254599790800,4.998790771484375,-0.4297812283039093,1.0897014141082764,0.636214554309845
1761392254609873000,5.008872802734375,-0.40521275997161865,1.1495659351348877,0.47877246141433716
1761392254619955700,5.018955810546875,-0.3925747275352478,1.2063125371932983,0.5647196173667908
1761392254630037800,5.029037841796875,-0.33587807416915894,1.2998378276824951,0.8408192992210388
1761392254640119800,5.039119873046875,-0.28351765871047974,1.4775042533874512,1.189414381980896
1761392254650201900,5.049201904296875,-0.2556135654449463,1.6632105112075806,1.4583988189697266
1761392254660284700,5.05928466796875,-0.203501895070076,1.8179672956466675,1.6062939167022705
1761392254670366700,5.06936669921875,-0.1534237563610077,1.9175374507904053,1.6482484340667725
1761392254680448800,5.07944873046875,-0.08886980265378952,1.8852695226669312,1.6508278846740723
1761392254690530800,5.08953076171875,-0.013525036163628101,1.7188622951507568,1.7038553953170776
1761392254700612900,5.09961279296875,-0.09276286512613297,1.4296226501464844,1.8735146522521973
1761392254710695700,5.10969580078125,-0.3315925598144531,1.1007503271102905,2.0811715126037598
1761392254720777700,5.11977783203125,-0.7183647751808167,1.0438224077224731,2.1489415168762207
1761392254730859800,5.12985986328125,-1.138895034790039,1.1031091213226318,1.984887957572937
1761392254740941800,5.13994189453125,-1.4880551099777222,1.2273600101470947,1.7823731899261475
1761392254751024600,5.150024658203125,-1.9661504030227661,1.5369035005569458,1.6431069374084473
1761392254761106700,5.160106689453125,-2.5440256595611572,1.8294787406921387,1.3900086879730225
1761392254771188700,5.170188720703125,-3.0527069568634033,1.9976660013198853,0.8383596539497375
1761392254781270800,5.180270751953125,-3.411576986312866,1.9561814069747925,0.019289270043373108
1761392254791353600,5.190353515625,-3.733243227005005,1.791621208190918,-0.7171535491943359
1761392254801432600,5.2004326171875,-4.124434947967529,1.8131475448608398,-1.0500136613845825
1761392254811514600,5.2105146484375,-4.526092529296875,2.0241916179656982,-0.9412621855735779
1761392254821596700,5.2205966796875,-4.895816802978516,2.2776849269866943,-0.5847200155258179
1761392254831678700,5.2306787109375,-5.216246128082275,2.520829200744629,-0.16752111911773682
1761392254841761500,5.240761474609375,-5.525801658630371,2.6984992027282715,0.12345027178525925
1761392254851843600,5.250843505859375,-5.87495231628418,2.791844367980957,0.1534814089536667
1761392254861925600,5.260925537109375,-6.24337100982666,2.788874387741089,-0.08664622902870178
1761392254872007700,5.271007568359375,-6.533506393432617,2.7046239376068115,-0.550740659236908
1761392254882090800,5.2810908203125,-6.746047019958496,2.4709055423736572,-1.1109704971313477
1761392254892172800,5.2911728515625,-6.925235748291016,2.2651076316833496,-1.6185699701309204
1761392254902254800,5.3012548828125,-7.10630989074707,2.1999547481536865,-2.004913568496704
1761392254912336600,5.311336669921875,-7.231265544891357,2.326881170272827,-2.2516274452209473
1761392254922419700,5.321419677734375,-7.199878692626953,2.6103920936584473,-2.405471086502075
1761392254932501800,5.331501708984375,-7.094512939453125,2.8941049575805664,-2.436981439590454
1761392254942583800,5.341583740234375,-6.97086238861084,2.81280517578125,-2.302384614944458
1761392254952665900,5.351665771484375,-6.835653781890869,2.2509896755218506,-1.9293428659439087
1761392254962748700,5.361748779296875,-6.702691555023193,1.2959661483764648,-1.3486781120300293
1761392254972830700,5.371830810546875,-6.580049991607666,0.17001184821128845,-0.7324281334877014
1761392254982912800,5.381912841796875,-6.496323108673096,-0.6717827916145325,-0.3024943470954895
1761392254992994800,5.391994873046875,-6.352455139160156,-0.995288074016571,-0.07558341324329376
1761392255003076900,5.402076904296875,-6.227987289428711,-0.6888629198074341,0.14392763376235962
1761392255013159700,5.41215966796875,-6.241091728210449,-0.057595882564783096,0.48133233189582825
1761392255023241700,5.42224169921875,-6.4034929275512695,0.19822444021701813,0.8700584769248962
1761392255033323800,5.43232373046875,-6.639614105224609,-0.051921546459198,1.2785009145736694
1761392255043405800,5.44240576171875,-6.8442254066467285,-0.649799644947052,1.5945112705230713
1761392255053488600,5.452488525390625,-7.041791915893555,-1.3481875658035278,1.7742871046066284
1761392255063570700,5.46257080078125,-7.205881118774414,-2.0213868618011475,1.8310608863830566
1761392255073652700,5.47265283203125,-7.180187702178955,-2.3859567642211914,1.7957414388656616
1761392255083734800,5.48273486328125,-6.839444637298584,-2.3591761589050293,1.7014734745025635
1761392255093817600,5.492817626953125,-6.295768737792969,-2.0504024028778076,1.600498914718628
1761392255103899600,5.502899658203125,-5.855938911437988,-1.6698284149169922,1.4470798969268799
1761392255113981700,5.512981689453125,-5.60934591293335,-1.5691977739334106,1.2774208784103394
1761392255124063700,5.523063720703125,-5.412063121795654,-1.866983413696289,1.191880226135254
1761392255134146800,5.533146728515625,-5.143959045410156,-2.3726606369018555,1.1068967580795288
1761392255144228600,5.543228515625,-4.765586853027344,-3.0391814708709717,0.9247238039970398
1761392255154310700,5.553310546875,-4.328908920288086,-3.7657413482666016,0.7287132143974304
1761392255164392700,5.563392822265625,-3.861562728881836,-4.029738903045654,0.7795308828353882
1761392255174474800,5.573474853515625,-3.3023390769958496,-3.830122709274292,1.039398431777954
1761392255184557600,5.5835576171875,-2.8250203132629395,-3.530447483062744,1.225178599357605
1761392255194639600,5.5936396484375,-2.630086898803711,-3.306551694869995,1.1749932765960693
1761392255204721700,5.6037216796875,-2.5704288482666016,-3.1538476943969727,0.8847518563270569
1761392255214803700,5.6138037109375,-2.5677003860473633,-3.09908390045166,0.5403818488121033
1761392255224886500,5.623886474609375,-2.562971353530884,-3.2098183631896973,0.3177735507488251
1761392255234968600,5.633968505859375,-2.5318078994750977,-3.4761805534362793,0.2971581220626831
1761392255245050600,5.644050537109375,-2.446880578994751,-3.782184600830078,0.5271217823028564
1761392255255132700,5.654132568359375,-2.259829521179199,-3.9245619773864746,0.9581122994422913
1761392255265215700,5.6642158203125,-2.030266284942627,-3.8276031017303467,1.456708550453186
1761392255275297500,5.674297607421875,-1.7950612306594849,-3.3583226203918457,1.7769831418991089
1761392255285379600,5.684379638671875,-1.6204404830932617,-2.7174272537231445,1.7002776861190796
1761392255295461600,5.694461669921875,-1.6387256383895874,-2.2394418716430664,1.3528962135314941
1761392255305543700,5.704543701171875,-1.8551634550094604,-2.196037530899048,0.9940661191940308
1761392255315626500,5.71462646484375,-1.9556596279144287,-2.2545688152313232,0.7747027277946472
1761392255325708500,5.72470849609375,-1.8332674503326416,-2.0891385078430176,0.7309752106666565
1761392255335790600,5.73479052734375,-1.6529024839401245,-1.6279780864715576,0.9263032078742981
1761392255345872600,5.74487255859375,-1.3936564922332764,-0.9254961609840393,1.3139028549194336
1761392255355955700,5.754955810546875,-0.9560927152633667,-0.28620898723602295,1.7768669128417969
1761392255366037500,5.76503759765625,-0.5205808877944946,-0.019982371479272842,2.2823033332824707
1761392255376119600,5.77511962890625,-0.28798654675483704,-0.22554512321949005,2.6912832260131836
1761392255386201600,5.78520166015625,-0.3297022879123688,-0.8658763766288757,2.8804948329925537
1761392255396285000,5.795284912109375,-0.6078202128410339,-1.6887329816818237,2.7075486183166504
1761392255406366500,5.805366455078125,-0.9290086627006531,-2.1942660808563232,1.9651862382888794
1761392255416448500,5.815448486328125,-1.051697015762329,-2.144317150115967,0.8440709114074707
1761392255426530600,5.825530517578125,-0.9899827241897583,-1.67877197265625,-0.2348935753107071
1761392255436612600,5.835612548828125,-0.7879515886306763,-0.9173495173454285,-0.9114652276039124
1761392255446695700,5.84569580078125,-0.4997141659259796,-0.29984691739082336,-1.0731569528579712
1761392255456777700,5.85577783203125,-0.2929553687572479,-0.24763765931129456,-0.7188003063201904
1761392255466859800,5.86585986328125,-0.2430512011051178,-0.7417541742324829,-0.06255318969488144
1761392255476941600,5.875941650390625,-0.2580348253250122,-1.430323839187622,0.5341594815254211
1761392255487025000,5.88602490234375,-0.29238107800483704,-2.044901132583618,0.8702746629714966
1761392255497106700,5.896106689453125,-0.3119853436946869,-2.3125669956207275,1.002470850944519
1761392255507188700,5.906188720703125,-0.2535393536090851,-2.208333730697632,0.9711824059486389
1761392255517270800,5.916270751953125,-0.18860012292861938,-1.8354082107543945,0.7950609922409058
1761392255527353900,5.926353759765625,-0.23277263343334198,-1.3115652799606323,0.4850307106971741
1761392255537435600,5.936435546875,-0.32317936420440674,-0.9459134340286255,0.1423647552728653
1761392255547517700,5.946517578125,-0.4163130521774292,-0.7965875864028931,-0.15609145164489746
1761392255557599700,5.956599853515625,-0.4507184326648712,-0.8704649806022644,-0.3845230042934418
1761392255567681800,5.966681884765625,-0.3002229332923889,-1.2387138605117798,-0.4195859134197235
1761392255577764900,5.976764892578125,-0.03934067115187645,-1.8022276163101196,-0.12874583899974823
1761392255587846700,5.9868466796875,0.2454468458890915,-2.362190008163452,0.5448302030563354
1761392255597928700,5.9969287109375,0.5102345943450928,-2.789560317993164,1.4549659490585327
1761392255608010800,6.0070107421875,0.5587302446365356,-2.949073314666748,2.2442495822906494
1761392255618093800,6.01709375,0.3634495139122009,-2.720846176147461,2.6498844623565674
1761392255628175600,6.027175537109375,0.1011398434638977,-2.280881404876709,2.5211973190307617
1761392255638257700,6.037257568359375,-0.09508591890335083,-1.707743763923645,1.8970381021499634
1761392255648339700,6.047339599609375,-0.14519649744033813,-1.2940239906311035,0.9747774004936218
1761392255658422800,6.0574228515625,-0.07008939236402512,-1.2299001216888428,0.13683229684829712
1761392255668504800,6.0675048828125,0.047558143734931946,-1.5112335681915283,-0.3805663585662842
1761392255678586600,6.077586669921875,0.10731533169746399,-1.7909666299819946,-0.5174655914306641
1761392255688668700,6.087668701171875,0.15161782503128052,-1.8269968032836914,-0.4079305827617645
1761392255698750700,6.097750732421875,0.2362503856420517,-1.5603543519973755,-0.15669314563274384
1761392255708833800,6.107833740234375,0.43044570088386536,-1.1781307458877563,0.17164158821105957
1761392255718915600,6.11791552734375,0.7234468460083008,-0.9314028024673462,0.4913173317909241
1761392255728997600,6.12799755859375,1.0569225549697876,-0.9345331192016602,0.7839271426200867
1761392255739079700,6.13807958984375,1.3617616891860962,-1.1573036909103394,0.9350774884223938
1761392255749162800,6.148162841796875,1.5342801809310913,-1.4833803176879883,0.8980659246444702
1761392255759244800,6.158244873046875,1.5660879611968994,-1.7583613395690918,0.7738549709320068
1761392255769326600,6.16832666015625,1.5514938831329346,-1.9535495042800903,0.5822876691818237
1761392255779408600,6.17840869140625,1.5307523012161255,-1.921383261680603,0.3755800724029541
1761392255789491700,6.18849169921875,1.5324589014053345,-1.544968843460083,0.12344048917293549
1761392255799574000,6.198573974609375,1.5966575145721436,-0.9412221312522888,-0.22398599982261658
1761392255809656000,6.208656005859375,1.711613416671753,-0.32378071546554565,-0.604011058807373
1761392255819738000,6.218738037109375,1.8878718614578247,0.019911210983991623,-0.8477501273155212
1761392255829820200,6.228820068359375,2.138777017593384,-0.06564470380544662,-0.8411082029342651
1761392255839903200,6.2389033203125,2.386626958847046,-0.3617806136608124,-0.5521271228790283
1761392255849985300,6.2489853515625,2.606837749481201,-0.6492603421211243,0.026871521025896072
1761392255860067000,6.259067138671875,2.7496345043182373,-0.6419690251350403,0.7865312695503235
1761392255870149000,6.269149169921875,2.856435537338257,-0.18891975283622742,1.4909898042678833
1761392255880232400,6.279232421875,2.9437568187713623,0.35228678584098816,1.7842726707458496
1761392255890314200,6.289314208984375,3.1300430297851562,0.8589845895767212,1.7168188095092773
1761392255900396300,6.299396240234375,3.5063488483428955,1.0391021966934204,1.6385231018066406
1761392255910478300,6.309478271484375,3.877882719039917,0.8044562935829163,1.7416564226150513
1761392255920560400,6.319560302734375,3.8666343688964844,0.4757761061191559,1.9326902627944946
1761392255930643200,6.329643310546875,3.3167879581451416,0.15451818704605103,1.9996769428253174
1761392255940725200,6.339725341796875,2.563049793243408,0.23327162861824036,1.8546137809753418
1761392255950807300,6.349807373046875,2.000955104827881,0.6697038412094116,1.4534026384353638
1761392255960889300,6.359889404296875,1.6859432458877563,1.1375278234481812,0.8365246653556824
1761392255970972400,6.369972412109375,1.575514554977417,1.4601809978485107,0.16945552825927734
1761392255981054200,6.38005419921875,1.6645874977111816,1.5128672122955322,-0.41074034571647644
1761392255991136300,6.39013623046875,1.896134614944458,1.3298395872116089,-0.7528122067451477
1761392256001218300,6.40021826171875,2.1204030513763428,0.9094915986061096,-0.8526574969291687
1761392256011301400,6.41030126953125,2.1644175052642822,0.7365823984146118,-0.6441277265548706
1761392256021383200,6.420383056640625,2.043304681777954,1.0439469814300537,-0.3216176927089691
1761392256031465200,6.43046533203125,1.8180632591247559,1.3596726655960083,-0.17096960544586182
1761392256041547300,6.44054736328125,1.6830458641052246,1.785630226135254,-0.10454960912466049
1761392256051629300,6.45062939453125,1.649330735206604,2.1450932025909424,-0.1286083310842514
1761392256061712400,6.46071240234375,1.6191084384918213,2.2322847843170166,-0.16654212772846222
1761392256071794200,6.470794189453125,1.5062580108642578,1.941400408744812,-0.20944912731647491
1761392256081876200,6.480876220703125,1.2850141525268555,1.3796838521957397,-0.2403128296136856
1761392256091958300,6.490958251953125,1.0275418758392334,0.915978193283081,-0.26478540897369385
1761392256102041300,6.501041259765625,0.8414252996444702,0.5733757019042969,-0.3027229607105255
1761392256112123100,6.511123046875,0.7034226655960083,0.3689296245574951,-0.3473423719406128
1761392256122205200,6.521205078125,0.6230612993240356,0.21710878610610962,-0.4170890748500824
1761392256132287200,6.531287353515625,0.6064386367797852,-0.1018657386302948,-0.5344172716140747
1761392256142369300,6.541369384765625,0.6953064799308777,-0.2693166434764862,-0.7591276168823242
1761392256152452400,6.551452392578125,0.9721881747245789,-0.18281719088554382,-1.1750555038452148
1761392256162534100,6.5615341796875,1.3372163772583008,0.1166478767991066,-1.683988332748413
1761392256172616200,6.5716162109375,1.656333088874817,0.6766629815101624,-1.964686393737793
1761392256182698200,6.5816982421875,1.742511510848999,1.4483827352523804,-1.8578417301177979
1761392256192781300,6.59178125,1.5389717817306519,1.981817603111267,-1.4889273643493652
1761392256202863000,6.601863037109375,1.164441466331482,2.3971774578094482,-1.0823533535003662
1761392256212945200,6.611945068359375,0.8064721822738647,2.3782081604003906,-0.8474524021148682
1761392256223027200,6.622027099609375,0.6302913427352905,1.854686975479126,-0.7385590672492981
1761392256233110300,6.6321103515625,0.6402994990348816,1.055662751197815,-0.6002454161643982
1761392256243192300,6.6421923828125,0.7268478274345398,-0.015950685366988182,-0.4567823112010956
1761392256253274000,6.652274169921875,0.811272144317627,-1.163530707359314,-0.2659444510936737
1761392256263356200,6.662356201171875,0.8385218381881714,-1.822689175605774,-0.045545339584350586
1761392256273438200,6.672438232421875,0.8639947175979614,-1.6526732444763184,0.042869213968515396
1761392256283521300,6.682521240234375,0.825261652469635,-1.364506483078003,-0.20530980825424194
1761392256293603000,6.69260302734375,0.773551881313324,-0.5867598652839661,-0.4787448048591614
1761392256303685000,6.70268505859375,0.7255673408508301,0.1348055601119995,-0.6364352703094482
1761392256313767200,6.71276708984375,0.6776922345161438,0.9487781524658203,-0.6261594295501709
1761392256323850200,6.722850341796875,0.6833899617195129,1.4515135288238525,-0.48769068717956543
1761392256333932300,6.732932373046875,0.7333505749702454,1.5409151315689087,-0.2505801320075989
1761392256344014000,6.74301416015625,0.8416035771369934,1.1879985332489014,0.0014926653821021318
1761392256354096000,6.75309619140625,0.9928327798843384,0.7835370898246765,0.3212650716304779
1761392256364178200,6.76317822265625,1.0878404378890991,0.42325103282928467,0.8081939816474915
1761392256374261200,6.77326123046875,1.1347086429595947,0.08421676605939865,1.355107069015503
1761392256384343000,6.783343017578125,1.184651494026184,-0.0581696555018425,1.8939085006713867
1761392256394425000,6.793425048828125,1.2709383964538574,-0.018072035163640976,2.3716182708740234
1761392256404507100,6.803507080078125,1.4059425592422485,0.17122343182563782,2.6480607986450195
1761392256414590500,6.813590576171875,1.606303095817566,0.45681604743003845,2.6373112201690674
1761392256424672000,6.823672119140625,1.7529293298721313,0.8898281455039978,2.4738433361053467
1761392256434754000,6.833754150390625,1.7775944471359253,1.4993095397949219,2.2005503177642822
1761392256444836000,6.843836181640625,1.7008552551269531,2.0432510375976562,1.8577779531478882
1761392256454919400,6.85391943359375,1.5908079147338867,2.2934696674346924,1.5368300676345825
1761392256465001500,6.86400146484375,1.4713585376739502,2.249234199523926,1.2881382703781128
1761392256475083300,6.874083251953125,1.3766027688980103,2.1701648235321045,1.1411280632019043
1761392256485165300,6.884165283203125,1.331272840499878,2.282689332962036,1.0759429931640625
1761392256495247400,6.894247314453125,1.3652877807617188,2.5010461807250977,1.0264334678649902
1761392256505330400,6.904330322265625,1.472355604171753,2.5856285095214844,0.8979599475860596
1761392256515412200,6.914412109375,1.59273099899292,2.488990306854248,0.7132516503334045
1761392256525494300,6.924494384765625,1.6859993934631348,2.259317398071289,0.5067481994628906
1761392256535576300,6.934576416015625,1.689720869064331,2.1135923862457275,0.3361913859844208
1761392256545659400,6.944659423828125,1.6256593465805054,1.8832205533981323,0.19496998190879822
1761392256555741200,6.9547412109375,1.5694859027862549,1.5998833179473877,0.19545041024684906
1761392256565823200,6.9648232421875,1.5459580421447754,1.512736439704895,0.3850878179073334
1761392256575905300,6.9749052734375,1.4922550916671753,1.688185453414917,0.6733129024505615
1761392256585987300,6.9849873046875,1.3836725950241089,1.8682574033737183,0.8751735091209412
1761392256596070400,6.9950703125,1.2841801643371582,1.853472352027893,0.9312471747398376
1761392256606152200,7.005152099609375,1.194850206375122,1.8718515634536743,0.9068301916122437
1761392256616234200,7.015234130859375,1.1322033405303955,1.849780559539795,0.750501275062561
1761392256626316300,7.02531640625,1.0906280279159546,1.7471721172332764,0.5029584169387817
1761392256636399400,7.0353994140625,1.074819803237915,1.6088086366653442,0.2539517879486084
1761392256646481200,7.045481201171875,1.0793999433517456,1.5142626762390137,0.019191555678844452
1761392256656563200,7.055563232421875,1.1012018918991089,1.5485128164291382,-0.1965188980102539
1761392256666645200,7.065645263671875,1.0968942642211914,1.8108168840408325,-0.3398554027080536
1761392256676727300,7.075727294921875,1.0407119989395142,2.231600046157837,-0.4001688063144684
1761392256686810400,7.085810302734375,0.9120503664016724,2.606961965560913,-0.4185806214809418
1761392256696892200,7.09589208984375,0.6354153156280518,2.6852424144744873,0.013267723843455315
1761392256706974200,7.10597412109375,0.4596010744571686,1.3426824808120728,0.26533958315849304
1761392256717056300,7.11605615234375,0.6182167530059814,0.5703657865524292,0.42644885182380676
1761392256727139300,7.126139404296875,0.7928251028060913,0.29030928015708923,0.49991026520729065
1761392256737221000,7.13622119140625,0.8764272928237915,0.1718987226486206,0.39231377840042114
1761392256747303200,7.14630322265625,0.9026681780815125,0.31119492650032043,0.16861046850681305
1761392256757385200,7.15638525390625,0.975096583366394,0.41798263788223267,-0.04154568910598755
1761392256767467300,7.16646728515625,1.0267419815063477,0.35314443707466125,-0.07667670398950577
