time,seconds_elapsed,z,y,x
1761378732996271600,0.080271728515625,-0.0904541015625,-0.98382568359375,-0.0273590087890625
1761378733006327300,0.090327392578125,-0.08837890625,-0.984619140625,-0.025146484375
1761378733016382500,0.100382568359375,-0.0858154296875,-0.99066162109375,-0.0221405029296875
1761378733026437600,0.110437744140625,-0.0849151611328125,-0.9918365478515625,-0.0205230712890625
1761378733036492500,0.120492431640625,-0.0879364013671875,-0.9926300048828125,-0.01904296875
1761378733046548500,0.130548583984375,-0.0910491943359375,-0.9918212890625,-0.01812744140625
1761378733056603400,0.140603271484375,-0.0931854248046875,-0.9864501953125,-0.0180206298828125
1761378733066658600,0.150658447265625,-0.0963897705078125,-0.9843292236328125,-0.0153045654296875
1761378733076714500,0.160714599609375,-0.0930023193359375,-0.985565185546875,-0.0117034912109375
1761378733086769700,0.170769775390625,-0.0910491943359375,-0.989898681640625,-0.0080108642578125
1761378733096824300,0.18082421875,-0.087249755859375,-0.992218017578125,-0.00677490234375
1761378733106879500,0.19087939453125,-0.0851898193359375,-0.992279052734375,-0.0105438232421875
1761378733116935400,0.200935302734375,-0.08648681640625,-0.996551513671875,-0.017059326171875
1761378733126990600,0.210990478515625,-0.093963623046875,-1.000335693359375,-0.0211639404296875
1761378733137045500,0.22104541015625,-0.100067138671875,-0.9929046630859375,-0.0250396728515625
1761378733147100400,0.231100341796875,-0.10491943359375,-0.9868316650390625,-0.0270843505859375
1761378733157156400,0.24115625,-0.1059112548828125,-0.9901275634765625,-0.0234832763671875
1761378733167211500,0.25121142578125,-0.103179931640625,-0.992828369140625,-0.019866943359375
1761378733177266700,0.2612666015625,-0.094482421875,-0.995697021484375,-0.0201568603515625
1761378733187322400,0.271322265625,-0.082916259765625,-0.995361328125,-0.0218048095703125
1761378733197377500,0.28137744140625,-0.079071044921875,-0.9923248291015625,-0.0243377685546875
1761378733207432400,0.291432373046875,-0.0811767578125,-0.9947052001953125,-0.026580810546875
1761378733217487600,0.301487548828125,-0.083221435546875,-0.9978790283203125,-0.028472900390625
1761378733227543600,0.31154345703125,-0.09112548828125,-0.99951171875,-0.03277587890625
1761378733237598500,0.321598388671875,-0.0991668701171875,-0.9974517822265625,-0.03289794921875
1761378733247653400,0.3316533203125,-0.1021881103515625,-0.9965667724609375,-0.0305023193359375
1761378733257708500,0.34170849609375,-0.1038818359375,-0.9993438720703125,-0.02520751953125
1761378733267764500,0.351764404296875,-0.1048126220703125,-1.0028533935546875,-0.0191192626953125
1761378733277819400,0.3618193359375,-0.0984954833984375,-1.0015411376953125,-0.0158233642578125
1761378733287874600,0.37187451171875,-0.09539794921875,-0.99755859375,-0.0145111083984375
1761378733297930500,0.381930419921875,-0.0868988037109375,-0.9947357177734375,-0.0164642333984375
1761378733307985700,0.391985595703125,-0.082916259765625,-0.994476318359375,-0.01898193359375
1761378733318040600,0.40204052734375,-0.0848236083984375,-0.9917144775390625,-0.0199127197265625
1761378733328095500,0.412095458984375,-0.0863037109375,-0.9877166748046875,-0.02099609375
1761378733338151400,0.4221513671875,-0.0900726318359375,-0.9873046875,-0.0217742919921875
1761378733348206600,0.43220654296875,-0.092041015625,-0.9866485595703125,-0.0205230712890625
1761378733358261500,0.442261474609375,-0.0918731689453125,-0.985107421875,-0.0208282470703125
1761378733368317700,0.452317626953125,-0.0930328369140625,-0.9866180419921875,-0.0202178955078125
1761378733378372400,0.462372314453125,-0.0908660888671875,-0.989654541015625,-0.016937255859375
1761378733388427500,0.472427490234375,-0.0887298583984375,-0.994598388671875,-0.020538330078125
1761378733398482700,0.482482666015625,-0.08770751953125,-0.9964141845703125,-0.026275634765625
1761378733408538600,0.49253857421875,-0.0917510986328125,-0.9953765869140625,-0.025665283203125
1761378733418593300,0.50259326171875,-0.0937347412109375,-0.993988037109375,-0.0204315185546875
1761378733428648400,0.5126484375,-0.0953826904296875,-0.9967041015625,-0.0199127197265625
1761378733438703600,0.52270361328125,-0.093017578125,-0.9962921142578125,-0.0199432373046875
1761378733448759600,0.532759521484375,-0.0882415771484375,-0.994659423828125,-0.0218048095703125
1761378733458814500,0.542814453125,-0.08685302734375,-0.9906463623046875,-0.02337646484375
1761378733468869400,0.552869384765625,-0.0892486572265625,-0.994384765625,-0.0220794677734375
1761378733478925600,0.562925537109375,-0.0949859619140625,-0.9991607666015625,-0.02197265625
1761378733488980500,0.57298046875,-0.098358154296875,-0.997833251953125,-0.0250396728515625
1761378733499035600,0.58303564453125,-0.0974884033203125,-0.995819091796875,-0.0231475830078125
1761378733509090300,0.59309033203125,-0.0947418212890625,-0.9975738525390625,-0.0220947265625
1761378733519146500,0.603146484375,-0.0898284912109375,-0.99700927734375,-0.0229644775390625
1761378733529201400,0.613201416015625,-0.0833282470703125,-0.99029541015625,-0.022003173828125
1761378733539256600,0.623256591796875,-0.080047607421875,-0.984954833984375,-0.0225830078125
1761378733549311500,0.6333115234375,-0.0802459716796875,-0.9839935302734375,-0.023590087890625
1761378733559367400,0.643367431640625,-0.080718994140625,-0.9800262451171875,-0.0239715576171875
1761378733569422600,0.653422607421875,-0.0808258056640625,-0.9784698486328125,-0.0271148681640625
1761378733579477500,0.6634775390625,-0.0839385986328125,-0.9868316650390625,-0.0283050537109375
1761378733589533400,0.673533447265625,-0.0874786376953125,-0.9945831298828125,-0.0268707275390625
1761378733599588400,0.68358837890625,-0.09393310546875,-0.999755859375,-0.0259552001953125
1761378733609643500,0.6936435546875,-0.1002349853515625,-1.0033721923828125,-0.020172119140625
1761378733619698400,0.703698486328125,-0.102142333984375,-1.001708984375,-0.0166778564453125
1761378733629754600,0.713754638671875,-0.099761962890625,-0.9971923828125,-0.0183868408203125
1761378733639809500,0.7238095703125,-0.0955047607421875,-0.992523193359375,-0.0229949951171875
1761378733649865200,0.733865234375,-0.0926971435546875,-0.991607666015625,-0.02685546875
1761378733659920100,0.743920166015625,-0.0858917236328125,-0.990142822265625,-0.0263824462890625
1761378733669976300,0.753976318359375,-0.084686279296875,-0.9884490966796875,-0.0230865478515625
1761378733680031000,0.764031005859375,-0.088958740234375,-0.987548828125,-0.02069091796875
1761378733690086100,0.774086181640625,-0.0919189453125,-0.9892578125,-0.0158233642578125
1761378733700141300,0.784141357421875,-0.0900726318359375,-0.9916534423828125,-0.012420654296875
1761378733710197200,0.794197265625,-0.0904388427734375,-0.993377685546875,-0.0150909423828125
1761378733720252200,0.804252197265625,-0.0913238525390625,-0.993438720703125,-0.0191802978515625
1761378733730307000,0.81430712890625,-0.09130859375,-0.993194580078125,-0.021240234375
1761378733740363000,0.824363037109375,-0.0891876220703125,-0.9907379150390625,-0.02093505859375
1761378733750418200,0.834418212890625,-0.085296630859375,-0.987762451171875,-0.0233154296875
1761378733760473000,0.84447314453125,-0.082183837890625,-0.984100341796875,-0.0268707275390625
1761378733770528000,0.854528076171875,-0.0804443359375,-0.98345947265625,-0.0306243896484375
1761378733780584200,0.864584228515625,-0.0837860107421875,-0.9853363037109375,-0.0310821533203125
1761378733790639000,0.87463916015625,-0.089202880859375,-0.994781494140625,-0.0296630859375
1761378733800694300,0.8846943359375,-0.0942230224609375,-1.005340576171875,-0.0275421142578125
1761378733810749000,0.8947490234375,-0.097015380859375,-1.0062103271484375,-0.0272369384765625
1761378733820805000,0.90480517578125,-0.0982666015625,-1.0052642822265625,-0.0264739990234375
1761378733830860000,0.914860107421875,-0.094207763671875,-1.00482177734375,-0.029144287109375
1761378733840915200,0.924915283203125,-0.08929443359375,-0.998199462890625,-0.0332489013671875
1761378733850971100,0.93497119140625,-0.0870513916015625,-0.9906005859375,-0.0371246337890625
1761378733861026000,0.945026123046875,-0.0845489501953125,-0.98785400390625,-0.035980224609375
1761378733871081200,0.955081298828125,-0.0825042724609375,-0.9911651611328125,-0.0319061279296875
1761378733881136000,0.96513623046875,-0.0811767578125,-0.9950714111328125,-0.028411865234375
1761378733891192300,0.9751923828125,-0.0828399658203125,-0.9953460693359375,-0.026214599609375
1761378733901247000,0.9852470703125,-0.0833587646484375,-0.9963531494140625,-0.020721435546875
1761378733911302100,0.99530224609375,-0.08282470703125,-0.9972381591796875,-0.018280029296875
1761378733921357000,1.005357177734375,-0.0841827392578125,-0.9976348876953125,-0.02044677734375
1761378733931413200,1.015413330078125,-0.0857696533203125,-0.9942474365234375,-0.024017333984375
1761378733941468000,1.025468017578125,-0.091156005859375,-0.991363525390625,-0.0261688232421875
1761378733951523000,1.035523193359375,-0.090911865234375,-0.989166259765625,-0.0255126953125
1761378733961579000,1.0455791015625,-0.0917205810546875,-0.98162841796875,-0.0247344970703125
1761378733971634200,1.05563427734375,-0.08416748046875,-0.9812469482421875,-0.02813720703125
1761378733981689000,1.065689208984375,-0.0739898681640625,-0.9819488525390625,-0.0306396484375
1761378733991744000,1.075743896484375,-0.070404052734375,-0.9858856201171875,-0.0305328369140625
1761378734001800000,1.085800048828125,-0.0693206787109375,-0.9914398193359375,-0.0307159423828125
1761378734011855000,1.095855224609375,-0.0736083984375,-0.9939422607421875,-0.02734375
1761378734021910300,1.10591015625,-0.08306884765625,-0.999969482421875,-0.0246429443359375
1761378734031965000,1.11596484375,-0.089874267578125,-0.9970703125,-0.0220489501953125
1761378734042021000,1.126021240234375,-0.09722900390625,-0.9957427978515625,-0.0232696533203125
1761378734052076000,1.136075927734375,-0.0978240966796875,-0.998931884765625,-0.0237274169921875
1761378734062131200,1.146131103515625,-0.0912933349609375,-0.9969635009765625,-0.0256500244140625
1761378734072186000,1.15618603515625,-0.0846710205078125,-0.994964599609375,-0.0294647216796875
1761378734082242000,1.166241943359375,-0.0806427001953125,-0.9946746826171875,-0.0291290283203125
1761378734092297000,1.176296875,-0.0780792236328125,-0.9966278076171875,-0.0283050537109375
1761378734102352100,1.18635205078125,-0.0776824951171875,-0.9991302490234375,-0.0248260498046875
1761378734112408000,1.196407958984375,-0.0792694091796875,-1.00128173828125,-0.02032470703125
1761378734122463200,1.206463134765625,-0.08270263671875,-0.9979400634765625,-0.016357421875
1761378734132518100,1.21651806640625,-0.0868072509765625,-0.993988037109375,-0.0141754150390625
1761378734142573000,1.226572998046875,-0.086395263671875,-0.9938507080078125,-0.016876220703125
1761378734152629200,1.236629150390625,-0.0827178955078125,-0.9938507080078125,-0.0232696533203125
1761378734162684200,1.24668408203125,-0.083953857421875,-0.98785400390625,-0.0265350341796875
1761378734172739000,1.256739013671875,-0.0862274169921875,-0.9894561767578125,-0.0275115966796875
1761378734182794000,1.2667939453125,-0.086151123046875,-0.9922332763671875,-0.0259857177734375
1761378734192850200,1.27685009765625,-0.0879364013671875,-0.9893035888671875,-0.023773193359375
1761378734202905000,1.286905029296875,-0.08740234375,-0.9918060302734375,-0.0222320556640625
1761378734212960000,1.2969599609375,-0.0867767333984375,-0.9949493408203125,-0.0226593017578125
1761378734223015200,1.30701513671875,-0.08770751953125,-0.99658203125,-0.024993896484375
1761378734233071000,1.317071044921875,-0.086578369140625,-0.9999542236328125,-0.0237274169921875
1761378734243126300,1.327126220703125,-0.08648681640625,-1.0009307861328125,-0.02227783203125
1761378734253181200,1.33718115234375,-0.0858154296875,-0.9947357177734375,-0.0227813720703125
1761378734263237000,1.347237060546875,-0.0846405029296875,-0.9894866943359375,-0.022430419921875
1761378734273292000,1.3572919921875,-0.0834808349609375,-0.9862213134765625,-0.0201873779296875
1761378734283347200,1.36734716796875,-0.0813446044921875,-0.9843597412109375,-0.01947021484375
1761378734293402000,1.377402099609375,-0.0795135498046875,-0.98297119140625,-0.0215911865234375
1761378734303458300,1.387458251953125,-0.081634521484375,-0.980621337890625,-0.0248870849609375
1761378734313513000,1.397512939453125,-0.0832672119140625,-0.980438232421875,-0.0246734619140625
1761378734323568000,1.407568115234375,-0.083099365234375,-0.9822845458984375,-0.0250244140625
1761378734333623300,1.417623291015625,-0.0863494873046875,-0.9915618896484375,-0.0279998779296875
1761378734343679200,1.42767919921875,-0.0884246826171875,-1.000885009765625,-0.0270233154296875
1761378734353734100,1.437734130859375,-0.0897064208984375,-1.0007171630859375,-0.024658203125
1761378734363789000,1.4477890625,-0.0926055908203125,-1.000640869140625,-0.022613525390625
1761378734373844200,1.45784423828125,-0.0931549072265625,-1.003082275390625,-0.0208282470703125
1761378734383900200,1.467900146484375,-0.0923919677734375,-1.0008544921875,-0.0207061767578125
1761378734393955300,1.477955322265625,-0.08953857421875,-0.997802734375,-0.0186309814453125
1761378734404010000,1.488010009765625,-0.0901031494140625,-0.996856689453125,-0.0180816650390625
1761378734414065200,1.498065185546875,-0.0903167724609375,-0.996734619140625,-0.0215911865234375
1761378734424121000,1.50812109375,-0.08831787109375,-0.996826171875,-0.0241546630859375
1761378734434176300,1.51817626953125,-0.0871124267578125,-0.99591064453125,-0.02337646484375
1761378734444231000,1.52823095703125,-0.0861358642578125,-0.9930877685546875,-0.0243377685546875
1761378734454287000,1.538287109375,-0.0811004638671875,-0.99005126953125,-0.0275115966796875
1761378734464342000,1.548342041015625,-0.078277587890625,-0.991302490234375,-0.027313232421875
1761378734474397200,1.558397216796875,-0.076873779296875,-0.9906463623046875,-0.0275726318359375
1761378734484452000,1.5684521484375,-0.077880859375,-0.9912261962890625,-0.0304718017578125
1761378734494508000,1.578508056640625,-0.082855224609375,-0.9884796142578125,-0.033935546875
1761378734504563200,1.588563232421875,-0.086395263671875,-0.9857330322265625,-0.0347137451171875
1761378734514618000,1.5986181640625,-0.0895538330078125,-0.991241455078125,-0.0347442626953125
1761378734524673300,1.60867333984375,-0.08917236328125,-0.99810791015625,-0.0355072021484375
1761378734534729000,1.61872900390625,-0.087921142578125,-1.0043487548828125,-0.0350494384765625
1761378734544784100,1.6287841796875,-0.088470458984375,-1.00762939453125,-0.0331268310546875
1761378734554839000,1.638839111328125,-0.087677001953125,-1.003143310546875,-0.03155517578125
1761378734564894200,1.648894287109375,-0.084503173828125,-0.9960479736328125,-0.0297698974609375
1761378734574950100,1.6589501953125,-0.083160400390625,-0.99334716796875,-0.026580810546875
1761378734585005000,1.669005126953125,-0.087860107421875,-0.99114990234375,-0.0208282470703125
1761378734595060200,1.679060302734375,-0.0897979736328125,-0.9913330078125,-0.0181884765625
1761378734605115100,1.689115234375,-0.086517333984375,-0.991943359375,-0.019561767578125
1761378734615171000,1.699171142578125,-0.09234619140625,-0.99273681640625,-0.021331787109375
1761378734625226000,1.70922607421875,-0.09295654296875,-0.992706298828125,-0.0196685791015625
1761378734635281200,1.71928125,-0.090606689453125,-0.98846435546875,-0.0190582275390625
1761378734645339600,1.729339599609375,-0.090545654296875,-0.9848785400390625,-0.021026611328125
1761378734655395800,1.739395751953125,-0.0858612060546875,-0.981964111328125,-0.024078369140625
1761378734665450500,1.749450439453125,-0.082000732421875,-0.980072021484375,-0.0248565673828125
1761378734675505700,1.759505615234375,-0.08135986328125,-0.97991943359375,-0.0234832763671875
1761378734685561600,1.7695615234375,-0.0802001953125,-0.986541748046875,-0.02142333984375
1761378734695616800,1.77961669921875,-0.081329345703125,-0.9978485107421875,-0.02081298828125
1761378734705671400,1.78967138671875,-0.0892486572265625,-1.005340576171875,-0.01776123046875
1761378734715726600,1.7997265625,-0.0941009521484375,-1.0016632080078125,-0.016387939453125
1761378734725782500,1.809782470703125,-0.093597412109375,-1.0010833740234375,-0.0188140869140625
1761378734735837700,1.819837646484375,-0.096099853515625,-1.003753662109375,-0.0230255126953125
1761378734745892900,1.829892822265625,-0.0959320068359375,-0.9994964599609375,-0.0278472900390625
1761378734755947500,1.839947509765625,-0.0948333740234375,-0.9951324462890625,-0.0288238525390625
1761378734766003700,1.850003662109375,-0.09326171875,-0.996124267578125,-0.0279541015625
1761378734776058600,1.86005859375,-0.0931854248046875,-0.9989013671875,-0.028167724609375
1761378734786113800,1.87011376953125,-0.0898284912109375,-0.99713134765625,-0.0294647216796875
1761378734796168400,1.88016845703125,-0.0853118896484375,-0.9938507080078125,-0.028289794921875
1761378734806224600,1.890224609375,-0.08380126953125,-0.9927215576171875,-0.02423095703125
1761378734816279600,1.900279541015625,-0.0788726806640625,-0.990447998046875,-0.0229644775390625
1761378734826334700,1.910334716796875,-0.0702972412109375,-0.985107421875,-0.025177001953125
1761378734836389600,1.9203896484375,-0.071441650390625,-0.983612060546875,-0.0299072265625
1761378734846445600,1.930445556640625,-0.0787200927734375,-0.98638916015625,-0.0329132080078125
1761378734856500700,1.940500732421875,-0.088104248046875,-0.9880523681640625,-0.0323333740234375
1761378734866555600,1.9505556640625,-0.0952301025390625,-0.994415283203125,-0.0305938720703125
1761378734876610800,1.96061083984375,-0.0986175537109375,-0.996978759765625,-0.029266357421875
1761378734886666800,1.970666748046875,-0.1000213623046875,-0.9995574951171875,-0.0264892578125
1761378734896721700,1.9807216796875,-0.0980682373046875,-0.9989471435546875,-0.0202789306640625
1761378734906776600,1.990776611328125,-0.0906982421875,-0.9939727783203125,-0.0181427001953125
1761378734916831700,2.000831787109375,-0.0822601318359375,-0.9893035888671875,-0.018829345703125
1761378734926887700,2.0108876953125,-0.08123779296875,-0.9883270263671875,-0.019866943359375
1761378734936942600,2.020942626953125,-0.0822296142578125,-0.9918670654296875,-0.0153656005859375
1761378734946997800,2.030997802734375,-0.08099365234375,-0.994140625,-0.0164337158203125
1761378734957052700,2.041052734375,-0.086151123046875,-0.9984588623046875,-0.0243072509765625
1761378734967108600,2.051108642578125,-0.09332275390625,-1.0021514892578125,-0.0289764404296875
1761378734977163500,2.06116357421875,-0.100067138671875,-0.997528076171875,-0.0300140380859375
1761378734987218700,2.07121875,-0.10284423828125,-0.991424560546875,-0.0277099609375
1761378734997273600,2.081273681640625,-0.0939788818359375,-0.9881134033203125,-0.0279388427734375
1761378735007329800,2.091329833984375,-0.08551025390625,-0.9826507568359375,-0.026947021484375
1761378735017384700,2.101384765625,-0.0779571533203125,-0.984130859375,-0.02703857421875
1761378735027439600,2.111439697265625,-0.072357177734375,-0.9843597412109375,-0.028411865234375
1761378735037494800,2.121494873046875,-0.07916259765625,-0.985382080078125,-0.02923583984375
1761378735047550700,2.13155078125,-0.0814666748046875,-0.9908447265625,-0.0326995849609375
1761378735057605600,2.141605712890625,-0.090301513671875,-0.99493408203125,-0.03558349609375
1761378735067660500,2.15166064453125,-0.094757080078125,-0.9947967529296875,-0.038604736328125
1761378735077716500,2.161716552734375,-0.0938568115234375,-0.99188232421875,-0.0399932861328125
1761378735087771600,2.171771728515625,-0.0910797119140625,-0.99163818359375,-0.0371246337890625
1761378735097826800,2.181826904296875,-0.0874786376953125,-0.9911956787109375,-0.0327911376953125
1761378735107881500,2.191881591796875,-0.0860443115234375,-0.990753173828125,-0.0284576416015625
1761378735117937700,2.201937744140625,-0.0889892578125,-0.9905548095703125,-0.023345947265625
1761378735127992600,2.21199267578125,-0.0933074951171875,-0.99420166015625,-0.018218994140625
1761378735138047700,2.2220478515625,-0.0955963134765625,-0.99945068359375,-0.0188446044921875
1761378735148102700,2.2321025390625,-0.09466552734375,-1.004241943359375,-0.022613525390625
1761378735158158600,2.24215869140625,-0.09332275390625,-1.0038299560546875,-0.027130126953125
1761378735168213500,2.252213623046875,-0.0918121337890625,-0.9989471435546875,-0.029571533203125
1761378735178268700,2.2622685546875,-0.0871124267578125,-0.9940643310546875,-0.0301971435546875
1761378735188323800,2.27232373046875,-0.0854339599609375,-0.9925079345703125,-0.0330657958984375
1761378735198379800,2.2823798828125,-0.0885009765625,-0.9916229248046875,-0.03533935546875
1761378735208434700,2.2924345703125,-0.09051513671875,-0.9943389892578125,-0.031402587890625
1761378735218489600,2.302489501953125,-0.0958251953125,-1.0016937255859375,-0.0256195068359375
1761378735228544800,2.312544677734375,-0.10101318359375,-1.0072021484375,-0.02398681640625
1761378735238600700,2.3226005859375,-0.099945068359375,-1.0028228759765625,-0.0240325927734375
1761378735248655600,2.332655517578125,-0.0993804931640625,-0.998260498046875,-0.0211944580078125
1761378735258710500,2.34271044921875,-0.0921478271484375,-0.99481201171875,-0.0181884765625
1761378735268765700,2.352765625,-0.0836944580078125,-0.9837188720703125,-0.022491455078125
1761378735278821600,2.362821533203125,-0.081390380859375,-0.9786224365234375,-0.023773193359375
1761378735288876800,2.372876708984375,-0.0786590576171875,-0.983428955078125,-0.0233154296875
1761378735298931700,2.382931640625,-0.083831787109375,-0.984100341796875,-0.028533935546875
1761378735308986600,2.392986572265625,-0.093109130859375,-0.98626708984375,-0.0316619873046875
1761378735319042600,2.40304248046875,-0.0996246337890625,-0.990997314453125,-0.0277099609375
1761378735329097700,2.41309765625,-0.104949951171875,-0.990447998046875,-0.0230865478515625
1761378735339152600,2.423152587890625,-0.1001129150390625,-0.98980712890625,-0.023040771484375
1761378735349207600,2.43320751953125,-0.0919036865234375,-0.990325927734375,-0.0262298583984375
1761378735359263700,2.443263671875,-0.0854339599609375,-0.991607666015625,-0.030487060546875
1761378735369318700,2.453318603515625,-0.084197998046875,-0.993133544921875,-0.0321502685546875
1761378735379373600,2.46337353515625,-0.088623046875,-0.9963836669921875,-0.029541015625
1761378735389428700,2.4734287109375,-0.089691162109375,-1.0021514892578125,-0.027587890625
1761378735399484700,2.483484619140625,-0.093505859375,-1.0051116943359375,-0.0282135009765625
1761378735409539600,2.49353955078125,-0.0926971435546875,-1.003082275390625,-0.029754638671875
1761378735419594800,2.5035947265625,-0.08941650390625,-0.9982452392578125,-0.0303955078125
1761378735429649700,2.513649658203125,-0.0836181640625,-0.992889404296875,-0.0281524658203125
1761378735439705600,2.52370556640625,-0.07818603515625,-0.989044189453125,-0.0267791748046875
1761378735449760800,2.5337607421875,-0.072967529296875,-0.98974609375,-0.0225830078125
1761378735459815700,2.543815673828125,-0.07379150390625,-0.99322509765625,-0.0188446044921875
1761378735469870600,2.55387060546875,-0.0783233642578125,-0.99554443359375,-0.0158233642578125
1761378735479926500,2.563926513671875,-0.0851593017578125,-0.996429443359375,-0.0171356201171875
1761378735489981700,2.573981689453125,-0.0932159423828125,-0.997161865234375,-0.0198516845703125
1761378735500036600,2.58403662109375,-0.09521484375,-0.9995269775390625,-0.021148681640625
1761378735510091500,2.594091552734375,-0.095245361328125,-0.996124267578125,-0.023468017578125
1761378735520147500,2.6041474609375,-0.0922088623046875,-0.9960479736328125,-0.02301025390625
1761378735530202600,2.61420263671875,-0.0904388427734375,-0.9964752197265625,-0.022552490234375
1761378735540257800,2.6242578125,-0.0872650146484375,-0.9924163818359375,-0.022247314453125
1761378735550312700,2.634312744140625,-0.082275390625,-0.9864044189453125,-0.0216064453125
1761378735560369000,2.644368896484375,-0.08428955078125,-0.984771728515625,-0.0206451416015625
1761378735570423600,2.654423583984375,-0.0823211669921875,-0.9834136962890625,-0.019989013671875
1761378735580478700,2.664478759765625,-0.0804901123046875,-0.9836883544921875,-0.02386474609375
1761378735590533600,2.67453369140625,-0.0808868408203125,-0.988677978515625,-0.0264739990234375
1761378735600589800,2.68458984375,-0.0845947265625,-0.9930572509765625,-0.026031494140625
1761378735610644500,2.69464453125,-0.0898284912109375,-0.99774169921875,-0.0260162353515625
1761378735620699600,2.70469970703125,-0.0906829833984375,-1.000701904296875,-0.02655029296875
1761378735630754800,2.7147548828125,-0.0906524658203125,-0.998291015625,-0.026824951171875
1761378735640810800,2.724810791015625,-0.0923309326171875,-0.999420166015625,-0.0252838134765625
1761378735650862300,2.7348623046875,-0.0896453857421875,-0.9971466064453125,-0.0258331298828125
1761378735660917000,2.7449169921875,-0.083343505859375,-0.99273681640625,-0.024078369140625
1761378735670972200,2.75497216796875,-0.07794189453125,-0.989166259765625,-0.0230865478515625
1761378735681028000,2.765028076171875,-0.0722198486328125,-0.9915008544921875,-0.0260772705078125
1761378735691083300,2.775083251953125,-0.0730438232421875,-0.99462890625,-0.027618408203125
1761378735701138200,2.78513818359375,-0.0788421630859375,-0.9951629638671875,-0.028594970703125
1761378735711193000,2.795193115234375,-0.0838165283203125,-0.9927520751953125,-0.029388427734375
1761378735721249000,2.8052490234375,-0.0868377685546875,-0.9927825927734375,-0.0291595458984375
1761378735731304200,2.81530419921875,-0.0886077880859375,-0.9957122802734375,-0.02978515625
1761378735741359400,2.825359375,-0.0886383056640625,-0.997589111328125,-0.0307159423828125
1761378735751414000,2.8354140625,-0.0870513916015625,-0.9963531494140625,-0.0270843505859375
1761378735761470000,2.845469970703125,-0.08514404296875,-0.998077392578125,-0.0212860107421875
1761378735771525000,2.855525146484375,-0.0844879150390625,-0.9991607666015625,-0.017730712890625
1761378735781580300,2.865580322265625,-0.084625244140625,-0.996185302734375,-0.018096923828125
1761378735791635200,2.87563525390625,-0.0794525146484375,-0.9911041259765625,-0.023590087890625
1761378735801691100,2.885691162109375,-0.0815582275390625,-0.9899749755859375,-0.02789306640625
1761378735811746000,2.89574609375,-0.0837554931640625,-0.9904022216796875,-0.0321197509765625
1761378735821801200,2.90580126953125,-0.08172607421875,-0.9861297607421875,-0.0354461669921875
1761378735831856000,2.915856201171875,-0.0832977294921875,-0.98046875,-0.034454345703125
1761378735841912300,2.925912353515625,-0.0844879150390625,-0.9806365966796875,-0.0304412841796875
1761378735851967000,2.935967041015625,-0.082275390625,-0.98846435546875,-0.02459716796875
1761378735862022100,2.946022216796875,-0.0810394287109375,-0.9922637939453125,-0.0212554931640625
1761378735872077300,2.956077392578125,-0.0827789306640625,-0.993194580078125,-0.0214080810546875
1761378735882133200,2.96613330078125,-0.0845184326171875,-0.9968719482421875,-0.021636962890625
1761378735892188200,2.976188232421875,-0.085845947265625,-0.9997100830078125,-0.022613525390625
1761378735902243000,2.9862431640625,-0.084991455078125,-1.000518798828125,-0.022918701171875
1761378735912298200,2.99629833984375,-0.0849761962890625,-1.0030364990234375,-0.02294921875
1761378735922354200,3.006354248046875,-0.0852203369140625,-1.0059051513671875,-0.023223876953125
1761378735932409000,3.0164091796875,-0.079193115234375,-1.0064239501953125,-0.0269927978515625
1761378735942464000,3.026464111328125,-0.0816802978515625,-1.0053863525390625,-0.03082275390625
1761378735952519200,3.036519287109375,-0.07952880859375,-1.0016632080078125,-0.0284881591796875
1761378735962575000,3.0465751953125,-0.075775146484375,-0.9979400634765625,-0.0282440185546875
1761378735972630300,3.05663037109375,-0.0771026611328125,-0.9928131103515625,-0.0260772705078125
1761378735982685200,3.066685302734375,-0.0760955810546875,-0.9859161376953125,-0.0266571044921875
1761378735992740000,3.076739990234375,-0.077423095703125,-0.9867706298828125,-0.028839111328125
1761378736002796300,3.08679638671875,-0.080322265625,-0.989990234375,-0.026641845703125
1761378736012851200,3.096851318359375,-0.07843017578125,-0.98687744140625,-0.0236053466796875
1761378736022906000,3.106906005859375,-0.0776214599609375,-0.9905548095703125,-0.024566650390625
1761378736032961000,3.1169609375,-0.080352783203125,-0.9964599609375,-0.0256805419921875
1761378736043017200,3.127017333984375,-0.080230712890625,-0.995758056640625,-0.0256195068359375
1761378736053072100,3.137072021484375,-0.077880859375,-0.9906768798828125,-0.02984619140625
1761378736063127000,3.147126953125,-0.0817413330078125,-0.9871978759765625,-0.0324249267578125
1761378736073182200,3.15718212890625,-0.0836639404296875,-0.9865570068359375,-0.0314483642578125
1761378736083238100,3.167238037109375,-0.086334228515625,-0.99072265625,-0.03302001953125
1761378736093293300,3.177293212890625,-0.0908660888671875,-0.9972076416015625,-0.0336761474609375
1761378736103348200,3.18734814453125,-0.0901641845703125,-0.9964141845703125,-0.032318115234375
1761378736113403100,3.197403076171875,-0.0887908935546875,-0.99639892578125,-0.0313568115234375
1761378736123459000,3.207458984375,-0.0861968994140625,-0.9989013671875,-0.02899169921875
1761378736133514200,3.21751416015625,-0.0791778564453125,-0.9937286376953125,-0.02752685546875
1761378736143569200,3.227569091796875,-0.075286865234375,-0.989654541015625,-0.0276336669921875
1761378736153624000,3.2376240234375,-0.0757293701171875,-0.990081787109375,-0.02789306640625
1761378736163680000,3.247679931640625,-0.077545166015625,-0.9904632568359375,-0.029510498046875
1761378736173735200,3.257735107421875,-0.0836029052734375,-0.990966796875,-0.031341552734375
1761378736183790000,3.2677900390625,-0.0895233154296875,-0.996063232421875,-0.029022216796875
1761378736193845200,3.27784521484375,-0.0924530029296875,-0.999420166015625,-0.02728271484375
1761378736203901000,3.28790087890625,-0.0931243896484375,-0.9976348876953125,-0.0261077880859375
1761378736213956000,3.2979560546875,-0.0862579345703125,-0.9923553466796875,-0.0240020751953125
1761378736224011300,3.30801123046875,-0.0773468017578125,-0.987457275390625,-0.023284912109375
1761378736234066200,3.318066162109375,-0.0713348388671875,-0.9852752685546875,-0.0269927978515625
1761378736244122400,3.328122314453125,-0.06707763671875,-0.9837188720703125,-0.0286865234375
1761378736254177000,3.338177001953125,-0.0661163330078125,-0.9834442138671875,-0.033538818359375
1761378736264232200,3.348232177734375,-0.074249267578125,-0.991973876953125,-0.0344085693359375
1761378736274287000,3.358287109375,-0.08563232421875,-0.999114990234375,-0.03192138671875
1761378736284343300,3.36834326171875,-0.093902587890625,-1.005523681640625,-0.028167724609375
1761378736294398000,3.37839794921875,-0.0976409912109375,-1.00836181640625,-0.027191162109375
1761378736304453000,3.388453125,-0.0970458984375,-1.0045013427734375,-0.0284881591796875
1761378736314508300,3.39850830078125,-0.0923614501953125,-1.000885009765625,-0.0270233154296875
1761378736324564200,3.408564208984375,-0.0788116455078125,-1.0013427734375,-0.0230255126953125
1761378736334619100,3.418619140625,-0.0642242431640625,-0.99346923828125,-0.0248870849609375
1761378736344674000,3.428674072265625,-0.0559539794921875,-0.9858245849609375,-0.0283203125
1761378736354729200,3.438729248046875,-0.056060791015625,-0.9866790771484375,-0.0320892333984375
1761378736364785200,3.44878515625,-0.065826416015625,-0.9866943359375,-0.03753662109375
1761378736374840300,3.45884033203125,-0.0825653076171875,-0.98974609375,-0.0379486083984375
1761378736384895000,3.46889501953125,-0.0949859619140625,-0.9940643310546875,-0.0313873291015625
1761378736394950100,3.4789501953125,-0.0981292724609375,-0.9949188232421875,-0.026641845703125
1761378736405006000,3.489006103515625,-0.0961151123046875,-0.9957275390625,-0.02630615234375
1761378736415061200,3.499061279296875,-0.09033203125,-0.9946441650390625,-0.027587890625
1761378736425116200,3.5091162109375,-0.08184814453125,-0.9890899658203125,-0.0285491943359375
1761378736435171000,3.519171142578125,-0.07830810546875,-0.9916229248046875,-0.029083251953125
1761378736445227300,3.529227294921875,-0.078704833984375,-0.9962158203125,-0.027496337890625
1761378736455282200,3.5392822265625,-0.078582763671875,-0.99615478515625,-0.0298919677734375
1761378736465337300,3.54933740234375,-0.080352783203125,-0.99468994140625,-0.0313262939453125
1761378736475392000,3.55939208984375,-0.0839691162109375,-0.9935302734375,-0.027191162109375
1761378736485447200,3.569447265625,-0.0827178955078125,-0.992279052734375,-0.0261688232421875
1761378736495503000,3.579503173828125,-0.081024169921875,-0.9909515380859375,-0.028411865234375
1761378736505558300,3.589558349609375,-0.07861328125,-0.9913787841796875,-0.0307769775390625
1761378736515613200,3.59961328125,-0.0791015625,-0.9936370849609375,-0.033599853515625
1761378736525668000,3.609668212890625,-0.0817718505859375,-0.9929656982421875,-0.0350494384765625
1761378736535724300,3.619724365234375,-0.0800933837890625,-0.993133544921875,-0.0353240966796875
1761378736545779200,3.629779296875,-0.0792999267578125,-0.991851806640625,-0.0372161865234375
1761378736555834000,3.639834228515625,-0.0814666748046875,-0.9918212890625,-0.03875732421875
1761378736565889000,3.649888916015625,-0.08184814453125,-0.9921112060546875,-0.036407470703125
1761378736575945200,3.6599453125,-0.0829925537109375,-0.993896484375,-0.03509521484375
1761378736586000100,3.670000244140625,-0.0828094482421875,-0.9984283447265625,-0.0334014892578125
1761378736596055300,3.68005517578125,-0.081573486328125,-1.0019683837890625,-0.0301055908203125
1761378736606110200,3.690110107421875,-0.077728271484375,-1.0016326904296875,-0.027374267578125
1761378736616166100,3.700166259765625,-0.0733642578125,-0.9955596923828125,-0.026885986328125
1761378736626221000,3.710220947265625,-0.0699462890625,-0.9922637939453125,-0.0301513671875
1761378736636276200,3.720276123046875,-0.0738677978515625,-0.995208740234375,-0.0317535400390625
1761378736646331400,3.730331298828125,-0.0797576904296875,-0.99700927734375,-0.032989501953125
1761378736656387300,3.74038720703125,-0.088531494140625,-0.9911041259765625,-0.031402587890625
1761378736666442200,3.750442138671875,-0.09307861328125,-0.9936370849609375,-0.0285797119140625
1761378736676497200,3.7604970703125,-0.0912322998046875,-0.9993438720703125,-0.02667236328125
1761378736686552300,3.77055224609375,-0.0892333984375,-0.996429443359375,-0.026702880859375
1761378736696608300,3.780608154296875,-0.0837860107421875,-0.992523193359375,-0.024932861328125
1761378736706663200,3.7906630859375,-0.0778045654296875,-0.9927978515625,-0.027587890625
1761378736716718000,3.800718017578125,-0.0742950439453125,-0.9905242919921875,-0.0309600830078125
1761378736726773200,3.810773193359375,-0.071197509765625,-0.982421875,-0.033935546875
1761378736736829200,3.8208291015625,-0.07122802734375,-0.9824981689453125,-0.035247802734375
1761378736746884400,3.83088427734375,-0.0750579833984375,-0.9902191162109375,-0.031402587890625
1761378736756939300,3.840939208984375,-0.07763671875,-0.99285888671875,-0.029510498046875
1761378736766994200,3.850994140625,-0.0821685791015625,-0.992279052734375,-0.0291900634765625
1761378736777050400,3.86105029296875,-0.0866546630859375,-0.9929351806640625,-0.0280609130859375
1761378736787105300,3.871105224609375,-0.090301513671875,-0.9994964599609375,-0.02508544921875
1761378736797160200,3.88116015625,-0.0892333984375,-1.0015106201171875,-0.0250244140625
1761378736807215000,3.891215087890625,-0.08453369140625,-0.9982452392578125,-0.027618408203125
1761378736817271300,3.901271240234375,-0.0836944580078125,-0.9996795654296875,-0.0307769775390625
1761378736827326200,3.911326171875,-0.080963134765625,-0.9977874755859375,-0.0312652587890625
1761378736837381000,3.921381103515625,-0.076019287109375,-0.9902801513671875,-0.0290985107421875
1761378736847436300,3.931436279296875,-0.072723388671875,-0.9837799072265625,-0.028350830078125
1761378736857492200,3.9414921875,-0.0713348388671875,-0.982757568359375,-0.0273895263671875
1761378736867547400,3.95154736328125,-0.0712890625,-0.9857330322265625,-0.0261077880859375
1761378736877602300,3.961602294921875,-0.073211669921875,-0.988983154296875,-0.0226898193359375
1761378736887657200,3.9716572265625,-0.079742431640625,-0.9943695068359375,-0.022430419921875
1761378736897713200,3.981713134765625,-0.084259033203125,-0.998016357421875,-0.02130126953125
1761378736907768300,3.991768310546875,-0.08575439453125,-1.00091552734375,-0.0207672119140625
1761378736917823200,4.0018232421875,-0.088226318359375,-0.998504638671875,-0.02362060546875
1761378736927878100,4.011878173828125,-0.0905609130859375,-0.9960479736328125,-0.025177001953125
1761378736937931300,4.02193115234375,-0.0855560302734375,-0.99407958984375,-0.026458740234375
1761378736947986200,4.031986083984375,-0.0785369873046875,-0.9929046630859375,-0.02813720703125
1761378736958041000,4.042041015625,-0.0752410888671875,-0.9904632568359375,-0.0289154052734375
1761378736968097300,4.05209716796875,-0.072784423828125,-0.99493408203125,-0.02838134765625
1761378736978152200,4.062152099609375,-0.0727996826171875,-1.0052947998046875,-0.0257110595703125
1761378736988207400,4.072207275390625,-0.0787200927734375,-1.0069732666015625,-0.0226593017578125
1761378736998262300,4.08226220703125,-0.081298828125,-1.0029296875,-0.0235137939453125
1761378737008318200,4.092318115234375,-0.0868377685546875,-0.9986114501953125,-0.02252197265625
1761378737018373400,4.102373291015625,-0.0890960693359375,-0.9947052001953125,-0.0240631103515625
1761378737028428300,4.11242822265625,-0.0895843505859375,-0.989288330078125,-0.02484130859375
1761378737038483200,4.122483154296875,-0.0831298828125,-0.986785888671875,-0.025726318359375
1761378737048539100,4.1325390625,-0.0771484375,-0.9899749755859375,-0.029022216796875
1761378737058594300,4.14259423828125,-0.0758209228515625,-0.9936370849609375,-0.02880859375
1761378737068649200,4.152649169921875,-0.0749969482421875,-0.991241455078125,-0.029815673828125
1761378737078704400,4.162704345703125,-0.073486328125,-0.989715576171875,-0.0305328369140625
1761378737088759300,4.17275927734375,-0.07415771484375,-0.990814208984375,-0.0336456298828125
1761378737098815200,4.182815185546875,-0.0764617919921875,-0.988555908203125,-0.0341796875
1761378737108870100,4.1928701171875,-0.082977294921875,-0.9898681640625,-0.030609130859375
1761378737118925300,4.20292529296875,-0.0870208740234375,-0.9923858642578125,-0.0240020751953125
1761378737128980200,4.212980224609375,-0.0898590087890625,-0.9937896728515625,-0.0226898193359375
1761378737139036200,4.2230361328125,-0.0903167724609375,-0.9988555908203125,-0.02490234375
1761378737149091300,4.23309130859375,-0.0904998779296875,-0.9988861083984375,-0.0248260498046875
1761378737159146200,4.243146240234375,-0.081512451171875,-0.994873046875,-0.0264739990234375
1761378737169201200,4.253201171875,-0.0733489990234375,-0.990325927734375,-0.0267333984375
1761378737179257000,4.263257080078125,-0.0706939697265625,-0.98480224609375,-0.0309906005859375
1761378737189312300,4.273312255859375,-0.0720367431640625,-0.982940673828125,-0.0328826904296875
1761378737199367200,4.2833671875,-0.0769805908203125,-0.98773193359375,-0.031524658203125
1761378737209422300,4.29342236328125,-0.0867156982421875,-0.993621826171875,-0.0269317626953125
1761378737219478000,4.30347802734375,-0.0908203125,-0.996185302734375,-0.019317626953125
1761378737229533200,4.313533203125,-0.0910491943359375,-0.9979400634765625,-0.0169677734375
1761378737239588400,4.32358837890625,-0.086517333984375,-1.001007080078125,-0.019195556640625
1761378737249643300,4.333643310546875,-0.0828857421875,-1.0017242431640625,-0.01947021484375
1761378737259699500,4.343699462890625,-0.080535888671875,-1.000579833984375,-0.020904541015625
1761378737269754000,4.353754150390625,-0.0800323486328125,-0.9970550537109375,-0.0238800048828125
1761378737279809300,4.363809326171875,-0.079742431640625,-0.9899444580078125,-0.026275634765625
1761378737289864200,4.3738642578125,-0.085784912109375,-0.990478515625,-0.0289306640625
1761378737299920400,4.38392041015625,-0.0995025634765625,-0.9961090087890625,-0.026702880859375
1761378737309975000,4.39397509765625,-0.1002349853515625,-0.99725341796875,-0.0261688232421875
1761378737320030200,4.4040302734375,-0.0991363525390625,-0.9971923828125,-0.025634765625
1761378737330085400,4.41408544921875,-0.0985565185546875,-0.9992218017578125,-0.0220947265625
1761378737340141300,4.424141357421875,-0.0900421142578125,-0.997802734375,-0.02386474609375
1761378737350198300,4.4341982421875,-0.08123779296875,-0.9945831298828125,-0.0235748291015625
1761378737360253400,4.44425341796875,-0.074493408203125,-0.9932861328125,-0.0255279541015625
1761378737370308000,4.45430810546875,-0.075469970703125,-0.99261474609375,-0.0311279296875
1761378737380363300,4.46436328125,-0.085601806640625,-0.990142822265625,-0.031097412109375
1761378737390419200,4.474419189453125,-0.0932769775390625,-0.989013671875,-0.0296478271484375
1761378737400474400,4.484474365234375,-0.09521484375,-0.9882354736328125,-0.030517578125
1761378737410529000,4.494529052734375,-0.0968170166015625,-0.988616943359375,-0.029388427734375
1761378737420584200,4.504584228515625,-0.089935302734375,-0.9840545654296875,-0.024810791015625
1761378737430640000,4.51464013671875,-0.0840606689453125,-0.9814910888671875,-0.0228118896484375
1761378737440695300,4.5246953125,-0.0773773193359375,-0.985992431640625,-0.0216064453125
1761378737450750500,4.53475048828125,-0.0709686279296875,-0.9862823486328125,-0.02392578125
1761378737460805000,4.54480517578125,-0.073272705078125,-0.986572265625,-0.028900146484375
1761378737470861300,4.554861328125,-0.0826416015625,-0.9907073974609375,-0.032135009765625
1761378737480916200,4.564916259765625,-0.09271240234375,-0.99664306640625,-0.029693603515625
1761378737490971400,4.574971435546875,-0.100128173828125,-0.9998779296875,-0.0229339599609375
1761378737501026000,4.585026123046875,-0.1034393310546875,-1.0055999755859375,-0.0207061767578125
1761378737511082200,4.595082275390625,-0.103424072265625,-1.009490966796875,-0.014678955078125
1761378737521137200,4.60513720703125,-0.098480224609375,-1.006134033203125,-0.0111541748046875
1761378737531192300,4.6151923828125,-0.087890625,-1.00244140625,-0.012237548828125
1761378737541247200,4.625247314453125,-0.077972412109375,-0.9964599609375,-0.01409912109375
1761378737551303200,4.63530322265625,-0.0726165771484375,-0.98724365234375,-0.0191497802734375
1761378737561358300,4.6453583984375,-0.070068359375,-0.984283447265625,-0.023712158203125
1761378737571413200,4.655413330078125,-0.07574462890625,-0.9874420166015625,-0.0235137939453125
1761378737581468400,4.665468505859375,-0.083404541015625,-0.9928436279296875,-0.019134521484375
1761378737591524000,4.675524169921875,-0.087615966796875,-0.996917724609375,-0.0177764892578125
1761378737601579300,4.685579345703125,-0.0964813232421875,-1.0001678466796875,-0.0205230712890625
1761378737611634200,4.69563427734375,-0.10186767578125,-1.0074462890625,-0.016143798828125
1761378737621689300,4.705689453125,-0.1011199951171875,-1.0114898681640625,-0.0103302001953125
1761378737631745300,4.715745361328125,-0.0984039306640625,-1.0086212158203125,-0.0086517333984375
1761378737641800200,4.72580029296875,-0.09375,-1.0019989013671875,-0.00653076171875
1761378737651860200,4.735860107421875,-0.0819244384765625,-0.9910430908203125,-0.0104217529296875
1761378737661915400,4.745915283203125,-0.0751495361328125,-0.9829864501953125,-0.02008056640625
1761378737671970000,4.755969970703125,-0.0718231201171875,-0.980743408203125,-0.0296630859375
1761378737682026200,4.766026123046875,-0.0726165771484375,-0.978240966796875,-0.034210205078125
1761378737692081200,4.7760810546875,-0.07769775390625,-0.983367919921875,-0.0323638916015625
1761378737702136300,4.78613623046875,-0.084716796875,-0.9900665283203125,-0.0269012451171875
1761378737712192300,4.796192138671875,-0.0896148681640625,-0.9959259033203125,-0.022308349609375
1761378737722247200,4.8062470703125,-0.09332275390625,-1.0041351318359375,-0.0189971923828125
1761378737732302000,4.816302001953125,-0.09381103515625,-1.0029144287109375,-0.018157958984375
1761378737742357200,4.826357177734375,-0.0905609130859375,-1.0017242431640625,-0.0194549560546875
1761378737752412400,4.836412353515625,-0.085845947265625,-1.00140380859375,-0.0228271484375
1761378737762468400,4.84646826171875,-0.0846405029296875,-0.9949798583984375,-0.02581787109375
1761378737772523300,4.856523193359375,-0.0819549560546875,-0.993408203125,-0.0284576416015625
1761378737782578200,4.866578125,-0.0811004638671875,-0.995574951171875,-0.0331573486328125
1761378737792633300,4.87663330078125,-0.0850982666015625,-0.9957427978515625,-0.0352783203125
1761378737802689300,4.886689208984375,-0.087677001953125,-0.9958343505859375,-0.0311126708984375
1761378737812744200,4.896744140625,-0.0925445556640625,-0.9975738525390625,-0.0242767333984375
1761378737822799000,4.906799072265625,-0.0905609130859375,-0.9980010986328125,-0.0203399658203125
1761378737832854300,4.916854248046875,-0.0843963623046875,-0.994476318359375,-0.0173797607421875
1761378737842910200,4.92691015625,-0.0796661376953125,-0.9895782470703125,-0.017242431640625
1761378737852965400,4.93696533203125,-0.077056884765625,-0.9863739013671875,-0.0201873779296875
1761378737863020300,4.947020263671875,-0.0766448974609375,-0.9906768798828125,-0.02130126953125
1761378737873075200,4.9570751953125,-0.0796356201171875,-0.9897003173828125,-0.0227813720703125
1761378737883131400,4.96713134765625,-0.0850677490234375,-0.9884796142578125,-0.0221710205078125
1761378737893186300,4.977186279296875,-0.0848541259765625,-0.987274169921875,-0.01922607421875
1761378737903241200,4.9872412109375,-0.0813140869140625,-0.9882965087890625,-0.0167236328125
1761378737913296100,4.997296142578125,-0.0784912109375,-0.98822021484375,-0.015899658203125
1761378737923352300,5.007352294921875,-0.0726470947265625,-0.9845733642578125,-0.0189971923828125
1761378737933407200,5.0174072265625,-0.0743255615234375,-0.985565185546875,-0.0199432373046875
1761378737943462100,5.027462158203125,-0.078887939453125,-0.991241455078125,-0.015960693359375
1761378737953517300,5.037517333984375,-0.0869598388671875,-0.9971923828125,-0.011993408203125
1761378737963573200,5.0475732421875,-0.0937042236328125,-1.004547119140625,-0.011566162109375
1761378737973628200,5.057628173828125,-0.0985107421875,-1.0077972412109375,-0.0143280029296875
1761378737983683300,5.067683349609375,-0.099884033203125,-1.0052947998046875,-0.0194244384765625
1761378737993738200,5.07773828125,-0.0988006591796875,-1.000396728515625,-0.0232696533203125
1761378738003794200,5.087794189453125,-0.0889892578125,-0.9967803955078125,-0.022979736328125
1761378738013849300,5.097849365234375,-0.08197021484375,-0.994903564453125,-0.0261383056640625
1761378738023904300,5.107904296875,-0.0805206298828125,-0.9937896728515625,-0.02362060546875
1761378738033959200,5.117959228515625,-0.0791473388671875,-0.9969482421875,-0.0170440673828125
1761378738044015000,5.12801513671875,-0.080413818359375,-0.99951171875,-0.0122528076171875
1761378738054070300,5.1380703125,-0.0802001953125,-0.996185302734375,-0.0143585205078125
1761378738064125200,5.148125244140625,-0.07806396484375,-0.9928131103515625,-0.020599365234375
1761378738074180000,5.15818017578125,-0.081085205078125,-0.9889678955078125,-0.0214691162109375
1761378738084236000,5.168236083984375,-0.0808258056640625,-0.986419677734375,-0.0223388671875
1761378738094291200,5.178291259765625,-0.08074951171875,-0.9857635498046875,-0.0238037109375
1761378738104346400,5.188346435546875,-0.0799713134765625,-0.987457275390625,-0.0209197998046875
1761378738114401300,5.1984013671875,-0.082183837890625,-0.993927001953125,-0.0196990966796875
1761378738124457500,5.20845751953125,-0.0817413330078125,-0.992095947265625,-0.0191497802734375
1761378738134512000,5.21851220703125,-0.081756591796875,-0.9898223876953125,-0.02032470703125
1761378738144567300,5.2285673828125,-0.0827789306640625,-0.9921722412109375,-0.018402099609375
1761378738154622200,5.238622314453125,-0.0795440673828125,-0.99163818359375,-0.01507568359375
1761378738164678400,5.248678466796875,-0.0765838623046875,-0.995269775390625,-0.01318359375
1761378738174733000,5.258733154296875,-0.0742645263671875,-0.9988555908203125,-0.0128326416015625
1761378738184788200,5.268788330078125,-0.0740203857421875,-0.9947662353515625,-0.0193328857421875
1761378738194843400,5.278843505859375,-0.07672119140625,-0.992706298828125,-0.0255889892578125
1761378738204899300,5.2888994140625,-0.0830535888671875,-0.99163818359375,-0.0233001708984375
1761378738214954200,5.298954345703125,-0.085968017578125,-0.991943359375,-0.0173187255859375
1761378738225009200,5.309009033203125,-0.0825653076171875,-0.995635986328125,-0.0171356201171875
1761378738235064300,5.319064208984375,-0.0773773193359375,-0.999603271484375,-0.0201873779296875
1761378738245120300,5.329120361328125,-0.074188232421875,-1.000213623046875,-0.0183868408203125
1761378738255175400,5.339175537109375,-0.0756072998046875,-1.0043487548828125,-0.0144195556640625
1761378738265230000,5.34922998046875,-0.075286865234375,-1.005462646484375,-0.0131683349609375
1761378738275285200,5.35928515625,-0.077239990234375,-0.9982147216796875,-0.01873779296875
1761378738285340400,5.36934033203125,-0.08416748046875,-0.991943359375,-0.02203369140625
1761378738295396400,5.379396240234375,-0.0881195068359375,-0.9879913330078125,-0.0219879150390625
1761378738305451300,5.389451171875,-0.084747314453125,-0.9882965087890625,-0.0211944580078125
1761378738315506200,5.399506103515625,-0.0809173583984375,-0.98931884765625,-0.0233154296875
1761378738325561300,5.409561279296875,-0.0768585205078125,-0.9889373779296875,-0.022216796875
1761378738335617300,5.4196171875,-0.0731964111328125,-0.99322509765625,-0.0196990966796875
1761378738345672200,5.429672119140625,-0.0703582763671875,-0.992584228515625,-0.019744873046875
1761378738355727000,5.43972705078125,-0.070556640625,-0.9897918701171875,-0.0211639404296875
1761378738365782300,5.4497822265625,-0.07470703125,-0.9902191162109375,-0.022735595703125
1761378738375838200,5.459838134765625,-0.07806396484375,-0.990692138671875,-0.024566650390625
1761378738385893400,5.469893310546875,-0.0816802978515625,-0.9884796142578125,-0.02728271484375
1761378738395948300,5.4799482421875,-0.0827178955078125,-0.98883056640625,-0.0260162353515625
1761378738406003200,5.490003173828125,-0.081787109375,-0.9911956787109375,-0.02581787109375
1761378738416059100,5.50005908203125,-0.0771484375,-0.993560791015625,-0.025238037109375
1761378738426114300,5.5101142578125,-0.073699951171875,-0.995269775390625,-0.0231475830078125
1761378738436169200,5.520169189453125,-0.072723388671875,-0.99237060546875,-0.0220489501953125
1761378738446224100,5.53022412109375,-0.06805419921875,-0.992156982421875,-0.0205230712890625
1761378738456280300,5.5402802734375,-0.06927490234375,-0.997772216796875,-0.0219879150390625
1761378738466335200,5.550335205078125,-0.07696533203125,-1.0032196044921875,-0.0290679931640625
1761378738476390100,5.56039013671875,-0.0892333984375,-1.0028228759765625,-0.0305023193359375
1761378738486445300,5.5704453125,-0.0976409912109375,-1.0038909912109375,-0.028289794921875
1761378738496501200,5.580501220703125,-0.08880615234375,-1.0018463134765625,-0.0273284912109375
1761378738506556200,5.59055615234375,-0.0955352783203125,-0.9979705810546875,-0.0169830322265625
1761378738516611300,5.600611328125,-0.0856781005859375,-0.99359130859375,-0.0108489990234375
1761378738526666200,5.610666259765625,-0.063934326171875,-0.9865264892578125,-0.0121002197265625
1761378738536722200,5.62072216796875,-0.05389404296875,-0.9813079833984375,-0.01513671875
1761378738546777300,5.63077734375,-0.0454559326171875,-0.9750823974609375,-0.019256591796875
1761378738556832300,5.640832275390625,-0.05035400390625,-0.97589111328125,-0.0217742919921875
1761378738566887200,5.65088720703125,-0.0643310546875,-0.9823455810546875,-0.0233917236328125
1761378738576943000,5.660943115234375,-0.0817413330078125,-0.98968505859375,-0.02587890625
1761378738586998300,5.670998291015625,-0.099578857421875,-0.9898529052734375,-0.025726318359375
1761378738597053200,5.68105322265625,-0.1074371337890625,-0.9971923828125,-0.031829833984375
1761378738607108400,5.6911083984375,-0.1086578369140625,-1.002471923828125,-0.0317230224609375
