time,seconds_elapsed,z,y,x
1761378733050316500,0.134316650390625,0.032933789895847436,0.024941549032926558,0.03457273447560146
1761378733060371500,0.144371337890625,0.013135375905036925,0.058684244158864016,0.031246348265558478
1761378733070426400,0.15442626953125,-0.025492680109664795,0.10846680445969104,0.046959483970422294
1761378733080482600,0.164482666015625,-0.02221818848364055,0.10392156224548817,0.07865795991765334
1761378733090537500,0.174537353515625,0.008891746985912323,0.0767231741964817,0.11841478250026702
1761378733100592400,0.18459228515625,0.03386778281033039,0.039974867513775825,0.1459400644160807
1761378733110647600,0.1946474609375,0.0702929219532758,0.03255377760231495,0.13772258169623092
1761378733120703500,0.204703369140625,0.08167122505791485,0.01996492966413498,0.08091143793286755
1761378733130758400,0.21475830078125,0.0357715706050396,-0.041968087157607074,0.028803777419030663
1761378733140813600,0.2248134765625,-0.03199965085089206,-0.027118893072009084,-0.007558014164119958
1761378733150868500,0.234868408203125,-0.08941255989968776,0.06603811405301094,-0.04402487355694174
1761378733160924400,0.24492431640625,-0.12563545446880162,0.07552548884451389,-0.033528778380621224
1761378733170979600,0.2549794921875,-0.11139818173646926,0.033871289941668506,0.007756459345668554
1761378733181034500,0.265034423828125,-0.06916596374996006,0.013557985231280326,0.0244385496805422
1761378733191090700,0.275090576171875,0.046593993392586706,-0.008676642930507659,0.01132028930708766
1761378733201145300,0.285145263671875,0.1317313601911068,0.018286182796955108,-0.0046454877182841295
1761378733211200500,0.295200439453125,0.12624328416883945,0.019496727630496025,-0.032371845164149995
1761378733221255400,0.30525537109375,0.1191694002598524,-0.008262801432609558,-0.04702288632914424
1761378733231311600,0.3153115234375,0.07242927639484405,-0.03807517137229442,-0.07878814390227198
1761378733241366300,0.3253662109375,-0.01172251343242824,-0.03239771025776863,-0.110425957437139
1761378733251421400,0.33542138671875,-0.06791786338500679,-0.014993570992350578,-0.10056682672379538
1761378733261476600,0.3454765625,-0.08468136665932834,-0.02028992383480072,-0.062253170420508826
1761378733271532500,0.355532470703125,-0.11497545570135116,-0.06089022977054119,-0.009638327569514512
1761378733281587700,0.365587646484375,-0.08396174714788794,-0.06938683995902538,0.04750792989972979
1761378733291642400,0.375642333984375,-0.03999583723656833,-0.04230827889740467,0.06536344792814924
1761378733301698600,0.385698486328125,0.004721767824888229,-0.0018704700469970702,0.06518471209406852
1761378733311753500,0.39575341796875,0.08676708689220249,0.009827566531300545,0.03550343945445493
1761378733321808600,0.40580859375,0.0787146402746439,0.018119009536504745,0.02576294841840863
1761378733331863300,0.41586328125,0.06734970810823142,0.05836567972898483,0.015500040943454951
1761378733341919500,0.42591943359375,0.035174846820905804,0.08427578153312205,0.0032805012417025862
1761378733351974400,0.435974365234375,0.008529416479542851,0.07894377285540104,0.006606430794019251
1761378733362029600,0.446029541015625,-0.001990808491036296,0.09818798702955245,0.0146376154278405
1761378733372085500,0.45608544921875,-0.009933438058570027,0.09948562562465667,0.004457984055858105
1761378733382140400,0.466140380859375,-0.006546572099253535,0.07095511218905448,0.0347140426424332
1761378733392195600,0.476195556640625,0.021420462234690785,0.038671968221664424,0.04302097547771409
1761378733402250500,0.48625048828125,0.03309102628417313,-0.0073503627628088,-0.017583130827825515
1761378733412306400,0.496306396484375,0.020395210840180516,-0.0075467621177434914,-0.048022400494199244
1761378733422361300,0.506361328125,-0.019340587220713495,0.014731120663881301,-0.005967219575028866
1761378733432416500,0.51641650390625,-0.03573817979209125,-0.0013104980766773223,0.02661753768743947
1761378733442471400,0.526471435546875,-0.039567382691428066,-0.008102642434835433,0.021346757677663118
1761378733452527600,0.536527587890625,0.0075146134138107295,-0.00355447761118412,0.018820581934601066
1761378733462582500,0.54658251953125,0.03688040862977505,0.03146013714671135,-0.00505918308570981
1761378733472637400,0.556637451171875,0.035764629407599564,0.037274376383423805,-0.006291190832387656
1761378733482693400,0.566693359375,-0.012218187994882463,-0.016380056914687156,0.009651643708813934
1761378733492748500,0.57674853515625,-0.06546579405777156,-0.03444119878411293,-0.013961140938382594
1761378733502803500,0.586803466796875,-0.08255896767787635,-0.005980243453383445,-0.020661807620804756
1761378733512858400,0.5968583984375,-0.064005146920681,-0.007221183425188064,0.00257175018414855
1761378733522914300,0.606914306640625,-0.03488952707350254,-0.023908698853850364,-0.0021779285609722135
1761378733532969500,0.616969482421875,0.023766075512766837,0.01575286492705345,0.0038771336942911147
1761378733543024600,0.627024658203125,0.07739194030351937,0.08611644096374511,0.004209160393942147
1761378733553079600,0.63707958984375,0.0855512813616544,0.11368950754404067,0.0017502229345031082
1761378733563135500,0.647135498046875,0.08058627936542034,0.13021218779981136,-0.007396247731149196
1761378733573190400,0.6571904296875,0.08174472868554293,0.17475450935959816,-0.022813030837941912
1761378733583245600,0.66724560546875,0.06792553523480892,0.13557751422524453,-0.0527615761116147
1761378733593301500,0.677301513671875,0.04484693052954972,0.043838557204604146,-0.05140079088611528
1761378733603356700,0.687356689453125,-0.007983911425992847,-0.015223288094997406,-0.038127760076057164
1761378733613411300,0.697411376953125,-0.07104863569140434,-0.06187924080789089,-0.011955664601176976
1761378733623466500,0.707466552734375,-0.11371354600675404,-0.0726274293154478,0.053960558371525254
1761378733633522400,0.7175224609375,-0.11515205437727272,-0.040456513550877565,0.05417610081834718
1761378733643578000,0.727578125,-0.07594576008319855,0.013176876959204673,0.026884499794244766
1761378733653633000,0.737633056640625,-0.05303118683323264,0.03857201497852802,-0.02320036792140454
1761378733663688200,0.747688232421875,-0.004659223982691764,0.04298340167999267,-0.03918707813695073
1761378733673744100,0.757744140625,0.04934190386123955,0.06691431236565112,-0.022242939332406966
1761378733683799000,0.767799072265625,0.018749197198823092,0.07490823372900486,0.010686393584031612
1761378733693854200,0.777854248046875,-0.01601816479973495,0.0750502725481987,0.038775592992920424
1761378733703909000,0.7879091796875,-0.025660437892004846,0.05391103840768337,0.0902233100269921
1761378733713965000,0.797965087890625,-0.003011383710429072,0.02825637266933918,0.09580651698680594
1761378733724020000,0.80802001953125,-0.02648819395303726,0.02252981171607971,0.05516396107822656
1761378733734075100,0.8180751953125,-0.018480170999094842,0.022821488139033317,0.025527258232701567
1761378733744131000,0.828131103515625,-0.021580548167228698,0.03523147237896919,0.022002134580165148
1761378733754186200,0.838186279296875,0.02150339127779007,0.06348901409208774,0.014377484920620917
1761378733764241200,0.8482412109375,0.050798459345102305,0.09589140052497386,-0.012666589349508284
1761378733774296000,0.858296142578125,0.08159984032213688,0.12192951262295246,-0.05340352727696299
1761378733784352000,0.86835205078125,0.07626673566587269,0.11376140373647212,-0.07673367732418701
1761378733794407200,0.8784072265625,0.031091303834319114,0.06682604956030845,-0.06712021020129323
1761378733804462000,0.888462158203125,-0.0191840084195137,-0.05132394452393055,-0.045788960620015855
1761378733814517000,0.89851708984375,-0.05783778339736163,-0.10873159287571907,-0.03496299416851252
1761378733824573000,0.908572998046875,-0.07822780660577118,-0.0955108767747879,-0.02231985875982791
1761378733834628000,0.918628173828125,-0.07301672089397906,-0.0975631331294775,-0.031311668586730956
1761378733844683300,0.928683349609375,-0.01842420302815735,-0.06375380250811577,-0.06587024667281657
1761378733854739200,0.9387392578125,0.004365793994069099,0.014245967495441436,-0.10758695288524031
1761378733864794000,0.948794189453125,0.02886902467496693,0.07428396435081959,-0.1300245380069129
1761378733874849000,0.95884912109375,0.04503624255657196,0.06437281118929386,-0.09432838899195194
1761378733884904200,0.968904296875,0.07058569435477256,0.023414193335175512,-0.06372136154323815
1761378733894960000,0.978960205078125,0.061872811067104336,0.004249474138021469,-0.03754822488874197
1761378733905015300,0.989015380859375,0.04068031236939132,0.0025368250012397764,-0.001126264083571732
1761378733915070000,0.999070068359375,0.051903790238499635,-0.009398527464270591,0.04492123787477612
1761378733925125000,1.009125,0.04020874933488667,-0.017913842353224754,0.050174938885588195
1761378733935181000,1.01918115234375,0.034442367827892305,-0.0038116672426462173,0.018677812463045118
1761378733945236200,1.029236328125,-0.017546178084611893,0.03714928869903088,-0.010733721590787173
1761378733955291100,1.039291015625,-0.041343744714185594,0.047533320069313045,-0.012516915213130414
1761378733965347000,1.04934716796875,-0.04333060768246651,0.10558569606542587,0.0010407412245869636
1761378733975402200,1.05940234375,-0.03148059541285038,0.15014438423812387,-0.009764438167214394
1761378733985457200,1.06945703125,0.07998078775294125,0.13919687376618384,-0.05048221473647281
1761378733995512000,1.079511962890625,0.1416916862566024,0.1271820263236761,-0.058083757515065365
1761378734005568000,1.089568115234375,0.16709844164848325,0.06379647260606289,-0.058027095424383876
1761378734015623200,1.099623046875,0.16622684644572436,0.037679450052976605,-0.04873878686893731
1761378734025678000,1.109677978515625,0.08723580038249493,-0.013303718209266662,-0.007377104639261961
1761378734035733200,1.119733154296875,0.012042393036559223,-0.036948797690868375,0.0134143572431989
1761378734045789000,1.129788818359375,-0.051222749171778555,0.004643441891670227,0.02788901892798021
1761378734055844000,1.139843994140625,-0.11333645632266998,-0.017941314882040024,0.015985943030565976
1761378734065899000,1.14989892578125,-0.06432480732910335,-0.025129180559515952,0.012516111495532094
1761378734075954200,1.1599541015625,-0.005526069945096969,0.003684241470694542,-0.0229071205958724
1761378734086010000,1.170010009765625,0.0465115758061409,0.013193828094005584,-0.0425029246866703
1761378734096065000,1.18006494140625,0.08103986835181713,0.0054506666213274,-0.03466477840691805
1761378734106120200,1.1901201171875,0.0896902808625251,-0.02003507229089737,-0.01926142103727907
1761378734116176100,1.200176025390625,0.0854986743915826,-0.04546411257982254,0.024514738455601034
1761378734126231300,1.210231201171875,0.061013636954501266,-0.04357143070101738,0.06473274880917743
1761378734136286000,1.220285888671875,0.018116744514182208,0.0030418519139289854,0.10413626444209366
1761378734146341000,1.230341064453125,-0.0009310703050345181,0.026926000848412512,0.10290482295099646
1761378734156397000,1.24039697265625,0.026839564673975108,0.012393033105134963,0.059142691983468824
1761378734166452200,1.2504521484375,0.038240518001839516,0.04983341370522976,0.0023351284166797993
1761378734176507100,1.260507080078125,0.015154314512014388,0.0837035346031189,-0.014345482347160578
1761378734186562000,1.27056201171875,0.004545242214202881,0.04263210402429104,-0.016792583238333464
1761378734196618000,1.280617919921875,0.0031681086421012877,0.04815934301316738,0.007461568052321672
1761378734206673200,1.290673095703125,-0.018932079485058782,0.061036360242962835,0.01878171122893691
1761378734216728300,1.300728271484375,-0.0002775748323649168,0.020770985350012778,0.032772991577256466
1761378734226783000,1.310782958984375,-0.0108615126889199,0.002474281159043312,0.006661394117958843
1761378734236839200,1.320839111328125,-0.007108297635242343,-0.0209486800044775,0.004148242253251374
1761378734246894000,1.33089404296875,-0.004638181194663048,-0.05216974769830703,0.021867840676009654
1761378734256949200,1.34094921875,0.0032242227435111998,-0.024134908825159073,0.0251956699244678
1761378734267005200,1.351005126953125,0.0035813656181097027,0.04328384593129158,0.023273323559761045
1761378734277060000,1.36106005859375,0.022103110736608506,0.08345511280000209,0.034514848542213435
1761378734287115000,1.371114990234375,0.032491160694882275,0.10754267535209655,0.05566836693640798
1761378734297170200,1.381170166015625,0.05715630393922329,0.12048574355542659,0.051760728505998846
1761378734307226000,1.39122607421875,0.05920147296600044,0.13769289894402026,0.01604523546975106
1761378734317281000,1.401281005859375,0.03494739474058151,0.1576595821738243,0.004252981269359589
1761378734327336200,1.411336181640625,0.0379372972715646,0.1430155552715063,0.004656611900497228
1761378734337391000,1.42139111328125,0.02369257188513875,0.10113397735357284,-0.014965623539499937
1761378734347447000,1.431447021484375,0.0021370850939303634,-0.015987842726707457,-0.03556285975780338
1761378734357502200,1.441502197265625,-0.010703107256814837,-0.054314358511567115,-0.013677063299994916
1761378734367557000,1.45155712890625,-0.028091026039794086,-0.040493338429927826,0.004676576976291835
1761378734377612000,1.461612060546875,-0.052799277773499485,-0.06327624812424182,0.024768384423106908
1761378734387668200,1.471668212890625,-0.046395182884857056,-0.06507891363203525,0.03145330554712564
1761378734397723100,1.48172314453125,-0.029914076748490333,-0.033493688800930975,0.04330167384892702
1761378734407778000,1.491778076171875,-0.011100143750384449,-0.010113397735357283,0.06363174703102559
1761378734417833200,1.501833251953125,-0.025494506740570067,-0.009902385333180427,0.0501158839084208
1761378734427889200,1.51188916015625,-0.014641688814759253,-0.008959551525115966,0.009563654898107052
1761378734437944000,1.521944091796875,0.004123290475085377,-0.00727320587337017,0.006696447165030986
1761378734447999000,1.5319990234375,0.006110080378130078,0.009953823259472847,0.009988912839163094
1761378734458055000,1.542054931640625,0.03880290112495422,0.04670797516107559,-0.012607698769122362
1761378734468110000,1.552110107421875,0.08312719601988793,0.052260348591208455,-0.029696196214109658
1761378734478165200,1.562165283203125,0.10207739568352699,0.04693710774183273,-0.020806933446228502
1761378734488220200,1.57222021484375,0.11553893480300903,0.049481531527638435,-0.03792451085522771
1761378734498276400,1.5822763671875,0.08448445584774017,0.05338438418507575,-0.06834215321168303
1761378734508331000,1.5923310546875,0.03663673606701195,0.08939210163354873,-0.09134628617493436
1761378734518386200,1.60238623046875,0.009541150805354118,0.08092880919277667,-0.08967237987965344
1761378734528441000,1.612441162109375,-0.009338394774869084,0.006584639087319374,-0.09738576726857572
1761378734538497300,1.622497314453125,0.007854293696954846,-0.05333119269311428,-0.10037276545641943
1761378734548552000,1.632552001953125,0.005709682883694767,-0.10901157886087894,-0.08653536049555986
1761378734558607000,1.642607177734375,0.00216872234120965,-0.10614391447007655,-0.07023333725314587
1761378734568662300,1.652662353515625,0.019461656317114828,-0.03295943579375744,-0.05627762140855193
1761378734578718200,1.66271826171875,0.05365151068866253,0.01323708271384239,-0.03457578494921326
1761378734588773000,1.672773193359375,0.027719197052717207,0.033358664244413375,0.00896159735172987
1761378734598828000,1.682828125,-0.01424012227654457,0.04845861822068691,0.0602969400525093
1761378734608883200,1.69288330078125,0.003253448837995529,0.0392874697715044,0.06076528821662068
1761378734618939100,1.702939208984375,0.002967617633938789,0.03579728956818581,0.039683921743184324
1761378734628994300,1.712994384765625,-0.05979775835871696,0.024727029499411583,0.04108560523465275
1761378734639049000,1.723049072265625,-0.02560198570303619,0.050070145070552824,0.05752077160375192
1761378734649107700,1.733107666015625,-0.02835859093479812,0.09219780670404433,0.053030784974433476
1761378734659163600,1.74316357421875,-0.008580708275362848,0.12579787848889826,0.02390667129354551
1761378734669218600,1.753218505859375,0.04675071832425892,0.14407470893561838,0.0027680216749198733
1761378734679273700,1.763273681640625,0.06638057081513106,0.16265899789631366,0.006222929635457695
1761378734689329700,1.77332958984375,0.07268537004776299,0.12934066566228866,0.028985435862559823
1761378734699384600,1.783384521484375,0.08924896683581172,0.038436405900120735,0.03827524225534871
1761378734709439700,1.793439697265625,0.046128713968396184,-0.071498717546463,0.05374897971376776
1761378734719494700,1.80349462890625,-0.03300963161103427,-0.08275602461993693,0.08608591796131804
1761378734729550600,1.813550537109375,-0.035790275305509565,-0.045755789002776145,0.08026260036900638
1761378734739605800,1.823605712890625,-0.04705686166398227,-0.07346037300825119,0.04811013357657939
1761378734749660700,1.83366064453125,-0.06179316995963454,-0.06347381652295589,0.0075303041732870035
1761378734759715600,1.843715576171875,-0.05519925158731639,-0.013276245680451392,-0.031476047101896255
1761378734769771500,1.853771484375,-0.04104929181225598,0.004964344409108161,-0.01539546632412821
1761378734779826700,1.86382666015625,-0.03502272499911487,-0.019368132814764974,-0.019187935675960034
1761378734789881600,1.873881591796875,-0.029947905952855944,-0.028816344639658927,-0.02541411671442911
1761378734799936800,1.883936767578125,0.014986045273020863,0.005008768072724342,-0.03395368926180527
1761378734809992400,1.893992431640625,0.04271810180731118,0.023201427367329597,0.0013932261903770267
1761378734820047600,1.904047607421875,0.0595259556800127,0.03931435777842998,0.028536358654499053
1761378734830102800,1.914102783203125,0.14017711697518825,0.07555003876388072,0.027068478059023616
1761378734840157700,1.92415771484375,0.19099837267398834,0.12143208449482917,-0.0060576926037669175
1761378734850214000,1.9342138671875,0.14336093464307487,0.1013578492373228,-0.0536148684727028
1761378734860268500,1.9442685546875,0.06320435193181037,0.08537702077329158,-0.05977817687541246
1761378734870323700,1.95432373046875,-0.021073110101744532,0.046208793467283245,-0.049215701931994406
1761378734880378600,1.964378662109375,-0.06616787791252136,-0.0045627778708934785,-0.03453194580748677
1761378734890434800,1.974434814453125,-0.09415763553492724,-0.02610708568096161,-0.02453908744556829
1761378734900489500,1.984489501953125,-0.09244498639814555,-0.04198912994563579,0.02809740098165348
1761378734910544600,1.994544677734375,-0.054202714830636975,-0.008315992924571037,0.07459902164936065
1761378734920599800,2.004599853515625,0.03077683105766773,0.04182546381652355,0.07579100791290402
1761378734930655700,2.01465576171875,0.08713993879258632,0.07559680051505566,0.06713453098759055
1761378734940710700,2.024710693359375,0.06763327428996563,0.05546411306858062,0.08274009639844297
1761378734950765600,2.034765625,0.08572890295088291,0.0227916775226593,0.1202501812338829
1761378734960820700,2.04482080078125,0.07267718674130737,-0.0034457565397024155,0.06373467768253759
1761378734970876700,2.054876708984375,0.005852233159542084,-0.056790393236279484,-0.002423866146057844
1761378734980931800,2.064931884765625,-0.0618435119073838,-0.04897592009305954,-0.028294932847749442
1761378734990986500,2.074986572265625,-0.12435812800936401,0.014307926815748214,-0.0194364853432402
1761378735001041700,2.085041748046875,-0.09967026147656143,0.054226095706224435,-0.004693546377401799
1761378735011097600,2.09509765625,0.0021457798570394516,0.10424246476292609,-0.005856763204187154
1761378735021152800,2.10515283203125,0.05939210016727447,0.12874737594425678,0.010571370635926723
1761378735031207700,2.115207763671875,0.15841544204242528,0.1038940897166729,-0.0032923012773506343
1761378735041262600,2.1252626953125,0.12917875309884547,0.11279694261848926,-0.006008008243143558
1761378735051318500,2.135318603515625,0.09972126101143658,0.07357727738618851,-0.028354700210969894
1761378735061373700,2.145373779296875,0.0401502240806818,0.022416998991370198,-0.05936243568137288
1761378735071428900,2.155428955078125,-0.019704817423224448,-0.000008767828345298767,-0.08633329858481884
1761378735081484500,2.165484619140625,-0.0446287577342242,0.020249591824412345,-0.11796702046645804
1761378735091539700,2.175539794921875,-0.016684519753977656,0.04029518550932407,-0.1048624780911021
1761378735101594600,2.1855947265625,0.017425839640572666,0.03669862232208252,-0.0673171575454995
1761378735111649800,2.19564990234375,0.04592771150358021,0.045921793219447136,-0.025502215122990307
1761378735121705700,2.205705810546875,0.0415321068931371,0.048635728353261944,0.01723508457513526
1761378735131760600,2.2157607421875,-0.0002215337961912155,0.034978958922624585,0.0753027860045433
1761378735141815600,2.225815673828125,-0.03308225845582783,-0.01206862345635891,0.10024985146280377
1761378735151870700,2.23587060546875,-0.03880808875672519,-0.06734159786701202,0.07773996828990057
1761378735161926700,2.2459267578125,-0.022449659151956437,-0.08977145633995533,0.032497681767214084
1761378735171981600,2.255981689453125,-0.013920388802886008,-0.060032736158370965,0.0010822422787547111
1761378735182036700,2.26603662109375,0.019012743505835532,-0.008372107025980948,-0.016122428891807792
1761378735192091600,2.276091552734375,0.06129881057143211,0.023090952730178832,-0.02303586154207587
1761378735202147800,2.28614794921875,0.0445558386284858,0.03391337551772594,-0.06083205157620832
1761378735212202500,2.296202392578125,0.020613822026923297,0.030219781696796417,-0.05424973231013864
1761378735222257700,2.306257568359375,-0.009627660045027733,-0.019963760620355604,-0.003111410018801689
1761378735232312600,2.3163125,-0.07303951724767685,-0.09759469731152057,0.03938113940432667
1761378735242368800,2.32636865234375,-0.09489420618116855,-0.10387421597242355,0.03262596605569124
1761378735252423700,2.336423583984375,-0.09113806851804256,-0.04317570938169956,0.04902136666998267
1761378735262478600,2.346478515625,-0.06298398717939853,-0.016003624817728997,0.08495221948996186
1761378735272533800,2.35653369140625,0.029194530302286147,0.05417056612670421,0.0802849583312869
1761378735282589700,2.366589599609375,0.07214176469035447,0.16007131949067116,0.0330158786887303
1761378735292644900,2.376644775390625,0.09984101493358612,0.14817162286043167,0.0490296961069107
1761378735302699500,2.386699462890625,0.10153729745745659,0.10548866543173789,0.017840046464651822
1761378735312754700,2.396754638671875,0.010870865039154886,0.11628303116858005,-0.034426622269488866
1761378735322810600,2.406810546875,-0.05162621540613472,0.061496378970146176,-0.03218658825773746
1761378735332865800,2.41686572265625,-0.12744447665214537,0.045165421894192696,0.02042933230549097
1761378735342920400,2.42692041015625,-0.13019699023067952,0.05692132613956928,0.042621290369331835
1761378735352975600,2.4369755859375,-0.05861578203253447,0.05429390024542808,0.027080497290380298
1761378735363031600,2.447031494140625,0.011056231543421745,0.04379880971610546,-0.012605360681563616
1761378735373086700,2.457086669921875,0.059824646365642546,0.03485971645712852,-0.05036605927720666
1761378735383141600,2.4671416015625,0.03085040775053203,0.0074801266223192215,-0.040238231157697736
1761378735393196500,2.477196533203125,0.0053916299104690545,-0.030375264519453046,-0.012922025415301323
1761378735403252500,2.48725244140625,-0.018758476483821868,-0.08487433194816112,-0.00856470698863268
1761378735413307600,2.4973076171875,-0.04492686389796435,-0.09043255059719085,-0.020054909502528608
1761378735423362800,2.50736279296875,-0.022352043996378777,-0.04975450325012207,-0.039442495936434716
1761378735433417500,2.51741748046875,0.01549275268614292,0.00027355624437332154,-0.02654591548964381
1761378735443473700,2.5274736328125,0.0666238049864769,0.05022679693698883,-0.011221066716313361
1761378735453528600,2.537528564453125,0.12543605943918226,0.06815642138123512,0.012238719326257705
1761378735463583700,2.547583740234375,0.14053075271844864,0.043050037175416944,0.057853930814564226
1761378735473638700,2.557638671875,0.11871464222967625,0.012245733588933943,0.09142492263540625
1761378735483694600,2.567694580078125,0.06070837039761245,-0.006606850919127464,0.10344207163285464
1761378735493749500,2.57774951171875,-0.013912716953083873,-0.0059235448300838465,0.07320305551262572
1761378735503804700,2.5878046875,-0.06955569371990859,-0.02752688935101032,0.055099974197614934
1761378735513859800,2.59785986328125,-0.07445230665504932,-0.023684242448210716,0.030675124248862266
1761378735523915800,2.607915771484375,-0.06738485248684883,0.00479191045165062,0.023890870936214923
1761378735533970700,2.617970703125,-0.0383943203240633,-0.006787468183040619,0.02967047725096345
1761378735544025600,2.628025634765625,-0.03294138868041337,0.007068038690090179,0.033809440219216044
1761378735554080800,2.638080810546875,0.023040756912901996,0.0667979925096035,0.03359146835329011
1761378735564136700,2.64813671875,0.023080504401400685,0.10727204171717167,0.04421237721936777
1761378735574191600,2.658191650390625,0.020419030107185245,0.11393559125959872,0.05439410921689122
1761378735584246500,2.66824658203125,0.04259937079846859,0.12927753729820252,0.04509600991979241
1761378735594301700,2.6783017578125,0.05766659154891968,0.1002297219902277,-0.0021313129402697087
1761378735604357600,2.688357666015625,0.03546937278807163,0.04606149395108223,-0.009424684818834066
1761378735614412500,2.69841259765625,-0.010293430477380752,0.009022679889202117,-0.005179594594985246
1761378735624467700,2.7084677734375,-0.04291961572878063,-0.04049275390803814,-0.012248930193018167
1761378735634522600,2.718522705078125,-0.040619522092863916,-0.035842882275581356,-0.018465009962581096
1761378735644578800,2.728578857421875,-0.06079254154972732,-0.023589549902081487,-0.007992295661848038
1761378735654630100,2.738630126953125,-0.05812602575421333,-0.02925707414448261,-0.002781009020656347
1761378735664685300,2.748685302734375,-0.017435703447461127,0.010861001232266425,-0.0034596389345824714
1761378735674740000,2.758739990234375,0.04229425037205219,0.05686170490682125,0.028565877009928225
1761378735684796200,2.768796142578125,0.09582125789821147,0.059735799038410184,0.009188245714455843
1761378735694851000,2.77885107421875,0.13299692314751446,0.02760579980611801,-0.011379581746272741
1761378735704906200,2.78890625,0.08910692801661789,0.00499883120059967,-0.022282102299015966
1761378735714961200,2.798961181640625,0.03469780389368534,0.018777765706181525,-0.031840076375007624
1761378735725017000,2.80901708984375,-0.003791793498396873,0.0389127912402153,-0.03660582947209477
1761378735735072300,2.819072265625,-0.02441884033307433,0.015609072542190551,-0.03483483774419874
1761378735745127200,2.829127197265625,-0.04130633531324565,-0.006999649628996849,-0.048774680166225874
1761378735755182300,2.839182373046875,-0.029268180060386655,-0.010857494100928306,-0.036869302713871
1761378735765238000,2.849238037109375,-0.016297566263005138,-0.003801730370521545,0.012054339202679693
1761378735775293200,2.859293212890625,0.0038205812014639375,-0.032278467792272565,0.06821374105904252
1761378735785348000,2.86934814453125,-0.01137888762652874,-0.018057634738087653,0.08494798170626162
1761378735795403300,2.8794033203125,0.022039982372522353,0.02346621578335762,0.06120397189483046
1761378735805459200,2.889459228515625,0.04730126487910747,0.06212240191400051,0.00434723542407155
1761378735815514000,2.89951416015625,0.01012282315082848,0.05483867464661598,-0.02845843458008021
1761378735825569300,2.9095693359375,0.01723060932941735,0.07020166347324848,-0.06971444621188566
1761378735835624200,2.919624267578125,0.021520999999716878,0.12857728007435798,-0.08413297552894801
1761378735845680000,2.92968017578125,0.006126958447694778,0.1606307069391012,-0.058837535024434326
1761378735855735000,2.939735107421875,0.006073255499079823,0.11692483620345592,-0.0074181490357033905
1761378735865790200,2.949790283203125,0.03559387595057487,0.047619244787096976,0.04238806613534689
1761378735875845000,2.95984521484375,0.025699600858613846,0.033684242936968804,0.05569598559569567
1761378735885901300,2.9699013671875,0.00677694678902626,0.014086977541446685,0.05426438188999891
1761378735895956000,2.9799560546875,-0.004001052334904671,-0.02658054841160774,0.04623582760468125
1761378735906011100,2.99001123046875,-0.016281199650093912,-0.03917348800301552,0.0392939177786
1761378735916066000,3.000066162109375,-0.005059548411890864,-0.05262216764092445,0.043668917992431666
1761378735926122200,3.010122314453125,-0.021849355171248315,-0.0870411545932293,0.04273501640949398
1761378735936177200,3.02017724609375,0.010852890991047024,-0.09600596681535244,0.032794911148119714
1761378735946232000,3.030232177734375,0.03628945699930191,-0.10387772310376167,-0.023910890810936686
1761378735956287200,3.040287353515625,0.00988316917605698,-0.07179623918831347,-0.022230225981306282
1761378735966343200,3.05034326171875,0.05533266870863735,-0.0356973363250494,-0.005776373178046196
1761378735976398300,3.0603984375,0.061359673913195724,0.005306289714574814,0.003529087441600859
1761378735986453000,3.070452880859375,0.053124345009401434,0.06901449951529502,0.021029800682980566
1761378735996508200,3.080508056640625,0.06004910277128219,0.10979600723683833,-0.0038517069920897483
1761378736006564000,3.090564208984375,0.026768253003433346,0.06796528272330761,-0.004177413548808544
1761378736016619300,3.100619384765625,0.02261580949909985,0.07834639148414134,0.029568660844303665
1761378736026674200,3.110674072265625,0.045062619106844067,0.08358020048439502,0.04433220420675352
1761378736036729000,3.12072900390625,0.027437530567124484,0.020324995148181913,0.02180516896964982
1761378736046785000,3.130784912109375,0.01360189743824303,-0.009005728754401206,0.02703824731754139
1761378736056840200,3.140840087890625,0.03909859613589942,0.031197102296352384,0.012034976915083826
1761378736066895400,3.150895263671875,0.03220832516551018,0.07274024204015732,-0.03155146869197488
1761378736076950000,3.160949951171875,-0.002426788755506277,0.09397826038002967,-0.033208533450309184
1761378736087006200,3.171006103515625,-0.014115619114041328,0.08087094152569771,-0.0323630773358047
1761378736097061000,3.18106103515625,-0.05964044890515506,0.01713233658671379,-0.05362065889267251
1761378736107116300,3.1911162109375,-0.0799123256266117,-0.01714461154639721,-0.04020180813744664
1761378736117171000,3.2011708984375,-0.06916062998771667,0.007442132699489593,-0.03149740041717887
1761378736127227100,3.21122705078125,-0.05770158979706466,-0.020364742636680602,-0.01617032315414399
1761378736137282000,3.221281982421875,-0.0049017275016754866,-0.009637012395262717,0.01122665620688349
1761378736147337200,3.231337158203125,0.05328158139772713,0.05097381591200828,0.008899382303096353
1761378736157392400,3.241392333984375,0.06722301298864185,0.0636088410794735,0.01127661456214264
1761378736167448000,3.251447998046875,0.05943718141801655,0.056739539831876754,0.005902830835618079
1761378736177503200,3.261503173828125,0.021451441894844173,0.05902209781110286,-0.020589308640174567
1761378736187558100,3.27155810546875,-0.04420563695132732,0.031164953592419622,-0.018126316060125828
1761378736197613300,3.28161328125,-0.08550320443622768,-0.02423778467774391,0.0065449098651297385
1761378736207669200,3.291669189453125,-0.11189911699593066,-0.025642390778660772,0.019628391186147925
1761378736217724200,3.30172412109375,-0.08741532166786492,0.004727613043785095,0.03418879492562264
1761378736227779000,3.311779052734375,-0.0022287819653749466,0.06707037971019744,0.05785071594417095
1761378736237834200,3.321834228515625,0.07179390110075473,0.09977730204761028,0.039263942765444516
1761378736247890200,3.33189013671875,0.11652385418713092,0.11105915904045105,0.015915654273331165
1761378736257945000,3.341945068359375,0.15977854708917438,0.13309972593486308,-0.020814641828648745
1761378736268000000,3.352,0.12431092786677181,0.09146540077626705,-0.0530913743215613
1761378736278055200,3.36205517578125,0.02340769052915275,-0.0013087445110082625,-0.04382909525651484
1761378736288111000,3.372111083984375,-0.07293664139509201,-0.059361120507121085,-0.013063333582133053
1761378736298166300,3.382166259765625,-0.13825930065512657,-0.11447802757322788,0.01594634167253971
1761378736308221200,3.39222119140625,-0.1490332811910659,-0.10662380694150925,0.0064931248789653175
1761378736318276000,3.402276123046875,-0.13805764060318468,-0.05626958423256874,0.0018709084384143351
1761378736328332300,3.412332275390625,-0.05405665742345154,-0.047560792598128315,0.038217465919815
1761378736338387200,3.42238720703125,0.09365852690637111,-0.02228548156619072,0.055013738952577114
1761378736348442000,3.432442138671875,0.20953356179594992,0.07643968107998371,0.022344956668466327
1761378736358497000,3.4424970703125,0.2563034962773323,0.10467091930806637,-0.009952508085221051
1761378736368553200,3.45255322265625,0.21274733621068298,0.0906833104878664,-0.05464443071614951
1761378736378608000,3.462608154296875,0.08110767289102078,0.08750643401741981,-0.09822378899529575
1761378736388663000,3.4726630859375,-0.07155139758177101,0.03587912263274193,-0.06048329293746501
1761378736398718200,3.48271826171875,-0.14640402866601943,0.0149795424669981,0.001508066475391388
1761378736408774100,3.492774169921875,-0.1416254891525954,0.009081716600060463,0.02261896957056597
1761378736418829300,3.502829345703125,-0.11564524472169578,0.0010597381860017775,0.014816497392393648
1761378736428884200,3.51288427734375,-0.03551021625511348,0.045564065822958945,0.005555314305890351
1761378736438939100,3.522939208984375,0.031367271231487394,0.06586860270500183,-0.004047211297880858
1761378736448995000,3.5329951171875,0.03229834153652191,0.01589490374624729,0.002542377959191799
1761378736459050200,3.54305029296875,0.03953011942096055,-0.0028618191719055174,0.006836604554392397
1761378736469105200,3.553105224609375,0.028420111863687633,0.008145312532782554,-0.028187819211464373
1761378736479160000,3.56316015625,-0.003007365122437477,0.021716741767525673,-0.006192571029812097
1761378736489215200,3.57321533203125,-0.01710303742699325,0.030211598390340804,0.02445234074387699
1761378736499271200,3.583271240234375,0.006793970989063381,0.04568447733223438,0.017427392276842146
1761378736509326300,3.593326416015625,0.024885507996752855,0.05691138926744461,-0.00426068965177983
1761378736519381000,3.603381103515625,0.04393456492498517,0.02969721912741661,-0.030918376686517146
1761378736529436200,3.613436279296875,0.016584128119423985,0.03317629341483116,-0.049177689742855725
1761378736539492000,3.6234921875,0.015436054062843322,0.02410100655555725,-0.060413259908556935
1761378736549547300,3.63354736328125,0.03285838657207787,0.036735447201132775,-0.061697143972944464
1761378736559602200,3.643602294921875,0.024845687443017957,0.042216508960723875,-0.08628332196325063
1761378736569657000,3.653656982421875,0.011621464210748672,0.03785246853232384,-0.07938523301258683
1761378736579713000,3.663713134765625,0.0013830518562346697,0.03653729428052902,-0.05889947607843205
1761378736589768200,3.673768310546875,-0.004198547668382525,-0.0012467851907014846,-0.0484926483544521
1761378736599823400,3.6838232421875,0.002935468930006027,-0.03992401410937309,-0.024246260245144365
1761378736609878000,3.6938779296875,0.025340850548818707,-0.06159399412572383,0.007345412593055516
1761378736619934200,3.703934326171875,0.07116444409079849,-0.025689737051725385,0.030554164750315246
1761378736629989000,3.713989013671875,0.11342128506191074,0.029436522364616392,0.010554291636962443
1761378736640044300,3.724044189453125,0.11540515235550701,0.027314123383164406,-0.016413940917979927
1761378736650099200,3.73409912109375,0.06628127515912055,-0.00874503199160099,-0.028358810130506753
1761378736660155400,3.7441552734375,-0.013232917995378374,0.01606266152858734,-0.031132348230760543
1761378736670210000,3.7542099609375,-0.08268697797171772,0.05683423237800598,-0.007758468639664351
1761378736680265200,3.76426513671875,-0.09588497078418731,-0.01514203955233097,0.01934913585335016
1761378736690320100,3.774320068359375,-0.07249050506278872,-0.025273557466268536,0.023049506474938242
1761378736700376300,3.784376220703125,-0.048315921814367176,0.0226391173094511,0.0308545907353051
1761378736710431200,3.79443115234375,0.019324293673038482,0.03880640825629234,0.036831747182458636
1761378736720486100,3.804486083984375,0.06458740378804505,0.03290858238935471,-0.004167768937628716
1761378736730541300,3.814541259765625,0.08926474892683327,0.09382803825438021,-0.028680845159105954
1761378736740597200,3.82459716796875,0.11997962066419422,0.15047580814957617,-0.060499604751449075
1761378736750652400,3.83465234375,0.0902431655049324,0.09598667759299277,-0.046293256880342956
1761378736760707000,3.84470703125,0.06667641195654869,0.03383329601883888,-0.008442980305105447
1761378736770762200,3.85476220703125,0.02794131537079811,0.03741583068072796,-0.007224398295581341
1761378736780818200,3.864818115234375,-0.006990808735415339,0.03566284953355789,-0.0016509455448016524
1761378736790873300,3.874873291015625,-0.053247532997652884,0.00781914931833744,0.019777170273382216
1761378736800928300,3.88492822265625,-0.07288980657868087,-0.057770636445283886,0.03663553049061447
1761378736810983200,3.894983154296875,-0.03498297751061618,-0.0357756622582674,0.023867069935519247
1761378736821039000,3.9050390625,-0.009319032487273216,-0.02347965978682041,-0.009729951375722884
1761378736831094300,3.91509423828125,-0.000339022696018219,-0.03644377077817917,-0.031726825258880854
1761378736841149400,3.9251494140625,0.035357729107141495,0.020475801795721053,-0.022686171321570872
1761378736851204000,3.9352041015625,0.08324877657294273,0.09292436741292476,-0.008466068919748068
1761378736861260300,3.94526025390625,0.10205744887404143,0.1344505560219288,-0.0016551102632656692
1761378736871315200,3.955315185546875,0.11102401466183363,0.11557108350694179,0.0010604323057457803
1761378736881370400,3.965370361328125,0.10714461594521998,0.09030687839090823,0.028281799371540545
1761378736891425000,3.975425048828125,0.06613697131760418,0.04495791662335395,0.04262483403328806
1761378736901481200,3.985481201171875,0.007981134947016836,-0.0020277064353227616,0.04374534422950819
1761378736911536000,3.9955361328125,-0.020099881155416367,-0.03545943591594696,0.05927537845242768
1761378736921591300,4.00559130859375,-0.03361125076599419,-0.0394312621563673,0.04347889357935637
1761378736931646500,4.015646484375,-0.06998129872083664,-0.006623217532038688,0.01809811287894845
1761378736941702100,4.0257021484375,-0.057384267476201054,0.012186112356185913,0.008381751637160777
1761378736951757300,4.03575732421875,0.005177110376954079,0.025891981625556944,-0.008737579337507486
1761378736961812200,4.045812255859375,0.05745506769008934,0.04612579135894775,-0.024440741637628525
1761378736971867400,4.055867431640625,0.08100538156032562,0.04752279867529869,-0.028992139597982167
1761378736981922000,4.065922119140625,0.10305537387020886,-0.0372527490735054,-0.018005594023596496
1761378736991978200,4.075978271484375,0.06782792007923126,-0.11088497151732445,0.016098609624803067
1761378737002033200,4.086033203125,0.028960137024521826,-0.08827449578046798,0.023051497502624987
1761378737012088300,4.09608837890625,-0.011170797833800315,-0.04433481628894806,0.022528496541827914
1761378737022144300,4.106144287109375,-0.049483358158543704,-0.0044493806242942805,0.023683036871813237
1761378737032199200,4.11619921875,-0.0753081197667867,0.042130584242939945,0.008213080539368093
1761378737042254300,4.12625439453125,-0.04190495879352092,0.08722469446659088,0.002247925057262182
1761378737052309200,4.136309326171875,0.023583120161294935,0.08570961372852325,-0.018379560168832538
1761378737062364400,4.146364501953125,0.062114803129434584,0.03787526488602161,-0.03991685371622443
1761378737072420400,4.15642041015625,0.06549808889217675,0.03245616244673729,-0.035521815361361946
1761378737082475300,4.166475341796875,0.07967442521750927,0.06420797601640224,-0.04872881346419453
1761378737092530200,4.1765302734375,0.09475165590532124,0.053987610775232314,-0.06878783288626
1761378737102585300,4.18658544921875,0.07793320757336913,0.06261223125755787,-0.09253184269769117
1761378737112641300,4.196641357421875,0.03346336672790348,0.07621931632757187,-0.0796287959774956
1761378737122696200,4.2066962890625,-0.016452537629008293,0.04574234499931335,-0.023696517407894132
1761378737132751000,4.216751220703125,-0.05184826065897941,0.03328852161765098,0.028498364731669425
1761378737142806300,4.22680615234375,-0.06401157666146755,-0.0009480945050716399,0.0011918401330709458
1761378737152862200,4.2368623046875,-0.0793289727807045,-0.03496493039727211,0.004439005360752344
1761378737162917000,4.246917236328125,-0.03677102997116744,-0.006742459997534751,-0.011985018559824675
1761378737172972300,4.25697216796875,0.06068455113060772,0.03471475502848625,-0.01636469494877383
1761378737183027200,4.267027099609375,0.12271043386757373,0.08337561782300472,-0.03528904778510332
1761378737193083400,4.27708349609375,0.11572247467637062,0.12771978646218776,-0.07974354493096471
1761378737203138300,4.28713818359375,0.10694646302461623,0.11631927152574062,-0.07532529009729623
1761378737213193200,4.297193115234375,0.024919921723008154,0.04765431610047817,-0.05596694802418351
1761378737223248100,4.307248046875,-0.05364508094787598,0.010972644913196564,0.012868103270977736
1761378737233304300,4.31730419921875,-0.0631079788852483,-0.009168810361623763,0.06914977980013937
1761378737243359200,4.327359130859375,-0.041468394007161256,-0.03121463795304298,0.05885196540858596
1761378737253414100,4.3374140625,0.006405190867185592,-0.05476444036662578,0.04627776705026626
1761378737263469300,4.34746923828125,0.0335323403108865,-0.05052548762261867,0.04059652480976656
1761378737273525200,4.357525146484375,0.051204117536544795,-0.03394727778732776,0.019988310539722443
1761378737283580400,4.367580322265625,0.053254035803675645,0.02774608505964279,-0.0047043782986700535
1761378737293635000,4.377635009765625,0.04787643441855907,0.06724982793033123,-0.03186316498965025
1761378737303690200,4.387690185546875,-0.07301328682787717,0.02674830619394779,-0.03307286957297474
1761378737313746200,4.39774609375,-0.14529109898805617,-0.013169862696528435,-0.007861965546756982
1761378737323801300,4.40780126953125,-0.12862981397919357,-0.006674070936441421,-0.018289671661984173
1761378737333856300,4.417856201171875,-0.1341085376512259,-0.025477555605769156,0.012963544735778123
1761378737343914200,4.427914306640625,0.001508066475391388,0.0009404957205057144,0.005115004926174878
1761378737353969400,4.437969482421875,0.07574351550936699,0.022295418438315392,0.014099983153492212
1761378737364025300,4.448025390625,0.11866269284673034,0.027317045992612837,-0.03533959066225215
1761378737374080300,4.458080322265625,0.051832551633194085,0.045053778213262556,-0.05905320533541962
1761378737384135200,4.46813525390625,-0.04264087185263633,0.06318447818756102,-0.0460714308232069
1761378737394190300,4.4781904296875,-0.08399228841662407,0.0737473732560873,-0.04088511422649026
1761378737404246300,4.488246337890625,-0.09625899172835052,0.07363631409704685,-0.05227930902000516
1761378737414301200,4.49830126953125,-0.0813671275448054,0.08684767784774303,-0.01963962496621534
1761378737424356000,4.508356201171875,0.0015185878694057465,0.1422013162791729,0.018190028946101663
1761378737434411300,4.518411376953125,0.045083661894872784,0.11898059968948363,0.026776819902379064
1761378737444467200,4.52846728515625,0.12387312097139656,0.09393851289153099,0.03360799936298281
1761378737454522000,4.538522216796875,0.15213884599097072,0.0930529622286558,-0.010217570495884865
1761378737464577300,4.548577392578125,0.08907704433500767,0.07987257813811302,-0.0524435962036252
1761378737474632200,4.558632080078125,-0.00466857633292675,0.01580430285334587,-0.06837269448041916
1761378737484688400,4.5686884765625,-0.08357778933160007,-0.021071429601311684,-0.004237473172973841
1761378737494743300,4.578743408203125,-0.14272197915241122,-0.06780044755041599,0.02856927454341203
1761378737504798200,4.588798095703125,-0.1508568433564156,-0.12298983533084391,0.06456016872124747
1761378737514853000,4.59885302734375,-0.13664894284904003,-0.1254606093585491,0.1196136368960142
1761378737524909300,4.608909423828125,-0.05410334610939026,-0.07977204037308692,0.1253647477686405
1761378737534964200,4.618964111328125,0.04674129290878772,-0.039919337934255596,0.110580874004215
1761378737545019100,4.62901904296875,0.12073190033622086,0.039922845065593716,0.08238107209401205
1761378737555074300,4.63907421875,0.15435476847477256,0.10882979255318641,0.02526102677825838
1761378737565129200,4.649129150390625,0.15201426976323126,0.10245441230237483,0.0015372925698757171
1761378737575185400,4.659185302734375,0.07263795070946216,0.057521045598387714,0.024038608843833208
1761378737585240000,4.669239990234375,0.022876506261900065,0.005081833308935165,0.06306218524845317
1761378737595295200,4.679295166015625,-0.036029929280281064,-0.022896891462802885,0.036741146289557214
1761378737605350100,4.68935009765625,-0.11779394718818366,-0.07601473366618156,0.03588352481322363
1761378737615406300,4.69940625,-0.1396206521362066,-0.1416746620565653,0.09373290731683373
1761378737625461200,4.709461181640625,-0.1133130023818463,-0.14759645332098006,0.1259009187382646
1761378737635516200,4.71951611328125,-0.100316815751791,-0.0944394481509924,0.14297756134867667
1761378737645576200,4.729576171875,-0.01336567752957344,-0.010430793121457099,0.14174875020608305
1761378737655632400,4.73963232421875,0.077964698690176,0.09998013114333153,0.07343436178416013
1761378737665687300,4.749687255859375,0.12410685666203498,0.1396177295267582,-0.02900032290443778
1761378737675742200,4.7597421875,0.131704399118945,0.16949965757131574,-0.1000336331625469
1761378737685797000,4.769797119140625,0.10803893443644046,0.16019874526262282,-0.11804989471063017
1761378737695853300,4.779853271484375,0.043894159849360584,0.08710720556676388,-0.07965321803269908
1761378737705908200,4.789908203125,-0.015752207339927552,0.0364729968726635,-0.03116420467374846
1761378737715963100,4.799963134765625,-0.05230177658013999,-0.044646366456151006,0.0039059396636672316
1761378737726018300,4.810018310546875,-0.07832819824032485,-0.08318740177452563,0.02121304829539731
1761378737736074200,4.82007421875,-0.06471935960464179,-0.052525721529126164,0.020918887654412535
1761378737746129200,4.830129150390625,-0.025597894049808383,-0.061654199880361554,-0.004344148417841643
1761378737756184300,4.840184326171875,0.008455693656206131,-0.02333236027061939,-0.03578662204369902
1761378737766239200,4.8502392578125,0.013642156383395195,0.03174889096021652,-0.06042071256265044
1761378737776295200,4.860295166015625,0.046026422637701035,0.012258008548617362,-0.09321735901013016
1761378737786350300,4.870350341796875,0.01241407589316368,0.006987959191203117,-0.1396650757998228
1761378737796405200,4.8804052734375,-0.010485226722434163,0.005205167427659034,-0.12973698976980522
1761378737806460200,4.890460205078125,-0.05626717307977378,-0.00606675269305706,-0.0743188712674193
1761378737816516000,4.90051611328125,-0.07755904049873352,-0.01801905629336834,-0.02241875255703926
1761378737826571300,4.9105712890625,-0.03914250834286213,-0.0070399816393852226,0.009882511588931083
1761378737836626200,4.920626220703125,0.022498247534036633,0.04476677796542644,0.02813420759439468
1761378737846681300,4.930681396484375,0.04653619879074394,0.08797931222617626,0.009377210681606083
1761378737856737000,4.940737060546875,0.06389123821742833,0.0816951173901558,-0.011707516792695969
1761378737866792200,4.950792236328125,0.0499059674847871,0.05299859973788261,-0.022792243778239935
1761378737876847400,4.960847412109375,0.008893573616817594,0.0715466483414173,-0.03506486537409946
1761378737886902300,4.97090234375,-0.03456219481527805,0.08399521102607249,-0.012388795321434736
1761378737896958500,4.98095849609375,0.006838833044096827,0.08722410994470119,0.00693431104151532
1761378737907013000,4.99101318359375,0.018863032836839554,0.07252396894097328,0.03386791067449376
1761378737917068300,5.001068359375,0.07962291422598064,0.0941425110310316,0.01388866022406146
1761378737927123200,5.011123291015625,0.09991232660412788,0.12429741079807281,-0.01565510364100337
1761378737937179400,5.021179443359375,0.06685476419813931,0.07632277670204639,0.007330361154396087
1761378737947234000,5.031234130859375,0.00917465558052063,0.025266543203592298,0.04536357481479644
1761378737957289200,5.041289306640625,-0.06529810934066772,-0.050202831539511675,0.07875365711078047
1761378737967344400,5.051344482421875,-0.12105097622275351,-0.1013625254124403,0.061057695291936394
1761378737977400300,5.061400390625,-0.14312376488633452,-0.1061199490725994,0.023601806595455854
1761378737987455200,5.071455322265625,-0.16139935322403906,-0.06501286265850066,-0.027301702293008566
1761378737997510100,5.08151025390625,-0.10117781649529933,-0.02058919904232025,-0.03961494816020131
1761378738007565300,5.0915654296875,-0.007857143241167068,0.004348842859268188,-0.054378802049905056
1761378738017620200,5.1016201171875,0.020431378132104872,0.023001520881056784,-0.07311565122380852
1761378738027676400,5.111676513671875,0.025457681861519813,0.01540916605591774,-0.015199468827992677
1761378738037731000,5.12173095703125,0.030316227808594703,-0.02599894913136959,0.04629939436018467
1761378738047786200,5.1317861328125,0.012895721930265426,-0.018021394380927085,0.06602744652852416
1761378738057841400,5.14184130859375,0.03601772738583386,0.018906945043802262,0.018030180475581435
1761378738067897300,5.1518974609375,0.025371830208972095,0.055963879284262656,-0.021736889506410804
1761378738077952300,5.1619521484375,0.013528759136795996,0.08677870426476002,-0.015397037226706742
1761378738088007200,5.172007080078125,0.010219196197390555,0.10612813237905502,-0.040160453213751314
1761378738098062300,5.182062255859375,0.02172901672720909,0.10065759201347828,-0.026952304333448408
1761378738108118300,5.1921181640625,0.009724106156826019,0.05610650262534618,-0.0036607144646346565
1761378738118173200,5.202173095703125,-0.00594692570567131,0.020829437538981435,0.004710223517566919
1761378738128228000,5.21222802734375,0.010496259573101997,0.06276888312399387,0.0017366145342588423
1761378738138283300,5.222283203125,-0.010854571491479873,0.05264788660407066,-0.002599661104381084
1761378738148339200,5.232339111328125,0.004221928543969989,0.04209317484200001,0.030320885717403143
1761378738158394400,5.242394287109375,0.040432548153400416,0.04035889839529991,0.05579845958948135
1761378738168449300,5.25244921875,0.06161679047942161,-0.018277999490499495,0.07170490764304994
1761378738178504200,5.262504150390625,0.07882453038990497,-0.006958733096718787,0.046214638686180115
1761378738188560100,5.27256005859375,0.06450191746167838,0.030187632992863655,-0.026691187445539978
1761378738198615300,5.282615234375,0.022143442746996877,0.040869770526885986,-0.049398821680247784
1761378738208670200,5.292670166015625,-0.03815883106775582,0.04879588735103607,0.004820387627463787
1761378738218725000,5.30272509765625,-0.027172084563970564,0.030434885752201078,0.03940905032455921
1761378738228781300,5.31278125,0.01237951603643596,-0.017490648505091667,0.017309574583452194
1761378738238836200,5.322836181640625,0.06649294514842331,-0.031575287958979605,0.007879957861173898
1761378738248891400,5.332891357421875,0.06214293324537575,-0.052580082064867015,0.038627270563412454
1761378738258946300,5.3429462890625,0.05608611742444336,-0.09938625690340995,0.07764103796007112
1761378738269002200,5.353002197265625,0.05370886689908802,-0.052008419656753534,0.050581473859865216
1761378738279057200,5.36305712890625,0.0137421096265316,0.015405658924579619,0.0016645722113549709
1761378738289112300,5.3731123046875,-0.06232749603204429,0.06477437772750855,-0.007711286763381213
1761378738299167200,5.383167236328125,-0.05321363072805106,0.09209200824201107,0.006037837125826627
1761378738309223200,5.39322314453125,-0.01881108345389366,0.06711012719869613,-0.004798047931492328
1761378738319278300,5.4032783203125,0.01694061340689659,0.07570844419598578,-0.01405979727357626
1761378738329333200,5.413333251953125,0.057761868616938584,0.05538578713536262,0.013498510129004717
1761378738339388200,5.42338818359375,0.07961714207231999,0.024804770910739897,0.02624313315078616
1761378738349444000,5.433444091796875,0.10411854612231254,0.05727087022960186,0.017300825021415948
1761378738359499300,5.443499267578125,0.07403970726616681,0.06540566136837005,0.002265186719316989
1761378738369554200,5.45355419921875,0.04212240093648433,0.05731646293699741,-0.008452624916285276
1761378738379609300,5.463609375,0.0034873306591063735,0.06613748277425766,-0.035940771425794805
1761378738389665000,5.4736650390625,-0.016247881902381776,0.08194821536839007,-0.040638573853205885
1761378738399720200,5.48372021484375,-0.020831191104650496,0.06327917073369026,-0.02815992655754089
1761378738409775400,5.493775390625,0.005177110376954079,0.04125204784274101,-0.030290801106393334
1761378738419830300,5.503830322265625,0.05507650199048221,0.014440028762817383,-0.015702906571794302
1761378738429885200,5.51388525390625,0.06562785275168717,0.024545243191719055,-0.0007993154178373515
1761378738439941000,5.523941162109375,0.09563128828406334,0.050854573446512216,0.013661007214337587
1761378738449996300,5.533996337890625,0.12335114292390643,0.01898234836757183,0.023151469012070446
1761378738460051200,5.54405126953125,0.08214761039800941,-0.04770692307054996,-0.024705237792711703
1761378738470106000,5.554106201171875,-0.01677110205888748,-0.06531973665058613,-0.07935220752581953
1761378738480162000,5.564162109375,-0.1399000535994768,-0.0691290658056736,-0.05815875898003578
1761378738490217200,5.57421728515625,-0.13601882825195788,-0.0658744479238987,-0.05318944613486528
1761378738500272400,5.5842724609375,-0.09062485829889774,-0.0348866044640541,-0.006606558658182621
1761378738510327300,5.594327392578125,-0.16648001748919486,0.0058031333208084105,0.1027228539802134
1761378738520383200,5.60438330078125,0.05662680017240345,0.06272329041659831,0.10423824524553492
1761378738530438100,5.614438232421875,0.18336283629424868,0.12508476178348063,0.09228462647097185
1761378738540493300,5.624493408203125,0.2866098602790385,0.18528408668041227,0.05121363428356126
1761378738550548200,5.63454833984375,0.3118482733666897,0.21753917359709737,0.02175035177618265
1761378738560604400,5.6446044921875,0.22120945960767566,0.17749474797844886,0.0007379771520383655
1761378738570659000,5.6546591796875,0.06970014369189739,0.09631050271987915,-0.018424422223865984
1761378738580714200,5.66471435546875,-0.09824899650178849,0.06461772586107253,-0.027191720846202222
1761378738590769400,5.674769287109375,-0.23676468307077883,0.036814942178130146,-0.049897564982622856
1761378738600825300,5.684825439453125,-0.25491642583310603,-0.043645080459117885,-0.10684724043384193
1761378738610880300,5.69488037109375,-0.2864490436941385,-0.07537760480642318,-0.051725803323090076
