time,seconds_elapsed,z,y,x
1761378732996271600,0.080271728515625,-0.009705624543130398,-0.011630291119217873,0.030131537467241287
1761378733006327300,0.090327392578125,-0.015123292803764343,-0.013480388559401035,0.01900564879179001
1761378733016382500,0.100382568359375,-0.01606951467692852,-0.011741078458726406,0.014183197170495987
1761378733026437600,0.110437744140625,-0.020556939765810966,-0.00863130483776331,0.00652687530964613
1761378733036492500,0.120492431640625,-0.01744903065264225,-0.007449394091963768,0.0065108961425721645
1761378733046548500,0.130548583984375,-0.013859090395271778,0.001160072977654636,0.009180981665849686
1761378733056603400,0.140603271484375,-0.013712882995605469,0.007419832982122898,0.016283631324768066
1761378733066658600,0.150658447265625,-0.008817194029688835,0.006955910474061966,0.018981680274009705
1761378733076714500,0.160714599609375,-0.00478516798466444,0.006849117577075958,0.017830662429332733
1761378733086769700,0.170769775390625,0.0012314456980675459,-0.004836566746234894,0.012675581499934196
1761378733096824300,0.18082421875,0.0070733558386564255,-0.007868842221796513,-0.002685797866433859
1761378733106879500,0.19087939453125,0.009362609125673771,-0.004135356284677982,-0.01786581613123417
1761378733116935400,0.200935302734375,0.009237973019480705,-0.0011582087026908994,-0.025372734293341637
1761378733126990600,0.210990478515625,0.004138019867241383,0.006364422384649515,-0.021809957921504974
1761378733137045500,0.22104541015625,-0.00797590147703886,0.009070460684597492,-0.0028959212359040976
1761378733147100400,0.231100341796875,-0.01583409123122692,-0.0003150519623886794,0.017709488049149513
1761378733157156400,0.24115625,-0.014596253633499146,-0.006427539046853781,0.02742949314415455
1761378733167211500,0.25121142578125,-0.009347961284220219,-0.020554808899760246,0.03218856081366539
1761378733177266700,0.2612666015625,-0.0007590008899569511,-0.021582523360848427,0.024833178147673607
1761378733187322400,0.271322265625,0.0006964165950194001,-0.010232130996882915,0.010782873257994652
1761378733197377500,0.28137744140625,0.002698314841836691,-0.011159177869558334,-0.007441937457770109
1761378733207432400,0.291432373046875,0.0051905009895563126,-0.008523979224264622,-0.024951156228780746
1761378733217487600,0.301487548828125,-0.0005182511522434652,0.0006290386663749814,-0.031740352511405945
1761378733227543600,0.31154345703125,-0.016569122672080994,0.011322429403662682,-0.029146965593099594
1761378733237598500,0.321598388671875,-0.03189454972743988,0.01937156729400158,-0.011052384972572327
1761378733247653400,0.3316533203125,-0.037210218608379364,0.022338062524795532,0.009156480431556702
1761378733257708500,0.34170849609375,-0.02917945757508278,0.02052365057170391,0.030060963705182076
1761378733267764500,0.351764404296875,-0.016028767451643944,0.013714213855564594,0.049311090260744095
1761378733277819400,0.3618193359375,-0.007934356108307838,0.002231462625786662,0.05735649913549423
1761378733287874600,0.37187451171875,0.001058872789144516,-0.0016881778137758374,0.05229516327381134
1761378733297930500,0.381930419921875,0.002126800362020731,-0.0006820355774834752,0.042036931961774826
1761378733307985700,0.391985595703125,0.004521514754742384,0.0044043357484042645,0.026516029611229897
1761378733318040600,0.40204052734375,-0.0009731190511956811,0.011904862709343433,0.014123808592557907
1761378733328095500,0.412095458984375,-0.007619836367666721,0.015484949573874474,0.005289836786687374
1761378733338151400,0.4221513671875,-0.013636450283229351,0.010343451052904129,0.009346896782517433
1761378733348206600,0.43220654296875,-0.013920608907938004,0.004306331276893616,0.01557949185371399
1761378733358261500,0.442261474609375,-0.013529657386243343,-0.0030599720776081085,0.01751507818698883
1761378733368317700,0.452317626953125,-0.008412659168243408,-0.014447915367782116,0.01636698842048645
1761378733378372400,0.462372314453125,-0.002046639332547784,-0.015138206072151661,0.012458001263439655
1761378733388427500,0.472427490234375,0.0033952640369534492,-0.002356098499149084,0.009602027013897896
1761378733398482700,0.482482666015625,0.0031041805632412434,0.0158332921564579,0.016117185354232788
1761378733408538600,0.49253857421875,0.0024738102219998837,0.01901736669242382,0.0209438968449831
1761378733418593300,0.50259326171875,0.00529729388654232,0.017300426959991455,0.02478817105293274
1761378733428648400,0.5126484375,0.007107444107532501,0.005875732284039259,0.02179131470620632
1761378733438703600,0.52270361328125,-0.00011478224041638896,-0.003949734382331371,0.018005898222327232
1761378733448759600,0.532759521484375,-0.007140467409044504,-0.007537811063230038,0.011455853469669819
1761378733458814500,0.542814453125,-0.0075785573571920395,-0.008376706391572952,0.0054735951125621796
1761378733468869400,0.552869384765625,-0.009296562522649765,-0.010025469586253166,0.005329784471541643
1761378733478925600,0.562925537109375,-0.009298693388700485,-0.008871255442500114,0.012687832117080688
1761378733488980500,0.57298046875,-0.012897156178951263,-0.0028067054226994514,0.03122902475297451
1761378733499035600,0.58303564453125,-0.006956975441426039,-0.002174471039324999,0.046597063541412354
1761378733509090300,0.59309033203125,0.00169563468080014,0.0051803807727992535,0.05570773780345917
1761378733519146500,0.603146484375,0.008651811629533768,0.008079764433205128,0.05150420218706131
1761378733529201400,0.613201416015625,0.009348227642476559,0.01101456768810749,0.043828971683979034
1761378733539256600,0.623256591796875,0.011635617353022099,0.0057076867669820786,0.030180007219314575
1761378733549311500,0.6333115234375,0.004887699615210295,-0.007661914452910423,0.012724850326776505
1761378733559367400,0.643367431640625,-0.006325806491076946,-0.014152304269373417,-0.00461765518411994
1761378733569422600,0.653422607421875,-0.01727592572569847,-0.014859373681247234,-0.018634138628840446
1761378733579477500,0.6634775390625,-0.02941860817372799,-0.0005518069956451654,-0.02833922952413559
1761378733589533400,0.673533447265625,-0.02159211039543152,0.018990201875567436,-0.03172037750482559
1761378733599588400,0.68358837890625,-0.009022790007293224,0.03325755521655083,-0.022114623337984085
1761378733609643500,0.6936435546875,0.003915645647794008,0.029169602319598198,-0.002487392397597432
1761378733619698400,0.703698486328125,0.01423512864857912,0.01696193963289261,0.013291303999722004
1761378733629754600,0.713754638671875,0.014422082342207432,0.006159891374409199,0.029827138409018517
1761378733639809500,0.7238095703125,0.00216488353908062,0.0017803232185542583,0.031681764870882034
1761378733649865200,0.733865234375,-0.010152769275009632,0.004886367823928595,0.03376409038901329
1761378733659920100,0.743920166015625,-0.01835823431611061,0.01774517446756363,0.02827318385243416
1761378733669976300,0.753976318359375,-0.022289859130978584,0.029519809409976006,0.01732093282043934
1761378733680031000,0.764031005859375,-0.018545987084507942,0.024950090795755386,0.009661948308348656
1761378733690086100,0.774086181640625,-0.012492089532315731,0.0197468064725399,0.006019542925059795
1761378733700141300,0.784141357421875,-0.0005637911963276565,0.012623916380107403,0.0046874298714101315
1761378733710197200,0.794197265625,0.004308994393795729,0.0034314829390496016,0.00378994457423687
1761378733720252200,0.804252197265625,0.005870938766747713,-0.002442118711769581,0.007880027405917645
1761378733730307000,0.81430712890625,0.0025952504947781563,-0.005995308049023151,0.00854182243347168
1761378733740363000,0.824363037109375,0.007475493010133505,-0.006917827297002077,0.00845367182046175
1761378733750418200,0.834418212890625,0.008215585723519325,0.004279966000467539,0.007457649800926447
1761378733760473000,0.84447314453125,0.008902414701879025,0.020024308934807777,0.0016713999211788177
1761378733770528000,0.854528076171875,0.002374740783125162,0.02972700260579586,-0.008384429849684238
1761378733780584200,0.864584228515625,-0.0008311725687235594,0.029562685638666153,-0.01967729814350605
1761378733790639000,0.87463916015625,-0.003291134489700198,0.023550067096948624,-0.01678137667477131
1761378733800694300,0.8846943359375,0.0018575548892840743,0.013585050590336323,-0.014609036035835743
1761378733810749000,0.8947490234375,0.007029680069535971,0.000672448193654418,0.003712446428835392
1761378733820805000,0.90480517578125,0.011304319836199284,-0.006012352649122477,0.021736187860369682
1761378733830860000,0.914860107421875,0.016715863719582558,-0.002415487077087164,0.03497955575585365
1761378733840915200,0.924915283203125,0.005387574899941683,0.007750597782433033,0.0436372272670269
1761378733850971100,0.93497119140625,-0.011246795766055584,0.01305454969406128,0.04234958812594414
1761378733861026000,0.945026123046875,-0.02527925744652748,0.013734987005591393,0.03748346120119095
1761378733871081200,0.955081298828125,-0.03032594732940197,0.013002350926399231,0.03020530566573143
1761378733881136000,0.96513623046875,-0.032818399369716644,0.012398612685501575,0.02142912521958351
1761378733891192300,0.9751923828125,-0.023019298911094666,0.005330050364136696,0.019641878083348274
1761378733901247000,0.9852470703125,-0.008443818427622318,0.0018168084789067507,0.01720055751502514
1761378733911302100,0.99530224609375,0.006844324059784412,-0.0013113404856994748,0.014638064429163933
1761378733921357000,1.005357177734375,0.015972841531038284,0.008804943412542343,0.01468493603169918
1761378733931413200,1.015413330078125,0.017117734998464584,0.010175938718020916,0.018123077228665352
1761378733941468000,1.025468017578125,0.019411515444517136,0.00860307551920414,0.027091005817055702
1761378733951523000,1.035523193359375,0.016896691173315048,0.006367351859807968,0.03922170400619507
1761378733961579000,1.0455791015625,0.010033459402620792,-0.008412126451730728,0.045215681195259094
1761378733971634200,1.05563427734375,-0.0020692760590463877,-0.008135158568620682,0.03882622346282005
1761378733981689000,1.065689208984375,-0.01420610025525093,-0.009533584117889404,0.018753714859485626
1761378733991744000,1.075743896484375,-0.020539896562695503,-0.006118612363934517,-0.006295446306467056
1761378734001800000,1.085800048828125,-0.019897541031241417,0.0013752563390880823,-0.02924044243991375
1761378734011855000,1.095855224609375,-0.0136023610830307,0.002013882389292121,-0.040406279265880585
1761378734021910300,1.10591015625,0.003744937013834715,0.009512810967862606,-0.03602830693125725
1761378734031965000,1.11596484375,0.010088587179780006,0.011098990216851234,-0.020429907366633415
1761378734042021000,1.126021240234375,0.011523764580488205,0.0022447784431278706,-0.0035116442013531923
1761378734052076000,1.136075927734375,0.012181831523776054,0.0010863033821806312,0.015482553280889988
1761378734062131200,1.146131103515625,0.005006476305425167,0.0029470541048794985,0.028197282925248146
1761378734072186000,1.15618603515625,-0.008498147130012512,0.0031403994653373957,0.029281189665198326
1761378734082242000,1.166241943359375,-0.01738564856350422,0.008599081076681614,0.025408154353499413
1761378734092297000,1.176296875,-0.024272317066788673,0.00945155881345272,0.019221365451812744
1761378734102352100,1.18635205078125,-0.020652281120419502,0.019401660189032555,0.012018846347928047
1761378734112408000,1.196407958984375,-0.005870139691978693,0.024634240195155144,0.005411010701209307
1761378734122463200,1.206463134765625,0.007029946427792311,0.02171408385038376,0.005683451890945435
1761378734132518100,1.21651806640625,0.014226339757442474,0.012773319147527218,0.006356698926538229
1761378734142573000,1.226572998046875,0.014457502402365208,0.008023571223020554,0.006143113598227501
1761378734152629200,1.236629150390625,0.004858937580138445,0.005957491230219603,0.0070608388632535934
1761378734162684200,1.24668408203125,-0.008972455747425556,0.002858637133613229,0.007706122938543558
1761378734172739000,1.256739013671875,-0.01498028077185154,0.0035867453552782536,0.009601494297385216
1761378734182794000,1.2667939453125,-0.02044961415231228,0.00878124125301838,0.012591958045959473
1761378734192850200,1.27685009765625,-0.019687684252858162,0.007282147649675608,0.01877182349562645
1761378734202905000,1.286905029296875,-0.0173259936273098,0.012859073467552662,0.02010074071586132
1761378734212960000,1.2969599609375,-0.014788533560931683,0.02430560626089573,0.019899139180779457
1761378734223015200,1.30701513671875,-0.009770339354872704,0.03555186837911606,0.01745515689253807
1761378734233071000,1.317071044921875,-0.003335076617076993,0.03970480337738991,0.01239381916821003
1761378734243126300,1.327126220703125,-0.0007872303831391037,0.04171469062566757,0.01272777933627367
1761378734253181200,1.33718115234375,-0.0029648973140865564,0.040997233241796494,0.014421283267438412
1761378734263237000,1.347237060546875,-0.0054570832289755344,0.03303997591137886,0.01871509850025177
1761378734273292000,1.3572919921875,-0.002061553066596389,0.030039392411708832,0.015128086321055889
1761378734283347200,1.36734716796875,0.007288006599992514,0.027573304250836372,0.009308014065027237
1761378734293402000,1.377402099609375,0.004729507956653833,0.02526274509727955,-0.0015728629659861326
1761378734303458300,1.387458251953125,-0.0028248149901628494,0.016039952635765076,-0.009926400147378445
1761378734313513000,1.397512939453125,-0.012150139547884464,0.01185133308172226,-0.023871777579188347
1761378734323568000,1.407568115234375,-0.025138376280665398,0.006440855097025633,-0.03319443762302399
1761378734333623300,1.417623291015625,-0.03488314896821976,0.00785659160465002,-0.03285621851682663
1761378734343679200,1.42767919921875,-0.03412814438343048,0.013820740394294262,-0.030105171725153923
1761378734353734100,1.437734130859375,-0.029348567128181458,0.0160593930631876,-0.01799817569553852
1761378734363789000,1.4477890625,-0.018099641427397728,0.016986440867185593,-0.008258994668722153
1761378734373844200,1.45784423828125,-0.008623315952718258,0.021642977371811867,0.0005217132274992764
1761378734383900200,1.467900146484375,-0.0021904499735683203,0.02267628349363804,0.007880293764173985
1761378734393955300,1.477955322265625,0.00387383415363729,0.02027624286711216,0.011837750673294067
1761378734404010000,1.488010009765625,0.007092264015227556,0.020119648426771164,0.015063904225826263
1761378734414065200,1.498065185546875,0.001511876587755978,0.015161375515162945,0.015342204831540585
1761378734424121000,1.50812109375,-0.002432531211525202,0.009032377041876316,0.01187956240028143
1761378734434176300,1.51817626953125,-0.006371346767991781,-0.003462641965597868,0.011138138361275196
1761378734444231000,1.52823095703125,-0.005409945268183947,-0.01107209175825119,0.007811051327735186
1761378734454287000,1.538287109375,-0.0031406658235937357,-0.019573435187339783,0.0015456987312063575
1761378734464342000,1.548342041015625,0.00413482403382659,-0.020966269075870514,-0.006232862360775471
1761378734474397200,1.558397216796875,0.007760717533528805,-0.02118970826268196,-0.01702292636036873
1761378734484452000,1.5684521484375,0.011346930637955666,-0.012916064821183681,-0.02207973599433899
1761378734494508000,1.578508056640625,0.006939664948731661,-0.008224373683333397,-0.02207733877003193
1761378734504563200,1.588563232421875,0.0027182884514331818,-0.008520251139998436,-0.012288624420762062
1761378734514618000,1.5986181640625,-0.006071740761399269,-0.009167399257421494,-0.00119602563790977
1761378734524673300,1.60867333984375,-0.0123658562079072,-0.009052883833646774,0.007300523575395346
1761378734534729000,1.61872900390625,-0.00996341835707426,-0.007001983001828194,0.016107862815260887
1761378734544784100,1.6287841796875,-0.011425493285059929,-0.0020509003661572933,0.016759272664785385
1761378734554839000,1.638839111328125,-0.013362943194806576,-0.00552259711548686,0.022052304819226265
1761378734564894200,1.648894287109375,-0.018258633092045784,0.005835252348333597,0.018761970102787018
1761378734574950100,1.6589501953125,-0.018643459305167198,0.0024146882351487875,0.015473231673240662
1761378734585005000,1.669005126953125,-0.021690381690859795,-0.013205284252762794,0.00893996562808752
1761378734595060200,1.679060302734375,-0.013640711084008217,-0.01901550218462944,0.002514290390536189
1761378734605115100,1.689115234375,-0.009547432884573936,-0.015478292480111122,0.0015403723809868097
1761378734615171000,1.699171142578125,-0.0070517840795218945,-0.025888055562973022,-0.0009022789890877903
1761378734625226000,1.70922607421875,-0.006622216198593378,-0.028671326115727425,0.00663393409922719
1761378734635281200,1.71928125,-0.004771319217979908,-0.031137678772211075,0.013582121580839157
1761378734645339600,1.729339599609375,-0.0030037793330848217,-0.024935975670814514,0.018804579973220825
1761378734655395800,1.739395751953125,-0.0076158419251441956,-0.016577377915382385,0.015215704217553139
1761378734665450500,1.749450439453125,-0.011285943910479546,-0.009270995855331421,0.006201170384883881
1761378734675505700,1.759505615234375,-0.015016233548521996,-0.006976150441914797,-0.010890730656683445
1761378734685561600,1.7695615234375,-0.013411146588623524,-0.004445881117135286,-0.025404691696166992
1761378734695616800,1.77961669921875,-0.005931125953793526,-0.005834453273564577,-0.03758625686168671
1761378734705671400,1.78967138671875,0.0041609229519963264,-0.0185297429561615,-0.03224794939160347
1761378734715726600,1.7997265625,0.01299276389181614,-0.026811107993125916,-0.02534184232354164
1761378734725782500,1.809782470703125,0.01751268096268177,-0.02786944806575775,-0.013381319120526314
1761378734735837700,1.819837646484375,0.015874570235610008,-0.02576635032892227,-0.004249073565006256
1761378734745892900,1.829892822265625,0.009310944005846977,-0.019400063902139664,0.007514375261962414
1761378734755947500,1.839947509765625,-0.0000023968450477696024,-0.019716447219252586,0.01464845146983862
1761378734766003700,1.850003662109375,-0.00703926756978035,-0.017404822632670403,0.021885590627789497
1761378734776058600,1.86005859375,-0.012899020686745644,-0.0144135607406497,0.025426264852285385
1761378734786113800,1.87011376953125,-0.013377857394516468,-0.012676646932959557,0.033780600875616074
1761378734796168400,1.88016845703125,-0.015024489723145962,-0.017305221408605576,0.03928748518228531
1761378734806224600,1.890224609375,-0.0022543659433722496,-0.023538881912827492,0.03591059520840645
1761378734816279600,1.900279541015625,0.007221694104373455,-0.015809057280421257,0.01973562128841877
1761378734826334700,1.910334716796875,0.01727779023349285,-0.006015814375132322,-0.0025574336759746075
1761378734836389600,1.9203896484375,0.01480531133711338,0.015569105744361877,-0.02804708108305931
1761378734846445600,1.930445556640625,0.0006199838826432824,0.02130582183599472,-0.04529238119721413
1761378734856500700,1.940500732421875,-0.015360847115516663,0.015747804194688797,-0.0427250936627388
1761378734866555600,1.9505556640625,-0.022245917469263077,0.012551478110253811,-0.02563132718205452
1761378734876610800,1.96061083984375,-0.02965429797768593,0.011488877236843109,-0.0018719359068199992
1761378734886666800,1.970666748046875,-0.023380955681204796,0.004532966297119856,0.020720191299915314
1761378734896721700,1.9807216796875,-0.016990700736641884,-0.0032234902027994394,0.03537077456712723
1761378734906776600,1.990776611328125,-0.006736998446285725,-0.0009741843095980585,0.03730875626206398
1761378734916831700,2.000831787109375,0.005927663762122393,0.014193583279848099,0.02056998945772648
1761378734926887700,2.0108876953125,0.010946391150355339,0.009666209109127522,0.0023188143968582153
1761378734936942600,2.020942626953125,0.013454556465148926,-0.0010269149206578732,-0.015478292480111122
1761378734946997800,2.030997802734375,0.011084076017141342,-0.0007190534961409867,-0.02833470143377781
1761378734957052700,2.041052734375,0.008611864410340786,0.004652542527765036,-0.028236698359251022
1761378734967108600,2.051108642578125,0.0025933862198144197,0.0043859598226845264,-0.012585300020873547
1761378734977163500,2.06116357421875,-0.0037033918779343367,-0.0012261193478479981,0.015250591561198235
1761378734987218700,2.07121875,-0.0033015208318829536,-0.00833915639668703,0.04229419305920601
1761378734997273600,2.081273681640625,0.002537459833547473,-0.005520733073353767,0.05589309334754944
1761378735007329800,2.091329833984375,0.005086637567728758,-0.005155613645911217,0.0434526689350605
1761378735017384700,2.101384765625,0.015512647107243538,0.002463690238073468,0.02166161872446537
1761378735027439600,2.111439697265625,0.016835438087582588,-0.0009970874525606632,-0.012704077176749706
1761378735037494800,2.121494873046875,0.01401941291987896,-0.0075884112156927586,-0.034390997141599655
1761378735047550700,2.13155078125,0.011641742661595345,-0.012132829055190086,-0.04062838479876518
1761378735057605600,2.141605712890625,0.0030959248542785645,-0.010033725760877132,-0.036554548889398575
1761378735067660500,2.15166064453125,-0.007287473883479834,-0.013743774965405464,-0.019753465428948402
1761378735077716500,2.161716552734375,-0.017968080937862396,-0.012717659585177898,-0.0020093549974262714
1761378735087771600,2.171771728515625,-0.022102639079093933,-0.0036131106317043304,0.0005118595436215401
1761378735097826800,2.181826904296875,-0.013551228679716587,0.005980394314974546,0.0029577065724879503
1761378735107881500,2.191881591796875,-0.008668855763971806,0.007939149625599384,-0.004613127559423447
1761378735117937700,2.201937744140625,-0.0016695356462150812,0.0008958873804658651,-0.009267534129321575
1761378735127992600,2.21199267578125,0.0029939257074147463,-0.01426655426621437,-0.017291106283664703
1761378735138047700,2.2220478515625,0.0052022188901901245,-0.02833843044936657,-0.015157381072640419
1761378735148102700,2.2321025390625,0.006364688742905855,-0.036616332828998566,-0.011884089559316635
1761378735158158600,2.24215869140625,-0.001597630325704813,-0.03682592511177063,-0.0049430932849645615
1761378735168213500,2.252213623046875,-0.005507417023181915,-0.032595761120319366,0.004507666453719139
1761378735178268700,2.2622685546875,-0.005094893276691437,-0.015867114067077637,0.012050537392497063
1761378735188323800,2.27232373046875,-0.010100305080413818,0.0021853898651897907,0.006846987176686525
1761378735198379800,2.2823798828125,-0.020131099969148636,0.01919633150100708,0.0051809134893119335
1761378735208434700,2.2924345703125,-0.02321663871407509,0.022830747067928314,0.007697334513068199
1761378735218489600,2.302489501953125,-0.02365020103752613,0.02227175049483776,0.01158448401838541
1761378735228544800,2.312544677734375,-0.022063756361603737,0.021147629246115685,0.024500282481312752
1761378735238600700,2.3226005859375,-0.023847542703151703,0.012354138307273388,0.03762860223650932
1761378735248655600,2.332655517578125,-0.015658322721719742,0.0057130130007863045,0.04892173781991005
1761378735258710500,2.34271044921875,-0.013058011420071125,0.003418699838221073,0.04934704303741455
1761378735268765700,2.352765625,-0.011540808714926243,0.00624058535322547,0.03792394697666168
1761378735278821600,2.362821533203125,-0.006106894463300705,0.006025668233633041,0.0171440988779068
1761378735288876800,2.372876708984375,-0.00890880636870861,0.01878167688846588,-0.003439738880842924
1761378735298931700,2.382931640625,-0.02021312527358532,0.027028687298297882,-0.02003629319369793
1761378735308986600,2.392986572265625,-0.028438832610845566,0.02502785436809063,-0.011379687115550041
1761378735319042600,2.40304248046875,-0.026277409866452217,0.01344869751483202,0.004163586068898439
1761378735329097700,2.41309765625,-0.017883924767374992,0.00404534162953496,0.022709839046001434
1761378735339152600,2.423152587890625,-0.007868309505283833,-0.005629390012472868,0.03340056538581848
1761378735349207600,2.43320751953125,-0.0014405038673430681,-0.0008873652550391853,0.030732613056898117
1761378735359263700,2.443263671875,-0.0015686018159613013,0.011255317367613316,0.02111806906759739
1761378735369318700,2.453318603515625,-0.005605155136436224,0.013434049673378468,0.006933805998414755
1761378735379373600,2.46337353515625,-0.010328271426260471,0.010480870492756367,0.0036461339332163334
1761378735389428700,2.4734287109375,-0.014327007345855236,0.01558481901884079,0.006114617921411991
1761378735399484700,2.483484619140625,-0.014797055162489414,0.012924320995807648,0.02118917554616928
1761378735409539600,2.49353955078125,-0.01344550121575594,0.015054050832986832,0.039506930857896805
1761378735419594800,2.5035947265625,-0.013874270021915436,0.017043432220816612,0.057619355618953705
1761378735429649700,2.513649658203125,-0.015870574861764908,0.02165895700454712,0.06346286088228226
1761378735439705600,2.52370556640625,-0.014520885422825813,0.02255777269601822,0.05047276243567467
1761378735449760800,2.5337607421875,-0.013194898143410683,0.02448323927819729,0.033796314150094986
1761378735459815700,2.543815673828125,-0.005805691238492727,0.025433987379074097,0.004721518140286207
1761378735469870600,2.55387060546875,-0.0075545888394117355,0.019454391673207283,-0.010422813706099987
1761378735479926500,2.563926513671875,-0.012598349712789059,0.013668407686054707,-0.0107120331376791
1761378735489981700,2.573981689453125,-0.01992230862379074,0.006851247977465391,-0.0025537051260471344
1761378735500036600,2.58403662109375,-0.025474466383457184,0.005548962391912937,0.016377374529838562
1761378735510091500,2.594091552734375,-0.023984961211681366,0.009730391204357147,0.032335568219423294
1761378735520147500,2.6041474609375,-0.01606232300400734,0.018147312104701996,0.04228673502802849
1761378735530202600,2.61420263671875,-0.013487312942743301,0.02045867033302784,0.04952627420425415
1761378735540257800,2.6242578125,-0.00857218261808157,0.02743322215974331,0.048048220574855804
1761378735550312700,2.634312744140625,-0.004571582190692425,0.02726304531097412,0.04092932492494583
1761378735560369000,2.644368896484375,0.0021632856223732233,0.025406289845705032,0.03176964819431305
1761378735570423600,2.654423583984375,-0.0007422229973599315,0.019718578085303307,0.015230085700750351
1761378735580478700,2.664478759765625,-0.00501100393012166,0.019591011106967926,0.0008910936885513365
1761378735590533600,2.67453369140625,-0.015426360070705414,0.015972575172781944,-0.012887569144368172
1761378735600589800,2.68458984375,-0.023976439610123634,0.008080297149717808,-0.01353498362004757
1761378735610644500,2.69464453125,-0.022222748026251793,0.008726113475859165,-0.008261391893029213
1761378735620699600,2.70469970703125,-0.013700366020202637,0.012955479323863983,0.007932757958769798
1761378735630754800,2.7147548828125,-0.009030778892338276,0.01570998691022396,0.027240408584475517
1761378735640810800,2.724810791015625,-0.004078364931046963,0.020906880497932434,0.04357464239001274
1761378735650862300,2.7348623046875,0.0012540825409814715,0.02082325704395771,0.048705488443374634
1761378735660917000,2.7449169921875,0.007910653948783875,0.016318518668413162,0.047984570264816284
1761378735670972200,2.75497216796875,0.012341354973614216,0.011499263346195221,0.033853836357593536
1761378735681028000,2.765028076171875,0.007535147946327925,0.013481720350682735,0.01296187099069357
1761378735691083300,2.775083251953125,0.003552390495315194,0.010123474523425102,-0.006369748618453741
1761378735701138200,2.78513818359375,-0.0031244205310940742,0.008755408227443695,-0.011377024464309216
1761378735711193000,2.795193115234375,-0.00495161535218358,0.006117281038314104,-0.010044378228485584
1761378735721249000,2.8052490234375,-0.009817477315664291,0.007226487621665001,-0.0002956108655780554
1761378735731304200,2.81530419921875,-0.014060691930353642,0.009406550787389278,0.01209554448723793
1761378735741359400,2.825359375,-0.01829485036432743,0.01509959064424038,0.021339111030101776
1761378735751414000,2.8354140625,-0.008326373063027859,0.011736550368368626,0.025561019778251648
1761378735761470000,2.845469970703125,0.003427488263696432,0.0064773401245474815,0.027485953643918037
1761378735771525000,2.855525146484375,0.014815431088209152,-0.005309544038027525,0.021134313195943832
1761378735781580300,2.865580322265625,0.02040220983326435,-0.009709086269140244,0.01642477884888649
1761378735791635200,2.87563525390625,0.023510385304689407,-0.007481884676963091,0.004908205941319466
1761378735801691100,2.885691162109375,0.015251390635967255,-0.0033427998423576355,0.0019259981345385313
1761378735811746000,2.89574609375,0.007917843759059906,0.005946306046098471,-0.002281263703480363
1761378735821801200,2.90580126953125,-0.006596916355192661,0.012604208663105965,0.0007102650706656277
1761378735831856000,2.915856201171875,-0.016874320805072784,0.014199974946677685,0.007870440371334553
1761378735841912300,2.925912353515625,-0.0182903241366148,0.009900035336613655,0.008340221829712391
1761378735851967000,2.935967041015625,-0.006042712368071079,0.008295480161905289,0.004999818746000528
1761378735862022100,2.946022216796875,0.0014863101532682776,0.001466869143769145,0.006771087180823088
1761378735872077300,2.956077392578125,0.0015875103417783976,-0.0004924184759147465,0.009009740315377712
1761378735882133200,2.96613330078125,-0.00002450108149787411,0.000922252656891942,0.010721620172262192
1761378735892188200,2.976188232421875,0.0007800398743711412,0.005417935084551573,0.01411422062665224
1761378735902243000,2.9862431640625,0.0011057445080950856,0.006597449071705341,0.0243692547082901
1761378735912298200,2.99629833984375,0.003041063668206334,0.00098190747667104,0.03178695961833
1761378735922354200,3.006354248046875,0.007947404868900776,0.0007057376787997782,0.030122747644782066
1761378735932409000,3.0164091796875,0.005026184022426605,0.0032509206794202328,0.03212331607937813
1761378735942464000,3.026464111328125,-0.0019217369845137,-0.0016580841038376093,0.03191399201750755
1761378735952519200,3.036519287109375,-0.0005126585019752383,0.005362008698284626,0.032346487045288086
1761378735962575000,3.0465751953125,0.003703658003360033,0.005329784471541643,0.030535537749528885
1761378735972630300,3.05663037109375,0.0025856629945337772,0.010158894583582878,0.027244936674833298
1761378735982685200,3.066685302734375,-0.0019518306944519281,0.016499347984790802,0.023017700761556625
1761378735992740000,3.076739990234375,-0.0048916940577328205,0.016272712498903275,0.01667138747870922
1761378736002796300,3.08679638671875,-0.0039039277471601963,0.013243899680674076,0.01483753602951765
1761378736012851200,3.096851318359375,-0.0023244069889187813,0.003859186777845025,0.0112196309491992
1761378736022906000,3.106906005859375,0.001787779969163239,-0.004584099166095257,0.006138586439192295
1761378736032961000,3.1169609375,0.0067809405736625195,-0.009473662823438644,-0.003448793664574623
1761378736043017200,3.127017333984375,0.008700546808540821,-0.00923291314393282,-0.010929613374173641
1761378736053072100,3.137072021484375,0.007935420610010624,-0.002552373567596078,-0.013589845038950443
1761378736063127000,3.147126953125,0.0043595945462584496,0.0021347899455577135,-0.01786874607205391
1761378736073182200,3.15718212890625,0.00019148127466905862,0.006132993847131729,-0.012269183062016964
1761378736083238100,3.167238037109375,-0.0034490597900003195,0.002091913018375635,-0.0020780644845217466
1761378736093293300,3.177293212890625,-0.004391286056488752,0.0014500912511721253,0.007000918034464121
1761378736103348200,3.18734814453125,-0.00561154680326581,0.0007118629291653633,0.02328241989016533
1761378736113403100,3.197403076171875,-0.003623496973887086,-0.006579605862498283,0.02997520938515663
1761378736123459000,3.207458984375,-0.0020967067684978247,-0.00734366662800312,0.02756771259009838
1761378736133514200,3.21751416015625,-0.0001310275256400928,-0.0054094125516712666,0.02004348300397396
1761378736143569200,3.227569091796875,0.0002170476218452677,-0.007114634849131107,0.007195328362286091
1761378736153624000,3.2376240234375,-0.0054642739705741405,-0.0010974886827170849,-0.0017752632265910506
1761378736163680000,3.247679931640625,-0.013789315707981586,0.00791518110781908,-0.011799135245382786
1761378736173735200,3.257735107421875,-0.01900937780737877,0.008081362582743168,-0.010072074830532074
1761378736183790000,3.2677900390625,-0.01564553938806057,0.014313692227005959,0.003165699541568756
1761378736193845200,3.27784521484375,-0.01350329164415598,0.00983372237533331,0.023612119257450104
1761378736203901000,3.28790087890625,-0.004222708288580179,0.006996390409767628,0.039618249982595444
1761378736213956000,3.2979560546875,0.00546294217929244,0.00045060686534270644,0.04740533232688904
1761378736224011300,3.30801123046875,0.009890713728964329,-0.006688529159873724,0.040585774928331375
1761378736234066200,3.318066162109375,0.009979130700230598,-0.006271477788686752,0.01978941820561886
1761378736244122400,3.328122314453125,0.0017238641157746315,-0.0035606464371085167,-0.007382282521575689
1761378736254177000,3.338177001953125,-0.010190851986408234,0.0088803106918931,-0.028148014098405838
1761378736264232200,3.348232177734375,-0.018011491745710373,0.018188059329986572,-0.040718402713537216
1761378736274287000,3.358287109375,-0.02183579094707966,0.019893281161785126,-0.03257498890161514
1761378736284343300,3.36834326171875,-0.01583009585738182,0.018339859321713448,-0.01079965103417635
1761378736294398000,3.37839794921875,-0.014390124939382076,0.013262808322906494,0.02105175517499447
1761378736304453000,3.388453125,-0.016100939363241196,-0.0019558256026357412,0.05108102783560753
1761378736314508300,3.39850830078125,-0.012862801551818848,-0.013274792581796646,0.069654181599617
1761378736324564200,3.408564208984375,0.0014058827655389905,-0.01883467473089695,0.06291718035936356
1761378736334619100,3.418619140625,0.008080563507974148,-0.014104899950325489,0.03937190771102905
1761378736344674000,3.428674072265625,0.013275591656565666,0.0007427555974572897,0.002041046740487218
1761378736354729200,3.438729248046875,0.005119128152728081,0.022523684427142143,-0.03869999200105667
1761378736364785200,3.44878515625,-0.009736250154674053,0.031133951619267464,-0.061417289078235626
1761378736374840300,3.45884033203125,-0.022586535662412643,0.023873640224337578,-0.05759724974632263
1761378736384895000,3.46889501953125,-0.026554379612207413,0.00881959032267332,-0.029928337782621384
1761378736394950100,3.4789501953125,-0.01768285594880581,0.0016921724891290069,-0.0038932752795517445
1761378736405006000,3.489006103515625,-0.007930893450975418,-0.005402754992246628,0.018572619184851646
1761378736415061200,3.499061279296875,-0.007719172164797783,0.00029587719473056495,0.03133928030729294
1761378736425116200,3.5091162109375,-0.007977498695254326,0.006654706783592701,0.027242539450526237
1761378736435171000,3.519171142578125,-0.003596865339204669,0.012410330586135387,0.014357367530465126
1761378736445227300,3.529227294921875,-0.005933522712439299,0.014936605468392372,0.0014535533264279366
1761378736455282200,3.5392822265625,-0.008959406055510044,0.020560935139656067,-0.001199221471324563
1761378736465337300,3.54933740234375,-0.008925584144890308,0.02245071344077587,-0.0004093278548680246
1761378736475392000,3.55939208984375,-0.0023121563717722893,0.01769697107374668,0.006083991378545761
1761378736485447200,3.569447265625,0.004025900736451149,0.01390090212225914,0.009494169615209103
1761378736495503000,3.579503173828125,0.00869069341570139,0.01152882445603609,0.002808569697663188
1761378736505558300,3.589558349609375,0.009394301101565361,0.008363124914467335,-0.0027774106711149216
1761378736515613200,3.59961328125,0.0043713124468922615,0.00809361319988966,-0.00695005152374506
1761378736525668000,3.609668212890625,0.005043494515120983,0.006238454952836037,-0.005106877535581589
1761378736535724300,3.619724365234375,0.01022573933005333,0.016158996149897575,-0.001517202821560204
1761378736545779200,3.629779296875,0.009018261916935444,0.023068834096193314,0.003459712490439415
1761378736555834000,3.639834228515625,0.002442118711769581,0.022293321788311005,0.003943609073758125
1761378736565889000,3.649888916015625,-0.005658152047544718,0.0181739442050457,0.004987568128854036
1761378736575945200,3.6599453125,-0.01673796772956848,0.011322695761919022,0.007162571884691715
1761378736586000100,3.670000244140625,-0.017767544835805893,0.0025300029665231705,0.011721637099981308
1761378736596055300,3.68005517578125,-0.013160010799765587,-0.0046722497791051865,0.013493704609572887
1761378736606110200,3.690110107421875,-0.004224039614200592,-0.003463441040366888,0.01053573191165924
1761378736616166100,3.700166259765625,-0.0022240057587623596,0.0010484865633770823,0.006007025949656963
1761378736626221000,3.710220947265625,-0.0030056436080485582,0.010617757216095924,-0.004957207944244146
1761378736636276200,3.720276123046875,-0.004458664450794458,0.02816585823893547,-0.014666827395558357
1761378736646331400,3.730331298828125,-0.013938718475401402,0.030001841485500336,-0.01167609728872776
1761378736656387300,3.74038720703125,-0.019834691658616066,0.016587765887379646,-0.0016056197928264737
1761378736666442200,3.750442138671875,-0.02503477968275547,0.0034165694378316402,0.010880078189074993
1761378736676497200,3.7604970703125,-0.017680726945400238,-0.00035899411886930466,0.017797106876969337
1761378736686552300,3.77055224609375,-0.015987755730748177,-0.008773784153163433,0.027480892837047577
1761378736696608300,3.780608154296875,-0.0065255435183644295,-0.00737322773784399,0.026629213243722916
1761378736706663200,3.7906630859375,-0.0005816344055347145,0.0016652746126055717,0.024042485281825066
1761378736716718000,3.800718017578125,-0.0019326560432091355,0.011235077865421772,0.017193101346492767
1761378736726773200,3.810773193359375,-0.00632127933204174,0.023240074515342712,0.006711432244628668
1761378736736829200,3.8208291015625,-0.01648230478167534,0.029935261234641075,-0.006858172360807657
1761378736746884400,3.83088427734375,-0.016473514959216118,0.035235218703746796,-0.01654036156833172
1761378736756939300,3.840939208984375,-0.0167976226657629,0.036366261541843414,-0.02033429965376854
1761378736766994200,3.850994140625,-0.018680743873119354,0.035655733197927475,-0.014783473685383797
1761378736777050400,3.86105029296875,-0.016589628532528877,0.019401926547288895,-0.008449144661426544
1761378736787105300,3.871105224609375,-0.014962703920900822,0.006249906495213509,0.004796086810529232
1761378736797160200,3.88116015625,-0.01207051146775484,-0.0008210525847971439,0.017487114295363426
1761378736807215000,3.891215087890625,-0.014120612293481827,-0.0006727144937030971,0.022041652351617813
1761378736817271300,3.901271240234375,-0.02112392708659172,0.006188387516885996,0.02382277511060238
1761378736827326200,3.911326171875,-0.024763403460383415,0.015732889994978905,0.027210049331188202
1761378736837381000,3.921381103515625,-0.02690911293029785,0.022876553237438202,0.025021729990839958
1761378736847436300,3.931436279296875,-0.029774939641356468,0.02418363280594349,0.019770242273807526
1761378736857492200,3.9414921875,-0.02948332391679287,0.021317273378372192,0.008990831673145294
1761378736867547400,3.95154736328125,-0.028144819661974907,0.01768605224788189,-0.004643221385776997
1761378736877602300,3.961602294921875,-0.029697975143790245,0.01318318024277687,-0.017351293936371803
1761378736887657200,3.9716572265625,-0.0303959883749485,0.011924570426344872,-0.021441908553242683
1761378736897713200,3.981713134765625,-0.022472552955150604,0.01660693995654583,-0.013820474036037922
1761378736907768300,3.991768310546875,-0.00929389987140894,0.02677222527563572,-0.0020029633305966854
1761378736917823200,4.0018232421875,-0.006223807577043772,0.0332876481115818,0.01643463410437107
1761378736927878100,4.011878173828125,-0.00384453940205276,0.03335129842162132,0.030124345794320107
1761378736937931300,4.02193115234375,-0.006966030225157738,0.030581876635551453,0.03592178225517273
1761378736947986200,4.031986083984375,-0.017596837133169174,0.029937924817204475,0.029797043651342392
1761378736958041000,4.042041015625,-0.031732894480228424,0.023200128227472305,0.015441806986927986
1761378736968097300,4.05209716796875,-0.03654256463050842,0.022768428549170494,0.000571248063351959
1761378736978152200,4.062152099609375,-0.03155047073960304,0.020908476784825325,-0.015292669646441936
1761378736988207400,4.072207275390625,-0.02340439148247242,0.02731923945248127,-0.018122011795639992
1761378736998262300,4.08226220703125,-0.009988718666136265,0.028801022097468376,-0.009490706957876682
1761378737008318200,4.092318115234375,0.0007118629291653633,0.03676227480173111,0.0065258098766207695
1761378737018373400,4.102373291015625,0.004071174189448357,0.02726038359105587,0.024056067690253258
1761378737028428300,4.11242822265625,-0.00029534456552937627,0.01780855841934681,0.03134194388985634
1761378737038483200,4.122483154296875,-0.011826565489172935,0.009472863748669624,0.02792111411690712
1761378737048539100,4.1325390625,-0.014902250841259956,0.004289819858968258,0.01763438805937767
1761378737058594300,4.14259423828125,-0.016532104462385178,-0.0008548747282475233,0.007123423274606466
1761378737068649200,4.152649169921875,-0.0181659534573555,0.0008439557277597487,-0.0030365362763404846
1761378737078704400,4.162704345703125,-0.017305487766861916,0.016927318647503853,-0.013572268187999725
1761378737088759300,4.17275927734375,-0.016626646742224693,0.03772980347275734,-0.02062804624438286
1761378737098815200,4.182815185546875,-0.021165739744901657,0.049803510308265686,-0.020988905802369118
1761378737108870100,4.1928701171875,-0.012925120070576668,0.05128209665417671,-0.011452924460172653
1761378737118925300,4.20292529296875,-0.006052832584828138,0.03651966154575348,-0.0034759577829390764
1761378737128980200,4.212980224609375,-0.005025118589401245,0.024513864889740944,0.0028304075822234154
1761378737139036200,4.2230361328125,-0.010366620495915413,0.002028529765084386,0.007154049351811409
1761378737149091300,4.23309130859375,-0.014482003636658192,-0.013726730830967426,0.015242602676153183
1761378737159146200,4.243146240234375,-0.0065172878094017506,-0.017904698848724365,0.01537682581692934
1761378737169201200,4.253201171875,-0.0027475832030177116,-0.008324242196977139,0.004766259342432022
1761378737179257000,4.263257080078125,-0.009829993359744549,0.003907389938831329,-0.011582886800169945
1761378737189312300,4.273312255859375,-0.017709754407405853,0.015603993088006973,-0.029276661574840546
1761378737199367200,4.2833671875,-0.02345898747444153,0.024475248530507088,-0.03772074729204178
1761378737209422300,4.29342236328125,-0.025731462985277176,0.012536564841866493,-0.03021169826388359
1761378737219478000,4.30347802734375,-0.019220832735300064,-0.004571315832436085,-0.012996758334338665
1761378737229533200,4.313533203125,-0.01564447395503521,-0.012108860537409782,-0.005680788774043322
1761378737239588400,4.32358837890625,-0.010699516162276268,-0.015116901136934757,0.00019121496006846428
1761378737249643300,4.333643310546875,-0.0032346753869205713,-0.007477623876184225,-0.0020626182667911053
1761378737259699500,4.343699462890625,0.008607336319983006,0.0043532028794288635,-0.004254666157066822
1761378737269754000,4.353754150390625,0.01549134124070406,0.018934542313218117,-0.011876100674271584
1761378737279809300,4.363809326171875,0.016270847991108894,0.045937132090330124,-0.021208615973591805
1761378737289864200,4.3738642578125,0.01034664735198021,0.042460907250642776,-0.02376924455165863
1761378737299920400,4.38392041015625,-0.002079662401229143,0.028730714693665504,-0.018424546346068382
1761378737309975000,4.39397509765625,-0.005964415613561869,0.01889592595398426,-0.003710582386702299
1761378737320030200,4.4040302734375,-0.012649482116103172,0.006645651999861002,0.016162991523742676
1761378737330085400,4.41408544921875,-0.011273693293333054,-0.00563897704705596,0.0277437474578619
1761378737340141300,4.424141357421875,-0.0023816649336367846,-0.008142614737153053,0.033664487302303314
1761378737350198300,4.4341982421875,0.007667507044970989,0.0010833739070221782,0.019277824088931084
1761378737360253400,4.44425341796875,0.014476943761110306,0.024873923510313034,0.003117230022326112
1761378737370308000,4.45430810546875,0.014306501485407352,0.036614470183849335,-0.012951218523085117
1761378737380363300,4.46436328125,0.0033846113365143538,0.02822364866733551,-0.019278090447187424
1761378737390419200,4.474419189453125,-0.010976218618452549,0.018274344503879547,-0.013828197494149208
1761378737400474400,4.484474365234375,-0.020379040390253067,0.009125587530434132,-0.003132676472887397
1761378737410529000,4.494529052734375,-0.02166641317307949,-0.004595017991960049,0.012062521651387215
1761378737420584200,4.504584228515625,-0.016809340566396713,-0.014801050536334515,0.020985443145036697
1761378737430640000,4.51464013671875,-0.006020075641572475,-0.023921310901641846,0.018036523833870888
1761378737440695300,4.5246953125,0.005122590344399214,-0.024588167667388916,-0.0015954998089000583
1761378737450750500,4.53475048828125,0.008165251463651657,-0.0073537868447601795,-0.027880366891622543
1761378737460805000,4.54480517578125,-0.004090349189937115,0.012132829055190086,-0.04669506847858429
1761378737470861300,4.554861328125,-0.02412291243672371,0.02377377264201641,-0.050393398851156235
1761378737480916200,4.564916259765625,-0.034935079514980316,0.028562935069203377,-0.04011599346995354
1761378737490971400,4.574971435546875,-0.03562989830970764,0.027659058570861816,-0.020234964787960052
1761378737501026000,4.585026123046875,-0.031190942972898483,0.018867963925004005,0.004801945760846138
1761378737511082200,4.595082275390625,-0.02189704217016697,0.0038637141697108746,0.02678420953452587
1761378737521137200,4.60513720703125,-0.012313923798501492,-0.007909854874014854,0.044085968285799026
1761378737531192300,4.6151923828125,-0.0037803570739924908,-0.00675297761335969,0.04523618891835213
1761378737541247200,4.625247314453125,-0.003418966196477413,0.004628574009984732,0.03105751797556877
1761378737551303200,4.63530322265625,-0.007360178045928478,0.02287229336798191,0.012532303109765053
1761378737561358300,4.6453583984375,-0.01895185373723507,0.03964328393340111,-0.009880061261355877
1761378737571413200,4.655413330078125,-0.03202744200825691,0.04193812981247902,-0.02364247851073742
1761378737581468400,4.665468505859375,-0.0380946546792984,0.04025527834892273,-0.024805214256048203
1761378737591524000,4.675524169921875,-0.048061802983284,0.0445869080722332,-0.019540412351489067
1761378737601579300,4.685579345703125,-0.05254150554537773,0.04397518187761307,-0.0018716695485636592
1761378737611634200,4.69563427734375,-0.049911633133888245,0.04000334069132805,0.016687899827957153
1761378737621689300,4.705689453125,-0.03386342525482178,0.03389831259846687,0.0402427613735199
1761378737631745300,4.715745361328125,-0.015174425207078457,0.02520735189318657,0.058883823454380035
1761378737641800200,4.72580029296875,0.0057345847599208355,0.0177552942186594,0.06854790449142456
1761378737651860200,4.735860107421875,0.017662616446614265,0.02118917554616928,0.06257949024438858
1761378737661915400,4.745915283203125,0.012554939836263657,0.032587770372629166,0.04145875945687294
1761378737671970000,4.755969970703125,-0.004866127856075764,0.045818619430065155,0.017254887148737907
1761378737682026200,4.766026123046875,-0.030607976019382477,0.04625724256038666,0.000517718493938446
1761378737692081200,4.7760810546875,-0.04589212313294411,0.03856123983860016,-0.012483567930758
1761378737702136300,4.78613623046875,-0.0497015081346035,0.025837989524006844,-0.008955411612987518
1761378737712192300,4.796192138671875,-0.03990959748625755,0.013243100605905056,-0.0033755565527826548
1761378737722247200,4.8062470703125,-0.02713734470307827,0.00785765703767538,0.010633203200995922
1761378737732302000,4.816302001953125,-0.01245054416358471,0.003743072971701622,0.01997450739145279
1761378737742357200,4.826357177734375,0.002320145955309272,0.008349276147782803,0.023961791768670082
1761378737752412400,4.836412353515625,0.007397462613880634,0.009889115579426289,0.02647208794951439
1761378737762468400,4.84646826171875,0.004751345608383417,0.0018082864116877317,0.029084648936986923
1761378737772523300,4.856523193359375,-0.005862416233867407,0.00634817685931921,0.01925705187022686
1761378737782578200,4.866578125,-0.025891251862049103,0.0046727824956178665,0.017610419541597366
1761378737792633300,4.87663330078125,-0.03891837224364281,0.005203017964959145,0.02257668226957321
1761378737802689300,4.886689208984375,-0.041543714702129364,0.005970807280391455,0.03158082813024521
1761378737812744200,4.896744140625,-0.037996917963027954,-0.001169127761386335,0.0396997407078743
1761378737822799000,4.906799072265625,-0.02165869064629078,-0.0030929953791201115,0.04586922004818916
1761378737832854300,4.916854248046875,-0.008828112855553627,-0.000041012681322172284,0.0480056069791317
1761378737842910200,4.92691015625,-0.000568318588193506,0.0030575753189623356,0.039319708943367004
1761378737852965400,4.93696533203125,-0.0011289139511063695,0.0019595539197325706,0.022114356979727745
1761378737863020300,4.947020263671875,-0.014039918780326843,-0.0001328917423961684,0.009982593357563019
1761378737873075200,4.9570751953125,-0.029088376089930534,-0.008703210391104221,0.0014354437589645386
1761378737883131400,4.96713134765625,-0.03610420972108841,-0.018582472577691078,0.007224090863019228
1761378737893186300,4.977186279296875,-0.03464639559388161,-0.02442757785320282,0.013110209256410599
1761378737903241200,4.9872412109375,-0.02496793307363987,-0.02412317879498005,0.015082280151546001
1761378737913296100,4.997296142578125,-0.01678244210779667,-0.003352919826284051,0.010005230084061623
1761378737923352300,5.007352294921875,-0.011406319215893745,0.01581997610628605,-0.005788380745798349
1761378737933407200,5.0174072265625,-0.005600627511739731,0.030074546113610268,-0.026644660159945488
1761378737943462100,5.027462158203125,0.0001917476038215682,0.02514982782304287,-0.034151580184698105
1761378737953517300,5.037517333984375,0.0032583775464445353,0.007568171247839928,-0.033245038241147995
1761378737963573200,5.0475732421875,0.0038980687968432903,-0.016278572380542755,-0.02293327823281288
1761378737973628200,5.057628173828125,-0.007528223562985659,-0.02997654117643833,-0.004086087923496962
1761378737983683300,5.067683349609375,-0.019476495683193207,-0.042446792125701904,0.019160378724336624
1761378737993738200,5.07773828125,-0.021921010687947273,-0.03008493222296238,0.03764990717172623
1761378738003794200,5.087794189453125,-0.01636672206223011,-0.00566827179864049,0.04809349402785301
1761378738013849300,5.097849365234375,-0.010164487175643444,0.018218684941530228,0.05162058398127556
1761378738023904300,5.107904296875,-0.0031284152064472437,0.01894812472164631,0.0469222366809845
1761378738033959200,5.117959228515625,0.01185133308172226,0.015103585086762905,0.033069536089897156
1761378738044015000,5.12801513671875,0.017013337463140488,-0.002031991956755519,0.018696721643209457
1761378738054070300,5.1380703125,0.008640360087156296,-0.011885687708854675,0.008224906399846077
1761378738064125200,5.148125244140625,0.005323659162968397,-0.01558242179453373,0.005534315016120672
1761378738074180000,5.15818017578125,-0.003129480639472604,-0.01070830412209034,0.009037969633936882
1761378738084236000,5.168236083984375,-0.008447812870144844,-0.0028573055751621723,0.013275325298309326
1761378738094291200,5.178291259765625,-0.004890096373856068,0.007801463827490807,0.01564207673072815
1761378738104346400,5.188346435546875,-0.0010346380295231938,0.011033209972083569,0.011430553160607815
1761378738114401300,5.1984013671875,0.0005872269975952804,0.010154366493225098,0.009814547374844551
1761378738124457500,5.20845751953125,-0.008224107325077057,0.00427171029150486,0.011117898859083652
1761378738134512000,5.21851220703125,-0.013108078390359879,0.0022658174857497215,0.012969328090548515
1761378738144567300,5.2285673828125,-0.01050377357751131,-0.00358754419721663,0.012612997554242611
1761378738154622200,5.238622314453125,0.0011611381778493524,-0.007269630674272776,0.016231168061494827
1761378738164678400,5.248678466796875,0.01116290595382452,-0.00424401368945837,0.011455054394900799
1761378738174733000,5.258733154296875,0.019753731787204742,0.004456799943000078,0.002743322169408202
1761378738184788200,5.268788330078125,0.017434384673833847,0.020972393453121185,-0.0004237089306116104
1761378738194843400,5.278843505859375,0.007435812149196863,0.029286516830325127,-0.001207743538543582
1761378738204899300,5.2888994140625,0.0020010992884635925,0.020422451198101044,0.008471781387925148
1761378738214954200,5.298954345703125,-0.005364405456930399,0.008068046532571316,0.013516607694327831
1761378738225009200,5.309009033203125,-0.014545919373631477,0.0021853898651897907,0.019597936421632767
1761378738235064300,5.319064208984375,-0.014621286652982235,0.003620034782215953,0.01973295770585537
1761378738245120300,5.329120361328125,-0.007446464616805315,0.005285309627652168,0.016219183802604675
1761378738255175400,5.339175537109375,0.007020625285804272,0.004565989598631859,0.01176371518522501
1761378738265230000,5.34922998046875,0.021709289401769638,0.014158695936203003,0.003963849041610956
1761378738275285200,5.35928515625,0.029939256608486176,0.026936275884509087,0.005268531385809183
1761378738285340400,5.36934033203125,0.025053154677152634,0.028552016243338585,0.014565627090632915
1761378738295396400,5.379396240234375,0.01769084669649601,0.016457004472613335,0.02588033303618431
1761378738305451300,5.389451171875,0.011869176290929317,0.012900352478027344,0.03146791085600853
1761378738315506200,5.399506103515625,-0.0004492752777878195,0.006621417589485645,0.034203242510557175
1761378738325561300,5.409561279296875,-0.009832656942307949,-0.004999019671231508,0.025801504030823708
1761378738335617300,5.4196171875,-0.004288222175091505,-0.007756723091006279,0.015980297699570656
1761378738345672200,5.429672119140625,0.0027457191608846188,-0.002802444389089942,0.00765845226123929
1761378738355727000,5.43972705078125,0.010749849490821362,0.003376355627551675,-0.001995772821828723
1761378738365782300,5.4497822265625,0.012856143526732922,0.014341921545565128,-0.00911733228713274
1761378738375838200,5.459838134765625,0.013488378375768661,0.026310699060559273,-0.005245628301054239
1761378738385893400,5.469893310546875,0.005952697712928057,0.0278521366417408,0.004847219679504633
1761378738395948300,5.4799482421875,-0.004235491156578064,0.018634937703609467,0.011504056863486767
1761378738406003200,5.490003173828125,-0.009223858825862408,0.00013901700731366873,0.019478892907500267
1761378738416059100,5.50005908203125,-0.0076304893009364605,-0.002856240142136812,0.01737898960709572
1761378738426114300,5.5101142578125,-0.007585748098790646,-0.010426009073853493,0.010400443337857723
1761378738436169200,5.520169189453125,-0.004328169394284487,-0.019232550635933876,0.0009435579413548112
1761378738446224100,5.53022412109375,0.004050135146826506,-0.010895790532231331,-0.012584767304360867
1761378738456280300,5.5402802734375,0.002638926263898611,0.007154848426580429,-0.02443823032081127
1761378738466335200,5.550335205078125,-0.0010823087068274617,0.03203170374035835,-0.02311810292303562
1761378738476390100,5.56039013671875,-0.016046877950429916,0.035588353872299194,-0.0030370689928531647
1761378738486445300,5.5704453125,-0.019816048443317413,0.040409475564956665,0.04050934314727783
1761378738496501200,5.580501220703125,-0.02105095610022545,0.03338751941919327,0.08351273834705353
1761378738506556200,5.59055615234375,-0.021403292194008827,-0.00013448962999973446,0.09385032951831818
1761378738516611300,5.600611328125,-0.011433216743171215,-0.010055030696094036,0.08770614862442017
1761378738526666200,5.610666259765625,-0.003358246060088277,-0.021377727389335632,0.05497776344418526
1761378738536722200,5.62072216796875,0.0036131106317043304,-0.011417770758271217,0.005892776418477297
1761378738546777300,5.63077734375,0.007107444107532501,0.008796953596174717,-0.042930956929922104
1761378738556832300,5.640832275390625,0.001264735241420567,0.024090688675642014,-0.08009510487318039
1761378738566887200,5.65088720703125,0.0052056810818612576,0.03247351944446564,-0.09495127946138382
1761378738576943000,5.660943115234375,0.0001382180635118857,0.03220827132463455,-0.07806657254695892
1761378738586998300,5.670998291015625,-0.015497200191020966,0.016411464661359787,-0.03828666731715202
1761378738597053200,5.68105322265625,-0.030063627287745476,0.01318238116800785,0.00911280419677496
1761378738607108400,5.6911083984375,-0.0416257418692112,-0.010975419543683529,0.051115915179252625
