time,seconds_elapsed,z,y,x
1761378733050316500,0.134316650390625,-0.007728218100965023,0.0008859443478286266,0.004219353199005127
1761378733060371500,0.144371337890625,-0.006083803717046976,0.0006545851938426495,0.008711209520697594
1761378733070426400,0.15442626953125,-0.0003859703429043293,0.0031126830726861954,0.011922981590032578
1761378733080482600,0.164482666015625,0.005505669862031937,-0.004791841842234135,0.008500554598867893
1761378733090537500,0.174537353515625,0.012934824451804161,-0.008714677765965462,0.0003169267438352108
1761378733100592400,0.18459228515625,0.015030298382043839,-0.013876976445317268,-0.01765875704586506
1761378733110647600,0.1946474609375,0.015785571187734604,-0.007460355758666992,-0.030136466026306152
1761378733120703500,0.204703369140625,0.018727367743849754,-0.004769444465637207,-0.03314554691314697
1761378733130758400,0.21475830078125,0.00740067707374692,0.0017872583121061325,-0.022936584427952766
1761378733140813600,0.2248134765625,-0.004914250690490007,0.00031868740916252136,-0.0044210078194737434
1761378733150868500,0.234868408203125,-0.005302805919200182,-0.00647450378164649,0.018168723210692406
1761378733160924400,0.24492431640625,-0.002993146888911724,-0.014497516676783562,0.024350598454475403
1761378733170979600,0.2549794921875,-0.0012655537575483322,-0.0216427780687809,0.02528776414692402
1761378733181034500,0.265034423828125,0.005995822139084339,-0.020352153107523918,0.015585364773869514
1761378733191090700,0.275090576171875,0.01109124906361103,-0.017678605392575264,-0.0029949783347547054
1761378733201145300,0.285145263671875,0.011902326717972755,-0.016146928071975708,-0.021014677360653877
1761378733211200500,0.295200439453125,0.01029883697628975,-0.01080009900033474,-0.03591053560376167
1761378733221255400,0.30525537109375,0.0012128124944865704,-0.0005566896870732307,-0.03970203176140785
1761378733231311600,0.3153115234375,-0.014783465303480625,0.006235436070710421,-0.02964593470096588
1761378733241366300,0.3253662109375,-0.02613304741680622,0.01645488291978836,-0.009487087838351727
1761378733251421400,0.33542138671875,-0.030121130868792534,0.017869021743535995,0.010688487440347672
1761378733261476600,0.3454765625,-0.01673130877315998,0.013814425095915794,0.031164104118943214
1761378733271532500,0.355532470703125,-0.006858970504254103,0.006267026998102665,0.04595130309462547
1761378733281587700,0.365587646484375,0.0023314282298088074,-0.004537919536232948,0.05005085468292236
1761378733291642400,0.375642333984375,0.012624279595911503,-0.00639866990968585,0.04357830807566643
1761378733301698600,0.385698486328125,0.011889741756021976,-0.002697219140827656,0.027845514938235283
1761378733311753500,0.39575341796875,0.009928856045007706,0.0004663500003516674,0.014540627598762512
1761378733321808600,0.40580859375,0.0026873969472944736,0.007975977845489979,0.004819846246391535
1761378733331863300,0.41586328125,-0.0023523694835603237,0.008128576911985874,0.0016706581227481365
1761378733341919500,0.42591943359375,-0.005242007318884134,0.004623784217983484,0.004903034307062626
1761378733351974400,0.435974365234375,-0.006769063416868448,-0.005132440477609634,0.007978719659149647
1761378733362029600,0.446029541015625,-0.004978116136044264,-0.010497355833649635,0.010750416666269302
1761378733372085500,0.45608544921875,0.000601205974817276,-0.021155059337615967,0.008897121995687485
1761378733382140400,0.466140380859375,0.007162248715758324,-0.013605967164039612,0.003920254297554493
1761378733392195600,0.476195556640625,0.009396906942129135,0.0020986939780414104,0.005306430160999298
1761378733402250500,0.48625048828125,0.009794079698622227,0.008241038769483566,0.009025948122143745
1761378733412306400,0.496306396484375,0.012178674340248108,0.013941802084445953,0.015934187918901443
1761378733422361300,0.506361328125,0.014675299637019634,0.008301563560962677,0.01891523227095604
1761378733432416500,0.51641650390625,0.010065900161862373,-0.0027960955630987883,0.014497846364974976
1761378733442471400,0.526471435546875,0.0007791789248585701,-0.009943421930074692,0.008932008408010006
1761378733452527600,0.536527587890625,-0.0020222007296979427,-0.012080075219273567,0.0036035552620887756
1761378733462582500,0.54658251953125,0.0009839599952101707,-0.016131052747368813,-0.004352927207946777
1761378733472637400,0.556637451171875,-0.0009502940811216831,-0.012814085930585861,-0.0005632489919662476
1761378733482693400,0.566693359375,-0.005432134494185448,-0.012232284992933273,0.012103227898478508
1761378733492748500,0.57674853515625,-0.0028659123927354813,-0.009642094373703003,0.027439840137958527
1761378733502803500,0.586803466796875,0.0032899403013288975,-0.0029983259737491608,0.04523627087473869
1761378733512858400,0.5968583984375,0.009572870098054409,0.0011602002196013927,0.04806215316057205
1761378733522914300,0.606914306640625,0.01295529305934906,0.006406141445040703,0.043920692056417465
1761378733532969500,0.616969482421875,0.014482616446912289,-0.000016604550182819366,0.03216017037630081
1761378733543024600,0.627024658203125,0.014793429523706436,-0.005066880024969578,0.01567261666059494
1761378733553079600,0.63707958984375,0.010727048851549625,-0.013724284246563911,0.0003945925273001194
1761378733563135500,0.647135498046875,-0.006739386357367039,-0.01851571723818779,-0.017040926963090897
1761378733573190400,0.6571904296875,-0.018973149359226227,-0.01599343679845333,-0.031159941107034683
1761378733583245600,0.66724560546875,-0.020886408165097237,0.0018061557784676552,-0.03750620782375336
1761378733593301500,0.677301513671875,-0.010475844144821167,0.021437646821141243,-0.0345759317278862
1761378733603356700,0.687356689453125,0.002168919425457716,0.02628353238105774,-0.021358132362365723
1761378733613411300,0.697411376953125,0.016570495441555977,0.021141499280929565,-0.0025804508477449417
1761378733623466500,0.707466552734375,0.022677026689052582,0.005048943683505058,0.016421932727098465
1761378733633522400,0.7175224609375,0.019009852781891823,0.00009706197306513786,0.02488146349787712
1761378733643578000,0.727578125,0.004780720919370651,-0.0035090737510472536,0.026998436078429222
1761378733653633000,0.737633056640625,-0.006727863568812609,0.0051949359476566315,0.024357644841074944
1761378733663688200,0.747688232421875,-0.011994056403636932,0.01721728965640068,0.017304550856351852
1761378733673744100,0.757744140625,-0.013027096167206764,0.022841352969408035,0.007429017685353756
1761378733683799000,0.767799072265625,-0.01119542308151722,0.017487213015556335,0.0018867864273488522
1761378733693854200,0.777854248046875,0.0005802749656140804,0.013721504248678684,-0.003037664806470275
1761378733703909000,0.7879091796875,0.010178769007325172,0.004121345467865467,-0.002311952877789736
1761378733713965000,0.797965087890625,0.010962802916765213,-0.00416374858468771,-0.001723127905279398
1761378733724020000,0.80802001953125,0.011156544089317322,-0.010427819564938545,0.0008867452852427959
1761378733734075100,0.8180751953125,0.010097937658429146,-0.010731153190135956,0.004319293424487114
1761378733744131000,0.828131103515625,0.011489123106002808,-0.006544251926243305,0.001984839793294668
1761378733754186200,0.838186279296875,0.017270579934120178,0.005009339656680822,-0.0006295852363109589
1761378733764241200,0.8482412109375,0.013490820303559303,0.02044518291950226,-0.009124054573476315
1761378733774296000,0.858296142578125,0.009131758473813534,0.024522747844457626,-0.02164144441485405
1761378733784352000,0.86835205078125,0.004728646948933601,0.02407233789563179,-0.027213478460907936
1761378733794407200,0.8784072265625,0.006659438367933035,0.015274050645530224,-0.02933521941304207
1761378733804462000,0.888462158203125,0.01450013555586338,0.004891914315521717,-0.017147164791822433
1761378733814517000,0.89851708984375,0.01612413115799427,-0.007926412858068943,0.0025280024856328964
1761378733824573000,0.908572998046875,0.02167682908475399,-0.009481065906584263,0.02066843956708908
1761378733834628000,0.918628173828125,0.021517839282751083,-0.0032612530048936605,0.033404476940631866
1761378733844683300,0.928683349609375,0.0041892449371516705,0.006578389555215836,0.03805585205554962
1761378733854739200,0.9387392578125,-0.014169523492455482,0.010016796179115772,0.03570721298456192
1761378733864794000,0.948794189453125,-0.020018665120005608,0.008335358463227749,0.028621511533856392
1761378733874849000,0.95884912109375,-0.025395052507519722,0.011214767582714558,0.021727384999394417
1761378733884904200,0.968904296875,-0.022938108071684837,0.005917809903621674,0.013586003333330154
1761378733894960000,0.978960205078125,-0.013229021802544594,-0.0004569985903799534,0.011954018846154213
1761378733905015300,0.989015380859375,0.004679843783378601,-0.004779714159667492,0.009332330897450447
1761378733915070000,0.999070068359375,0.01916957087814808,-0.0029671669472008944,0.007824983447790146
1761378733925125000,1.009125,0.025570256635546684,0.007331295870244503,0.010081622749567032
1761378733935181000,1.01918115234375,0.024118300527334213,0.002364767249673605,0.01572565920650959
1761378733945236200,1.029236328125,0.02688569948077202,0.007577978074550629,0.024950485676527023
1761378733955291100,1.039291015625,0.022057654336094856,-0.0072797974571585655,0.03951078653335571
1761378733965347000,1.04934716796875,0.01223045401275158,-0.013864513486623764,0.037113383412361145
1761378733975402200,1.05940234375,-0.0017050686292350292,-0.011265801265835762,0.02401995286345482
1761378733985457200,1.06945703125,-0.008213596418499947,-0.016698358580470085,0.00048201577737927437
1761378733995512000,1.079511962890625,-0.010882616974413395,-0.007565048523247242,-0.021212361752986908
1761378734005568000,1.089568115234375,-0.012582464143633842,-0.001724717440083623,-0.04299820959568024
1761378734015623200,1.099623046875,0.00357227073982358,0.0015698792412877083,-0.046832360327243805
1761378734025678000,1.109677978515625,0.01406707800924778,0.004438933916389942,-0.035689011216163635
1761378734035733200,1.119733154296875,0.0201441440731287,0.003287915140390396,-0.0203848909586668
1761378734045789000,1.129788818359375,0.01903397962450981,-0.0020657640416175127,-0.001666161697357893
1761378734055844000,1.139843994140625,0.014941235072910786,-0.00473505025729537,0.01269413623958826
1761378734065899000,1.14989892578125,0.007141204085201025,-0.0013920110650360584,0.023946112021803856
1761378734075954200,1.1599541015625,-0.003977492917329073,0.0012242784723639488,0.025191672146320343
1761378734086010000,1.170010009765625,-0.015479554422199726,0.004494057036936283,0.017324134707450867
1761378734096065000,1.18006494140625,-0.01728757470846176,0.008914105594158173,0.011026824824512005
1761378734106120200,1.1901201171875,-0.007173533085733652,0.015710584819316864,0.0024855821393430233
1761378734116176100,1.200176025390625,0.005848259199410677,0.02134210616350174,-0.002738474402576685
1761378734126231300,1.210231201171875,0.016571883112192154,0.012904562056064606,-0.0006491499952971935
1761378734136286000,1.220285888671875,0.019485116004943848,0.00920410081744194,0.00028029317036271095
1761378734146341000,1.230341064453125,0.01795516163110733,0.005444593261927366,0.001957989763468504
1761378734156397000,1.24039697265625,0.007769370451569557,0.0013840715400874615,0.003738312516361475
1761378734166452200,1.2504521484375,-0.005965780932456255,-0.004403003957122564,0.003065185621380806
1761378734176507100,1.260507080078125,-0.01043989323079586,0.0014484934508800507,-0.00046936189755797386
1761378734186562000,1.27056201171875,-0.011508038267493248,0.002299392595887184,0.009483546018600464
1761378734196618000,1.280617919921875,-0.011009493842720985,0.00392711628228426,0.013450324535369873
1761378734206673200,1.290673095703125,-0.00703432084992528,0.015746641904115677,0.012886608019471169
1761378734216728300,1.300728271484375,-0.008500924333930016,0.021862324327230453,0.011492444202303886
1761378734226783000,1.310782958984375,-0.0008364534005522728,0.032948192209005356,0.009835788980126381
1761378734236839200,1.320839111328125,0.004796931054443121,0.03753415495157242,0.0074487971141934395
1761378734246894000,1.33089404296875,0.003954811953008175,0.03472081571817398,0.008245226927101612
1761378734256949200,1.34094921875,0.0030083241872489452,0.03483586013317108,0.00889370683580637
1761378734267005200,1.351005126953125,0.005795803386718035,0.024938905611634254,0.012091970071196556
1761378734277060000,1.36106005859375,0.008698382414877415,0.021638981997966766,0.008229853585362434
1761378734287115000,1.371114990234375,0.015041336417198181,0.02659030631184578,0.0007390342652797699
1761378734297170200,1.381170166015625,0.012543557211756706,0.019389383494853973,-0.01111096702516079
1761378734307226000,1.39122607421875,0.001518139149993658,0.0070764124393463135,-0.021603746339678764
1761378734317281000,1.401281005859375,-0.010205629281699657,0.006532061845064163,-0.03469877317547798
1761378734327336200,1.411336181640625,-0.02168239653110504,0.00020983396098017693,-0.039723437279462814
1761378734337391000,1.42139111328125,-0.03147564083337784,0.0041102999821305275,-0.04040467366576195
1761378734347447000,1.431447021484375,-0.026603177189826965,0.010422836989164352,-0.033041276037693024
1761378734357502200,1.441502197265625,-0.015844006091356277,0.012514484114944935,-0.01953025907278061
1761378734367557000,1.45155712890625,-0.007973435334861279,0.01416292879730463,-0.009528783150017262
1761378734377612000,1.461612060546875,0.001714878249913454,0.015916354954242706,-0.0044472054578363895
1761378734387668200,1.471668212890625,0.008617501705884933,0.014441885985434055,0.0028143636882305145
1761378734397723100,1.48172314453125,0.015373941510915756,0.014490355737507343,0.00519363209605217
1761378734407778000,1.491778076171875,0.012030128389596939,0.011616392061114311,0.009220791980624199
1761378734417833200,1.501833251953125,0.007420462556183338,0.009643522091209888,0.0075762891210615635
1761378734427889200,1.51188916015625,0.00411622691899538,-0.00019990745931863785,0.006086589768528938
1761378734437944000,1.521944091796875,0.00022508250549435616,-0.013090671971440315,0.0070804813876748085
1761378734447999000,1.5319990234375,0.00047059403732419014,-0.017991764470934868,-0.0010423301719129086
1761378734458055000,1.542054931640625,0.005872549954801798,-0.022187307476997375,-0.009301325306296349
1761378734468110000,1.552110107421875,0.013433778658509254,-0.02798105776309967,-0.01635046862065792
1761378734478165200,1.562165283203125,0.017872467637062073,-0.023012664169073105,-0.02597619965672493
1761378734488220200,1.57222021484375,0.018257074058055878,-0.013134980574250221,-0.02851244807243347
1761378734498276400,1.5822763671875,0.014933982864022255,-0.010560503229498863,-0.02676062285900116
1761378734508331000,1.5923310546875,0.006249038502573967,-0.013521313667297363,-0.014450379647314548
1761378734518386200,1.60238623046875,-0.0032131727784872055,-0.014680320397019386,-0.0026355315931141376
1761378734528441000,1.612441162109375,-0.004584324546158314,-0.013528062961995602,0.0069091906771063805
1761378734538497300,1.622497314453125,-0.004934796132147312,-0.010286197066307068,0.009395518340170383
1761378734548552000,1.632552001953125,-0.006037798244506121,-0.006646092981100082,0.015824437141418457
1761378734558607000,1.642607177734375,-0.008582448586821556,-0.005730231758207083,0.015198861248791218
1761378734568662300,1.652662353515625,-0.010054190643131733,0.000926243606954813,0.007738499902188778
1761378734578718200,1.66271826171875,-0.014047334901988506,-0.004061324521899223,0.007839965634047985
1761378734588773000,1.672773193359375,-0.011416873894631863,-0.01902540773153305,-0.0003841654397547245
1761378734598828000,1.682828125,-0.002527243457734585,-0.01890236884355545,-0.007138208486139774
1761378734608883200,1.69288330078125,-0.002530144527554512,-0.023213783279061317,-0.0038815734442323446
1761378734618939100,1.702939208984375,-0.00031652534380555153,-0.03290023282170296,-0.003973186016082764
1761378734628994300,1.712994384765625,0.0016823364421725273,-0.03286807984113693,0.0050603533163666725
1761378734639049000,1.723049072265625,0.004058941267430782,-0.03316129744052887,0.009891327470541
1761378734649107700,1.733107666015625,0.002947949804365635,-0.024536551907658577,0.00922878086566925
1761378734659163600,1.74316357421875,-0.0012350771576166153,-0.019538864493370056,0.007190930191427469
1761378734669218600,1.753218505859375,-0.0023039113730192184,-0.011464499868452549,-0.0073620835319161415
1761378734679273700,1.763273681640625,-0.009338118135929108,-0.010400034487247467,-0.023955440148711205
1761378734689329700,1.77332958984375,-0.0015758094377815723,-0.008387683890759945,-0.03899574279785156
1761378734699384600,1.783384521484375,0.004838414024561644,-0.011677753180265427,-0.04409835860133171
1761378734709439700,1.793439697265625,0.014883621595799923,-0.023740198463201523,-0.03662402555346489
1761378734719494700,1.80349462890625,0.0216326043009758,-0.031206637620925903,-0.02688404731452465
1761378734729550600,1.813550537109375,0.02578144520521164,-0.030011814087629318,-0.017226431518793106
1761378734739605800,1.823605712890625,0.02055392600595951,-0.026628535240888596,-0.007144236005842686
1761378734749660700,1.83366064453125,0.012816457077860832,-0.02412613108754158,0.0045516169629991055
1761378734759715600,1.843715576171875,0.004521775990724564,-0.02406647801399231,0.010872628539800644
1761378734769771500,1.853771484375,-0.0009183818474411964,-0.0195770300924778,0.015885978937149048
1761378734779826700,1.86382666015625,-0.008897211402654648,-0.020757608115673065,0.024404898285865784
1761378734789881600,1.873881591796875,-0.00845416635274887,-0.01837724819779396,0.032410237938165665
1761378734799936800,1.883936767578125,-0.0024926806800067425,-0.020204443484544754,0.033192142844200134
1761378734809992400,1.893992431640625,0.008355628699064255,-0.023499034345149994,0.02546258643269539
1761378734820047600,1.904047607421875,0.020937999710440636,-0.018443556502461433,0.006467058323323727
1761378734830102800,1.914102783203125,0.022058827802538872,-0.00041436124593019485,-0.020290058106184006
1761378734840157700,1.92415771484375,0.016438491642475128,0.013219691812992096,-0.04437728598713875
1761378734850214000,1.9342138671875,0.0015110387466847897,0.01491013914346695,-0.054895367473363876
1761378734860268500,1.9442685546875,-0.01104922778904438,0.00892441812902689,-0.04188049957156181
1761378734870323700,1.95432373046875,-0.021530017256736755,0.009135170839726925,-0.024197861552238464
1761378734880378600,1.964378662109375,-0.021838679909706116,0.003858650103211403,0.0021807486191391945
1761378734890434800,1.974434814453125,-0.014399455860257149,-0.0038057812489569187,0.021584879606962204
1761378734900489500,1.984489501953125,-0.005575604736804962,-0.009843166917562485,0.03173631802201271
1761378734910544600,1.994544677734375,0.005841339007019997,-0.0004973127506673336,0.027719881385564804
1761378734920599800,2.004599853515625,0.014914995059370995,0.009677293710410595,0.007735255174338818
1761378734930655700,2.01465576171875,0.021491382271051407,-0.0012774951756000519,-0.014025771990418434
1761378734940710700,2.024710693359375,0.021242110058665276,-0.0053579905070364475,-0.026888307183980942
1761378734950765600,2.034765625,0.017641885206103325,-0.0040147192776203156,-0.03518739715218544
1761378734960820700,2.04482080078125,0.011347237974405289,-0.002772887237370014,-0.02741948887705803
1761378734970876700,2.054876708984375,0.006980556063354015,-0.0003510359674692154,-0.008060051128268242
1761378734980931800,2.064931884765625,0.0030550570227205753,-0.01012963056564331,0.022127678617835045
1761378734990986500,2.074986572265625,0.004727121442556381,-0.010461511090397835,0.04442896321415901
1761378735001041700,2.085041748046875,0.008421191945672035,-0.012508949264883995,0.04669851064682007
1761378735011097600,2.09509765625,0.016336269676685333,-0.009876387193799019,0.03334317356348038
1761378735021152800,2.10515283203125,0.024176348000764847,-0.0017902313265949488,0.0024201413616538048
1761378735031207700,2.115207763671875,0.02195119485259056,-0.008752197027206421,-0.026497889310121536
1761378735041262600,2.1252626953125,0.0205564983189106,-0.014010341838002205,-0.04264383763074875
1761378735051318500,2.135318603515625,0.016387831419706345,-0.017385676503181458,-0.04707695543766022
1761378735061373700,2.145373779296875,0.008577045053243637,-0.017482880502939224,-0.03728345036506653
1761378735071428900,2.155428955078125,-0.006836209446191788,-0.019330894574522972,-0.018562782555818558
1761378735081484500,2.165484619140625,-0.01091191079467535,-0.015205124393105507,-0.0048640137538313866
1761378735091539700,2.175539794921875,-0.010723311454057693,-0.006989254616200924,-0.004399947822093964
1761378735101594600,2.1855947265625,-0.005147184710949659,-0.0006000646390020847,-0.006536335218697786
1761378735111649800,2.19564990234375,0.0014814995229244232,0.002262030728161335,-0.014450452290475368
1761378735121705700,2.205705810546875,0.005454935599118471,-0.01103140413761139,-0.018327748402953148
1761378735131760600,2.2157607421875,0.00953743327409029,-0.026756953448057175,-0.020451810210943222
1761378735141815600,2.225815673828125,0.012494074180722237,-0.035299044102430344,-0.019507188349962234
1761378735151870700,2.23587060546875,0.007262983359396458,-0.039094485342502594,-0.014448199421167374
1761378735161926700,2.2459267578125,0.003246669890359044,-0.0405815951526165,-0.007838500663638115
1761378735171981600,2.255981689453125,0.0043400046415627,-0.03195074945688248,0.0028507979586720467
1761378735182036700,2.26603662109375,0.0010459409095346928,-0.016113197430968285,0.004247359931468964
1761378735192091600,2.276091552734375,-0.007638363633304834,0.0065855225548148155,0.0034397905692458153
1761378735202147800,2.28614794921875,-0.012436581775546074,0.014452765695750713,-0.00039223162457346916
1761378735212202500,2.296202392578125,-0.014254000969231129,0.019028346985578537,0.003000370692461729
1761378735222257700,2.306257568359375,-0.01360392291098833,0.016431231051683426,0.009377043694257736
1761378735232312600,2.3163125,-0.014046832919120789,0.015644390136003494,0.022430455312132835
1761378735242368800,2.32636865234375,-0.01412193477153778,0.007133195176720619,0.03703602775931358
1761378735252423700,2.336423583984375,-0.00536005524918437,-0.0008973046205937862,0.04393894225358963
1761378735262478600,2.346478515625,-0.0036487081088125706,0.0013205758295953274,0.03741845861077309
1761378735272533800,2.35653369140625,-0.002416804898530245,0.0024312189780175686,0.02264808490872383
1761378735282589700,2.366589599609375,0.0014783339574933052,0.00606403686106205,0.0012945933267474174
1761378735292644900,2.376644775390625,-0.005307559389621019,0.021087534725666046,-0.02056126669049263
1761378735302699500,2.386699462890625,-0.017260359600186348,0.02049950882792473,-0.02512991800904274
1761378735312754700,2.396754638671875,-0.020951611921191216,0.019360465928912163,-0.013826667331159115
1761378735322810600,2.406810546875,-0.015658313408493996,0.0030518011189997196,0.0018609496764838696
1761378735332865800,2.41686572265625,-0.009670408442616463,-0.003263132879510522,0.021887898445129395
1761378735342920400,2.42692041015625,0.0024094246327877045,-0.008260554634034634,0.027670949697494507
1761378735352975600,2.4369755859375,0.005197306629270315,-0.0013048802502453327,0.021528251469135284
1761378735363031600,2.447031494140625,0.0036694512236863375,0.009708622470498085,0.008174095302820206
1761378735373086700,2.457086669921875,-0.0015410808846354485,0.009309094399213791,-0.001688414253294468
1761378735383141600,2.4671416015625,-0.003284386359155178,0.009800182655453682,-0.002819192362949252
1761378735393196500,2.477196533203125,-0.005823604762554169,0.010555959306657314,0.00436134310439229
1761378735403252500,2.48725244140625,-0.008227374404668808,0.008651533164083958,0.02468578889966011
1761378735413307600,2.4973076171875,-0.004790112841874361,0.01293156947940588,0.04104282706975937
1761378735423362800,2.50736279296875,-0.008347030729055405,0.015345192514359951,0.055399663746356964
1761378735433417500,2.51741748046875,-0.008808007463812828,0.01450413465499878,0.05437139421701431
1761378735443473700,2.5274736328125,-0.004776781890541315,0.01919236220419407,0.039278995245695114
1761378735453528600,2.537528564453125,-0.0012203510850667953,0.01943339966237545,0.01830834522843361
1761378735463583700,2.547583740234375,0.0007040491327643394,0.01918945275247097,-0.007166123017668724
1761378735473638700,2.557638671875,-0.0026504481211304665,0.0136894341558218,-0.017875518649816513
1761378735483694600,2.567694580078125,-0.008945095352828503,0.004477294161915779,-0.01557561382651329
1761378735493749500,2.57774951171875,-0.01647483929991722,0.00293488847091794,-0.0033426012378185987
1761378735503804700,2.5878046875,-0.017026912420988083,0.0035048043355345726,0.014181263744831085
1761378735513859800,2.59785986328125,-0.015094866044819355,0.00864843837916851,0.03141404688358307
1761378735523915800,2.607915771484375,-0.009322463534772396,0.01851438544690609,0.03882722184062004
1761378735533970700,2.617970703125,-0.005573422648012638,0.01737712137401104,0.04285387694835663
1761378735544025600,2.628025634765625,-0.0005344557575881481,0.02707129530608654,0.03960055857896805
1761378735554080800,2.638080810546875,0.005076979752629995,0.02091485634446144,0.031927190721035004
1761378735564136700,2.64813671875,0.005895635113120079,0.01839177869260311,0.02022659219801426
1761378735574191600,2.658191650390625,0.006435065064579248,0.013230557553470135,0.00290551595389843
1761378735584246500,2.66824658203125,-0.001399155706167221,0.015342709608376026,-0.016548076644539833
1761378735594301700,2.6783017578125,-0.012369520962238312,0.01017118338495493,-0.02296772599220276
1761378735604357600,2.688357666015625,-0.01730142906308174,0.0024035414680838585,-0.016758032143115997
1761378735614412500,2.69841259765625,-0.013183539733290672,0.007780370302498341,-0.006133665330708027
1761378735624467700,2.7084677734375,-0.006282223854213953,0.008631250821053982,0.009151015430688858
1761378735634522600,2.718522705078125,0.0011932137422263622,0.015601588413119316,0.02372971549630165
1761378735644578800,2.728578857421875,0.005326972343027592,0.016481496393680573,0.03778268024325371
1761378735654630100,2.738630126953125,0.013855431228876114,0.015765085816383362,0.041324544697999954
1761378735664685300,2.748685302734375,0.015955332666635513,0.008953786455094814,0.03877163678407669
1761378735674740000,2.758739990234375,0.019216688349843025,0.005994501523673534,0.018050525337457657
1761378735684796200,2.768796142578125,0.011981945484876633,0.005996098741889,-0.002502421848475933
1761378735694851000,2.77885107421875,0.006310875527560711,0.004949426278471947,-0.015241676941514015
1761378735704906200,2.78890625,0.0011387504637241364,0.006853054277598858,-0.016726922243833542
1761378735714961200,2.798961181640625,-0.0004763985052704811,0.0028133592568337917,-0.010302552953362465
1761378735725017000,2.80901708984375,-0.005033600144088268,0.0013435608707368374,-0.003154894569888711
1761378735735072300,2.819072265625,-0.008408360183238983,0.009140396490693092,0.009400528855621815
1761378735745127200,2.829127197265625,-0.008059220388531685,0.007055940106511116,0.018166854977607727
1761378735755182300,2.839182373046875,0.003768008667975664,0.008322123438119888,0.022916262969374657
1761378735765238000,2.849238037109375,0.015262212604284286,-0.0005062557756900787,0.021770572289824486
1761378735775293200,2.859293212890625,0.023744992911815643,-0.012554998509585857,0.010361687280237675
1761378735785348000,2.86934814453125,0.03257017582654953,-0.012526236474514008,0.004236949607729912
1761378735795403300,2.8794033203125,0.028785984963178635,-0.011297360993921757,-0.001987610012292862
1761378735805459200,2.889459228515625,0.01895172894001007,-0.0033776527270674706,-0.0066119227558374405
1761378735815514000,2.89951416015625,0.010150833055377007,0.00457759527489543,-0.004960570018738508
1761378735825569300,2.9095693359375,-0.006156766787171364,0.009055700153112411,-0.0012244214303791523
1761378735835624200,2.919624267578125,-0.013917746022343636,0.009786507114768028,0.0007352810353040695
1761378735845680000,2.92968017578125,-0.006270478945225477,0.005112126469612122,-0.00015847571194171906
1761378735855735000,2.939735107421875,0.0018385499715805054,0.0008965316228568554,-0.006314010359346867
1761378735865790200,2.949790283203125,0.0066088042221963406,-0.004761354066431522,0.00034043053165078163
1761378735875845000,2.95984521484375,0.010246814228594303,-0.004451944958418608,-0.00006785709410905838
1761378735885901300,2.9699013671875,0.010445219464600086,-0.0018289973959326744,0.005525846499949694
1761378735895956000,2.9799560546875,0.009970778599381447,0.002608145121484995,0.012483114376664162
1761378735906011100,2.99001123046875,0.008391258306801319,0.0008520567789673805,0.02270725555717945
1761378735916066000,3.000066162109375,0.013592036440968513,-0.0044880216009914875,0.02348814159631729
1761378735926122200,3.010122314453125,0.013503087684512138,0.001273727510124445,0.023677226155996323
1761378735936177200,3.02017724609375,0.00707773445174098,-0.005412350408732891,0.026323366910219193
1761378735946232000,3.030232177734375,0.00465345848351717,-0.004263995215296745,0.02504238486289978
1761378735956287200,3.040287353515625,0.005323030054569244,-0.0022846143692731857,0.028609884902834892
1761378735966343200,3.05034326171875,0.00803519319742918,0.004781018476933241,0.023816196247935295
1761378735976398300,3.0603984375,0.007868877612054348,0.009501155465841293,0.017922062426805496
1761378735986453000,3.070452880859375,0.004768958315253258,0.01209294330328703,0.012455390766263008
1761378735996508200,3.080508056640625,0.0008567748591303825,0.012752674520015717,0.010854732245206833
1761378736006564000,3.090564208984375,-0.0001922445371747017,0.003681947011500597,0.009699186310172081
1761378736016619300,3.100619384765625,0.002552356570959091,0.000006599351763725281,0.0074471235275268555
1761378736026674200,3.110674072265625,0.013242551125586033,-0.011720630340278149,-0.005651634186506271
1761378736036729000,3.12072900390625,0.014553358778357506,-0.016545046120882034,-0.010384387336671352
1761378736046785000,3.130784912109375,0.016537146642804146,-0.009390730410814285,-0.019340332597494125
1761378736056840200,3.140840087890625,0.013857796788215637,-0.0057448092848062515,-0.020547516644001007
1761378736066895400,3.150895263671875,0.007599900476634502,-0.00034951139241456985,-0.02237684279680252
1761378736076950000,3.160949951171875,0.005565457046031952,0.002177874557673931,-0.013455495238304138
1761378736087006200,3.171006103515625,0.0052080606110394,-0.002153756795451045,-0.005830598529428244
1761378736097061000,3.18106103515625,0.003219743724912405,-0.0009061661548912525,0.00849396176636219
1761378736107116300,3.1911162109375,0.0006335480138659477,-0.006684693042188883,0.021770887076854706
1761378736117171000,3.2011708984375,0.004114940762519836,-0.010592174716293812,0.02535385824739933
1761378736127227100,3.21122705078125,0.006043868139386177,-0.0072142211720347404,0.02024271711707115
1761378736137282000,3.221281982421875,0.006297319196164608,-0.009538559243083,0.008981708437204361
1761378736147337200,3.231337158203125,0.003510321257635951,-0.008251720108091831,-0.004202269483357668
1761378736157392400,3.241392333984375,-0.0004116618074476719,-0.00008571520447731018,-0.016249369829893112
1761378736167448000,3.251447998046875,-0.010505842044949532,0.0009124372154474258,-0.01779506728053093
1761378736177503200,3.261503173828125,-0.011882456950843334,0.0035985251888632774,-0.01431177370250225
1761378736187558100,3.27155810546875,-0.008314087055623531,0.010476937517523766,0.0036461870186030865
1761378736197613300,3.28161328125,-0.0006601619534194469,0.006693917326629162,0.02492830529808998
1761378736207669200,3.291669189453125,0.005730359349399805,-0.0028505860827863216,0.03744729235768318
1761378736217724200,3.30172412109375,0.014960719272494316,-0.007545298896729946,0.04110589623451233
1761378736227779000,3.311779052734375,0.019416186958551407,-0.008499243296682835,0.02630111761391163
1761378736237834200,3.321834228515625,0.013708977028727531,-0.012983795255422592,0.005762528628110886
1761378736247890200,3.33189013671875,0.004597770515829325,-0.002300257794559002,-0.022047530859708786
1761378736257945000,3.341945068359375,-0.006624417379498482,0.007751384750008583,-0.04185941442847252
1761378736268000000,3.352,-0.014137727208435535,0.01843172498047352,-0.04507464915513992
1761378736278055200,3.36205517578125,-0.012846918776631355,0.01622914895415306,-0.03157276287674904
1761378736288111000,3.372111083984375,-0.008759764954447746,0.011184321716427803,-0.007296184077858925
1761378736298166300,3.382166259765625,-0.008823630400002003,0.002755703404545784,0.026564188301563263
1761378736308221200,3.39222119140625,-0.009454266168177128,-0.012576647102832794,0.056912776082754135
1761378736318276000,3.402276123046875,-0.0016579157672822475,-0.02104029431939125,0.06541046500205994
1761378736328332300,3.412332275390625,0.008495918475091457,-0.021799027919769287,0.04959101602435112
1761378736338387200,3.42238720703125,0.01621336117386818,-0.01393716037273407,0.019845079630613327
1761378736348442000,3.432442138671875,0.01855534315109253,0.001924361102283001,-0.01906423456966877
1761378736358497000,3.4424970703125,0.009879538789391518,0.02415452152490616,-0.0530664324760437
1761378736368553200,3.45255322265625,-0.0077346088364720345,0.025454945862293243,-0.06699716299772263
1761378736378608000,3.462608154296875,-0.019148088991642,0.014939695596694946,-0.05421972647309303
1761378736388663000,3.4726630859375,-0.015639642253518105,-0.0006626993417739868,-0.026211794465780258
1761378736398718200,3.48271826171875,-0.008381171151995659,-0.008193442597985268,-0.0009780041873455048
1761378736408774100,3.492774169921875,-0.000342419371008873,-0.007706617005169392,0.017005521804094315
1761378736418829300,3.502829345703125,0.0007660700939595699,-0.0026413542218506336,0.026179412379860878
1761378736428884200,3.51288427734375,0.003928041085600853,0.0036090845242142677,0.01548389159142971
1761378736438939100,3.522939208984375,0.001555752009153366,0.009355607442557812,0.0016338317655026913
1761378736448995000,3.5329951171875,-0.0007058042101562023,0.015795398503541946,-0.005106628872454166
1761378736459050200,3.54305029296875,-0.0017541865818202496,0.021384280174970627,-0.0071832421235740185
1761378736469105200,3.553105224609375,0.0004205508157610893,0.01569363661110401,-0.004242845810949802
1761378736479160000,3.56316015625,0.007337603718042374,0.009921444579958916,0.0001420220360159874
1761378736489215200,3.57321533203125,0.012807736173272133,0.00898187980055809,0.0013684076257050037
1761378736499271200,3.583271240234375,0.018229268491268158,0.003010791726410389,-0.008693424053490162
1761378736509326300,3.593326416015625,0.018107295036315918,0.005447851028293371,-0.013187242671847343
1761378736519381000,3.603381103515625,0.010846717283129692,-0.000613172072917223,-0.010626977309584618
1761378736529436200,3.613436279296875,0.016112051904201508,0.0059858751483261585,-0.009200056083500385
1761378736539492000,3.6234921875,0.015564801171422005,0.015926199033856392,-0.005155608523637056
1761378736549547300,3.63354736328125,0.012150095775723457,0.01971161738038063,-0.004941490478813648
1761378736559602200,3.643602294921875,0.008833480067551136,0.017818674445152283,-0.001698412001132965
1761378736569657000,3.653656982421875,-0.0034471545368433,0.010587925091385841,-0.0013474072329699993
1761378736579713000,3.663713134765625,-0.011926718056201935,0.002767232246696949,0.0031027086079120636
1761378736589768200,3.673768310546875,-0.010432951152324677,-0.0072912611067295074,0.0059200674295425415
1761378736599823400,3.6838232421875,-0.0011627255007624626,-0.009333662688732147,0.007784135174006224
1761378736609878000,3.6938779296875,0.005652569700032473,-0.008266267366707325,0.004184340592473745
1761378736619934200,3.703934326171875,0.0024484656751155853,0.0005077291280031204,-0.0034957099705934525
1761378736629989000,3.713989013671875,0.0026167775504291058,0.01200219988822937,-0.017456799745559692
1761378736640044300,3.724044189453125,0.00043312041088938713,0.026787156239151955,-0.021969450637698174
1761378736650099200,3.73409912109375,-0.009660527110099792,0.020962024107575417,-0.015067603439092636
1761378736660155400,3.7441552734375,-0.01743735745549202,0.008546480908989906,-0.0011814231984317303
1761378736670210000,3.7542099609375,-0.014293230138719082,-0.0026664924807846546,0.00821767095476389
1761378736680265200,3.76426513671875,-0.011068353429436684,-0.00796453095972538,0.017751814797520638
1761378736690320100,3.774320068359375,-0.006167338229715824,-0.011307330802083015,0.020440276712179184
1761378736700376300,3.784376220703125,0.0011840234510600567,-0.011838276870548725,0.01932099461555481
1761378736710431200,3.79443115234375,0.008478954434394836,-0.0013076053000986576,0.013033270835876465
1761378736720486100,3.804486083984375,0.0039010606706142426,0.011277791112661362,0.00803616363555193
1761378736730541300,3.814541259765625,-0.0037198406644165516,0.025792019441723824,-0.0044516646303236485
1761378736740597200,3.82459716796875,-0.007317638024687767,0.025531180202960968,-0.015681607648730278
1761378736750652400,3.83465234375,-0.009402892552316189,0.03310920298099518,-0.027171017602086067
1761378736760707000,3.84470703125,-0.011353978887200356,0.03570370376110077,-0.024878012016415596
1761378736770762200,3.85476220703125,-0.011780882254242897,0.025635356083512306,-0.020284857600927353
1761378736780818200,3.864818115234375,-0.009675094857811928,0.010057971812784672,-0.013578098267316818
1761378736790873300,3.874873291015625,-0.005820969585329294,-0.0034056392032653093,0.002218974754214287
1761378736800928300,3.88492822265625,-0.0034122979268431664,-0.006079812068492174,0.012878229841589928
1761378736810983200,3.894983154296875,-0.00924541987478733,-0.003716789186000824,0.015280934050679207
1761378736821039000,3.9050390625,-0.015471170656383038,0.00303369527682662,0.016878247261047363
1761378736831094300,3.91509423828125,-0.01582324132323265,0.012983797118067741,0.019338741898536682
1761378736841149400,3.9251494140625,-0.01812857948243618,0.018238941207528114,0.018928447738289833
1761378736851204000,3.9352041015625,-0.02276194654405117,0.01700376719236374,0.007430515717715025
1761378736861260300,3.94526025390625,-0.02108442410826683,0.015528273768723011,-0.0035183217842131853
1761378736871315200,3.955315185546875,-0.019913164898753166,0.014085107482969761,-0.015020781196653843
1761378736881370400,3.965370361328125,-0.024509062990546227,0.009613829664885998,-0.02515069581568241
1761378736891425000,3.975425048828125,-0.02122431993484497,0.007137889042496681,-0.025853237137198448
1761378736901481200,3.985481201171875,-0.010103678330779076,0.01485689077526331,-0.016131319105625153
1761378736911536000,3.9955361328125,-0.000791402067989111,0.024063173681497574,0.000022617168724536896
1761378736921591300,4.00559130859375,0.0028682867996394634,0.027787791565060616,0.016901560127735138
1761378736931646500,4.015646484375,0.0010853004641830921,0.026397887617349625,0.027713196352124214
1761378736941702100,4.0257021484375,-0.003570247907191515,0.02785218134522438,0.028707722201943398
1761378736951757300,4.03575732421875,-0.015005329623818398,0.02364065684378147,0.02053341455757618
1761378736961812200,4.045812255859375,-0.025720451027154922,0.01869354210793972,0.0054246229119598866
1761378736971867400,4.055867431640625,-0.030140768736600876,0.01970554329454899,-0.013143735006451607
1761378736981922000,4.065922119140625,-0.021448902785778046,0.020271703600883484,-0.02268199250102043
1761378736991978200,4.075978271484375,-0.010404773987829685,0.0246930830180645,-0.0219472274184227
1761378737002033200,4.086033203125,0.00014882627874612808,0.02512306161224842,-0.010647363029420376
1761378737012088300,4.09608837890625,0.006032814271748066,0.029726067557930946,0.0057635679841041565
1761378737022144300,4.106144287109375,0.009845050051808357,0.018658507615327835,0.02180591970682144
1761378737032199200,4.11619921875,0.0006294474005699158,0.010091650299727917,0.028315484523773193
1761378737042254300,4.12625439453125,-0.008291661739349365,0.002012833021581173,0.01781657710671425
1761378737052309200,4.136309326171875,-0.006351549178361893,-0.0048772976733744144,0.0059724352322518826
1761378737062364400,4.146364501953125,-0.011784745380282402,-0.008528422564268112,-0.003219030564650893
1761378737072420400,4.15642041015625,-0.008239279501140118,0.0004767905920743942,-0.013746505603194237
1761378737082475300,4.166475341796875,-0.007198595441877842,0.016716016456484795,-0.02333025634288788
1761378737092530200,4.1765302734375,-0.010174944996833801,0.03788894787430763,-0.02803686074912548
1761378737102585300,4.18658544921875,-0.012182727456092834,0.04228168725967407,-0.02497216686606407
1761378737112641300,4.196641357421875,-0.002401470672339201,0.03988058120012283,-0.016429811716079712
1761378737122696200,4.2066962890625,0.0036832678597420454,0.02867015078663826,-0.007044758182018995
1761378737132751000,4.216751220703125,0.0021626027300953865,0.013973496854305267,-0.0006675529293715954
1761378737142806300,4.22680615234375,-0.005256033036857843,-0.009060765616595745,0.006937877740710974
1761378737152862200,4.2368623046875,-0.0043351114727556705,-0.02441095933318138,0.00951981358230114
1761378737162917000,4.246917236328125,0.002774651162326336,-0.018810860812664032,0.007310987915843725
1761378737172972300,4.25697216796875,0.0025741150602698326,-0.008406156674027443,-0.007455973885953426
1761378737183027200,4.267027099609375,-0.005349854938685894,0.003916088957339525,-0.02503293752670288
1761378737193083400,4.27708349609375,-0.01336224190890789,0.017082491889595985,-0.04091176763176918
1761378737203138300,4.28713818359375,-0.019015731289982796,0.017164766788482666,-0.04518921300768852
1761378737213193200,4.297193115234375,-0.01584417186677456,0.0054841423407197,-0.03061346709728241
1761378737223248100,4.307248046875,-0.012240303680300713,-0.012449587695300579,-0.01587739773094654
1761378737233304300,4.31730419921875,-0.008307881653308868,-0.018589239567518234,-0.008956375531852245
1761378737243359200,4.327359130859375,-0.0021220510825514793,-0.013665348291397095,-0.00733332522213459
1761378737253414100,4.3374140625,0.006592610850930214,-0.009437313303351402,-0.009149600751698017
1761378737263469300,4.34746923828125,0.01802859827876091,0.005468105431646109,-0.012376166880130768
1761378737273525200,4.357525146484375,0.02409501187503338,0.02365376614034176,-0.02111346647143364
1761378737283580400,4.367580322265625,0.024215945973992348,0.04474874213337898,-0.030713723972439766
1761378737293635000,4.377635009765625,0.014343075454235077,0.031135194003582,-0.030702006071805954
1761378737303690200,4.387690185546875,0.004058320540934801,0.024052327498793602,-0.020903533324599266
1761378737313746200,4.39774609375,-0.000005663372576236725,0.011287529021501541,-0.004458514042198658
1761378737323801300,4.40780126953125,-0.006786443293094635,-0.004222958814352751,0.015253551304340363
1761378737333856300,4.417856201171875,-0.001092604361474514,-0.011357567273080349,0.027372533455491066
1761378737343914200,4.427914306640625,0.007923847064375877,-0.010334297083318233,0.024955492466688156
1761378737353969400,4.437969482421875,0.019209258258342743,0.007188504096120596,0.007182352710515261
1761378737364025300,4.448025390625,0.023541338741779327,0.02589864656329155,-0.009649040177464485
1761378737374080300,4.458080322265625,0.016391552984714508,0.027671245858073235,-0.024754222482442856
1761378737384135200,4.46813525390625,0.003154043573886156,0.019376564770936966,-0.023205595090985298
1761378737394190300,4.4781904296875,-0.006629611365497112,0.012860076501965523,-0.02297443151473999
1761378737404246300,4.488246337890625,-0.014683619141578674,-0.002909461036324501,-0.003987375646829605
1761378737414301200,4.49830126953125,-0.01278718188405037,-0.015630049630999565,0.008398187346756458
1761378737424356000,4.508356201171875,-0.004964787047356367,-0.02593589387834072,0.016025912016630173
1761378737434411300,4.518411376953125,0.00594165688380599,-0.02852581813931465,0.0062928576953709126
1761378737444467200,4.52846728515625,0.01656159572303295,-0.02271943911910057,-0.017875785008072853
1761378737454522000,4.538522216796875,0.010427536442875862,-0.005109286401420832,-0.043829623609781265
1761378737464577300,4.548577392578125,-0.003798083867877722,0.01357109285891056,-0.055333461612463
1761378737474632200,4.558632080078125,-0.02052300237119198,0.020694250240921974,-0.05522001162171364
1761378737484688400,4.5686884765625,-0.030089929699897766,0.02265874482691288,-0.03819727897644043
1761378737494743300,4.578743408203125,-0.025629665702581406,0.02110319212079048,-0.01846059039235115
1761378737504798200,4.588798095703125,-0.020544681698083878,0.012136973440647125,0.009348593652248383
1761378737514853000,4.59885302734375,-0.009157535620033741,-0.0038401284255087376,0.031628597527742386
1761378737524909300,4.608909423828125,-0.003125821240246296,-0.013335689902305603,0.03910898417234421
1761378737534964200,4.618964111328125,0.007252251263707876,-0.005761127918958664,0.035727303475141525
1761378737545019100,4.62901904296875,0.008574164472520351,0.003899126313626766,0.02136056497693062
1761378737555074300,4.63907421875,-0.0041751861572265625,0.02597087249159813,-0.0006145071238279343
1761378737565129200,4.649129150390625,-0.017951957881450653,0.039584930986166,-0.019621366634964943
1761378737575185400,4.659185302734375,-0.0265494417399168,0.034363534301519394,-0.027289139106869698
1761378737585240000,4.669239990234375,-0.03547121584415436,0.03854585811495781,-0.03165774047374725
1761378737595295200,4.679295166015625,-0.044473499059677124,0.04119383916258812,-0.019818125292658806
1761378737605350100,4.68935009765625,-0.04824168607592583,0.03590364381670952,-0.0009757764637470245
1761378737615406300,4.69940625,-0.03466355800628662,0.03346232324838638,0.01963522657752037
1761378737625461200,4.709461181640625,-0.018458999693393707,0.024858754128217697,0.04293711110949516
1761378737635516200,4.71951611328125,0.002414057496935129,0.01566286012530327,0.0556182824075222
1761378737645576200,4.729576171875,0.019536610692739487,0.011302875354886055,0.05860508978366852
1761378737655632400,4.73963232421875,0.02432098053395748,0.0220404751598835,0.04844779521226883
1761378737665687300,4.749687255859375,0.013943733647465706,0.03541111573576927,0.026233691722154617
1761378737675742200,4.7597421875,-0.008419361896812916,0.0449225977063179,0.004708690568804741
1761378737685797000,4.769797119140625,-0.029612772166728973,0.04028121754527092,-0.012758595868945122
1761378737695853300,4.779853271484375,-0.04343404248356819,0.02771109715104103,-0.016553599387407303
1761378737705908200,4.789908203125,-0.043764062225818634,0.017580745741724968,-0.014772454276680946
1761378737715963100,4.799963134765625,-0.031425103545188904,0.007794959936290979,-0.005096391309052706
1761378737726018300,4.810018310546875,-0.014202890917658806,0.0011379877105355263,0.00722278980538249
1761378737736074200,4.82007421875,-0.0017792447470128536,0.00006020674481987953,0.015938516706228256
1761378737746129200,4.830129150390625,0.01243353821337223,0.003368527628481388,0.019829198718070984
1761378737756184300,4.840184326171875,0.013480426743626595,0.0007695485837757587,0.022166389971971512
1761378737766239200,4.8502392578125,0.010640297085046768,-0.006867381744086742,0.015867991372942924
1761378737776295200,4.860295166015625,-0.004598309751600027,0.0022123996168375015,0.010266831144690514
1761378737786350300,4.870350341796875,-0.026466459035873413,-0.0008467584848403931,0.010829698294401169
1761378737796405200,4.8804052734375,-0.03257575258612633,0.0016680643893778324,0.016781331971287727
1761378737806460200,4.890460205078125,-0.03507821261882782,0.000906508881598711,0.03033447451889515
1761378737816516000,4.90051611328125,-0.02605648897588253,-0.005285873077809811,0.033921752125024796
1761378737826571300,4.9105712890625,-0.009976351633667946,-0.00375942699611187,0.04245142266154289
1761378737836626200,4.920626220703125,0.00350164039991796,-0.003328527556732297,0.038130708038806915
1761378737846681300,4.930681396484375,0.005793928634375334,-0.005460148677229881,0.029263034462928772
1761378737856737000,4.940737060546875,-0.0002482510171830654,-0.0045336345210671425,0.008623536676168442
1761378737866792200,4.950792236328125,-0.011620667763054371,-0.005948209669440985,-0.003491666866466403
1761378737876847400,4.960847412109375,-0.025019295513629913,-0.016721230000257492,-0.005148152820765972
1761378737886902300,4.97090234375,-0.028574563562870026,-0.023816900327801704,0.0021337545476853848
1761378737896958500,4.98095849609375,-0.022858886048197746,-0.026652101427316666,0.010588226839900017
1761378737907013000,4.99101318359375,-0.01655273325741291,-0.023526128381490707,0.011698206886649132
1761378737917068300,5.001068359375,-0.00717840576544404,-0.002812861930578947,-0.0006809644401073456
1761378737927123200,5.011123291015625,-0.0016323747113347054,0.018840935081243515,-0.021609997376799583
1761378737937179400,5.021179443359375,0.0047288513742387295,0.026105504482984543,-0.03560277819633484
1761378737947234000,5.031234130859375,0.010891751386225224,0.013360677286982536,-0.04086199030280113
1761378737957289200,5.041289306640625,0.01030026376247406,-0.008512930013239384,-0.038051024079322815
1761378737967344400,5.051344482421875,0.009867420420050621,-0.024370718747377396,-0.02237192913889885
1761378737977400300,5.061400390625,-0.0035011153668165207,-0.03948362544178963,-0.00489306915551424
1761378737987455200,5.071455322265625,-0.014963974244892597,-0.04493024945259094,0.019671032205224037
1761378737997510100,5.08151025390625,-0.011896279640495777,-0.031054118648171425,0.039817847311496735
1761378738007565300,5.0915654296875,-0.007621373049914837,0.0008281804621219635,0.04819934442639351
1761378738017620200,5.1016201171875,-0.0007442915812134743,0.01711527444422245,0.04538039118051529
1761378738027676400,5.111676513671875,0.010971780866384506,0.014212774112820625,0.035717546939849854
1761378738037731000,5.12173095703125,0.025160305202007294,0.006197990383952856,0.02076629549264908
1761378738047786200,5.1317861328125,0.0240719486027956,-0.0066778650507330894,0.007295758463442326
1761378738057841400,5.14184130859375,0.017759190872311592,-0.01754116639494896,0.0023129843175411224
1761378738067897300,5.1518974609375,0.008983677253127098,-0.017987027764320374,0.000330501701682806
1761378738077952300,5.1619521484375,0.001487677451223135,-0.01396538969129324,0.00545309204608202
1761378738088007200,5.172007080078125,0.0020216945558786392,-0.004610550124198198,0.008625692687928677
1761378738098062300,5.182062255859375,0.004399631172418594,0.004656185396015644,0.00933302752673626
1761378738108118300,5.1921181640625,0.007463681511580944,0.0060479845851659775,0.00527984369546175
1761378738118173200,5.202173095703125,0.004008229821920395,0.004575256258249283,0.004789023660123348
1761378738128228000,5.21222802734375,-0.00008142739534378052,0.001676331739872694,0.004148364067077637
1761378738138283300,5.222283203125,-0.0067731523886322975,-0.0056068808771669865,0.007741766981780529
1761378738148339200,5.232339111328125,-0.0005940087139606476,-0.008394149132072926,0.006448268424719572
1761378738158394400,5.242394287109375,0.0098873944953084,-0.011605922132730484,0.00861794501543045
1761378738168449300,5.25244921875,0.02244049869477749,-0.005609304644167423,0.004438768606632948
1761378738178504200,5.262504150390625,0.026850959286093712,0.003637456800788641,-0.004467107821255922
1761378738188560100,5.27256005859375,0.02147102542221546,0.02385837584733963,-0.00853651575744152
1761378738198615300,5.282615234375,0.015277313068509102,0.023871958255767822,-0.003255201503634453
1761378738208670200,5.292670166015625,0.006676421035081148,0.011953266337513924,0.005556543357670307
1761378738218725000,5.30272509765625,-0.003189526032656431,0.0006244448013603687,0.007700920104980469
1761378738228781300,5.31278125,-0.007633355911821127,-0.002294008620083332,0.013593214564025402
1761378738238836200,5.322836181640625,-0.0050370399840176105,0.0009657004848122597,0.011515949852764606
1761378738248891400,5.332891357421875,0.004367221612483263,0.0006323461420834064,0.007857201620936394
1761378738258946300,5.3429462890625,0.021137678995728493,0.0005745552480220795,0.001601437572389841
1761378738269002200,5.353002197265625,0.03415779024362564,0.013670885935425758,-0.001943112351000309
1761378738279057200,5.36305712890625,0.03748221695423126,0.024463346228003502,0.004172304645180702
1761378738289112300,5.3731123046875,0.029831888154149055,0.019007477909326553,0.014785874634981155
1761378738299167200,5.383167236328125,0.02342086099088192,0.010135689750313759,0.021022731438279152
1761378738309223200,5.39322314453125,0.013201274909079075,0.007881933823227882,0.026955092325806618
1761378738319278300,5.4032783203125,-0.0003547472879290581,-0.0057193622924387455,0.025203799828886986
1761378738329333200,5.413333251953125,-0.0037334230728447437,-0.01129489578306675,0.014477284625172615
1761378738339388200,5.42338818359375,0.005623326636850834,-0.010520447976887226,0.0066886041313409805
1761378738349444000,5.433444091796875,0.013944266363978386,-0.003690744284540415,-0.00360170379281044
1761378738359499300,5.443499267578125,0.01692967116832733,0.0020534279756247997,-0.011568816378712654
1761378738369554200,5.45355419921875,0.020622383803129196,0.0162638109177351,-0.015199093148112297
1761378738379609300,5.463609375,0.01811954379081726,0.025334805250167847,-0.007161672692745924
1761378738389665000,5.4736650390625,0.008656161837279797,0.01849929615855217,0.0027227960526943207
1761378738399720200,5.48372021484375,0.00016147689893841743,0.008689542300999165,0.010453419759869576
1761378738409775400,5.493775390625,-0.0040511381812393665,-0.0035837122704833746,0.01606506109237671
1761378738419830300,5.503830322265625,-0.0028404654003679752,-0.012875214219093323,0.010702786967158318
1761378738429885200,5.51388525390625,-0.000598669983446598,-0.01977505162358284,0.0007500946521759033
1761378738439941000,5.523941162109375,0.006914906203746796,-0.01910366863012314,-0.008746471256017685
1761378738449996300,5.533996337890625,0.009260752238333225,-0.010557002387940884,-0.02501649595797062
1761378738460051200,5.54405126953125,0.011513520032167435,0.013980299234390259,-0.032344717532396317
1761378738470106000,5.554106201171875,0.001008201390504837,0.032309625297784805,-0.02351321652531624
1761378738480162000,5.564162109375,-0.01172863319516182,0.031467001885175705,0.005333878565579653
1761378738490217200,5.57421728515625,-0.010897671803832054,0.03900812566280365,0.05361239239573479
1761378738500272400,5.5842724609375,-0.018058113753795624,0.01505645364522934,0.0856131985783577
1761378738510327300,5.594327392578125,-0.01034418772906065,-0.01032327301800251,0.0904831513762474
1761378738520383200,5.60438330078125,-0.00046918727457523346,-0.019604124128818512,0.06894803047180176
1761378738530438100,5.614438232421875,0.009815409779548645,-0.022090882062911987,0.032544802874326706
1761378738540493300,5.624493408203125,0.009577322751283646,-0.008467748761177063,-0.018320776522159576
1761378738550548200,5.63454833984375,0.012462057173252106,0.011843547224998474,-0.0653301477432251
1761378738560604400,5.6446044921875,0.00890274252742529,0.023285552859306335,-0.09475195407867432
1761378738570659000,5.6546591796875,0.010357361286878586,0.033271610736846924,-0.09986042976379395
1761378738580714200,5.66471435546875,-0.0007152631878852844,0.021496707573533058,-0.07348314672708511
1761378738590769400,5.674769287109375,-0.01306079886853695,0.010510832071304321,-0.027767492458224297
1761378738600825300,5.684825439453125,-0.027966512367129326,0.0025386596098542213,0.022443478927016258
1761378738610880300,5.69488037109375,-0.03657025098800659,-0.02891928143799305,0.057573165744543076
