time,seconds_elapsed,z,y,x
1761378929470811600,0.067811767578125,-0.0452117919921875,-1.0319061279296875,0.000640869140625
1761378929480867600,0.07786767578125,-0.046142578125,-1.0226593017578125,-0.0047760009765625
1761378929490923500,0.087923583984375,-0.046722412109375,-1.01593017578125,-0.012359619140625
1761378929500978700,0.097978759765625,-0.0525665283203125,-1.0043182373046875,-0.0209197998046875
1761378929511034600,0.10803466796875,-0.040802001953125,-0.997955322265625,-0.0283966064453125
1761378929521090800,0.1180908203125,-0.0395965576171875,-0.9838104248046875,-0.0347137451171875
1761378929531146800,0.128146728515625,-0.031463623046875,-0.9859771728515625,-0.031158447265625
1761378929541201700,0.13820166015625,-0.031494140625,-1.001861572265625,-0.0141448974609375
1761378929551257600,0.148257568359375,-0.0370635986328125,-1.0131683349609375,0.0020751953125
1761378929561313500,0.1583134765625,-0.0486297607421875,-1.0133514404296875,0.0089569091796875
1761378929571369700,0.16836962890625,-0.0519256591796875,-1.01141357421875,0.011138916015625
1761378929581424600,0.178424560546875,-0.057464599609375,-1.0066986083984375,0.002166748046875
1761378929591480800,0.188480712890625,-0.0661468505859375,-1.0078277587890625,-0.0052642822265625
1761378929601536800,0.198536865234375,-0.0665283203125,-1.006256103515625,-0.013916015625
1761378929611592700,0.2085927734375,-0.0667724609375,-0.994873046875,-0.02606201171875
1761378929621647600,0.218647705078125,-0.06011962890625,-0.988616943359375,-0.0312652587890625
1761378929631703600,0.22870361328125,-0.0498199462890625,-0.980712890625,-0.0268096923828125
1761378929641759700,0.238759765625,-0.0453643798828125,-0.978240966796875,-0.0215911865234375
1761378929651814700,0.248814697265625,-0.045166015625,-0.9816741943359375,-0.0092010498046875
1761378929661870600,0.25887060546875,-0.0407867431640625,-0.97412109375,-0.0056610107421875
1761378929671926800,0.2689267578125,-0.0352325439453125,-0.963043212890625,-0.0080718994140625
1761378929681982700,0.278982666015625,-0.035980224609375,-0.9594879150390625,-0.014678955078125
1761378929692037600,0.28903759765625,-0.0356292724609375,-0.9730987548828125,-0.0240325927734375
1761378929702093600,0.299093505859375,-0.0439605712890625,-0.976348876953125,-0.023712158203125
1761378929712149500,0.3091494140625,-0.05792236328125,-0.97698974609375,-0.018585205078125
1761378929722205700,0.319205810546875,-0.0613861083984375,-0.99102783203125,-0.0045928955078125
1761378929732260600,0.329260498046875,-0.0671844482421875,-1.004547119140625,0.010345458984375
1761378929742316800,0.33931689453125,-0.070098876953125,-1.0171051025390625,0.0213165283203125
1761378929752372700,0.349372802734375,-0.07330322265625,-1.025360107421875,0.0296783447265625
1761378929762427600,0.359427734375,-0.0854644775390625,-1.0374908447265625,0.0322723388671875
1761378929772483600,0.369483642578125,-0.093994140625,-1.0389404296875,0.0301055908203125
1761378929782539500,0.37953955078125,-0.098114013671875,-1.021453857421875,0.01837158203125
1761378929792595700,0.389595703125,-0.1024627685546875,-1.0140228271484375,0.0078582763671875
1761378929802650600,0.399650634765625,-0.1036224365234375,-1.007080078125,0.0123748779296875
1761378929812706800,0.409706787109375,-0.093109130859375,-0.996368408203125,0.020843505859375
1761378929822762800,0.4197626953125,-0.08245849609375,-0.9921722412109375,0.029327392578125
1761378929832818700,0.429818603515625,-0.067962646484375,-0.98956298828125,0.039703369140625
1761378929842870300,0.439870361328125,-0.0524749755859375,-0.98272705078125,0.049072265625
1761378929852926200,0.44992626953125,-0.0478668212890625,-0.982147216796875,0.058441162109375
1761378929862982400,0.459982421875,-0.0421142578125,-0.9830322265625,0.0675506591796875
1761378929873038300,0.470038330078125,-0.0325775146484375,-0.9737548828125,0.063323974609375
1761378929883093200,0.48009326171875,-0.0154876708984375,-0.96356201171875,0.053436279296875
1761378929893149400,0.4901494140625,-0.00421142578125,-0.959503173828125,0.0419464111328125
1761378929903205400,0.500205322265625,0.005096435546875,-0.9569854736328125,0.0301055908203125
1761378929913260300,0.51026025390625,0.0097503662109375,-0.9504852294921875,0.02252197265625
1761378929923316200,0.520316162109375,0.0048980712890625,-0.945037841796875,0.0208282470703125
1761378929933372200,0.5303720703125,0.0071563720703125,-0.9501190185546875,0.0277099609375
1761378929943428400,0.540428466796875,-0.001800537109375,-0.9533843994140625,0.0350799560546875
1761378929953483300,0.550483154296875,-0.0086669921875,-0.9560699462890625,0.0375823974609375
1761378929963539500,0.56053955078125,-0.009307861328125,-0.966766357421875,0.0363616943359375
1761378929973595400,0.570595458984375,-0.0189361572265625,-0.9743804931640625,0.0325469970703125
1761378929983651300,0.5806513671875,-0.0251922607421875,-0.981842041015625,0.0266265869140625
1761378929993706200,0.590706298828125,-0.0280914306640625,-0.9932403564453125,0.0150299072265625
1761378930003762200,0.60076220703125,-0.0276031494140625,-0.9992828369140625,0.0108184814453125
1761378930013818400,0.610818359375,-0.0228271484375,-1.005218505859375,0.0106048583984375
1761378930023874300,0.620874267578125,-0.0260162353515625,-1.00689697265625,0.0079193115234375
1761378930033929500,0.630929443359375,-0.01953125,-1.01275634765625,0.0051116943359375
1761378930043985400,0.6409853515625,-0.0238494873046875,-1.016845703125,0.0046539306640625
1761378930054041300,0.651041259765625,-0.0347442626953125,-1.014556884765625,0.0063018798828125
1761378930064097300,0.66109716796875,-0.038726806640625,-1.009307861328125,0.0051422119140625
1761378930074152200,0.671152099609375,-0.0388336181640625,-1.0041656494140625,-0.001129150390625
1761378930084208000,0.6812080078125,-0.0437469482421875,-1.001312255859375,-0.0025787353515625
1761378930094264300,0.691264404296875,-0.0463714599609375,-0.999786376953125,0.000244140625
1761378930104319200,0.7013193359375,-0.037994384765625,-0.99951171875,0.0080108642578125
1761378930114375400,0.71137548828125,-0.0403594970703125,-1.0030059814453125,0.0203399658203125
1761378930124431400,0.721431396484375,-0.0351409912109375,-1.0116119384765625,0.0359649658203125
1761378930134487300,0.7314873046875,-0.0216064453125,-1.009033203125,0.0430908203125
1761378930144542200,0.741542236328125,-0.0090789794921875,-1.005218505859375,0.0435638427734375
1761378930154598100,0.75159814453125,0.0018463134765625,-1.0095062255859375,0.04376220703125
1761378930164654300,0.761654296875,0.01226806640625,-1.007720947265625,0.038299560546875
1761378930174710300,0.771710205078125,0.017730712890625,-0.999603271484375,0.0350189208984375
1761378930184765400,0.781765380859375,0.019073486328125,-0.99774169921875,0.0400238037109375
1761378930194821400,0.7918212890625,0.009857177734375,-1.0035858154296875,0.0491485595703125
1761378930204877300,0.801877197265625,0.0020599365234375,-1.007476806640625,0.063385009765625
1761378930214933500,0.81193359375,-0.001556396484375,-1.0085601806640625,0.0717010498046875
1761378930224988200,0.82198828125,0.0087432861328125,-1.0067596435546875,0.0733795166015625
1761378930235044400,0.83204443359375,0.0165252685546875,-1.0129547119140625,0.065399169921875
1761378930245100300,0.842100341796875,0.0182952880859375,-1.0212554931640625,0.058990478515625
1761378930255156200,0.85215625,0.01300048828125,-1.0274505615234375,0.0536346435546875
1761378930265211400,0.86221142578125,0.00347900390625,-1.025115966796875,0.0460968017578125
1761378930275267300,0.872267333984375,-0.0058441162109375,-1.0198822021484375,0.0405731201171875
1761378930285323300,0.8823232421875,-0.00634765625,-1.016815185546875,0.034576416015625
1761378930295379500,0.89237939453125,-0.001495361328125,-1.010345458984375,0.0307769775390625
1761378930305434000,0.90243408203125,-0.0003509521484375,-1.00390625,0.030731201171875
1761378930315490300,0.912490234375,-0.00433349609375,-1.026580810546875,0.0270843505859375
1761378930325546200,0.922546142578125,-0.0048675537109375,-1.0523223876953125,0.022430419921875
1761378930335602200,0.932602294921875,-0.0135345458984375,-1.060821533203125,0.0158538818359375
1761378930345657300,0.9426572265625,-0.018646240234375,-1.08013916015625,0.003692626953125
1761378930355713300,0.95271337890625,-0.0404510498046875,-1.1167144775390625,-0.009735107421875
1761378930365769500,0.96276953125,-0.0756988525390625,-1.15533447265625,-0.01544189453125
1761378930375824100,0.97282421875,-0.11663818359375,-1.18157958984375,-0.0173492431640625
1761378930385880300,0.98288037109375,-0.1574554443359375,-1.1908416748046875,-0.025115966796875
1761378930395936300,0.992936279296875,-0.2032318115234375,-1.18975830078125,-0.0287933349609375
1761378930405992200,1.0029921875,-0.235565185546875,-1.189544677734375,-0.0297698974609375
1761378930416047400,1.01304736328125,-0.266265869140625,-1.1807708740234375,-0.0336761474609375
1761378930426103300,1.023103271484375,-0.2846221923828125,-1.155853271484375,-0.033721923828125
1761378930436159500,1.033159423828125,-0.283203125,-1.1101531982421875,-0.034332275390625
1761378930446215400,1.04321533203125,-0.262420654296875,-1.0453643798828125,-0.034759521484375
1761378930456270300,1.053270263671875,-0.2345123291015625,-0.984283447265625,-0.03302001953125
1761378930466326300,1.063326171875,-0.205902099609375,-0.9382476806640625,-0.0278472900390625
1761378930476382200,1.07338232421875,-0.1806640625,-0.89263916015625,-0.02398681640625
1761378930486438400,1.0834384765625,-0.1493682861328125,-0.8538665771484375,-0.02960205078125
1761378930496493300,1.093493408203125,-0.11468505859375,-0.8317718505859375,-0.0362548828125
1761378930506549200,1.10354931640625,-0.086578369140625,-0.8242645263671875,-0.037322998046875
1761378930516605400,1.11360546875,-0.068115234375,-0.8253021240234375,-0.0363311767578125
1761378930526661400,1.123661376953125,-0.04718017578125,-0.821380615234375,-0.03961181640625
1761378930536716300,1.13371630859375,-0.057952880859375,-0.8342742919921875,-0.0408782958984375
1761378930546772200,1.143772216796875,-0.114501953125,-0.8843994140625,-0.0190277099609375
1761378930556828200,1.153828125,-0.167510986328125,-0.93048095703125,0.01287841796875
1761378930566884400,1.16388427734375,-0.19061279296875,-0.9441070556640625,0.020233154296875
1761378930576939300,1.173939208984375,-0.20635986328125,-0.9515228271484375,0.0127410888671875
1761378930586995500,1.183995361328125,-0.1946258544921875,-0.9698944091796875,0.0096435546875
1761378930597051400,1.194051513671875,-0.178619384765625,-0.9865875244140625,-0.000274658203125
1761378930607107300,1.204107421875,-0.1790924072265625,-1.0080108642578125,-0.0263671875
1761378930617162200,1.214162353515625,-0.1855010986328125,-1.028045654296875,-0.0594635009765625
1761378930627218200,1.22421826171875,-0.207183837890625,-1.0336151123046875,-0.0960540771484375
1761378930637274400,1.2342744140625,-0.2405853271484375,-1.0318450927734375,-0.1190338134765625
1761378930647330300,1.244330322265625,-0.2693939208984375,-1.0395965576171875,-0.1241607666015625
1761378930657385500,1.254385498046875,-0.276397705078125,-1.0345458984375,-0.1237945556640625
1761378930667441400,1.26444140625,-0.2685394287109375,-1.0163116455078125,-0.119781494140625
1761378930677497300,1.274497314453125,-0.2501678466796875,-1.0005035400390625,-0.112884521484375
1761378930687552300,1.28455224609375,-0.2209014892578125,-0.983367919921875,-0.1009979248046875
1761378930697608200,1.294608154296875,-0.1975860595703125,-0.9687957763671875,-0.0872955322265625
1761378930707664100,1.3046640625,-0.1771240234375,-0.9570465087890625,-0.0717926025390625
1761378930717720300,1.31472021484375,-0.1562957763671875,-0.925384521484375,-0.0569610595703125
1761378930727775200,1.324775146484375,-0.1362762451171875,-0.896697998046875,-0.0396728515625
1761378930737831400,1.33483154296875,-0.1125640869140625,-0.88641357421875,-0.0199737548828125
1761378930747887400,1.344887451171875,-0.0844573974609375,-0.8808441162109375,-0.0114898681640625
1761378930757943300,1.354943359375,-0.060028076171875,-0.875091552734375,-0.005950927734375
1761378930767998200,1.364998291015625,-0.0420379638671875,-0.870819091796875,-0.00628662109375
1761378930778054100,1.37505419921875,-0.0397796630859375,-0.8602447509765625,-0.0055694580078125
1761378930788110300,1.3851103515625,-0.0519256591796875,-0.8589324951171875,0.0013427734375
1761378930798166300,1.395166259765625,-0.0594635009765625,-0.8671875,0.0124969482421875
1761378930808221400,1.405221435546875,-0.0671539306640625,-0.8850555419921875,0.0211944580078125
1761378930818277400,1.41527734375,-0.0696868896484375,-0.9094085693359375,0.027099609375
1761378930828333300,1.425333251953125,-0.0623931884765625,-0.9240570068359375,0.0217437744140625
1761378930838389500,1.435389404296875,-0.056976318359375,-0.9293212890625,0.0103912353515625
1761378930848444700,1.445444580078125,-0.0529632568359375,-0.9371337890625,-0.0047760009765625
1761378930858500600,1.45550048828125,-0.0571746826171875,-0.9429931640625,-0.022552490234375
1761378930868556800,1.465556884765625,-0.064117431640625,-0.9420318603515625,-0.0415191650390625
1761378930878612500,1.475612548828125,-0.080322265625,-0.94647216796875,-0.0511932373046875
1761378930888667600,1.485667724609375,-0.097015380859375,-0.96612548828125,-0.0450897216796875
1761378930898723600,1.4957236328125,-0.1126861572265625,-1.000946044921875,-0.032318115234375
1761378930908779500,1.505779541015625,-0.10546875,-1.02142333984375,-0.0246124267578125
1761378930918835700,1.515835693359375,-0.100555419921875,-1.0268402099609375,-0.0223236083984375
1761378930928890600,1.525890625,-0.0911102294921875,-1.0381011962890625,-0.0184478759765625
1761378930938946800,1.53594677734375,-0.0843353271484375,-1.0450592041015625,-0.01641845703125
1761378930949002800,1.546002685546875,-0.0824432373046875,-1.0415802001953125,-0.018768310546875
1761378930959058400,1.556058349609375,-0.079742431640625,-1.041259765625,-0.0164031982421875
1761378930969113600,1.566113525390625,-0.0765533447265625,-1.047637939453125,-0.005950927734375
1761378930979169500,1.57616943359375,-0.0722503662109375,-1.0539703369140625,0.0024871826171875
1761378930989225700,1.586225830078125,-0.0640411376953125,-1.058013916015625,0.0029296875
1761378930999281700,1.59628173828125,-0.0620269775390625,-1.062103271484375,-0.004638671875
1761378931009336800,1.6063369140625,-0.064727783203125,-1.0630645751953125,-0.006591796875
1761378931019392800,1.616392822265625,-0.0783233642578125,-1.0618743896484375,0.0000457763671875
1761378931029448700,1.62644873046875,-0.09527587890625,-1.0727691650390625,0.0022430419921875
1761378931039504600,1.636504638671875,-0.1126708984375,-1.0951385498046875,0.0070037841796875
1761378931049559600,1.6465595703125,-0.129364013671875,-1.10595703125,0.01727294921875
1761378931059615500,1.656615478515625,-0.1384429931640625,-1.1035614013671875,0.020416259765625
1761378931069671700,1.666671630859375,-0.141571044921875,-1.0999908447265625,0.02203369140625
1761378931079726600,1.6767265625,-0.1431884765625,-1.1014862060546875,0.0228271484375
1761378931089782800,1.68678271484375,-0.1458892822265625,-1.0980224609375,0.0225982666015625
1761378931099838700,1.696838623046875,-0.1516571044921875,-1.0824127197265625,0.020294189453125
1761378931109894400,1.706894287109375,-0.15460205078125,-1.059722900390625,0.0194854736328125
1761378931119949600,1.716949462890625,-0.1569671630859375,-1.0401611328125,0.0226287841796875
1761378931130005500,1.727005615234375,-0.1566619873046875,-1.0269622802734375,0.0301513671875
1761378931140061700,1.737061767578125,-0.1504058837890625,-1.0170745849609375,0.037109375
1761378931150117600,1.74711767578125,-0.1483612060546875,-1.0131988525390625,0.048309326171875
1761378931160172800,1.7571728515625,-0.1490478515625,-1.0213623046875,0.05816650390625
1761378931170228700,1.767228759765625,-0.1565093994140625,-1.0302581787109375,0.0594635009765625
1761378931180284700,1.77728466796875,-0.1767120361328125,-1.02764892578125,0.056060791015625
1761378931190340600,1.787340576171875,-0.2027587890625,-1.026641845703125,0.051544189453125
1761378931200395500,1.7973955078125,-0.2314300537109375,-1.0254974365234375,0.051910400390625
1761378931210451700,1.80745166015625,-0.2625885009765625,-1.018280029296875,0.050506591796875
1761378931220507600,1.817507568359375,-0.272705078125,-0.9991607666015625,0.041900634765625
1761378931230563600,1.8275634765625,-0.2645263671875,-0.960601806640625,0.02978515625
1761378931240618800,1.83761865234375,-0.241790771484375,-0.9258880615234375,0.0196075439453125
1761378931250674700,1.8476748046875,-0.208709716796875,-0.903411865234375,0.017181396484375
1761378931260730600,1.857730712890625,-0.1750640869140625,-0.89056396484375,0.014984130859375
1761378931270786600,1.86778662109375,-0.1463775634765625,-0.8827667236328125,0.0091400146484375
1761378931280841500,1.877841552734375,-0.1337890625,-0.882598876953125,0.0070953369140625
1761378931290897700,1.887897705078125,-0.132568359375,-0.8880767822265625,0.006622314453125
1761378931300953600,1.89795361328125,-0.1323089599609375,-0.8884124755859375,0.0017242431640625
1761378931311009500,1.908009521484375,-0.1466827392578125,-0.89776611328125,0.0004119873046875
1761378931321064700,1.918064697265625,-0.164215087890625,-0.9158172607421875,0.0074920654296875
1761378931331120600,1.92812060546875,-0.1838226318359375,-0.925811767578125,0.0163726806640625
1761378931341176800,1.9381767578125,-0.1849822998046875,-0.9303436279296875,0.0208282470703125
1761378931351232500,1.948232421875,-0.1693878173828125,-0.9260406494140625,0.016448974609375
1761378931361287700,1.95828759765625,-0.1446075439453125,-0.923309326171875,0.0094757080078125
1761378931371343600,1.968343505859375,-0.115234375,-0.9222869873046875,0.0018310546875
1761378931381399600,1.978399658203125,-0.101593017578125,-0.924102783203125,-0.00469970703125
1761378931391455700,1.988455810546875,-0.1029052734375,-0.9333953857421875,0.00030517578125
1761378931401510700,1.9985107421875,-0.1201629638671875,-0.9453887939453125,0.00970458984375
1761378931411566800,2.00856689453125,-0.14947509765625,-0.9670257568359375,0.015228271484375
1761378931421622500,2.01862255859375,-0.17352294921875,-0.9888153076171875,0.025848388671875
1761378931431678500,2.028678466796875,-0.18548583984375,-0.9942169189453125,0.027740478515625
1761378931441733600,2.038733642578125,-0.1792144775390625,-0.9982147216796875,0.0202789306640625
1761378931451789600,2.04878955078125,-0.164886474609375,-0.997467041015625,0.0181884765625
1761378931461845800,2.058845703125,-0.1396331787109375,-0.9866943359375,0.008453369140625
1761378931471901700,2.068901611328125,-0.1157989501953125,-0.9786529541015625,-0.001007080078125
1761378931481956600,2.07895654296875,-0.098602294921875,-0.9721221923828125,-0.0025787353515625
1761378931492012800,2.0890126953125,-0.08953857421875,-0.965484619140625,0.0013580322265625
1761378931502068500,2.099068359375,-0.086669921875,-0.970733642578125,0.0125732421875
1761378931512124400,2.10912451171875,-0.0879058837890625,-0.977691650390625,0.03106689453125
1761378931522179600,2.1191796875,-0.088043212890625,-0.9849395751953125,0.0457611083984375
1761378931532235500,2.129235595703125,-0.0826568603515625,-0.991424560546875,0.0570831298828125
1761378931542291700,2.139291748046875,-0.07891845703125,-0.99505615234375,0.0605316162109375
1761378931552347600,2.14934765625,-0.0826416015625,-1.001007080078125,0.0585784912109375
1761378931562402800,2.15940283203125,-0.0843658447265625,-1.00799560546875,0.0539703369140625
1761378931572458800,2.169458740234375,-0.087677001953125,-1.0019378662109375,0.054718017578125
1761378931582514400,2.179514404296875,-0.08831787109375,-0.991363525390625,0.0589447021484375
1761378931592570600,2.189570556640625,-0.0852508544921875,-0.9807891845703125,0.064849853515625
1761378931602625500,2.19962548828125,-0.0744171142578125,-0.9760284423828125,0.06439208984375
1761378931612681700,2.209681640625,-0.06158447265625,-0.97271728515625,0.05975341796875
1761378931622737700,2.219737548828125,-0.051239013671875,-0.964752197265625,0.057769775390625
1761378931632793600,2.229793701171875,-0.0442962646484375,-0.963836669921875,0.0527801513671875
1761378931642848800,2.239848876953125,-0.039215087890625,-0.9680023193359375,0.041290283203125
1761378931652904700,2.24990478515625,-0.0450592041015625,-0.974212646484375,0.032470703125
1761378931662960600,2.259960693359375,-0.05694580078125,-0.9824676513671875,0.0364532470703125
1761378931673016600,2.2700166015625,-0.0658416748046875,-0.989776611328125,0.040069580078125
1761378931683071500,2.280071533203125,-0.069671630859375,-0.9922332763671875,0.042999267578125
1761378931693127700,2.290127685546875,-0.0655670166015625,-0.9874267578125,0.0453643798828125
1761378931703183600,2.30018359375,-0.0587310791015625,-0.9757232666015625,0.0457611083984375
1761378931713239600,2.310239501953125,-0.050689697265625,-0.9656829833984375,0.044097900390625
1761378931723294700,2.320294677734375,-0.0362396240234375,-0.9608612060546875,0.04107666015625
1761378931733350400,2.330350341796875,-0.022247314453125,-0.959259033203125,0.031280517578125
1761378931743406600,2.340406494140625,-0.02593994140625,-0.9638671875,0.02923583984375
1761378931753462500,2.350462646484375,-0.04071044921875,-0.9790802001953125,0.042449951171875
1761378931763517700,2.360517578125,-0.0576019287109375,-0.9958953857421875,0.0522918701171875
1761378931773573600,2.37057373046875,-0.0701446533203125,-1.0130767822265625,0.058074951171875
1761378931783629600,2.380629638671875,-0.085357666015625,-1.02203369140625,0.056793212890625
1761378931793685800,2.390685791015625,-0.0896148681640625,-1.0246429443359375,0.05035400390625
1761378931803740700,2.40074072265625,-0.0850677490234375,-1.018798828125,0.0416259765625
1761378931813796600,2.410796630859375,-0.07818603515625,-1.020172119140625,0.0304718017578125
1761378931823852500,2.4208525390625,-0.0764617919921875,-1.0241546630859375,0.0207061767578125
1761378931833908500,2.430908447265625,-0.07366943359375,-1.02703857421875,0.0227203369140625
1761378931843964000,2.4409638671875,-0.07373046875,-1.032012939453125,0.026763916015625
1761378931854019800,2.451019775390625,-0.0723876953125,-1.0396728515625,0.035736083984375
1761378931864075800,2.46107568359375,-0.0689697265625,-1.04107666015625,0.045623779296875
1761378931874132000,2.471132080078125,-0.0726470947265625,-1.0369415283203125,0.0482940673828125
1761378931884187000,2.481186767578125,-0.0822601318359375,-1.055328369140625,0.045684814453125
1761378931894242800,2.491242919921875,-0.0971527099609375,-1.0848236083984375,0.0456390380859375
1761378931904298800,2.501298828125,-0.1154022216796875,-1.0941162109375,0.034149169921875
1761378931914354700,2.511354736328125,-0.127838134765625,-1.0870819091796875,0.0088958740234375
1761378931924409900,2.521409912109375,-0.136383056640625,-1.08514404296875,-0.00897216796875
1761378931934465800,2.5314658203125,-0.140350341796875,-1.0858001708984375,-0.01995849609375
1761378931944522000,2.54152197265625,-0.142669677734375,-1.0820465087890625,-0.0274200439453125
1761378931954578000,2.551577880859375,-0.147857666015625,-1.083465576171875,-0.0296478271484375
1761378931964633000,2.561633056640625,-0.1678314208984375,-1.084320068359375,-0.0292816162109375
1761378931974688800,2.571688720703125,-0.18988037109375,-1.0875244140625,-0.0243072509765625
1761378931984744700,2.58174462890625,-0.2199249267578125,-1.09210205078125,-0.018463134765625
1761378931994801000,2.59180078125,-0.2461090087890625,-1.09600830078125,-0.0083465576171875
1761378932004855800,2.601855712890625,-0.2715911865234375,-1.08551025390625,0.0052490234375
1761378932014912000,2.611912109375,-0.2747344970703125,-1.0538482666015625,0.0059356689453125
1761378932024968000,2.621968017578125,-0.27130126953125,-1.011505126953125,-0.00115966796875
1761378932035024000,2.63202392578125,-0.2683563232421875,-0.97003173828125,-0.007843017578125
1761378932045079000,2.6420791015625,-0.2607269287109375,-0.939849853515625,-0.0134735107421875
1761378932055134700,2.652134765625,-0.24749755859375,-0.9066162109375,-0.01446533203125
1761378932065191000,2.66219091796875,-0.234954833984375,-0.8750762939453125,-0.010345458984375
1761378932075246800,2.672246826171875,-0.2222137451171875,-0.8642730712890625,-0.001190185546875
1761378932085301800,2.6823017578125,-0.2049713134765625,-0.864288330078125,0.005157470703125
1761378932095358000,2.69235791015625,-0.1909332275390625,-0.8608856201171875,0.0066070556640625
1761378932105414000,2.702413818359375,-0.1783599853515625,-0.8618927001953125,0.0037689208984375
1761378932115469800,2.7124697265625,-0.1737518310546875,-0.86468505859375,-0.0048980712890625
1761378932125525000,2.72252490234375,-0.1772918701171875,-0.882080078125,-0.01312255859375
1761378932135580700,2.73258056640625,-0.186737060546875,-0.9103851318359375,-0.01190185546875
1761378932145636900,2.742636962890625,-0.19720458984375,-0.9338531494140625,-0.003326416015625
1761378932155692800,2.75269287109375,-0.2020263671875,-0.9534454345703125,0.0012664794921875
1761378932165748700,2.762748779296875,-0.2000274658203125,-0.9607696533203125,-0.0042266845703125
1761378932175804000,2.772803955078125,-0.193450927734375,-0.96575927734375,-0.02020263671875
1761378932185859800,2.78285986328125,-0.182464599609375,-0.968719482421875,-0.03643798828125
1761378932195916000,2.792916015625,-0.1862030029296875,-0.969390869140625,-0.05023193359375
1761378932205972000,2.802971923828125,-0.2120513916015625,-0.9861602783203125,-0.0507659912109375
1761378932216027000,2.81302685546875,-0.2298583984375,-1.0038604736328125,-0.0447235107421875
1761378932226082800,2.823082763671875,-0.243927001953125,-1.010040283203125,-0.0377044677734375
1761378932236138800,2.833138671875,-0.2534942626953125,-1.0226898193359375,-0.034942626953125
1761378932246195000,2.84319482421875,-0.2527313232421875,-1.028472900390625,-0.0368194580078125
1761378932256249900,2.853249755859375,-0.2434539794921875,-1.0178070068359375,-0.042633056640625
1761378932266306000,2.86330615234375,-0.2283172607421875,-1.0034027099609375,-0.0603179931640625
1761378932276362000,2.873362060546875,-0.2151947021484375,-0.9925079345703125,-0.080108642578125
1761378932286418000,2.88341796875,-0.206817626953125,-0.976959228515625,-0.0827789306640625
1761378932296472800,2.893472900390625,-0.1938629150390625,-0.9580841064453125,-0.0714111328125
1761378932306528800,2.90352880859375,-0.1784820556640625,-0.9521484375,-0.0537872314453125
1761378932316584700,2.913584716796875,-0.1457366943359375,-0.952606201171875,-0.0334625244140625
1761378932326641000,2.923640869140625,-0.1283111572265625,-0.94091796875,-0.02099609375
1761378932336695800,2.93369580078125,-0.111785888671875,-0.9289398193359375,-0.0076446533203125
1761378932346752000,2.943751953125,-0.0976409912109375,-0.9206695556640625,-0.000091552734375
1761378932356808000,2.953807861328125,-0.090667724609375,-0.91351318359375,-0.0028839111328125
1761378932366864000,2.96386376953125,-0.0930023193359375,-0.91265869140625,-0.0112152099609375
1761378932376918800,2.973918701171875,-0.0978546142578125,-0.9122772216796875,-0.0137481689453125
1761378932386974700,2.983974609375,-0.096099853515625,-0.924774169921875,-0.014007568359375
1761378932397031000,2.994031005859375,-0.09613037109375,-0.9411163330078125,-0.0132904052734375
1761378932407086800,3.0040869140625,-0.09722900390625,-0.952880859375,-0.0132598876953125
1761378932417142000,3.01414208984375,-0.0924530029296875,-0.95989990234375,-0.0086669921875
1761378932427198000,3.024197998046875,-0.088043212890625,-0.96429443359375,-0.0022125244140625
1761378932437254000,3.03425390625,-0.0851593017578125,-0.963958740234375,-0.003875732421875
1761378932447310000,3.04431005859375,-0.0839691162109375,-0.9626617431640625,-0.010650634765625
1761378932457364700,3.05436474609375,-0.0884552001953125,-0.9661407470703125,-0.015594482421875
1761378932467421000,3.0644208984375,-0.09228515625,-0.9691925048828125,-0.0194854736328125
1761378932477476900,3.074476806640625,-0.08905029296875,-0.975433349609375,-0.017852783203125
1761378932487532800,3.08453271484375,-0.0860595703125,-0.9863433837890625,-0.0158233642578125
1761378932497589000,3.094589111328125,-0.08428955078125,-0.9925384521484375,-0.0155487060546875
1761378932507644000,3.104643798828125,-0.0813751220703125,-0.9893035888671875,-0.0152740478515625
1761378932517699800,3.114699951171875,-0.08087158203125,-0.9823760986328125,-0.0183258056640625
1761378932527756000,3.124756103515625,-0.072845458984375,-0.9782257080078125,-0.0226898193359375
1761378932537812000,3.13481201171875,-0.0676727294921875,-0.978485107421875,-0.0343017578125
1761378932547867000,3.144866943359375,-0.0590972900390625,-0.9763031005859375,-0.0430145263671875
1761378932557922800,3.1549228515625,-0.0514984130859375,-0.971710205078125,-0.0462799072265625
1761378932567978800,3.164978759765625,-0.0415191650390625,-0.96807861328125,-0.0449066162109375
1761378932578035000,3.175034912109375,-0.0356597900390625,-0.966400146484375,-0.0437469482421875
1761378932588089900,3.18508984375,-0.0447845458984375,-0.9703369140625,-0.041015625
1761378932598146000,3.19514599609375,-0.062957763671875,-0.98388671875,-0.032135009765625
1761378932608202000,3.205201904296875,-0.0801544189453125,-0.99652099609375,-0.0192108154296875
1761378932618258000,3.2152578125,-0.0927276611328125,-1.0031890869140625,-0.0102081298828125
1761378932628312800,3.225312744140625,-0.095062255859375,-1.0102386474609375,-0.0050201416015625
1761378932638368800,3.23536865234375,-0.0879364013671875,-1.01995849609375,0.003997802734375
1761378932648425000,3.245425048828125,-0.0751953125,-1.02252197265625,0.0086212158203125
1761378932658481000,3.25548095703125,-0.07379150390625,-1.03143310546875,0.007568359375
1761378932668536000,3.2655361328125,-0.0658111572265625,-1.047210693359375,0.0065765380859375
1761378932678592000,3.275592041015625,-0.0583343505859375,-1.05841064453125,0.009490966796875
1761378932688648000,3.28564794921875,-0.0797882080078125,-1.058837890625,0.0087738037109375
1761378932698704000,3.295703857421875,-0.11376953125,-1.0721282958984375,0.010406494140625
1761378932708758800,3.3057587890625,-0.150238037109375,-1.108245849609375,0.0162200927734375
1761378932718815000,3.31581494140625,-0.18597412109375,-1.13494873046875,0.025421142578125
1761378932728871000,3.325870849609375,-0.2195587158203125,-1.1385650634765625,0.02838134765625
1761378932738926800,3.3359267578125,-0.2287445068359375,-1.1431884765625,0.020965576171875
1761378932748982000,3.34598193359375,-0.2265777587890625,-1.14459228515625,0.0089569091796875
1761378932759038000,3.356037841796875,-0.224884033203125,-1.14520263671875,0.0019073486328125
1761378932769094000,3.366093994140625,-0.2199554443359375,-1.1392669677734375,0.0017242431640625
1761378932779149800,3.37614990234375,-0.218841552734375,-1.112274169921875,0.00067138671875
1761378932789204700,3.386204833984375,-0.221343994140625,-1.0843048095703125,-0.0071563720703125
1761378932799261000,3.396260986328125,-0.2296142578125,-1.077880859375,-0.016571044921875
1761378932809316900,3.40631689453125,-0.2377471923828125,-1.075836181640625,-0.0247650146484375
1761378932819372800,3.416372802734375,-0.2454833984375,-1.0587310791015625,-0.0297393798828125
1761378932829429000,3.426428955078125,-0.237396240234375,-1.034515380859375,-0.0377349853515625
1761378932839484000,3.43648388671875,-0.2138214111328125,-1.0072479248046875,-0.0495758056640625
1761378932849540000,3.4465400390625,-0.19232177734375,-0.986328125,-0.048858642578125
1761378932859596000,3.456595947265625,-0.1704254150390625,-0.9663238525390625,-0.038970947265625
1761378932869652000,3.46665185546875,-0.1610107421875,-0.94183349609375,-0.030426025390625
1761378932879707000,3.476706787109375,-0.1605682373046875,-0.923065185546875,-0.0270538330078125
1761378932889762800,3.4867626953125,-0.1627960205078125,-0.9123382568359375,-0.024993896484375
1761378932899819000,3.496819091796875,-0.1832122802734375,-0.915679931640625,-0.021728515625
1761378932909875000,3.506875,-0.2028045654296875,-0.926910400390625,-0.0184478759765625
1761378932919929900,3.516929931640625,-0.2166748046875,-0.9245758056640625,-0.013214111328125
1761378932929986000,3.526986083984375,-0.2255401611328125,-0.925384521484375,-0.0105133056640625
1761378932940042000,3.5370419921875,-0.224822998046875,-0.929779052734375,-0.010711669921875
1761378932950098000,3.547097900390625,-0.210693359375,-0.9310455322265625,-0.019866943359375
1761378932960152800,3.55715283203125,-0.2027740478515625,-0.9367828369140625,-0.0295562744140625
1761378932970208800,3.567208740234375,-0.192535400390625,-0.9343719482421875,-0.036651611328125
1761378932980265000,3.577264892578125,-0.183624267578125,-0.9312591552734375,-0.04522705078125
1761378932990321000,3.58732080078125,-0.1831817626953125,-0.9352874755859375,-0.0409393310546875
1761378933000376000,3.5973759765625,-0.190673828125,-0.9394073486328125,-0.029144287109375
1761378933010432000,3.607431884765625,-0.2028045654296875,-0.9429473876953125,-0.011322021484375
1761378933020488000,3.617488037109375,-0.21929931640625,-0.9447784423828125,0.008636474609375
1761378933030544000,3.6275439453125,-0.235321044921875,-0.948974609375,0.031463623046875
1761378933040599800,3.637599853515625,-0.2484283447265625,-0.9509124755859375,0.0457916259765625
1761378933050655000,3.647655029296875,-0.255462646484375,-0.9478912353515625,0.05194091796875
1761378933060711000,3.6577109375,-0.243133544921875,-0.9315338134765625,0.0478515625
1761378933070766800,3.667766845703125,-0.2198333740234375,-0.9017181396484375,0.024169921875
1761378933080823000,3.677822998046875,-0.189361572265625,-0.8884124755859375,-0.0024261474609375
1761378933090878000,3.6878779296875,-0.160430908203125,-0.8829498291015625,-0.024810791015625
1761378933100934100,3.69793408203125,-0.1571197509765625,-0.879852294921875,-0.0379638671875
1761378933110989800,3.70798974609375,-0.1655731201171875,-0.89227294921875,-0.031158447265625
1761378933121045800,3.718045654296875,-0.1730499267578125,-0.9065704345703125,-0.020416259765625
1761378933131101000,3.728100830078125,-0.1795806884765625,-0.9189300537109375,-0.0124053955078125
1761378933141156900,3.738156982421875,-0.1884307861328125,-0.941650390625,0.0006561279296875
1761378933151213000,3.748213134765625,-0.2014617919921875,-0.9661712646484375,0.016387939453125
1761378933161269000,3.75826904296875,-0.2192230224609375,-0.959503173828125,0.02667236328125
1761378933171324000,3.768323974609375,-0.2108917236328125,-0.9467620849609375,0.032623291015625
1761378933181380000,3.778380126953125,-0.1998443603515625,-0.945831298828125,0.0327606201171875
1761378933191435800,3.788435791015625,-0.1905670166015625,-0.9453887939453125,0.03668212890625
1761378933201491700,3.79849169921875,-0.185211181640625,-0.9540863037109375,0.04705810546875
1761378933211548000,3.8085478515625,-0.1925201416015625,-0.9681243896484375,0.05560302734375
1761378933221602800,3.818602783203125,-0.201873779296875,-0.971954345703125,0.05889892578125
1761378933231659000,3.828658935546875,-0.2008056640625,-0.9593048095703125,0.0563201904296875
1761378933241715000,3.83871484375,-0.18243408203125,-0.9375762939453125,0.0505218505859375
1761378933251771000,3.84877099609375,-0.1478424072265625,-0.9250640869140625,0.0478057861328125
1761378933261826000,3.858825927734375,-0.11688232421875,-0.9257354736328125,0.0425872802734375
1761378933271881700,3.8688818359375,-0.081298828125,-0.9249725341796875,0.0371246337890625
1761378933281938000,3.87893798828125,-0.0498504638671875,-0.9257965087890625,0.0233001708984375
1761378933291993900,3.888993896484375,-0.0337371826171875,-0.9325103759765625,0.0111083984375
1761378933302049000,3.899049072265625,-0.0326690673828125,-0.9446868896484375,0.00543212890625
1761378933312105000,3.90910498046875,-0.0381927490234375,-0.951263427734375,0.0038909912109375
1761378933322161000,3.919160888671875,-0.0463104248046875,-0.954986572265625,0.0004119873046875
1761378933332217000,3.929217041015625,-0.0528411865234375,-0.965667724609375,0.001312255859375
1761378933342271700,3.939271728515625,-0.055908203125,-0.97894287109375,0.008087158203125
1761378933352328000,3.949327880859375,-0.046844482421875,-0.9847564697265625,0.0126800537109375
1761378933362384000,3.9593837890625,-0.047607421875,-0.992218017578125,0.02166748046875
1761378933372439800,3.969439697265625,-0.0384674072265625,-1.00439453125,0.0299530029296875
1761378933382496000,3.97949609375,-0.034912109375,-1.0072784423828125,0.0254974365234375
1761378933392551000,3.989551025390625,-0.0362701416015625,-1.0107421875,0.0271148681640625
1761378933402606800,3.99960693359375,-0.04339599609375,-1.0179901123046875,0.029449462890625
1761378933412663000,4.0096630859375,-0.0633087158203125,-1.02978515625,0.031219482421875
1761378933422716000,4.0197158203125,-0.102294921875,-1.0457916259765625,0.0396575927734375
1761378933432771000,4.02977099609375,-0.1259918212890625,-1.055206298828125,0.0435028076171875
1761378933442827000,4.039826904296875,-0.1373748779296875,-1.051025390625,0.0384521484375
1761378933452883000,4.049883056640625,-0.1459503173828125,-1.0478515625,0.0343017578125
1761378933462939100,4.059939208984375,-0.147705078125,-1.045806884765625,0.0399322509765625
1761378933472994800,4.069994873046875,-0.1470184326171875,-1.0483551025390625,0.040283203125
1761378933483050000,4.080050048828125,-0.149627685546875,-1.055084228515625,0.0324859619140625
1761378933493106000,4.09010595703125,-0.1519012451171875,-1.05914306640625,0.02337646484375
1761378933503161900,4.100161865234375,-0.1638641357421875,-1.0634765625,0.0163421630859375
1761378933513218000,4.110218017578125,-0.173828125,-1.06591796875,0.0106048583984375
1761378933523273000,4.12027294921875,-0.1764373779296875,-1.0622406005859375,0.0075531005859375
1761378933533329000,4.130328857421875,-0.1744537353515625,-1.0654296875,0.0162506103515625
1761378933543385000,4.140385009765625,-0.16754150390625,-1.0709991455078125,0.02490234375
1761378933553440800,4.150440673828125,-0.15130615234375,-1.078338623046875,0.0302734375
1761378933563496000,4.160495849609375,-0.1345977783203125,-1.09033203125,0.0304412841796875
1761378933573551900,4.1705517578125,-0.12652587890625,-1.103546142578125,0.031280517578125
1761378933583607800,4.18060791015625,-0.1307220458984375,-1.1108856201171875,0.03106689453125
1761378933593664000,4.1906640625,-0.134002685546875,-1.1072540283203125,0.0320281982421875
1761378933603719000,4.200718994140625,-0.14007568359375,-1.0883941650390625,0.03302001953125
1761378933613775000,4.210775146484375,-0.14837646484375,-1.0733795166015625,0.0294189453125
1761378933623831000,4.2208310546875,-0.1696929931640625,-1.0637054443359375,0.0226898193359375
1761378933633886700,4.23088671875,-0.19635009765625,-1.0372161865234375,0.016265869140625
1761378933643943000,4.24094287109375,-0.2175750732421875,-0.993377685546875,0.009796142578125
1761378933653997800,4.250997802734375,-0.2288970947265625,-0.9471588134765625,-0.000946044921875
1761378933664054000,4.261053955078125,-0.2385711669921875,-0.9064788818359375,-0.0027313232421875
1761378933674110000,4.27110986328125,-0.236785888671875,-0.872528076171875,-0.0070037841796875
1761378933684166000,4.281165771484375,-0.228363037109375,-0.8526153564453125,-0.02301025390625
1761378933694221000,4.291220947265625,-0.21343994140625,-0.84246826171875,-0.03546142578125
1761378933704277000,4.301277099609375,-0.200958251953125,-0.84649658203125,-0.0268096923828125
1761378933714333000,4.3113330078125,-0.192626953125,-0.8696136474609375,-0.0147552490234375
1761378933724388900,4.321388916015625,-0.1738128662109375,-0.8868560791015625,-0.0075836181640625
1761378933734443800,4.33144384765625,-0.1441802978515625,-0.8977203369140625,-0.00860595703125
1761378933744500000,4.3415,-0.1311492919921875,-0.9166717529296875,-0.0153350830078125
1761378933754556000,4.351555908203125,-0.1300506591796875,-0.9384307861328125,-0.01690673828125
1761378933764611800,4.36161181640625,-0.137359619140625,-0.9560089111328125,-0.007904052734375
1761378933774668000,4.37166796875,-0.1624298095703125,-0.9745941162109375,0.0040130615234375
1761378933784722700,4.38172265625,-0.17620849609375,-0.9869232177734375,0.0074615478515625
1761378933794779000,4.39177880859375,-0.18707275390625,-0.996063232421875,0.000213623046875
1761378933804834800,4.401834716796875,-0.1925811767578125,-1.00787353515625,-0.00732421875
1761378933814890800,4.411890869140625,-0.19140625,-1.0181884765625,-0.011566162109375
1761378933824946000,4.42194580078125,-0.1976470947265625,-1.0261077880859375,-0.0181427001953125
1761378933835004000,4.43200390625,-0.1998748779296875,-1.03826904296875,-0.024566650390625
1761378933845059600,4.4420595703125,-0.202880859375,-1.04681396484375,-0.0285186767578125
1761378933855115800,4.45211572265625,-0.20892333984375,-1.0517578125,-0.0341033935546875
1761378933865170700,4.462170654296875,-0.2084197998046875,-1.052490234375,-0.0456085205078125
1761378933875226600,4.4722265625,-0.2057647705078125,-1.042388916015625,-0.058990478515625
1761378933885282600,4.482282470703125,-0.2116851806640625,-1.039642333984375,-0.06103515625
1761378933895338500,4.49233837890625,-0.210205078125,-1.0330657958984375,-0.055908203125
1761378933905394400,4.50239453125,-0.2077178955078125,-1.0131072998046875,-0.0542449951171875
1761378933915449600,4.51244970703125,-0.1996917724609375,-0.992645263671875,-0.044464111328125
1761378933925505500,4.522505615234375,-0.190399169921875,-0.971435546875,-0.0308380126953125
1761378933935561700,4.532561767578125,-0.1736297607421875,-0.9553070068359375,-0.0164031982421875
1761378933945617700,4.54261767578125,-0.162994384765625,-0.94317626953125,0.0013580322265625
1761378933955672800,4.5526728515625,-0.161163330078125,-0.924713134765625,0.0174713134765625
1761378933965728500,4.562728515625,-0.1375274658203125,-0.918701171875,0.02557373046875
1761378933975784400,4.572784423828125,-0.1199798583984375,-0.9066619873046875,0.024261474609375
1761378933985840600,4.582840576171875,-0.087890625,-0.904998779296875,0.012939453125
1761378933995896600,4.592896484375,-0.0650177001953125,-0.9185028076171875,-0.0033416748046875
1761378934005951700,4.60295166015625,-0.0626068115234375,-0.9364471435546875,-0.0146942138671875
1761378934016007700,4.613007568359375,-0.066741943359375,-0.9466705322265625,-0.021636962890625
1761378934026063600,4.623063720703125,-0.07220458984375,-0.9565582275390625,-0.025299072265625
1761378934036119800,4.633119873046875,-0.0851898193359375,-0.96258544921875,-0.0272216796875
1761378934046174500,4.643174560546875,-0.0983734130859375,-0.9703216552734375,-0.021331787109375
1761378934056230700,4.653230712890625,-0.102081298828125,-0.9768524169921875,-0.0089263916015625
1761378934066286600,4.66328662109375,-0.1098175048828125,-0.9819183349609375,0.006927490234375
1761378934076342500,4.673342529296875,-0.11767578125,-0.991241455078125,0.018096923828125
1761378934086397700,4.683397705078125,-0.1152191162109375,-0.996551513671875,0.0191802978515625
1761378934096453600,4.69345361328125,-0.1085052490234375,-1.0032501220703125,0.0186614990234375
1761378934106509600,4.703509521484375,-0.0996856689453125,-1.006072998046875,0.0130462646484375
1761378934116565800,4.713565673828125,-0.0913543701171875,-1.0008697509765625,-0.003173828125
1761378934126621700,4.72362158203125,-0.0864715576171875,-0.9927978515625,-0.0128021240234375
1761378934136676600,4.733676513671875,-0.0904388427734375,-0.99200439453125,-0.01611328125
1761378934146732500,4.743732666015625,-0.100128173828125,-0.9926910400390625,-0.0168914794921875
1761378934156788500,4.75378857421875,-0.1097259521484375,-0.99151611328125,-0.016204833984375
1761378934166844700,4.7638447265625,-0.11883544921875,-0.9967803955078125,-0.0130767822265625
1761378934176899600,4.773899658203125,-0.1182708740234375,-0.994598388671875,-0.0116119384765625
1761378934186955800,4.783955810546875,-0.113433837890625,-0.98919677734375,-0.015350341796875
1761378934197011700,4.79401171875,-0.1018829345703125,-0.9908905029296875,-0.0189208984375
1761378934207067600,4.804067626953125,-0.084808349609375,-0.9943695068359375,-0.024566650390625
1761378934217123800,4.814123779296875,-0.0786895751953125,-0.9951629638671875,-0.02435302734375
1761378934227178500,4.824178466796875,-0.0778045654296875,-0.995880126953125,-0.0204315185546875
1761378934237234700,4.834234619140625,-0.0707855224609375,-0.990997314453125,-0.016937255859375
1761378934247290600,4.84429052734375,-0.0662078857421875,-0.9969940185546875,-0.0158233642578125
1761378934257346600,4.8543466796875,-0.06353759765625,-1.0161895751953125,-0.018096923828125
1761378934267401700,4.864401611328125,-0.0650634765625,-1.028533935546875,-0.01739501953125
1761378934277457700,4.874457763671875,-0.0708465576171875,-1.0279083251953125,-0.0138092041015625
1761378934287513900,4.884513916015625,-0.0942535400390625,-1.035186767578125,-0.0040435791015625
1761378934297569500,4.894569580078125,-0.1159210205078125,-1.0535430908203125,0.016265869140625
1761378934307625500,4.90462548828125,-0.1283111572265625,-1.0633544921875,0.0264739990234375
1761378934317680600,4.9146806640625,-0.1428375244140625,-1.060150146484375,0.0256805419921875
1761378934327736600,4.924736572265625,-0.1490478515625,-1.0580902099609375,0.0268707275390625
1761378934337792500,4.93479248046875,-0.1515045166015625,-1.051361083984375,0.0225982666015625
1761378934347848700,4.9448486328125,-0.15252685546875,-1.0481414794921875,0.0082550048828125
1761378934357903600,4.954903564453125,-0.163970947265625,-1.050140380859375,-0.0026702880859375
1761378934367959800,4.964959716796875,-0.1738433837890625,-1.052032470703125,-0.0098114013671875
1761378934378015500,4.975015380859375,-0.183074951171875,-1.056304931640625,-0.0180816650390625
1761378934388071400,4.985071533203125,-0.1972503662109375,-1.0640411376953125,-0.0378570556640625
1761378934398127600,4.995127685546875,-0.2082977294921875,-1.055999755859375,-0.05426025390625
1761378934408182500,5.0051826171875,-0.21514892578125,-1.034637451171875,-0.0690765380859375
1761378934418238700,5.01523876953125,-0.230560302734375,-1.017547607421875,-0.0741424560546875
1761378934428294700,5.025294677734375,-0.24200439453125,-1.00830078125,-0.0689697265625
1761378934438350600,5.0353505859375,-0.24505615234375,-1.0054168701171875,-0.0581207275390625
1761378934448405800,5.04540576171875,-0.2453460693359375,-1.007415771484375,-0.045562744140625
1761378934458461400,5.05546142578125,-0.24725341796875,-1.00714111328125,-0.0293121337890625
1761378934468517600,5.065517578125,-0.2559967041015625,-0.9969329833984375,-0.0196533203125
1761378934478573600,5.075573486328125,-0.264862060546875,-0.998291015625,-0.0220184326171875
1761378934488629500,5.08562939453125,-0.269927978515625,-0.9962310791015625,-0.032012939453125
1761378934498684700,5.0956845703125,-0.2766265869140625,-0.9780731201171875,-0.04132080078125
1761378934508740600,5.10574072265625,-0.2734222412109375,-0.9489593505859375,-0.0570068359375
1761378934518796800,5.115796875,-0.274139404296875,-0.9135284423828125,-0.0724945068359375
1761378934528852700,5.125852783203125,-0.272308349609375,-0.88653564453125,-0.0731964111328125
1761378934538907600,5.13590771484375,-0.2618560791015625,-0.877105712890625,-0.06353759765625
1761378934548963600,5.145963623046875,-0.2561492919921875,-0.8828277587890625,-0.0469818115234375
1761378934559019500,5.15601953125,-0.2414093017578125,-0.8976287841796875,-0.020416259765625
1761378934569075700,5.16607568359375,-0.2147369384765625,-0.9088897705078125,0.0019073486328125
1761378934579130600,5.176130615234375,-0.185760498046875,-0.911712646484375,0.006134033203125
1761378934589186600,5.1861865234375,-0.1714019775390625,-0.90838623046875,0.009368896484375
1761378934599242800,5.19624267578125,-0.1690521240234375,-0.905120849609375,0.0123138427734375
1761378934609298700,5.206298583984375,-0.1684722900390625,-0.9036407470703125,0.012847900390625
1761378934619354600,5.216354736328125,-0.1767730712890625,-0.914215087890625,0.0124664306640625
1761378934629409500,5.226409423828125,-0.1787567138671875,-0.92779541015625,0.0160064697265625
1761378934639465500,5.236465576171875,-0.1842193603515625,-0.937286376953125,0.0134429931640625
1761378934649521700,5.246521728515625,-0.18463134765625,-0.9417572021484375,0.0146331787109375
1761378934659577600,5.25657763671875,-0.18011474609375,-0.9469146728515625,0.015777587890625
1761378934669632800,5.2666328125,-0.1800994873046875,-0.960113525390625,0.0099334716796875
1761378934679688700,5.276688720703125,-0.1819000244140625,-0.9670867919921875,0.00732421875
1761378934689744600,5.28674462890625,-0.1877593994140625,-0.9735870361328125,0.005889892578125
1761378934699800800,5.29680078125,-0.1903533935546875,-0.986480712890625,0.00836181640625
1761378934709856800,5.306856689453125,-0.1951751708984375,-0.9971771240234375,0.0138397216796875
1761378934719911700,5.31691162109375,-0.1998748779296875,-1.0008392333984375,0.0258636474609375
1761378934729967600,5.326967529296875,-0.1942138671875,-1.008544921875,0.0354766845703125
1761378934740023600,5.3370234375,-0.187347412109375,-1.0053863525390625,0.0347137451171875
1761378934750079700,5.347079833984375,-0.177337646484375,-0.9947662353515625,0.02838134765625
1761378934760134700,5.357134765625,-0.1673736572265625,-0.98114013671875,0.0136260986328125
1761378934770190600,5.367190673828125,-0.1617584228515625,-0.9711151123046875,0.003875732421875
1761378934780246800,5.377246826171875,-0.158721923828125,-0.95361328125,0.0025482177734375
1761378934790302500,5.387302490234375,-0.151031494140625,-0.9425811767578125,0.0064697265625
1761378934800358700,5.397358642578125,-0.1356048583984375,-0.9396209716796875,0.020172119140625
1761378934810413600,5.40741357421875,-0.1219635009765625,-0.9419097900390625,0.0356292724609375
1761378934820469500,5.417469482421875,-0.116546630859375,-0.9521331787109375,0.05267333984375
1761378934830525700,5.427525634765625,-0.11260986328125,-0.958160400390625,0.0637664794921875
1761378934840581600,5.43758154296875,-0.10980224609375,-0.956878662109375,0.063018798828125
1761378934850636300,5.44763623046875,-0.1095123291015625,-0.9593505859375,0.0550537109375
1761378934860692200,5.457692138671875,-0.1212615966796875,-0.964569091796875,0.0454254150390625
1761378934870748200,5.467748046875,-0.13079833984375,-0.9661407470703125,0.039581298828125
1761378934880804400,5.477804443359375,-0.1309814453125,-0.963592529296875,0.035125732421875
1761378934890860300,5.4878603515625,-0.128570556640625,-0.9554595947265625,0.0370635986328125
1761378934900915500,5.49791552734375,-0.11285400390625,-0.9564056396484375,0.0442657470703125
1761378934910971400,5.507971435546875,-0.0929107666015625,-0.962615966796875,0.0531768798828125
1761378934921027000,5.518027099609375,-0.069244384765625,-0.9682159423828125,0.0550537109375
1761378934931083300,5.528083251953125,-0.0507965087890625,-0.9727783203125,0.0502166748046875
1761378934941138200,5.53813818359375,-0.046539306640625,-0.9764556884765625,0.048065185546875
1761378934951194400,5.5481943359375,-0.0467376708984375,-0.9780426025390625,0.039398193359375
1761378934961250300,5.558250244140625,-0.058746337890625,-0.9889678955078125,0.0393829345703125
1761378934971306200,5.56830615234375,-0.0656280517578125,-0.999664306640625,0.041290283203125
1761378934981362400,5.578362548828125,-0.075225830078125,-1.0064544677734375,0.0403900146484375
1761378934991417300,5.588417236328125,-0.0789337158203125,-1.0162811279296875,0.04296875
1761378935001473300,5.598473388671875,-0.082000732421875,-1.02435302734375,0.0459747314453125
1761378935011529200,5.608529296875,-0.0783233642578125,-1.0273590087890625,0.045562744140625
1761378935021585200,5.618585205078125,-0.0776824951171875,-1.0272216796875,0.04656982421875
1761378935031641300,5.628641357421875,-0.0673370361328125,-1.0194549560546875,0.0487213134765625
1761378935041696300,5.6386962890625,-0.0543365478515625,-1.0226287841796875,0.04541015625
