time,seconds_elapsed,z,y,x
1761392298615296000,0.0702958984375,-1.023529052734375,-0.3171234130859375,0.048675537109375
1761392298625378000,0.0803779296875,-1.0163421630859375,-0.295379638671875,0.0232086181640625
1761392298635461000,0.090461181640625,-1.0009765625,-0.24969482421875,-0.008544921875
1761392298645543200,0.100543212890625,-1.02655029296875,-0.16064453125,-0.0783233642578125
1761392298655625200,0.110625244140625,-1.08697509765625,-0.190765380859375,-0.080413818359375
1761392298665707000,0.12070703125,-1.0280609130859375,-0.21026611328125,-0.0852508544921875
1761392298675790000,0.1307900390625,-0.982177734375,-0.2008209228515625,-0.114105224609375
1761392298685872000,0.1408720703125,-0.9517059326171875,-0.2235565185546875,-0.13482666015625
1761392298695954200,0.1509541015625,-0.8513031005859375,-0.2829437255859375,-0.1258697509765625
1761392298706036000,0.161035888671875,-0.791290283203125,-0.3426666259765625,-0.0968170166015625
1761392298716119000,0.171119140625,-0.7794189453125,-0.3498077392578125,-0.0289459228515625
1761392298726201000,0.181201171875,-0.784912109375,-0.31829833984375,-0.00140380859375
1761392298736283100,0.191283203125,-0.74951171875,-0.3014984130859375,-0.0095062255859375
1761392298746365200,0.201365234375,-0.6963348388671875,-0.2856292724609375,-0.0050811767578125
1761392298756448000,0.211447998046875,-0.65228271484375,-0.2820587158203125,0.01446533203125
1761392298766530000,0.221530029296875,-0.6004638671875,-0.291046142578125,0.044586181640625
1761392298776612000,0.231612060546875,-0.580108642578125,-0.2902984619140625,0.085479736328125
1761392298786694100,0.241694091796875,-0.546722412109375,-0.275146484375,0.1083984375
1761392298796777000,0.25177685546875,-0.430145263671875,-0.27056884765625,0.1282196044921875
1761392298806859000,0.26185888671875,-0.4988555908203125,-0.2888641357421875,0.163604736328125
1761392298816941000,0.271941162109375,-0.4605865478515625,-0.2851715087890625,0.139984130859375
1761392298827023000,0.282023193359375,-0.464111328125,-0.27996826171875,0.13690185546875
1761392298837106000,0.29210595703125,-0.515167236328125,-0.2644500732421875,0.14520263671875
1761392298847188700,0.302188720703125,-0.52288818359375,-0.2310638427734375,0.1112518310546875
1761392298857270800,0.312270751953125,-0.5703125,-0.210052490234375,0.079376220703125
1761392298867353900,0.322353759765625,-0.5745697021484375,-0.1893768310546875,0.038116455078125
1761392298877435600,0.332435546875,-0.5195770263671875,-0.1787109375,-0.0438995361328125
1761392298887517700,0.342517578125,-0.4611053466796875,-0.1862030029296875,-0.1273040771484375
1761392298897599700,0.352599853515625,-0.4420318603515625,-0.260345458984375,-0.1027374267578125
1761392298907682800,0.362682861328125,-0.4494781494140625,-0.3693084716796875,-0.0265045166015625
1761392298917764900,0.372764892578125,-0.4172210693359375,-0.413818359375,0.0207366943359375
1761392298927847000,0.382846923828125,-0.2608489990234375,-0.4017486572265625,0.00830078125
1761392298937929000,0.392928955078125,-0.0555267333984375,-0.400665283203125,0.0656280517578125
1761392298948011800,0.40301171875,-0.0792083740234375,-0.3646087646484375,0.064544677734375
1761392298958093800,0.41309375,-0.530670166015625,-0.139617919921875,-0.1537628173828125
1761392298968175900,0.42317578125,-0.811431884765625,0.1236419677734375,-0.34783935546875
1761392298978258000,0.4332578125,-0.6001129150390625,0.2719573974609375,-0.505462646484375
1761392298988340700,0.4433408203125,-0.4269866943359375,0.2736968994140625,-0.6010894775390625
1761392298998422800,0.4534228515625,-0.734710693359375,0.1885986328125,-0.651702880859375
1761392299008504800,0.4635048828125,-0.8025665283203125,0.10089111328125,-0.8624725341796875
1761392299018587000,0.4735869140625,-0.8155670166015625,0.0936431884765625,-0.8794097900390625
1761392299028670000,0.483669921875,-0.806365966796875,0.137176513671875,-0.923828125
1761392299038751700,0.493751708984375,-0.772186279296875,0.1341400146484375,-1.050537109375
1761392299048833800,0.503833740234375,-0.7877349853515625,0.07220458984375,-1.0948944091796875
1761392299058915800,0.513915771484375,-0.8741912841796875,-0.023895263671875,-1.1263427734375
1761392299068999000,0.5239990234375,-1.066558837890625,-0.1379241943359375,-1.1926727294921875
1761392299079080700,0.534080810546875,-1.2304534912109375,-0.2607574462890625,-1.25244140625
1761392299089162800,0.544162841796875,-1.250396728515625,-0.3407440185546875,-1.365264892578125
1761392299099244800,0.554244873046875,-1.1240386962890625,-0.330810546875,-1.4840545654296875
1761392299109328000,0.564327880859375,-1.019287109375,-0.292236328125,-1.5255126953125
1761392299119410000,0.574409912109375,-1.0160675048828125,-0.361328125,-1.5483856201171875
1761392299129491700,0.58449169921875,-0.9936676025390625,-0.511474609375,-1.5311737060546875
1761392299139574800,0.59457470703125,-1.03582763671875,-0.5976409912109375,-1.4935455322265625
1761392299149656800,0.60465673828125,-1.1121673583984375,-0.6396942138671875,-1.4518890380859375
1761392299159739000,0.61473876953125,-1.253570556640625,-0.7345123291015625,-1.46990966796875
1761392299169820700,0.624820556640625,-1.3906097412109375,-0.841766357421875,-1.534881591796875
1761392299179903700,0.63490380859375,-1.4388427734375,-0.8595733642578125,-1.5731353759765625
1761392299189985800,0.64498583984375,-1.43511962890625,-0.8191986083984375,-1.5778045654296875
1761392299200067800,0.65506787109375,-1.4792327880859375,-0.8409423828125,-1.5390472412109375
1761392299210150000,0.66514990234375,-1.55596923828125,-0.95953369140625,-1.4280242919921875
1761392299220232700,0.675232666015625,-1.575897216796875,-1.07623291015625,-1.27490234375
1761392299230314800,0.685314697265625,-1.529510498046875,-1.1265716552734375,-1.1251373291015625
1761392299240396800,0.695396728515625,-1.4337615966796875,-1.1243896484375,-0.9865264892578125
1761392299250478800,0.705478759765625,-1.320526123046875,-1.08746337890625,-0.870452880859375
1761392299260561700,0.715561767578125,-1.2407684326171875,-1.0661773681640625,-0.76715087890625
1761392299270643700,0.725643798828125,-1.268341064453125,-1.10296630859375,-0.6635284423828125
1761392299280725800,0.735725830078125,-1.2806243896484375,-1.177154541015625,-0.5248260498046875
1761392299290807800,0.745807861328125,-1.283477783203125,-1.2450103759765625,-0.4072113037109375
1761392299300890600,0.755890625,-1.3278656005859375,-1.27532958984375,-0.3041229248046875
1761392299310972700,0.76597265625,-1.427764892578125,-1.3122406005859375,-0.2038421630859375
1761392299321054700,0.7760546875,-1.4892730712890625,-1.3788604736328125,-0.089813232421875
1761392299331136800,0.78613671875,-1.5014495849609375,-1.3794708251953125,0.013519287109375
1761392299341219800,0.7962197265625,-1.4546661376953125,-1.4020233154296875,0.11236572265625
1761392299351302000,0.806302001953125,-1.5045166015625,-1.526702880859375,0.2354888916015625
1761392299361384000,0.816384033203125,-1.620697021484375,-1.6168670654296875,0.412750244140625
1761392299371466000,0.826466064453125,-1.7685699462890625,-1.6295623779296875,0.5333709716796875
1761392299381548800,0.836548828125,-1.88983154296875,-1.6172027587890625,0.571380615234375
1761392299391630800,0.846630859375,-1.9893951416015625,-1.6414642333984375,0.586273193359375
1761392299401713000,0.856712890625,-2.185089111328125,-1.6995086669921875,0.4624176025390625
1761392299411795000,0.866794921875,-2.5696563720703125,-1.755767822265625,0.2469329833984375
1761392299421877800,0.876877685546875,-2.9849395751953125,-1.74798583984375,0.003631591796875
1761392299431959800,0.886959716796875,-3.229156494140625,-1.55889892578125,-0.394500732421875
1761392299442041900,0.897041748046875,-3.28692626953125,-1.3336944580078125,-0.7977752685546875
1761392299452124000,0.9071240234375,-3.145721435546875,-1.09722900390625,-1.16888427734375
1761392299462206700,0.917206787109375,-2.991912841796875,-0.768341064453125,-1.3905181884765625
1761392299472288800,0.927288818359375,-2.8150177001953125,-0.3826141357421875,-1.5208740234375
1761392299482370800,0.937370849609375,-2.71295166015625,0.0144805908203125,-1.574676513671875
1761392299492454000,0.947453857421875,-2.585968017578125,0.336181640625,-1.5901336669921875
1761392299502536000,0.957535888671875,-2.5145263671875,0.5571441650390625,-1.6439208984375
1761392299512617700,0.96761767578125,-2.3990936279296875,0.767974853515625,-1.62396240234375
1761392299522699800,0.97769970703125,-2.1986541748046875,1.0655517578125,-1.68939208984375
1761392299532782800,0.987782958984375,-1.9083099365234375,1.340667724609375,-1.8486785888671875
1761392299542865000,0.997864990234375,-1.4695281982421875,1.5800933837890625,-1.8881683349609375
1761392299552946700,1.00794677734375,-0.9633636474609375,1.782470703125,-1.83990478515625
1761392299563028700,1.01802880859375,-0.347503662109375,1.924224853515625,-1.6644134521484375
1761392299573111800,1.02811181640625,0.2149810791015625,1.956573486328125,-1.3968353271484375
1761392299583193900,1.03819384765625,0.3109588623046875,1.8085479736328125,-1.2323455810546875
1761392299593276000,1.04827587890625,0.0406494140625,1.6623077392578125,-1.2083282470703125
1761392299603357700,1.058357666015625,-0.437957763671875,1.7190093994140625,-1.481475830078125
1761392299613440800,1.068440673828125,-0.87603759765625,2.0704498291015625,-2.086181640625
1761392299623522800,1.078522705078125,-1.172210693359375,2.4853363037109375,-2.6325836181640625
1761392299633604900,1.08860498046875,-1.2200927734375,2.727783203125,-2.9286041259765625
1761392299643686700,1.098686767578125,-1.1166534423828125,2.71527099609375,-2.896240234375
1761392299653769700,1.108769775390625,-0.888763427734375,2.557647705078125,-2.6917877197265625
1761392299663851800,1.118851806640625,-0.680755615234375,2.4095306396484375,-2.5368194580078125
1761392299673933800,1.128933837890625,-0.60406494140625,2.2634735107421875,-2.509735107421875
1761392299684015900,1.139015869140625,-0.621429443359375,2.2013397216796875,-2.6235504150390625
1761392299694098700,1.1490986328125,-0.76922607421875,2.2280731201171875,-2.8812713623046875
1761392299704180700,1.1591806640625,-1.0592193603515625,2.198486328125,-3.1215057373046875
1761392299714262800,1.1692626953125,-1.36248779296875,2.0587615966796875,-3.2660369873046875
1761392299724344800,1.1793447265625,-1.578094482421875,1.953216552734375,-3.3661041259765625
1761392299734427600,1.189427734375,-1.675262451171875,1.8441925048828125,-3.43304443359375
1761392299744509700,1.199509765625,-1.7841796875,1.7187652587890625,-3.5463409423828125
1761392299754591700,1.209591796875,-1.9959259033203125,1.591705322265625,-3.6980438232421875
1761392299764673800,1.219673828125,-2.2362823486328125,1.2764739990234375,-3.7902984619140625
1761392299774756900,1.2297568359375,-2.3799591064453125,0.89874267578125,-3.8221282958984375
1761392299784839000,1.2398388671875,-2.4921417236328125,0.6719818115234375,-3.8776702880859375
1761392299794921000,1.2499208984375,-2.7362518310546875,0.582183837890625,-3.93939208984375
1761392299805003800,1.260003662109375,-2.9569854736328125,0.50244140625,-3.903289794921875
1761392299815085800,1.2700859375,-3.08367919921875,0.29345703125,-3.7591705322265625
1761392299825168000,1.28016796875,-2.960052490234375,-0.0498199462890625,-3.4989776611328125
1761392299835250000,1.29025,-2.6749114990234375,-0.416168212890625,-3.327239990234375
1761392299845333000,1.3003330078125,-2.3405303955078125,-0.705047607421875,-3.24542236328125
1761392299855415000,1.3104150390625,-2.107757568359375,-0.8091583251953125,-3.1617279052734375
1761392299865497000,1.3204970703125,-2.1557464599609375,-0.901123046875,-3.04083251953125
1761392299875579100,1.3305791015625,-2.3766021728515625,-1.0279693603515625,-2.8271331787109375
1761392299885662000,1.340661865234375,-2.6681060791015625,-1.1323089599609375,-2.63360595703125
1761392299895744000,1.350743896484375,-2.836181640625,-1.315338134765625,-2.4777679443359375
1761392299905826000,1.360825927734375,-2.7945709228515625,-1.5802154541015625,-2.337249755859375
1761392299915908000,1.370908203125,-2.6959228515625,-1.9538421630859375,-2.0415191650390625
1761392299925991200,1.3809912109375,-2.77508544921875,-2.4535675048828125,-1.5250396728515625
1761392299936073000,1.391072998046875,-3.1616363525390625,-3.0242462158203125,-1.0095672607421875
1761392299946155000,1.401155029296875,-3.611572265625,-3.433837890625,-0.57891845703125
1761392299956237000,1.411237060546875,-3.9444732666015625,-3.698486328125,-0.28350830078125
1761392299966320000,1.421320068359375,-4.097686767578125,-3.80963134765625,-0.0456390380859375
1761392299976402000,1.43140185546875,-4.0156402587890625,-3.8287811279296875,0.0495758056640625
1761392299986484000,1.44148388671875,-3.797332763671875,-3.7205657958984375,-0.1021270751953125
1761392299996566000,1.45156591796875,-3.58203125,-3.4330902099609375,-0.412353515625
1761392300006649000,1.461649169921875,-3.47998046875,-3.13116455078125,-0.7470550537109375
1761392300016731100,1.471731201171875,-3.4430694580078125,-2.75030517578125,-1.116607666015625
1761392300026813000,1.48181298828125,-3.444580078125,-2.3283843994140625,-1.514007568359375
1761392300036895000,1.49189501953125,-3.4170074462890625,-1.9438018798828125,-1.8337249755859375
1761392300046978000,1.50197802734375,-3.4017333984375,-1.6216278076171875,-2.1510467529296875
1761392300057060000,1.51206005859375,-3.4773406982421875,-1.41259765625,-2.5325164794921875
1761392300067142000,1.522141845703125,-3.46319580078125,-1.146514892578125,-2.88916015625
1761392300077224000,1.532223876953125,-3.3493194580078125,-0.890960693359375,-3.27569580078125
1761392300087307000,1.54230712890625,-3.1446533203125,-0.7266693115234375,-3.63653564453125
1761392300097389000,1.55238916015625,-3.0255889892578125,-0.43505859375,-3.875244140625
1761392300107471000,1.56247119140625,-3.09173583984375,-0.094390869140625,-3.91326904296875
1761392300117553000,1.572552978515625,-3.2158203125,0.1943817138671875,-3.8690338134765625
1761392300127636200,1.58263623046875,-3.380706787109375,0.50152587890625,-3.825958251953125
1761392300137718300,1.59271826171875,-3.3938751220703125,0.8715057373046875,-3.7241668701171875
1761392300147800300,1.60280029296875,-3.2809600830078125,1.1609649658203125,-3.704437255859375
1761392300157881900,1.6128818359375,-3.11737060546875,1.37139892578125,-3.927825927734375
1761392300167965200,1.622965087890625,-2.5701751708984375,1.8011016845703125,-3.9953765869140625
1761392300178047200,1.633047119140625,-1.891326904296875,2.1355743408203125,-3.5693817138671875
1761392300188129300,1.64312939453125,-1.767852783203125,2.0385284423828125,-3.319732666015625
1761392300198211000,1.653211181640625,-2.029022216796875,2.4193878173828125,-3.644378662109375
1761392300208294100,1.663294189453125,-2.1310882568359375,3.1443634033203125,-3.9967498779296875
1761392300218376200,1.673376220703125,-1.86224365234375,3.97509765625,-4.0081939697265625
1761392300228458200,1.683458251953125,-1.404296875,4.5971832275390625,-3.3390350341796875
1761392300238540300,1.693540283203125,-1.10205078125,4.6379241943359375,-2.3367919921875
1761392300248623000,1.703623046875,-0.8405609130859375,4.3235015869140625,-1.6041259765625
1761392300258705200,1.713705078125,-0.63153076171875,4.178497314453125,-1.659149169921875
1761392300268787200,1.723787109375,-0.3332672119140625,4.1226348876953125,-2.139892578125
1761392300278869200,1.733869140625,-0.183197021484375,4.0239105224609375,-2.3692626953125
1761392300288952000,1.7439521484375,-0.2034912109375,3.64068603515625,-2.385284423828125
1761392300299034000,1.7540341796875,-0.3153076171875,3.08038330078125,-2.403472900390625
1761392300309116200,1.7641162109375,-0.5236053466796875,2.5941619873046875,-2.504852294921875
1761392300319198200,1.7741982421875,-0.7927703857421875,2.2897186279296875,-2.8304901123046875
1761392300329281000,1.784281005859375,-1.02960205078125,1.845458984375,-3.234771728515625
1761392300339363000,1.794363037109375,-1.3392181396484375,1.2662811279296875,-3.5800323486328125
1761392300349445000,1.804445068359375,-1.8606109619140625,0.701507568359375,-3.908721923828125
1761392300359528200,1.814528076171875,-2.4727325439453125,0.2682342529296875,-4.122528076171875
1761392300369610000,1.82460986328125,-3.102142333984375,-0.3199005126953125,-4.0333251953125
1761392300379692000,1.834692138671875,-3.56842041015625,-1.155029296875,-3.763519287109375
1761392300389774000,1.844774169921875,-3.8072967529296875,-2.018524169921875,-3.5814666748046875
1761392300399857200,1.854857177734375,-4.18572998046875,-2.891815185546875,-3.467620849609375
1761392300409939000,1.86493896484375,-4.6564483642578125,-3.9038848876953125,-3.2840118408203125
1761392300420021000,1.87502099609375,-5.09423828125,-4.9453887939453125,-3.0893707275390625
1761392300430103000,1.88510302734375,-5.1266021728515625,-6.04010009765625,-2.779083251953125
1761392300440186000,1.89518603515625,-4.45513916015625,-6.683013916015625,-1.901763916015625
1761392300450268000,1.905267822265625,-3.7801361083984375,-6.7369842529296875,-0.73876953125
1761392300460350000,1.915349853515625,-3.422027587890625,-6.5684814453125,0.47198486328125
1761392300470432000,1.925431884765625,-3.207122802734375,-6.2019500732421875,1.64190673828125
1761392300480515000,1.93551513671875,-2.8950347900390625,-6.0217437744140625,2.46337890625
1761392300490597000,1.94559716796875,-2.5778961181640625,-5.7713165283203125,2.450531005859375
1761392300500679000,1.955678955078125,-2.294219970703125,-5.27496337890625,1.7972412109375
1761392300510761000,1.965760986328125,-2.267852783203125,-4.774078369140625,0.9534759521484375
1761392300520843000,1.975843017578125,-2.579925537109375,-4.194488525390625,0.0617523193359375
1761392300530926000,1.985926025390625,-2.9568939208984375,-3.4762115478515625,-0.8334503173828125
1761392300541008000,1.9960078125,-3.4091339111328125,-2.666778564453125,-1.4780731201171875
1761392300551090000,2.00608984375,-3.8881378173828125,-1.9321746826171875,-1.849884033203125
1761392300561172000,2.016171875,-4.1121063232421875,-1.1441192626953125,-2.1716156005859375
1761392300571255300,2.02625537109375,-3.964752197265625,-0.34161376953125,-2.5056610107421875
1761392300581337000,2.036337158203125,-3.5962371826171875,0.3329010009765625,-2.8142547607421875
1761392300591419000,2.0464189453125,-3.135498046875,1.02227783203125,-3.2384490966796875
1761392300601501000,2.0565009765625,-2.557525634765625,1.7903289794921875,-3.60345458984375
1761392300611584300,2.066584228515625,-2.1550445556640625,1.8997955322265625,-3.518280029296875
1761392300621666300,2.076666259765625,-2.2193450927734375,1.5675201416015625,-3.6158294677734375
1761392300631748000,2.086748046875,-2.672119140625,2.016876220703125,-4.286651611328125
1761392300641830100,2.096830078125,-2.8350372314453125,2.6536102294921875,-5.08416748046875
1761392300651913200,2.106913330078125,-2.4981842041015625,3.220001220703125,-5.314422607421875
1761392300661995300,2.116995361328125,-2.0991363525390625,3.4944000244140625,-4.6682891845703125
1761392300672077000,2.1270771484375,-1.6398468017578125,3.5168304443359375,-4.029388427734375
1761392300682159000,2.1371591796875,-1.1388702392578125,3.7574615478515625,-3.783935546875
1761392300692242200,2.1472421875,-0.6779327392578125,4.0179290771484375,-3.440643310546875
1761392300702324200,2.15732421875,-0.50579833984375,3.9902496337890625,-3
1761392300712406300,2.16740625,-0.35504150390625,3.6767425537109375,-2.4936981201171875
1761392300722488000,2.177488037109375,-0.23602294921875,3.245880126953125,-1.9521331787109375
1761392300732571100,2.187571044921875,-0.1540985107421875,2.931854248046875,-1.59228515625
1761392300742653200,2.197653076171875,-0.1608734130859375,2.4909210205078125,-1.4451446533203125
1761392300752735200,2.2077353515625,-0.197479248046875,2.063385009765625,-1.6708526611328125
1761392300762817000,2.217817138671875,-0.2729949951171875,1.6289825439453125,-2.149261474609375
1761392300772900000,2.227900146484375,-0.4913482666015625,1.099334716796875,-2.7740325927734375
1761392300782982100,2.237982177734375,-0.8741607666015625,0.423858642578125,-3.3186492919921875
1761392300793064200,2.248064208984375,-1.56976318359375,-0.267730712890625,-3.628936767578125
1761392300803146200,2.258146240234375,-2.548431396484375,-1.0838775634765625,-3.808258056640625
1761392300813229000,2.26822900390625,-3.628326416015625,-2.154327392578125,-4.0674591064453125
1761392300823311000,2.27831103515625,-4.295074462890625,-3.2886962890625,-4.0162811279296875
1761392300833393200,2.28839306640625,-4.3140869140625,-4.3927001953125,-3.59375
1761392300843477800,2.298477783203125,-4.12841796875,-5.3232879638671875,-2.8090362548828125
1761392300853560600,2.308560546875,-4.361541748046875,-5.597747802734375,-1.6972503662109375
1761392300863642600,2.318642578125,-5.0950469970703125,-5.4838409423828125,-0.533721923828125
1761392300873724700,2.328724609375,-5.9365386962890625,-5.4919891357421875,0.37994384765625
1761392300883806700,2.338806640625,-5.82855224609375,-5.209197998046875,1.0808868408203125
1761392300893889800,2.348889892578125,-4.5902252197265625,-4.754364013671875,1.5093841552734375
1761392300903971600,2.3589716796875,-3.0216064453125,-4.3449554443359375,1.7016143798828125
1761392300914053600,2.3690537109375,-1.7692108154296875,-3.82794189453125,1.6969146728515625
1761392300924135700,2.3791357421875,-1.3718414306640625,-3.3804473876953125,1.489166259765625
1761392300934218800,2.38921875,-1.54766845703125,-2.7235565185546875,1.13043212890625
1761392300944300500,2.399300537109375,-1.84918212890625,-2.10821533203125,0.6810302734375
1761392300954382600,2.409382568359375,-2.07489013671875,-1.608001708984375,0.20587158203125
1761392300964464600,2.419464599609375,-2.2033233642578125,-1.26275634765625,-0.23052978515625
1761392300974547700,2.429547607421875,-2.311492919921875,-0.8884124755859375,-0.647369384765625
1761392300984629500,2.43962939453125,-2.3714599609375,-0.4642791748046875,-1.0653228759765625
1761392300994711600,2.449711669921875,-2.2429962158203125,-0.05303955078125,-1.4810333251953125
1761392301004793600,2.459793701171875,-2.0489959716796875,0.315643310546875,-1.7718658447265625
1761392301014876700,2.469876708984375,-1.774932861328125,0.6780853271484375,-1.9966583251953125
1761392301024958700,2.479958740234375,-1.700225830078125,1.2661895751953125,-2.248138427734375
1761392301035040500,2.49004052734375,-1.8181915283203125,1.760040283203125,-2.2568206787109375
1761392301045122600,2.50012255859375,-1.8169708251953125,1.499053955078125,-2.1868743896484375
1761392301055205600,2.51020556640625,-1.87188720703125,1.640106201171875,-2.5728912353515625
1761392301065287700,2.52028759765625,-1.6835174560546875,2.0867462158203125,-3.1361083984375
1761392301075369500,2.530369384765625,-1.512481689453125,2.4586029052734375,-3.783416748046875
1761392301085451500,2.540451416015625,-1.234344482421875,3.1456146240234375,-4.0715789794921875
1761392301095533600,2.550533447265625,-1.0555267333984375,3.3791046142578125,-3.752685546875
1761392301105616600,2.56061669921875,-1.058135986328125,3.22540283203125,-3.235992431640625
1761392301115698700,2.57069873046875,-0.905487060546875,3.0704498291015625,-2.9026641845703125
1761392301125780500,2.580780517578125,-0.7136077880859375,3.018463134765625,-2.7581634521484375
1761392301135863800,2.59086376953125,-0.5247344970703125,2.8850250244140625,-2.6387939453125
1761392301145945900,2.60094580078125,-0.3052825927734375,2.692230224609375,-2.56353759765625
1761392301156028000,2.61102783203125,-0.22259521484375,2.5372467041015625,-2.5379486083984375
1761392301166109400,2.621109375,-0.2859039306640625,2.31231689453125,-2.5352783203125
1761392301176191500,2.63119140625,-0.3652801513671875,1.923736572265625,-2.489654541015625
1761392301186274800,2.64127490234375,-0.462646484375,1.54986572265625,-2.4820098876953125
1761392301196356900,2.65135693359375,-0.8363800048828125,1.1745147705078125,-2.3967437744140625
1761392301206438700,2.661438720703125,-1.5917205810546875,0.6379547119140625,-2.3466033935546875
1761392301216520700,2.671520751953125,-2.480712890625,-0.03594970703125,-2.446502685546875
1761392301226603800,2.681603759765625,-3.3905792236328125,-0.67218017578125,-2.53680419921875
1761392301236685800,2.691685791015625,-4.3096923828125,-1.4296112060546875,-2.3822479248046875
1761392301246767900,2.701767822265625,-4.8630828857421875,-2.310089111328125,-1.952850341796875
1761392301256849700,2.711849609375,-4.9528656005859375,-3.287811279296875,-1.404876708984375
1761392301266932700,2.7219326171875,-4.808563232421875,-4.173797607421875,-0.62359619140625
1761392301277014800,2.732014892578125,-4.78314208984375,-4.7532958984375,0.201446533203125
1761392301287096800,2.742096923828125,-4.85455322265625,-4.9311676025390625,1.19793701171875
1761392301297178600,2.7521787109375,-4.8640289306640625,-4.9890594482421875,2.2175750732421875
1761392301307261700,2.76226171875,-4.688812255859375,-4.6107635498046875,2.6898345947265625
1761392301317343700,2.77234375,-4.3623504638671875,-3.9220123291015625,2.57586669921875
1761392301327425800,2.78242578125,-4.0009002685546875,-3.31744384765625,2.2528839111328125
1761392301337507800,2.7925078125,-3.477874755859375,-2.702239990234375,1.8460845947265625
1761392301347590700,2.802590576171875,-2.88800048828125,-2.1109771728515625,1.5055694580078125
1761392301357672700,2.812672607421875,-2.458099365234375,-1.727752685546875,1.177093505859375
1761392301367754800,2.822754638671875,-2.19482421875,-1.388824462890625,0.760467529296875
1761392301377836800,2.8328369140625,-1.9979248046875,-1.0049285888671875,0.3462677001953125
1761392301387918600,2.842918701171875,-1.771575927734375,-0.6371307373046875,-0.010711669921875
1761392301398001700,2.853001708984375,-1.632110595703125,-0.328643798828125,-0.2742767333984375
1761392301408083700,2.863083740234375,-1.6683502197265625,-0.1051177978515625,-0.4731903076171875
1761392301418165800,2.873165771484375,-1.828826904296875,0.075592041015625,-0.69073486328125
1761392301428247800,2.883247802734375,-1.9400787353515625,0.30169677734375,-0.9285888671875
1761392301438330600,2.89333056640625,-1.896575927734375,0.4998016357421875,-1.068450927734375
1761392301448412700,2.90341259765625,-1.80511474609375,0.560150146484375,-1.0390777587890625
1761392301458494700,2.91349462890625,-1.7289886474609375,0.61199951171875,-1.058135986328125
1761392301468576800,2.92357666015625,-1.6783599853515625,0.83856201171875,-1.2624969482421875
1761392301478659600,2.93365966796875,-1.664398193359375,1.1277008056640625,-1.556640625
1761392301488741600,2.94374169921875,-1.60101318359375,1.339813232421875,-1.9022674560546875
1761392301498823700,2.95382373046875,-1.5496673583984375,1.5567169189453125,-2.2388458251953125
1761392301508905700,2.96390576171875,-1.6485748291015625,1.7181396484375,-2.5325775146484375
1761392301518988500,2.973988525390625,-1.7927093505859375,1.8353118896484375,-2.8119659423828125
1761392301529070600,2.984070556640625,-1.9395904541015625,2.13031005859375,-3.059295654296875
1761392301539152600,2.994152587890625,-2.0295257568359375,2.4854888916015625,-3.2060699462890625
1761392301549234700,3.004234619140625,-2.041839599609375,2.741546630859375,-3.1211090087890625
1761392301559317500,3.0143173828125,-1.7947235107421875,2.6271209716796875,-2.669036865234375
1761392301569399600,3.024399658203125,-1.4574737548828125,2.212188720703125,-2.2112884521484375
1761392301579481600,3.034481689453125,-1.2460174560546875,1.871978759765625,-1.99639892578125
1761392301589563600,3.044563720703125,-1.130767822265625,1.6616363525390625,-1.8391876220703125
1761392301599645700,3.054645751953125,-1.0734100341796875,1.4813079833984375,-1.666168212890625
1761392301609728500,3.064728515625,-0.9969940185546875,1.285491943359375,-1.4637451171875
1761392301619810600,3.074810546875,-0.92498779296875,1.0301513671875,-1.3009796142578125
1761392301629892600,3.084892578125,-0.957763671875,0.79669189453125,-1.111480712890625
1761392301639974700,3.094974609375,-1.193267822265625,0.563323974609375,-0.8780670166015625
1761392301650057700,3.1050576171875,-1.5253143310546875,0.4317474365234375,-0.648223876953125
1761392301660139500,3.115139404296875,-1.8819732666015625,0.29058837890625,-0.375030517578125
1761392301670221600,3.1252216796875,-2.1751251220703125,-0.0780792236328125,0.0381011962890625
1761392301680303600,3.1353037109375,-2.2828826904296875,-0.5378570556640625,0.539886474609375
1761392301690386700,3.14538671875,-2.22479248046875,-1.0919952392578125,1.021026611328125
1761392301700468700,3.15546875,-2.26348876953125,-1.7239227294921875,1.461883544921875
1761392301710550800,3.16555078125,-2.3716278076171875,-2.3879547119140625,1.8723907470703125
1761392301720632800,3.1756328125,-2.7385711669921875,-2.9881591796875,2.2515869140625
1761392301730715600,3.185715576171875,-3.2418975830078125,-3.258636474609375,2.740509033203125
1761392301740797700,3.195797607421875,-3.4007415771484375,-3.1982421875,3.3587493896484375
1761392301750879700,3.205879638671875,-3.3907623291015625,-3.150726318359375,4.138885498046875
1761392301760961800,3.2159619140625,-3.3958282470703125,-2.9301300048828125,4.6639251708984375
1761392301771043800,3.2260439453125,-3.4195404052734375,-2.2191314697265625,4.7351226806640625
1761392301781126700,3.236126708984375,-3.7210235595703125,-1.40966796875,4.58203125
1761392301791208700,3.246208740234375,-4.102386474609375,-0.75640869140625,4.20135498046875
1761392301801290800,3.256290771484375,-4.315277099609375,-0.175933837890625,3.45526123046875
1761392301811372800,3.266372802734375,-4.4248504638671875,0.275299072265625,2.516204833984375
1761392301821455600,3.27645556640625,-4.34619140625,0.49029541015625,1.57220458984375
1761392301831537700,3.28653759765625,-3.88958740234375,0.4800872802734375,0.672760009765625
1761392301841619500,3.296619384765625,-3.252471923828125,0.456146240234375,-0.0968780517578125
1761392301851701500,3.306701416015625,-2.69744873046875,0.412567138671875,-0.6462860107421875
1761392301861783600,3.316783447265625,-2.2557373046875,0.448272705078125,-1.045562744140625
1761392301871866600,3.32686669921875,-1.928741455078125,0.64617919921875,-1.313140869140625
1761392301881948700,3.33694873046875,-1.6239013671875,0.7388763427734375,-1.398773193359375
1761392301892030500,3.347030517578125,-1.3156890869140625,0.7290191650390625,-1.5307464599609375
1761392301902112500,3.357112548828125,-1.1064300537109375,1.0279083251953125,-1.9583892822265625
1761392301912195600,3.367195556640625,-0.90435791015625,1.3679351806640625,-2.4362945556640625
1761392301922277600,3.377277587890625,-0.6433868408203125,1.52508544921875,-2.63238525390625
1761392301932359700,3.387359619140625,-0.4249114990234375,1.59735107421875,-2.4810791015625
1761392301942441700,3.397441650390625,-0.361572265625,1.6457977294921875,-2.2652435302734375
1761392301952524500,3.407524658203125,-0.4195709228515625,1.8665924072265625,-2.2382965087890625
1761392301962606600,3.417606689453125,-0.359130859375,2.053192138671875,-2.2520904541015625
1761392301972688600,3.427688720703125,-0.31036376953125,1.9696197509765625,-2.133636474609375
1761392301982770700,3.437770751953125,-0.327667236328125,1.8296661376953125,-2.1333160400390625
1761392301992853800,3.447853759765625,-0.3234405517578125,1.821258544921875,-2.28936767578125
1761392302002935600,3.457935546875,-0.31280517578125,1.7994537353515625,-2.379302978515625
1761392302013017600,3.468017578125,-0.5980987548828125,1.2394256591796875,-1.9790191650390625
1761392302023099600,3.478099609375,-1.3019866943359375,0.7122955322265625,-1.517364501953125
1761392302033182700,3.4881826171875,-1.9704437255859375,0.7076873779296875,-1.2930908203125
1761392302043264500,3.498264404296875,-2.51629638671875,0.7711944580078125,-0.964569091796875
1761392302053346600,3.5083466796875,-2.8642578125,0.5571746826171875,-0.514984130859375
1761392302063428600,3.5184287109375,-2.8564605712890625,0.27764892578125,-0.2316741943359375
1761392302073510700,3.5285107421875,-2.7618408203125,0.05706787109375,-0.1782073974609375
1761392302083593700,3.53859375,-2.6474151611328125,-0.1828460693359375,-0.3365020751953125
1761392302093675500,3.548675537109375,-2.524749755859375,-0.337615966796875,-0.4939727783203125
1761392302103757600,3.558757568359375,-2.405120849609375,-0.526824951171875,-0.5392303466796875
1761392302113839600,3.568839599609375,-2.2248992919921875,-0.725616455078125,-0.4936981201171875
1761392302123922700,3.578922607421875,-2.0157318115234375,-0.8050079345703125,-0.42230224609375
1761392302134004500,3.58900439453125,-1.8033447265625,-0.7846832275390625,-0.3078155517578125
1761392302144086500,3.59908642578125,-1.6384429931640625,-0.833038330078125,-0.0723419189453125
1761392302154168600,3.60916845703125,-1.660064697265625,-0.927032470703125,0.2835235595703125
1761392302164250600,3.619250732421875,-1.7155303955078125,-1.0439300537109375,0.603668212890625
1761392302174333700,3.629333740234375,-1.6103515625,-1.1112518310546875,0.894439697265625
1761392302184415500,3.63941552734375,-1.3751678466796875,-1.33941650390625,1.2956085205078125
1761392302194497500,3.64949755859375,-1.06585693359375,-1.88702392578125,1.845489501953125
1761392302204579600,3.65957958984375,-0.8941497802734375,-2.512054443359375,2.5516510009765625
1761392302214662700,3.66966259765625,-1.1316070556640625,-3.0997161865234375,3.3303985595703125
1761392302224744400,3.679744384765625,-1.7863922119140625,-3.36041259765625,3.80865478515625
1761392302234826500,3.689826416015625,-2.471588134765625,-3.0392303466796875,3.807373046875
1761392302244908500,3.699908447265625,-2.9463653564453125,-2.49578857421875,3.6024322509765625
1761392302254991600,3.70999169921875,-3.188446044921875,-1.9383544921875,3.3426361083984375
1761392302265073700,3.72007373046875,-3.161041259765625,-1.5178680419921875,3.1960296630859375
1761392302275155500,3.730155517578125,-2.9953155517578125,-1.2552337646484375,3.07171630859375
1761392302285237500,3.740237548828125,-2.841064453125,-0.9855499267578125,2.822296142578125
1761392302295319600,3.750319580078125,-2.6257171630859375,-0.65142822265625,2.324859619140625
1761392302305402600,3.760402587890625,-2.3453369140625,-0.3256072998046875,1.699462890625
1761392302315484400,3.770484375,-2.0801849365234375,-0.0602569580078125,1.084991455078125
1761392302325566500,3.78056640625,-1.815521240234375,0.1388092041015625,0.5389862060546875
1761392302335648500,3.7906484375,-1.5696868896484375,0.2782135009765625,0.08612060546875
1761392302345731600,3.800731689453125,-1.363128662109375,0.3791046142578125,-0.22454833984375
1761392302355813400,3.8108134765625,-1.2242889404296875,0.38214111328125,-0.37841796875
1761392302365895400,3.8208955078125,-1.094635009765625,0.3180694580078125,-0.459686279296875
1761392302375977500,3.8309775390625,-1.0394439697265625,0.322509765625,-0.596527099609375
1761392302386059500,3.8410595703125,-1.04620361328125,0.406494140625,-0.8512420654296875
1761392302396142600,3.851142578125,-1.0395355224609375,0.54888916015625,-1.22283935546875
1761392302406224400,3.861224365234375,-1.0630645751953125,0.834991455078125,-1.7485504150390625
1761392302416306400,3.871306396484375,-1.1481170654296875,1.2261810302734375,-2.152587890625
1761392302426388500,3.881388427734375,-1.4896087646484375,1.415618896484375,-2.501983642578125
1761392302436471800,3.891471923828125,-2.0520782470703125,1.495513916015625,-2.984771728515625
1761392302446553600,3.9015537109375,-2.4267120361328125,1.6639404296875,-3.483673095703125
1761392302456635400,3.911635498046875,-2.464385986328125,1.9320831298828125,-3.6311187744140625
1761392302466717400,3.921717529296875,-2.3612060546875,2.0554351806640625,-3.2659759521484375
1761392302476800800,3.93180078125,-1.975006103515625,1.78900146484375,-2.4822845458984375
1761392302486882600,3.941882568359375,-1.487152099609375,1.3551483154296875,-1.7456512451171875
1761392302496964600,3.951964599609375,-1.105010986328125,0.892913818359375,-1.2181396484375
1761392302507046700,3.962046630859375,-0.7859954833984375,0.528961181640625,-0.9479217529296875
1761392302517128700,3.972128662109375,-0.6183319091796875,0.37139892578125,-0.9557037353515625
1761392302527211800,3.982211669921875,-0.6317596435546875,0.365753173828125,-1.0520782470703125
1761392302537293600,3.99229345703125,-0.7758636474609375,0.308441162109375,-1.0817718505859375
1761392302547374600,4.00237451171875,-1.0435028076171875,0.226318359375,-0.95257568359375
1761392302557457700,4.012457763671875,-1.3053131103515625,0.2120208740234375,-0.7589874267578125
1761392302567539700,4.022539794921875,-1.468231201171875,0.1734466552734375,-0.5085906982421875
1761392302577621800,4.032621826171875,-1.5951690673828125,-0.0534210205078125,-0.162322998046875
1761392302587703800,4.042703857421875,-1.6151580810546875,-0.3583221435546875,0.08941650390625
1761392302597785600,4.05278564453125,-1.6445770263671875,-0.57708740234375,0.1534423828125
1761392302607868700,4.06286865234375,-1.7116851806640625,-0.734527587890625,0.1188812255859375
1761392302617950700,4.07295068359375,-1.6721038818359375,-0.8247222900390625,0.061920166015625
1761392302628032800,4.08303271484375,-1.579559326171875,-1.0566864013671875,0.1662139892578125
1761392302638114800,4.09311474609375,-1.5699615478515625,-1.5125579833984375,0.587982177734375
1761392302648197600,4.10319775390625,-1.800567626953125,-1.9901580810546875,1.228271484375
1761392302658279700,4.11327978515625,-2.333160400390625,-2.1401214599609375,1.8568878173828125
1761392302668361700,4.12336181640625,-2.9232330322265625,-2.0821075439453125,2.3252716064453125
1761392302678443800,4.13344384765625,-3.4462738037109375,-2.0140838623046875,2.7691192626953125
1761392302688525600,4.143525634765625,-3.8319091796875,-1.7298431396484375,3.0704193115234375
1761392302698608600,4.153608642578125,-3.9757080078125,-1.2831878662109375,3.255828857421875
1761392302708690700,4.163690673828125,-4.02838134765625,-0.904632568359375,3.4243927001953125
1761392302718772700,4.173772705078125,-3.8892822265625,-0.693695068359375,3.5776519775390625
1761392302728854800,4.183854736328125,-3.5412445068359375,-0.683074951171875,3.562042236328125
1761392302738937600,4.1939375,-3.083465576171875,-0.7351226806640625,3.268341064453125
1761392302749019600,4.20401953125,-2.5994110107421875,-0.729949951171875,2.7784423828125
1761392302759101700,4.214101806640625,-2.19415283203125,-0.670806884765625,2.20062255859375
1761392302769183700,4.224183837890625,-1.8273773193359375,-0.5627899169921875,1.5160369873046875
1761392302779265500,4.234265625,-1.485443115234375,-0.40093994140625,0.8254852294921875
1761392302789348600,4.2443486328125,-1.241973876953125,-0.2003936767578125,0.253082275390625
1761392302799430700,4.2544306640625,-1.0909423828125,-0.0113983154296875,-0.1473541259765625
1761392302809512700,4.2645126953125,-1.0341949462890625,0.165557861328125,-0.3807220458984375
1761392302819594500,4.274594482421875,-1.0505523681640625,0.3692474365234375,-0.5962066650390625
1761392302829677600,4.284677490234375,-1.1270904541015625,0.6292724609375,-0.772186279296875
1761392302839759600,4.294759521484375,-1.144195556640625,0.8125152587890625,-0.9582061767578125
1761392302849837800,4.304837890625,-0.9761962890625,1.087493896484375,-1.2122650146484375
1761392302859920000,4.314919921875,-0.767303466796875,1.3951263427734375,-1.3332672119140625
1761392302870002000,4.325001953125,-0.8911590576171875,1.5909881591796875,-1.5048675537109375
1761392302880084700,4.335084716796875,-1.32391357421875,1.9672393798828125,-2.04425048828125
1761392302890166800,4.345166748046875,-1.763214111328125,2.4618377685546875,-2.8015899658203125
1761392302900248800,4.355248779296875,-2.0737152099609375,2.6038360595703125,-3.3627471923828125
1761392302910331000,4.365330810546875,-2.297821044921875,2.83935546875,-3.7797393798828125
1761392302920413700,4.37541357421875,-2.2602996826171875,3.2822265625,-3.6187286376953125
1761392302930495700,4.385495849609375,-2.027008056640625,2.8956146240234375,-2.67132568359375
1761392302940577800,4.395577880859375,-1.7593994140625,2.1486663818359375,-1.832000732421875
1761392302950659800,4.405659912109375,-1.4901123046875,1.6847991943359375,-1.4665679931640625
1761392302960743000,4.415742919921875,-1.4267730712890625,1.3509063720703125,-1.34423828125
1761392302970825000,4.425824951171875,-1.520904541015625,1.04046630859375,-1.3728179931640625
1761392302980906800,4.43590673828125,-1.6934661865234375,0.7603759765625,-1.3951568603515625
1761392302990988800,4.44598876953125,-1.8352508544921875,0.512908935546875,-1.3715667724609375
1761392303001070800,4.45607080078125,-1.7688140869140625,0.210052490234375,-1.25347900390625
1761392303011154000,4.46615380859375,-1.6823577880859375,-0.2584686279296875,-0.903717041015625
1761392303021236000,4.476236083984375,-1.4875030517578125,-0.7274627685546875,-0.604766845703125
1761392303031318000,4.486318115234375,-1.394195556640625,-0.82501220703125,-0.3211517333984375
1761392303041400000,4.496400146484375,-1.6969451904296875,-0.93499755859375,-0.0219573974609375
1761392303051483000,4.50648291015625,-1.7949066162109375,-1.05810546875,0.11419677734375
1761392303061565000,4.51656494140625,-1.8618316650390625,-1.2732086181640625,0.22564697265625
1761392303071647000,4.52664697265625,-1.98211669921875,-1.859466552734375,0.668487548828125
1761392303081729000,4.53672900390625,-2.26971435546875,-2.4244232177734375,1.3128662109375
1761392303091810800,4.546810791015625,-2.6379241943359375,-2.5810546875,2.0831146240234375
1761392303101894000,4.556893798828125,-3.0771636962890625,-2.4697723388671875,2.9178314208984375
1761392303111976000,4.566975830078125,-3.596405029296875,-2.382080078125,3.52203369140625
1761392303122058000,4.57705810546875,-3.9470367431640625,-2.1486663818359375,3.701171875
1761392303132140000,4.58714013671875,-3.9940338134765625,-1.726837158203125,3.6218719482421875
1761392303142222800,4.597222900390625,-3.732452392578125,-1.5274200439453125,3.5134735107421875
1761392303152305000,4.607304931640625,-3.27691650390625,-1.3895263671875,3.336822509765625
1761392303162387000,4.617386962890625,-2.7281036376953125,-1.175323486328125,3.0429534912109375
1761392303172469000,4.627468994140625,-2.1778717041015625,-1.0398101806640625,2.7052001953125
1761392303182551800,4.6375517578125,-1.6740264892578125,-0.8687744140625,2.28778076171875
1761392303192633900,4.6476337890625,-1.3448638916015625,-0.6346282958984375,1.8038787841796875
1761392303202716000,4.6577158203125,-1.2126312255859375,-0.420440673828125,1.3210296630859375
1761392303212798700,4.667798828125,-1.1629638671875,-0.20269775390625,0.8644561767578125
1761392303222880800,4.677880859375,-1.1441497802734375,-0.031768798828125,0.4780426025390625
1761392303232962800,4.687962890625,-1.2029876708984375,0.0682830810546875,0.1194000244140625
1761392303243044900,4.698044921875,-1.296478271484375,0.14599609375,-0.215972900390625
1761392303253128000,4.7081279296875,-1.329498291015625,0.21453857421875,-0.5179595947265625
1761392303263209700,4.718209716796875,-1.405609130859375,0.2839508056640625,-0.767913818359375
1761392303273291800,4.728291748046875,-1.59979248046875,0.395965576171875,-1.043121337890625
1761392303283373800,4.738373779296875,-1.7307586669921875,0.6844940185546875,-1.386627197265625
1761392303293456000,4.748455810546875,-1.8253936767578125,0.9581298828125,-1.835845947265625
1761392303303538700,4.75853857421875,-2.3918914794921875,1.53790283203125,-2.6461334228515625
1761392303313620700,4.768620849609375,-2.9117584228515625,2.1091461181640625,-3.3659515380859375
1761392303323702800,4.778702880859375,-2.994476318359375,1.9856414794921875,-3.948760986328125
1761392303333784800,4.788784912109375,-2.697906494140625,2.2821197509765625,-4.47393798828125
1761392303343868000,4.798867919921875,-2.072967529296875,2.5620574951171875,-4.1351776123046875
1761392303353949700,4.80894970703125,-1.49700927734375,2.045867919921875,-3.0833282470703125
1761392303364031700,4.81903173828125,-1.08563232421875,1.55535888671875,-2.2681121826171875
1761392303374113800,4.82911376953125,-0.8558349609375,1.2451629638671875,-1.822479248046875
1761392303384196900,4.83919677734375,-0.7487030029296875,0.9677581787109375,-1.5845947265625
1761392303394278700,4.849278564453125,-0.69287109375,0.7474365234375,-1.449554443359375
1761392303404360700,4.859360595703125,-0.73577880859375,0.5779876708984375,-1.346832275390625
1761392303414442800,4.86944287109375,-0.8110809326171875,0.4005279541015625,-1.1709747314453125
1761392303424524800,4.87952490234375,-0.882904052734375,0.185211181640625,-0.9909210205078125
1761392303434607900,4.88960791015625,-0.916229248046875,-0.063507080078125,-0.81195068359375
1761392303444689700,4.899689697265625,-0.7938079833984375,-0.254058837890625,-0.6343994140625
1761392303454771700,4.909771728515625,-0.90008544921875,-0.37017822265625,-0.402191162109375
1761392303464853800,4.919853759765625,-1.0714569091796875,-0.5823516845703125,-0.14630126953125
1761392303474937000,4.92993701171875,-1.392669677734375,-0.7054290771484375,0.03607177734375
1761392303485018600,4.9400185546875,-1.69683837890625,-0.6942291259765625,0.236328125
1761392303495100700,4.9501005859375,-1.7514495849609375,-1.044586181640625,0.443267822265625
1761392303505182700,4.9601826171875,-1.8371429443359375,-1.6747589111328125,0.9235382080078125
1761392303515264800,4.9702646484375,-2.0279083251953125,-2.4812774658203125,1.66259765625
1761392303525347800,4.980347900390625,-2.5858001708984375,-3.0177154541015625,2.4344940185546875
1761392303535430000,4.990429931640625,-3.5122528076171875,-3.069580078125,2.9425506591796875
1761392303545512000,5.000511962890625,-4.304229736328125,-2.96978759765625,3.061981201171875
1761392303555593700,5.01059375,-4.580413818359375,-2.7382965087890625,2.932220458984375
1761392303565676800,5.0206767578125,-4.3612823486328125,-2.5702972412109375,2.873992919921875
1761392303575758800,5.0307587890625,-3.7851409912109375,-2.364959716796875,2.86419677734375
1761392303585841000,5.0408408203125,-3.1496124267578125,-1.9268341064453125,2.796905517578125
1761392303595923000,5.0509228515625,-2.650238037109375,-1.418304443359375,2.63134765625
1761392303606005000,5.0610048828125,-2.178314208984375,-0.912384033203125,2.340087890625
1761392303616087800,5.071087890625,-1.827667236328125,-0.498687744140625,1.988494873046875
1761392303626169900,5.081169921875,-1.6801605224609375,-0.2269744873046875,1.597198486328125
1761392303636252000,5.091251953125,-1.629791259765625,-0.0043487548828125,1.1509552001953125
1761392303646334000,5.101333984375,-1.607421875,0.1920166015625,0.7083892822265625
1761392303656416000,5.111416015625,-1.587921142578125,0.336700439453125,0.2979278564453125
1761392303666498800,5.121498779296875,-1.62115478515625,0.4260406494140625,-0.085784912109375
1761392303676580900,5.131580810546875,-1.6009979248046875,0.4573974609375,-0.4234466552734375
1761392303686663000,5.141662841796875,-1.544281005859375,0.40179443359375,-0.64703369140625
1761392303696745000,5.151744873046875,-1.4967041015625,0.3613739013671875,-0.818572998046875
1761392303706827800,5.161827880859375,-1.305084228515625,0.7705078125,-1.1931915283203125
1761392303716909800,5.171909912109375,-1.1719818115234375,1.331207275390625,-1.747802734375
1761392303726992000,5.181991943359375,-1.6881866455078125,1.611328125,-2.409210205078125
1761392303737074000,5.192073974609375,-2.7636566162109375,2.041107177734375,-3.0424346923828125
1761392303747156700,5.20215673828125,-3.2816314697265625,2.159210205078125,-3.78167724609375
1761392303757238800,5.21223876953125,-3.349212646484375,1.965484619140625,-4.71356201171875
1761392303767320800,5.22232080078125,-2.87139892578125,2.493865966796875,-5.1083221435546875
1761392303777403000,5.23240283203125,-2.3956451416015625,2.3169097900390625,-4.1147003173828125
1761392303787485000,5.24248486328125,-2.0022735595703125,1.618499755859375,-2.7064056396484375
1761392303797567700,5.252567626953125,-1.660552978515625,1.17083740234375,-1.9263458251953125
1761392303807649800,5.26264990234375,-1.4838714599609375,0.849029541015625,-1.514862060546875
1761392303817731800,5.27273193359375,-1.300506591796875,0.5661468505859375,-1.2974090576171875
1761392303827814000,5.28281396484375,-1.1609954833984375,0.4013671875,-1.2454376220703125
1761392303837896700,5.292896728515625,-1.2060089111328125,0.252716064453125,-1.20648193359375
1761392303847979500,5.3029794921875,-1.2452850341796875,0.0775146484375,-1.1676025390625
1761392303858061300,5.313061279296875,-1.2785491943359375,-0.0234527587890625,-1.0533294677734375
1761392303868143400,5.323143310546875,-1.29852294921875,-0.2666015625,-0.77960205078125
1761392303878225400,5.333225341796875,-1.3481903076171875,-0.5323333740234375,-0.436004638671875
1761392303888308500,5.34330859375,-1.4335784912109375,-0.6916656494140625,-0.07427978515625
1761392303898390500,5.353390625,-1.554840087890625,-0.9527587890625,0.3003387451171875
1761392303908472600,5.36347265625,-1.7494049072265625,-1.138580322265625,0.5647430419921875
1761392303918554600,5.3735546875,-1.879730224609375,-1.393035888671875,0.72625732421875
1761392303928637400,5.383637451171875,-1.9964141845703125,-1.8515625,0.975341796875
1761392303938719500,5.393719482421875,-2.1493377685546875,-2.41790771484375,1.3758697509765625
1761392303948801500,5.403801513671875,-2.3411102294921875,-2.9139556884765625,1.8802337646484375
1761392303958883600,5.413883544921875,-2.509918212890625,-3.25286865234375,2.4562225341796875
1761392303968965600,5.423965576171875,-2.6110076904296875,-3.5067596435546875,2.90869140625
1761392303979048400,5.43404833984375,-2.7060699462890625,-3.6612396240234375,3.1170654296875
1761392303989130500,5.444130615234375,-2.81072998046875,-3.415863037109375,3.0565948486328125
1761392303999212500,5.454212646484375,-2.859527587890625,-2.7292938232421875,2.7838134765625
1761392304009294600,5.464294677734375,-2.7955169677734375,-1.998138427734375,2.516632080078125
1761392304019376600,5.474376708984375,-2.691375732421875,-1.4489898681640625,2.2777862548828125
1761392304029459500,5.48445947265625,-2.50152587890625,-1.0447540283203125,2.0337371826171875
1761392304039541500,5.49454150390625,-2.2614288330078125,-0.8086395263671875,1.6725921630859375
1761392304049623600,5.50462353515625,-1.977783203125,-0.58251953125,1.19610595703125
1761392304059705600,5.51470556640625,-1.7083587646484375,-0.359375,0.7076873779296875
1761392304069788400,5.524788330078125,-1.4479827880859375,-0.20843505859375,0.2699432373046875
1761392304079870500,5.534870361328125,-1.2399444580078125,-0.1176910400390625,-0.0792236328125
1761392304089952500,5.544952392578125,-1.0724029541015625,-0.023162841796875,-0.3876190185546875
1761392304100034600,5.55503466796875,-0.89678955078125,0.09393310546875,-0.627899169921875
1761392304110116600,5.56511669921875,-0.75048828125,0.138336181640625,-0.6492919921875
1761392304120199400,5.575199462890625,-0.7129974365234375,0.1097259521484375,-0.5650482177734375
1761392304130281500,5.585281494140625,-0.753936767578125,0.1517791748046875,-0.5930023193359375
1761392304140363500,5.595363525390625,-0.8356781005859375,0.3921966552734375,-0.8055419921875
1761392304150445600,5.605445556640625,-1.0627288818359375,0.7465972900390625,-1.1437835693359375
1761392304160528400,5.6155283203125,-1.3150177001953125,1.076416015625,-1.4748992919921875
1761392304170610400,5.6256103515625,-1.6638946533203125,1.3766326904296875,-1.984588623046875
1761392304180692500,5.6356923828125,-2.159759521484375,1.6539764404296875,-2.49859619140625
1761392304190774500,5.6457744140625,-2.3801727294921875,1.562774658203125,-2.91265869140625
1761392304200856300,5.655856201171875,-2.3646697998046875,1.4809112548828125,-3.2552490234375
1761392304210939400,5.665939453125,-2.243804931640625,1.61248779296875,-3.4234466552734375
1761392304221021400,5.676021484375,-2.132171630859375,1.4061279296875,-3.09759521484375
1761392304231103500,5.686103515625,-2.0240325927734375,1.0593109130859375,-2.46868896484375
1761392304241185500,5.696185546875,-1.890411376953125,0.7236480712890625,-1.93548583984375
1761392304251268400,5.706268310546875,-1.69219970703125,0.464691162109375,-1.5873870849609375
1761392304261350400,5.716350341796875,-1.4481658935546875,0.2726593017578125,-1.2525177001953125
1761392304271432400,5.726432373046875,-1.2349853515625,0.02325439453125,-0.8944549560546875
1761392304281514500,5.736514404296875,-1.0577392578125,-0.2363739013671875,-0.55401611328125
1761392304291596300,5.74659619140625,-0.960479736328125,-0.55279541015625,-0.2473297119140625
1761392304301679400,5.756679443359375,-0.88836669921875,-0.9771881103515625,0.0461578369140625
1761392304311761400,5.766761474609375,-0.805389404296875,-1.441619873046875,0.35809326171875
1761392304321843500,5.776843505859375,-0.8306427001953125,-1.816070556640625,0.6534423828125
1761392304331925500,5.786925537109375,-1.1426849365234375,-1.756561279296875,0.9040069580078125
1761392304342008300,5.79700830078125,-1.383697509765625,-1.5347747802734375,1.009735107421875
1761392304352090400,5.80709033203125,-1.531463623046875,-1.605712890625,1.2105712890625
1761392304362172400,5.81717236328125,-1.9413299560546875,-1.61328125,1.3259735107421875
1761392304372254500,5.82725439453125,-2.15753173828125,-1.4376983642578125,1.3447265625
1761392304382336300,5.837336181640625,-2.2335205078125,-1.24468994140625,1.155426025390625
1761392304392419300,5.84741943359375,-2.3835906982421875,-1.113006591796875,0.9535675048828125
1761392304402501400,5.85750146484375,-2.0277252197265625,-0.86810302734375,0.833160400390625
1761392304412583400,5.86758349609375,-1.9158782958984375,-0.6415252685546875,0.69805908203125
1761392304422665500,5.87766552734375,-1.7589874267578125,-0.6050567626953125,0.6042633056640625
1761392304432747300,5.887747314453125,-1.6025543212890625,-0.59881591796875,0.5517120361328125
1761392304442830300,5.897830322265625,-1.5030517578125,-0.5384979248046875,0.39752197265625
1761392304452912400,5.907912353515625,-1.512542724609375,-0.4573974609375,0.147918701171875
1761392304462994400,5.917994384765625,-1.5862579345703125,-0.266448974609375,-0.119049072265625
1761392304473076200,5.928076171875,-1.64495849609375,0.025054931640625,-0.311004638671875
1761392304483159600,5.93815966796875,-1.625244140625,0.153961181640625,-0.325897216796875
1761392304493241300,5.948241455078125,-1.4924774169921875,0.0187530517578125,-0.1795501708984375
1761392304503323400,5.958323486328125,-1.4173583984375,-0.080810546875,-0.095672607421875
1761392304513405400,5.968405517578125,-1.390289306640625,-0.1238250732421875,-0.1487274169921875
1761392304523487200,5.9784873046875,-1.2807159423828125,0.00396728515625,-0.147857666015625
1761392304533570600,5.988570556640625,-1.194122314453125,0.3297119140625,-0.149169921875
1761392304543652600,5.998652587890625,-1.092803955078125,0.37506103515625,-0.1815338134765625
1761392304553734700,6.008734619140625,-1.023345947265625,0.262969970703125,-0.25250244140625
1761392304563816200,6.018816162109375,-0.958038330078125,0.2231903076171875,-0.2662506103515625
1761392304573899500,6.0288994140625,-0.8429718017578125,0.154205322265625,-0.2371368408203125
1761392304583981600,6.038981689453125,-0.7019195556640625,0.1061248779296875,-0.2191619873046875
1761392304594063600,6.049063720703125,-0.624420166015625,0.0872650146484375,-0.2335205078125
1761392304604145400,6.0591455078125,-0.54840087890625,0.0370941162109375,-0.2708892822265625
1761392304614227500,6.0692275390625,-0.5407257080078125,-0.034637451171875,-0.2939453125
1761392304624310500,6.079310546875,-0.528594970703125,-0.0742340087890625,-0.289276123046875
1761392304634392600,6.089392578125,-0.56646728515625,-0.074981689453125,-0.2732391357421875
1761392304644474600,6.099474609375,-0.890472412109375,-0.0113525390625,-0.3086395263671875
1761392304654556400,6.109556396484375,-1.1079254150390625,0.049285888671875,-0.3191070556640625
1761392304664639500,6.119639404296875,-0.9741058349609375,0.0771331787109375,-0.2795867919921875
1761392304674721500,6.129721435546875,-0.96026611328125,0.0816192626953125,-0.2087554931640625
1761392304684803600,6.139803466796875,-0.9658660888671875,0.040985107421875,-0.173065185546875
1761392304694885400,6.149885498046875,-0.99993896484375,0.0096282958984375,-0.2196044921875
1761392304704967400,6.159967529296875,-1.0427398681640625,0.03057861328125,-0.2979583740234375
1761392304715050500,6.170050537109375,-1.042510986328125,0.0914306640625,-0.3721160888671875
1761392304725132500,6.180132568359375,-1.03070068359375,0.1549835205078125,-0.397552490234375
1761392304735214600,6.190214599609375,-1.03155517578125,0.1898956298828125,-0.3520050048828125
1761392304745296400,6.20029638671875,-1.008575439453125,0.2024078369140625,-0.288330078125
1761392304755378400,6.21037841796875,-0.9445037841796875,0.1913299560546875,-0.273162841796875
1761392304765461500,6.22046142578125,-0.8758392333984375,0.1620941162109375,-0.29302978515625
1761392304775543600,6.23054345703125,-0.862396240234375,0.12591552734375,-0.2980194091796875
1761392304785625300,6.240625244140625,-0.8496551513671875,0.088470458984375,-0.2760467529296875
1761392304795707400,6.250707275390625,-0.841156005859375,0.037353515625,-0.243621826171875
1761392304805790500,6.26079052734375,-0.8123779296875,-0.021636962890625,-0.20367431640625
1761392304815872500,6.27087255859375,-0.8032684326171875,-0.07208251953125,-0.1695556640625
1761392304825954600,6.28095458984375,-0.8809814453125,-0.0783233642578125,-0.1457366943359375
1761392304836036400,6.291036376953125,-0.9438934326171875,-0.0680084228515625,-0.1224212646484375
1761392304846117600,6.30111767578125,-0.9546966552734375,-0.06866455078125,-0.08990478515625
1761392304856200700,6.31120068359375,-0.9712982177734375,-0.07672119140625,-0.0713653564453125
1761392304866282800,6.32128271484375,-0.9743804931640625,-0.1048126220703125,-0.0746917724609375
1761392304876364800,6.33136474609375,-0.9508056640625,-0.1503448486328125,-0.0750732421875
1761392304886446600,6.341446533203125,-0.947021484375,-0.17352294921875,-0.0755462646484375
1761392304896528600,6.351528564453125,-0.96893310546875,-0.1493988037109375,-0.095794677734375
1761392304906611700,6.36161181640625,-0.97021484375,-0.106658935546875,-0.132965087890625
1761392304916693800,6.37169384765625,-0.9464263916015625,-0.0926513671875,-0.154815673828125
1761392304926775800,6.38177587890625,-0.9514923095703125,-0.10009765625,-0.1622161865234375
1761392304936857600,6.391857666015625,-0.9828033447265625,-0.098175048828125,-0.1563873291015625
1761392304946940700,6.401940673828125,-1.0062713623046875,-0.0936279296875,-0.1402740478515625
1761392304957022700,6.412022705078125,-0.970703125,-0.1066131591796875,-0.12640380859375
1761392304967104800,6.422104736328125,-0.92431640625,-0.1233367919921875,-0.1158599853515625
1761392304977186600,6.4321865234375,-0.9382476806640625,-0.1292877197265625,-0.0972900390625
1761392304987268600,6.4422685546875,-0.979400634765625,-0.1222991943359375,-0.0623931884765625
1761392304997351700,6.4523515625,-1.0203094482421875,-0.109344482421875,-0.0287933349609375
1761392305007433700,6.462433837890625,-1.0341644287109375,-0.09814453125,0.0039215087890625
1761392305017515800,6.472515869140625,-1.023101806640625,-0.095703125,0.0150604248046875
1761392305027597600,6.48259765625,-1.026275634765625,-0.102813720703125,-0.000762939453125
1761392305037679600,6.4926796875,-1.0444488525390625,-0.1008453369140625,-0.0348663330078125
1761392305047762700,6.5027626953125,-1.0513763427734375,-0.075653076171875,-0.0487823486328125
1761392305057844700,6.5128447265625,-1.0535125732421875,-0.067657470703125,-0.04193115234375
1761392305067926500,6.522926513671875,-1.0304107666015625,-0.0917510986328125,-0.0209197998046875
1761392305078008600,6.533008544921875,-1.013275146484375,-0.1190338134765625,0.0169830322265625
1761392305088091600,6.543091552734375,-1.021728515625,-0.1295013427734375,0.044525146484375
1761392305098173700,6.553173583984375,-1.021697998046875,-0.11126708984375,0.04864501953125
1761392305108255700,6.563255859375,-1.0031890869140625,-0.0924530029296875,0.040496826171875
1761392305118337500,6.573337646484375,-0.9766693115234375,-0.1056365966796875,0.0301513671875
1761392305128419600,6.583419677734375,-0.960235595703125,-0.132232666015625,0.02117919921875
1761392305138503000,6.5935029296875,-0.9510040283203125,-0.1427154541015625,0.032073974609375
1761392305148584700,6.603584716796875,-0.9599761962890625,-0.1390838623046875,0.0414581298828125
1761392305158666500,6.61366650390625,-0.9622802734375,-0.1338958740234375,0.033172607421875
1761392305168748500,6.62374853515625,-0.9480133056640625,-0.1326751708984375,0.029449462890625
1761392305178830600,6.63383056640625,-0.924652099609375,-0.141693115234375,0.0397491455078125
1761392305188914000,6.643913818359375,-0.9229736328125,-0.1508331298828125,0.0682830810546875
1761392305198995700,6.65399560546875,-1.00439453125,-0.1490325927734375,0.114166259765625
1761392305209077800,6.664077880859375,-1.0837860107421875,-0.1739501953125,0.142242431640625
1761392305219159600,6.67415966796875,-1.0069732666015625,-0.17767333984375,0.0863494873046875
1761392305229241600,6.68424169921875,-0.958221435546875,-0.1534881591796875,0.04058837890625
1761392305239325000,6.694324951171875,-0.9304046630859375,-0.1611785888671875,0.0367431640625
1761392305249406700,6.70440673828125,-0.929779052734375,-0.1826629638671875,0.035736083984375
