time,seconds_elapsed,z,y,x
1761392298615296000,0.0702958984375,-0.7559531927108765,-0.5963872075080872,1.160215139389038
1761392298625378000,0.0803779296875,-0.8144505620002747,-0.731332004070282,1.3309834003448486
1761392298635461000,0.090461181640625,-0.8914436101913452,-0.9710479378700256,1.4418425559997559
1761392298645543200,0.100543212890625,-1.0152870416641235,-1.3658969402313232,1.4212515354156494
1761392298655625200,0.110625244140625,-1.1432514190673828,-1.6824672222137451,1.3892278671264648
1761392298665707000,0.12070703125,-1.3080635070800781,-1.8269679546356201,1.4277962446212769
1761392298675790000,0.1307900390625,-1.482478141784668,-1.8339083194732666,1.5030713081359863
1761392298685872000,0.1408720703125,-1.6383484601974487,-1.6383551359176636,1.5842050313949585
1761392298695954200,0.1509541015625,-1.760420322418213,-1.3277733325958252,1.615684151649475
1761392298706036000,0.161035888671875,-1.8497216701507568,-1.0410839319229126,1.5000965595245361
1761392298716119000,0.171119140625,-1.8914822340011597,-0.965945839881897,1.2527635097503662
1761392298726201000,0.181201171875,-1.915441870689392,-0.9594042897224426,1.0055574178695679
1761392298736283100,0.191283203125,-1.9243818521499634,-0.9197927117347717,0.8144322037696838
1761392298746365200,0.201365234375,-1.9159265756607056,-0.8494783639907837,0.6665021181106567
1761392298756448000,0.211447998046875,-1.8864669799804688,-0.7475003004074097,0.5431381464004517
1761392298766530000,0.221530029296875,-1.858817458152771,-0.7298968434333801,0.39800623059272766
1761392298776612000,0.231612060546875,-1.8365778923034668,-0.805899977684021,0.23412328958511353
1761392298786694100,0.241694091796875,-1.8409303426742554,-0.49568459391593933,0.15095941722393036
1761392298796777000,0.25177685546875,-1.8321408033370972,0.050813112407922745,0.13872751593589783
1761392298806859000,0.26185888671875,-1.7972568273544312,0.16542571783065796,0.0365164652466774
1761392298816941000,0.271941162109375,-1.7650967836380005,0.2769607603549957,-0.08520464599132538
1761392298827023000,0.282023193359375,-1.7319912910461426,0.18474002182483673,-0.20193658769130707
1761392298837106000,0.29210595703125,-1.7389358282089233,-0.08418864756822586,-0.26677602529525757
1761392298847188700,0.302188720703125,-1.782764196395874,-0.4905944764614105,-0.2592073380947113
1761392298857270800,0.312270751953125,-1.8571580648422241,-1.1352485418319702,-0.21941277384757996
1761392298867353900,0.322353759765625,-1.9599227905273438,-1.8791509866714478,-0.1873781532049179
1761392298877435600,0.332435546875,-2.026066541671753,-2.450166940689087,-0.0868278369307518
1761392298887517700,0.342517578125,-1.9504812955856323,-2.73217511177063,0.07711875438690186
1761392298897599700,0.352599853515625,-1.6323696374893188,-2.8217389583587646,0.33122268319129944
1761392298907682800,0.362682861328125,-1.1029127836227417,-2.833519697189331,0.6576021313667297
1761392298917764900,0.372764892578125,-0.54902184009552,-2.897815465927124,0.9939047694206238
1761392298927847000,0.382846923828125,-0.08238089084625244,-2.837862253189087,1.2816697359085083
1761392298937929000,0.392928955078125,0.3112463057041168,-2.707744598388672,1.508978009223938
1761392298948011800,0.40301171875,0.5301738381385803,-3.247976064682007,1.4814465045928955
1761392298958093800,0.41309375,0.5335177183151245,-4.716530799865723,1.0211873054504395
1761392298968175900,0.42317578125,0.41924387216567993,-5.959698677062988,0.40036657452583313
1761392298978258000,0.4332578125,0.4079824388027191,-6.114877223968506,-0.06501948088407516
1761392298988340700,0.4433408203125,0.6019694805145264,-5.675045967102051,-0.22460061311721802
1761392298998422800,0.4534228515625,0.9491727352142334,-5.615987777709961,-0.1517338752746582
1761392299008504800,0.4635048828125,1.3359103202819824,-5.408374786376953,0.04987035319209099
1761392299018587000,0.4735869140625,1.6064666509628296,-5.087810516357422,0.1312490999698639
1761392299028670000,0.483669921875,1.7819807529449463,-4.788573265075684,-0.021765749901533127
1761392299038751700,0.493751708984375,1.9311057329177856,-4.503808498382568,-0.3382912278175354
1761392299048833800,0.503833740234375,2.1086666584014893,-4.3324055671691895,-0.7216442227363586
1761392299058915800,0.513915771484375,2.310352087020874,-4.514908313751221,-0.9968185424804688
1761392299068999000,0.5239990234375,2.5672779083251953,-5.001927375793457,-1.0409601926803589
1761392299079080700,0.534080810546875,2.846424102783203,-5.360968589782715,-0.8724547624588013
1761392299089162800,0.544162841796875,3.0105605125427246,-5.159447193145752,-0.6940383911132812
1761392299099244800,0.554244873046875,2.958702802658081,-4.486705303192139,-0.7621157169342041
1761392299109328000,0.564327880859375,2.715611219406128,-3.766615390777588,-1.140194058418274
1761392299119410000,0.574409912109375,2.494974136352539,-3.117666244506836,-1.6249972581863403
1761392299129491700,0.58449169921875,2.356154680252075,-2.615420341491699,-2.033696413040161
1761392299139574800,0.59457470703125,2.2418739795684814,-2.3905954360961914,-2.338904619216919
1761392299149656800,0.60465673828125,2.157015323638916,-2.429361581802368,-2.5584776401519775
1761392299159739000,0.61473876953125,2.090311050415039,-2.5728373527526855,-2.65979266166687
1761392299169820700,0.624820556640625,2.0283024311065674,-2.4100170135498047,-2.5805578231811523
1761392299179903700,0.63490380859375,1.8939682245254517,-1.8100088834762573,-2.3501079082489014
1761392299189985800,0.64498583984375,1.6788787841796875,-1.042527675628662,-2.041940212249756
1761392299200067800,0.65506787109375,1.4859658479690552,-0.45084279775619507,-1.7086538076400757
1761392299210150000,0.66514990234375,1.394976019859314,-0.13041846454143524,-1.402826189994812
1761392299220232700,0.675232666015625,1.3106569051742554,-0.057322677224874496,-1.1466155052185059
1761392299230314800,0.685314697265625,1.1587339639663696,-0.05474500358104706,-0.9057850241661072
1761392299240396800,0.695396728515625,0.9323425889015198,0.046068958938121796,-0.7217496633529663
1761392299250478800,0.705478759765625,0.5976346731185913,0.3884476125240326,-0.5591924786567688
1761392299260561700,0.715561767578125,0.28576037287712097,0.6930173635482788,-0.4686705470085144
1761392299270643700,0.725643798828125,0.07711422443389893,0.7841917276382446,-0.4654867351055145
1761392299280725800,0.735725830078125,-0.0916721299290657,0.7063661813735962,-0.526007354259491
1761392299290807800,0.745807861328125,-0.2475205808877945,0.6006860733032227,-0.6070467829704285
1761392299300890600,0.755890625,-0.30873119831085205,0.39554014801979065,-0.5698855519294739
1761392299310972700,0.76597265625,-0.2476380318403244,0.48790496587753296,-0.3085564970970154
1761392299321054700,0.7760546875,-0.13487686216831207,0.8228105306625366,0.08734502643346786
1761392299331136800,0.78613671875,-0.115447498857975,1.375536322593689,0.4204803705215454
1761392299341219800,0.7962197265625,-0.13931208848953247,2.0380916595458984,0.7165259122848511
1761392299351302000,0.806302001953125,-0.05696261674165726,2.4382989406585693,1.1509382724761963
1761392299361384000,0.816384033203125,0.06658275425434113,2.5315561294555664,1.8346450328826904
1761392299371466000,0.826466064453125,0.17732977867126465,2.517141819000244,2.7195985317230225
1761392299381548800,0.836548828125,0.2874642610549927,2.5231566429138184,3.6498818397521973
1761392299391630800,0.846630859375,0.4142611026763916,2.6710431575775146,4.477106094360352
1761392299401713000,0.856712890625,0.4852796196937561,2.9036788940429688,5.198938369750977
1761392299411795000,0.866794921875,0.30359742045402527,3.0229086875915527,6.019400119781494
1761392299421877800,0.876877685546875,-0.24669820070266724,3.050004720687866,7.104835033416748
1761392299431959800,0.886959716796875,-1.1730118989944458,3.1559054851531982,8.118623733520508
1761392299442041900,0.897041748046875,-2.0607404708862305,3.6581039428710938,8.666701316833496
1761392299452124000,0.9071240234375,-2.647523880004883,4.472411632537842,8.653365135192871
1761392299462206700,0.917206787109375,-3.069695472717285,5.2853593826293945,8.362264633178711
1761392299472288800,0.927288818359375,-3.3572700023651123,5.726345062255859,8.20877456665039
1761392299482370800,0.937370849609375,-3.4789631366729736,5.665990352630615,8.38671588897705
1761392299492454000,0.947453857421875,-3.383862257003784,5.116817474365234,8.834676742553711
1761392299502536000,0.957535888671875,-2.971607208251953,4.089847564697266,9.541983604431152
1761392299512617700,0.96761767578125,-2.5692849159240723,2.7516818046569824,10.35920238494873
1761392299522699800,0.97769970703125,-2.285829782485962,1.4125624895095825,11.000033378601074
1761392299532782800,0.987782958984375,-2.1022114753723145,0.5278214812278748,11.27015495300293
1761392299542865000,0.997864990234375,-2.012876510620117,0.05029859021306038,11.04064655303955
1761392299552946700,1.00794677734375,-1.887275218963623,-0.053223539143800735,10.18358039855957
1761392299563028700,1.01802880859375,-1.7180176973342896,0.43322840332984924,8.490320205688477
1761392299573111800,1.02811181640625,-1.4824398756027222,0.6744463443756104,5.88129186630249
1761392299583193900,1.03819384765625,-1.1756309270858765,0.22315852344036102,2.8653416633605957
1761392299593276000,1.04827587890625,-0.5296388268470764,-0.5039289593696594,0.2720317840576172
1761392299603357700,1.058357666015625,0.25095313787460327,-0.8346165418624878,-1.3384453058242798
1761392299613440800,1.068440673828125,1.1932868957519531,-0.6247219443321228,-2.032454013824463
1761392299623522800,1.078522705078125,2.3535289764404297,0.11030946671962738,-1.9827940464019775
1761392299633604900,1.08860498046875,3.494492292404175,0.7569201588630676,-1.6161237955093384
1761392299643686700,1.098686767578125,4.398555755615234,0.9900716543197632,-1.565421223640442
1761392299653769700,1.108769775390625,5.0774688720703125,0.7550642490386963,-2.2491514682769775
1761392299663851800,1.118851806640625,5.464131832122803,0.1674712896347046,-3.4514670372009277
1761392299673933800,1.128933837890625,5.748548984527588,-0.5067012906074524,-4.961784362792969
1761392299684015900,1.139015869140625,5.996312141418457,-0.9061570763587952,-6.544867515563965
1761392299694098700,1.1490986328125,6.220047950744629,-1.0988588333129883,-7.8565754890441895
1761392299704180700,1.1591806640625,6.534203052520752,-1.2588746547698975,-8.69605827331543
1761392299714262800,1.1692626953125,6.874518871307373,-1.5421018600463867,-9.185842514038086
1761392299724344800,1.1793447265625,7.103989124298096,-1.823846459388733,-9.545555114746094
1761392299734427600,1.189427734375,7.163220405578613,-2.0979526042938232,-9.905085563659668
1761392299744509700,1.199509765625,6.87235164642334,-2.532299518585205,-10.058837890625
1761392299754591700,1.209591796875,6.465363502502441,-3.217679023742676,-10.009251594543457
1761392299764673800,1.219673828125,6.195940017700195,-3.8393681049346924,-9.998433113098145
1761392299774756900,1.2297568359375,6.070713520050049,-4.066512107849121,-10.085362434387207
1761392299784839000,1.2398388671875,6.028266429901123,-4.139253616333008,-9.690250396728516
1761392299794921000,1.2499208984375,5.837161064147949,-4.354187488555908,-8.467791557312012
1761392299805003800,1.260003662109375,5.439330577850342,-4.799686908721924,-6.7183990478515625
1761392299815085800,1.2700859375,5.005608081817627,-5.323591709136963,-5.066944122314453
1761392299825168000,1.28016796875,4.724689483642578,-5.611318111419678,-4.165465354919434
1761392299835250000,1.29025,4.461935043334961,-5.259021759033203,-4.337602615356445
1761392299845333000,1.3003330078125,3.9222044944763184,-4.257613182067871,-5.286126136779785
1761392299855415000,1.3104150390625,3.170900344848633,-3.178910255432129,-6.4172587394714355
1761392299865497000,1.3204970703125,2.4456377029418945,-2.5400848388671875,-7.014789581298828
1761392299875579100,1.3305791015625,1.7901339530944824,-2.6724205017089844,-6.841309070587158
1761392299885662000,1.340661865234375,1.1788634061813354,-3.176457166671753,-5.9630584716796875
1761392299895744000,1.350743896484375,0.545207679271698,-3.356825113296509,-5.116826057434082
1761392299905826000,1.360825927734375,-0.15451021492481232,-2.778068780899048,-4.954250335693359
1761392299915908000,1.370908203125,-0.9291784763336182,-1.515564203262329,-5.335941791534424
1761392299925991200,1.3809912109375,-1.5885987281799316,-0.3019454777240753,-5.577390193939209
1761392299936073000,1.391072998046875,-1.998179316520691,0.4966784715652466,-4.956107139587402
1761392299946155000,1.401155029296875,-2.2252790927886963,0.7356010675430298,-3.2382254600524902
1761392299956237000,1.411237060546875,-2.243699312210083,0.5107945799827576,-0.8734385371208191
1761392299966320000,1.421320068359375,-2.0924036502838135,0.33174917101860046,1.4361956119537354
1761392299976402000,1.43140185546875,-2.0498275756835938,0.8081594109535217,3.177277088165283
1761392299986484000,1.44148388671875,-2.3224449157714844,2.0574562549591064,4.232379913330078
1761392299996566000,1.45156591796875,-2.712961196899414,3.423612356185913,4.925407886505127
1761392300006649000,1.461649169921875,-3.0271289348602295,4.333644390106201,5.57547664642334
1761392300016731100,1.471731201171875,-3.1849963665008545,4.7162933349609375,6.488602638244629
1761392300026813000,1.48181298828125,-3.33953595161438,4.717511177062988,7.62755823135376
1761392300036895000,1.49189501953125,-3.6906027793884277,4.478298187255859,8.65827751159668
1761392300046978000,1.50197802734375,-4.076395511627197,4.229711055755615,9.526439666748047
1761392300057060000,1.51206005859375,-4.513713836669922,4.200175762176514,10.312954902648926
1761392300067142000,1.522141845703125,-5.258328437805176,4.287019729614258,10.69304370880127
1761392300077224000,1.532223876953125,-6.292085647583008,4.590335369110107,10.345179557800293
1761392300087307000,1.54230712890625,-7.391783714294434,5.159167289733887,9.445328712463379
1761392300097389000,1.55238916015625,-8.311184883117676,5.60219144821167,8.658493041992188
1761392300107471000,1.56247119140625,-8.86021614074707,5.767431735992432,8.393045425415039
1761392300117553000,1.572552978515625,-8.764345169067383,5.562954425811768,8.708747863769531
1761392300127636200,1.58263623046875,-8.162426948547363,5.0451436042785645,9.745705604553223
1761392300137718300,1.59271826171875,-7.273429870605469,4.156843662261963,11.00729751586914
1761392300147800300,1.60280029296875,-6.086313724517822,2.8523242473602295,12.05977725982666
1761392300157881900,1.6128818359375,-5.040031909942627,1.405579686164856,12.297977447509766
1761392300167965200,1.622965087890625,-4.701184272766113,0.12196452170610428,11.056729316711426
1761392300178047200,1.633047119140625,-4.784947395324707,-1.0832242965698242,8.889753341674805
1761392300188129300,1.64312939453125,-4.4733076095581055,-2.2535905838012695,6.4561448097229
1761392300198211000,1.653211181640625,-4.458951950073242,-2.002070665359497,4.184927463531494
1761392300208294100,1.663294189453125,-4.731687068939209,0.5871761441230774,2.3473265171051025
1761392300218376200,1.673376220703125,-4.499147891998291,4.108194828033447,1.0194916725158691
1761392300228458200,1.683458251953125,-2.9133687019348145,5.436929225921631,-0.05434446409344673
1761392300238540300,1.693540283203125,-0.5418249368667603,4.384307384490967,-0.8046243190765381
1761392300248623000,1.703623046875,1.5274085998535156,1.9995639324188232,-1.6043412685394287
1761392300258705200,1.713705078125,3.0530455112457275,0.699428915977478,-2.4945240020751953
1761392300268787200,1.723787109375,3.8305838108062744,0.5545036792755127,-3.391983985900879
1761392300278869200,1.733869140625,4.1040754318237305,0.4106386601924896,-4.579267501831055
1761392300288952000,1.7439521484375,4.601184844970703,0.208965465426445,-6.0118560791015625
1761392300299034000,1.7540341796875,5.359694004058838,-0.12803971767425537,-7.392272472381592
1761392300309116200,1.7641162109375,5.7770676612854,-0.8997926712036133,-8.527176856994629
1761392300319198200,1.7741982421875,5.747967720031738,-1.829301357269287,-9.431440353393555
1761392300329281000,1.784281005859375,5.67835807800293,-2.4249932765960693,-10.470614433288574
1761392300339363000,1.794363037109375,5.70048713684082,-2.756599187850952,-11.46387004852295
1761392300349445000,1.804445068359375,5.652149677276611,-2.649170398712158,-11.812897682189941
1761392300359528200,1.814528076171875,5.397468090057373,-2.7819101810455322,-11.447117805480957
1761392300369610000,1.82460986328125,5.063997268676758,-3.648390531539917,-10.926426887512207
1761392300379692000,1.834692138671875,4.881325721740723,-4.545069694519043,-10.699564933776855
1761392300389774000,1.844774169921875,4.804358959197998,-5.230725288391113,-10.44861888885498
1761392300399857200,1.854857177734375,4.762194633483887,-5.68882417678833,-9.425276756286621
1761392300409939000,1.86493896484375,4.529897212982178,-5.171669006347656,-7.452423572540283
1761392300420021000,1.87502099609375,3.718280553817749,-3.8834943771362305,-5.158565521240234
1761392300430103000,1.88510302734375,2.153186321258545,-1.7899209260940552,-4.2543792724609375
1761392300440186000,1.89518603515625,0.15860162675380707,0.5540397763252258,-4.735301494598389
1761392300450268000,1.905267822265625,-1.5472846031188965,2.537851095199585,-4.993039131164551
1761392300460350000,1.915349853515625,-2.411651611328125,3.607775926589966,-3.381652355194092
1761392300470432000,1.925431884765625,-2.4087717533111572,3.633282423019409,0.012209528125822544
1761392300480515000,1.93551513671875,-2.1039657592773438,2.663886785507202,3.6369128227233887
1761392300490597000,1.94559716796875,-2.5250086784362793,1.6241517066955566,6.174769878387451
1761392300500679000,1.955678955078125,-3.815626621246338,1.2982686758041382,7.09212589263916
1761392300510761000,1.965760986328125,-5.317876815795898,1.840589165687561,6.953828811645508
1761392300520843000,1.975843017578125,-6.606119155883789,3.2945380210876465,6.4323015213012695
1761392300530926000,1.985926025390625,-7.399285316467285,5.466217517852783,6.102041244506836
1761392300541008000,1.9960078125,-7.739476203918457,6.86895227432251,6.501245021820068
1761392300551090000,2.00608984375,-7.791131496429443,7.007235050201416,7.668726444244385
1761392300561172000,2.016171875,-7.5608720779418945,6.535063743591309,9.075701713562012
1761392300571255300,2.02625537109375,-7.104455471038818,5.821822643280029,10.32755184173584
1761392300581337000,2.036337158203125,-6.493030548095703,4.6786322593688965,11.284613609313965
1761392300591419000,2.0464189453125,-5.536531448364258,3.4516067504882812,11.502427101135254
1761392300601501000,2.0565009765625,-4.126348495483398,2.676405429840088,10.975591659545898
1761392300611584300,2.066584228515625,-2.445132255554199,1.6274763345718384,9.84024715423584
1761392300621666300,2.076666259765625,-1.0087867975234985,0.03749491274356842,8.008996963500977
1761392300631748000,2.086748046875,-0.6267490983009338,-0.4393523335456848,6.554610252380371
1761392300641830100,2.096830078125,-0.8430225849151611,1.3681776523590088,5.551798343658447
1761392300651913200,2.106913330078125,-0.825104296207428,2.8463072776794434,4.6116509437561035
1761392300661995300,2.116995361328125,0.047812528908252716,2.86293363571167,3.3856348991394043
1761392300672077000,2.1270771484375,1.4295028448104858,2.191818952560425,1.7209371328353882
1761392300682159000,2.1371591796875,2.2266902923583984,2.0129330158233643,-0.13789795339107513
1761392300692242200,2.1472421875,2.4097111225128174,1.710872769355774,-1.8620686531066895
1761392300702324200,2.15732421875,2.5028035640716553,1.3292620182037354,-3.5068249702453613
1761392300712406300,2.16740625,2.782769203186035,1.1173326969146729,-4.792144298553467
1761392300722488000,2.177488037109375,3.4259159564971924,0.7354596257209778,-5.906246662139893
1761392300732571100,2.187571044921875,4.5550856590271,-0.06141595542430878,-6.946495532989502
1761392300742653200,2.197653076171875,5.711175441741943,-1.1960786581039429,-7.945521831512451
1761392300752735200,2.2077353515625,6.515509605407715,-2.230449914932251,-8.9288911819458
1761392300762817000,2.217817138671875,6.920193195343018,-2.9831953048706055,-9.932872772216797
1761392300772900000,2.227900146484375,6.883418083190918,-3.548954725265503,-11.02700138092041
1761392300782982100,2.237982177734375,6.606549263000488,-4.318215370178223,-12.06424331665039
1761392300793064200,2.248064208984375,6.386772632598877,-4.934107303619385,-12.371068000793457
1761392300803146200,2.258146240234375,6.362024307250977,-5.380491733551025,-11.681853294372559
1761392300813229000,2.26822900390625,5.80883264541626,-5.291717529296875,-10.494258880615234
1761392300823311000,2.27831103515625,4.501714706420898,-4.59406042098999,-10.006129264831543
1761392300833393200,2.28839306640625,2.923823356628418,-2.9989161491394043,-10.770464897155762
1761392300843477800,2.298477783203125,1.0567609071731567,-1.4459326267242432,-11.363035202026367
1761392300853560600,2.308560546875,-1.139378547668457,-0.6315484046936035,-10.580875396728516
1761392300863642600,2.318642578125,-1.8259707689285278,-0.29277700185775757,-7.4945902824401855
1761392300873724700,2.328724609375,-1.1178187131881714,0.15296931564807892,-2.5117709636688232
1761392300883806700,2.338806640625,-0.507179319858551,0.7265185713768005,2.084296226501465
1761392300893889800,2.348889892578125,-0.5021909475326538,1.6436638832092285,4.598072052001953
1761392300903971600,2.3589716796875,-1.1209263801574707,3.0019466876983643,4.807153224945068
1761392300914053600,2.3690537109375,-1.8826074600219727,4.324157238006592,3.806962013244629
1761392300924135700,2.3791357421875,-2.55503249168396,5.198929309844971,3.121225595474243
1761392300934218800,2.38921875,-2.996969223022461,5.911711692810059,3.464240550994873
1761392300944300500,2.399300537109375,-3.3318848609924316,6.496192455291748,4.433567523956299
1761392300954382600,2.409382568359375,-3.587127685546875,6.880867004394531,5.490825653076172
1761392300964464600,2.419464599609375,-3.8099842071533203,6.913264751434326,6.2837090492248535
1761392300974547700,2.429547607421875,-4.125216960906982,6.58596658706665,6.974532604217529
1761392300984629500,2.43962939453125,-4.45435905456543,6.58919620513916,7.434244155883789
1761392300994711600,2.449711669921875,-4.518049716949463,6.937572002410889,7.450089454650879
1761392301004793600,2.459793701171875,-4.2297539710998535,7.435109615325928,7.02361536026001
1761392301014876700,2.469876708984375,-3.6185879707336426,7.600038528442383,6.31506872177124
1761392301024958700,2.479958740234375,-2.5558133125305176,6.515362739562988,6.072836399078369
1761392301035040500,2.49004052734375,-0.9500824213027954,4.62940788269043,6.4447245597839355
1761392301045122600,2.50012255859375,0.583020806312561,2.165815591812134,6.63180685043335
1761392301055205600,2.51020556640625,1.0807698965072632,0.2967349886894226,5.561032295227051
1761392301065287700,2.52028759765625,0.8290148973464966,0.28924059867858887,3.386627435684204
1761392301075369500,2.530369384765625,0.29327741265296936,1.7780182361602783,0.9884189367294312
1761392301085451500,2.540451416015625,0.0036274916492402554,2.96649169921875,-1.1959803104400635
1761392301095533600,2.550533447265625,0.3655841052532196,2.9447686672210693,-2.940675735473633
1761392301105616600,2.56061669921875,1.002550482749939,2.176173686981201,-3.9855244159698486
1761392301115698700,2.57069873046875,1.6468793153762817,1.8185232877731323,-4.6317219734191895
1761392301125780500,2.580780517578125,1.7681282758712769,1.4310961961746216,-5.088520050048828
1761392301135863800,2.59086376953125,1.6174732446670532,0.556797981262207,-5.718324184417725
1761392301145945900,2.60094580078125,1.498917818069458,-0.7437093257904053,-6.43661642074585
1761392301156028000,2.61102783203125,1.4643505811691284,-2.2799060344696045,-6.850781440734863
1761392301166109400,2.621109375,1.639527440071106,-3.7917988300323486,-6.946714878082275
1761392301176191500,2.63119140625,1.8400325775146484,-4.997654438018799,-7.235490322113037
1761392301186274800,2.64127490234375,1.8287633657455444,-6.226251125335693,-7.60729455947876
1761392301196356900,2.65135693359375,1.888404369354248,-7.331868648529053,-7.826375961303711
1761392301206438700,2.661438720703125,2.2363953590393066,-7.966055393218994,-7.725814342498779
1761392301216520700,2.671520751953125,2.5142111778259277,-7.424254894256592,-7.536069393157959
1761392301226603800,2.681603759765625,2.405097246170044,-6.445585250854492,-6.881974697113037
1761392301236685800,2.691685791015625,1.7731473445892334,-5.935923099517822,-5.898857593536377
1761392301246767900,2.701767822265625,0.7615687251091003,-5.5098748207092285,-5.574588298797607
1761392301256849700,2.711849609375,-0.358270525932312,-4.395740985870361,-6.346099853515625
1761392301266932700,2.7219326171875,-1.7042148113250732,-2.6840453147888184,-6.958756923675537
1761392301277014800,2.732014892578125,-3.215299129486084,-0.9555366039276123,-6.462544918060303
1761392301287096800,2.742096923828125,-4.1458234786987305,0.1093086451292038,-4.9445295333862305
1761392301297178600,2.7521787109375,-4.076069355010986,0.6901518106460571,-3.067627429962158
1761392301307261700,2.76226171875,-3.4077892303466797,1.5746136903762817,-1.3132883310317993
1761392301317343700,2.77234375,-2.5450327396392822,3.146334409713745,0.18420232832431793
1761392301327425800,2.78242578125,-1.6213949918746948,4.808963775634766,1.5518358945846558
1761392301337507800,2.7925078125,-0.8187414407730103,5.96405553817749,2.727466344833374
1761392301347590700,2.802590576171875,-0.11059122532606125,6.46867036819458,3.676973581314087
1761392301357672700,2.812672607421875,0.413635790348053,6.753815650939941,4.418713569641113
1761392301367754800,2.822754638671875,0.5388997197151184,6.896162033081055,5.1141357421875
1761392301377836800,2.8328369140625,0.3011590540409088,6.926748275756836,5.65114164352417
1761392301387918600,2.842918701171875,-0.0703873485326767,6.953641414642334,5.815992832183838
1761392301398001700,2.853001708984375,-0.33692288398742676,6.911365985870361,5.731244087219238
1761392301408083700,2.863083740234375,-0.474381685256958,6.839659690856934,5.625095844268799
1761392301418165800,2.873165771484375,-0.526528000831604,7.093698024749756,5.7910308837890625
1761392301428247800,2.883247802734375,-0.46793311834335327,7.713591575622559,5.9097723960876465
1761392301438330600,2.89333056640625,-0.2639826536178589,8.286081314086914,5.815264701843262
1761392301448412700,2.90341259765625,-0.046900395303964615,8.308232307434082,5.598063945770264
1761392301458494700,2.91349462890625,0.17530550062656403,7.640322685241699,5.1001176834106445
1761392301468576800,2.92357666015625,0.3673308789730072,6.654815673828125,4.401312351226807
1761392301478659600,2.93365966796875,0.6203277111053467,5.698336124420166,3.6724419593811035
1761392301488741600,2.94374169921875,0.7328193783760071,4.7791595458984375,2.8659422397613525
1761392301498823700,2.95382373046875,0.05193563550710678,3.779763698577881,1.8782439231872559
1761392301508905700,2.96390576171875,-1.0541648864746094,3.1901814937591553,0.3960850238800049
1761392301518988500,2.973988525390625,-1.826923131942749,3.4733994007110596,-1.61247718334198
1761392301529070600,2.984070556640625,-2.154240846633911,3.9092769622802734,-3.045267343521118
1761392301539152600,2.994152587890625,-2.3343183994293213,3.4098057746887207,-3.530271291732788
1761392301549234700,3.004234619140625,-2.5152978897094727,2.1089773178100586,-3.409931182861328
1761392301559317500,3.0143173828125,-2.419808864593506,0.7675411105155945,-3.4513726234436035
1761392301569399600,3.024399658203125,-1.881895661354065,-0.5013411641120911,-3.9194998741149902
1761392301579481600,3.034481689453125,-1.3671129941940308,-1.7942930459976196,-4.274489879608154
1761392301589563600,3.044563720703125,-1.2519328594207764,-3.3654403686523438,-4.246154308319092
1761392301599645700,3.054645751953125,-1.4425911903381348,-4.921754837036133,-4.140866279602051
1761392301609728500,3.064728515625,-1.6757144927978516,-5.807440280914307,-4.44943380355835
1761392301619810600,3.074810546875,-1.9175702333450317,-5.912892818450928,-5.31326961517334
1761392301629892600,3.084892578125,-2.131542921066284,-5.636530876159668,-6.251476287841797
1761392301639974700,3.094974609375,-2.2054264545440674,-5.355350017547607,-6.585898399353027
1761392301650057700,3.1050576171875,-2.135985851287842,-5.191043376922607,-6.113645076751709
1761392301660139500,3.115139404296875,-2.012554168701172,-5.474302768707275,-5.003302097320557
1761392301670221600,3.1252216796875,-1.6467094421386719,-6.208261013031006,-3.4739229679107666
1761392301680303600,3.1353037109375,-1.2156888246536255,-6.720393657684326,-2.206716299057007
1761392301690386700,3.14538671875,-1.160651683807373,-6.676504135131836,-1.6195646524429321
1761392301700468700,3.15546875,-1.6024234294891357,-6.077251434326172,-1.6029279232025146
1761392301710550800,3.16555078125,-2.624650478363037,-4.811727046966553,-2.0532519817352295
1761392301720632800,3.1756328125,-3.8185160160064697,-3.0964887142181396,-2.180119037628174
1761392301730715600,3.185715576171875,-4.600002288818359,-0.6703035235404968,-1.5486313104629517
1761392301740797700,3.195797607421875,-5.133764743804932,1.8195126056671143,-0.7919745445251465
1761392301750879700,3.205879638671875,-5.197672367095947,3.447722911834717,-0.5246938467025757
1761392301760961800,3.2159619140625,-4.604785442352295,4.9542412757873535,-0.40870440006256104
1761392301771043800,3.2260439453125,-3.287686824798584,6.365755558013916,0.1295047253370285
1761392301781126700,3.236126708984375,-1.1280156373977661,6.691706657409668,1.2463295459747314
1761392301791208700,3.246208740234375,1.358001708984375,6.221549034118652,2.6772332191467285
1761392301801290800,3.256290771484375,3.540078639984131,5.568431377410889,4.3316192626953125
1761392301811372800,3.266372802734375,4.976827621459961,4.920447826385498,6.013469219207764
1761392301821455600,3.27645556640625,5.513208866119385,4.771856784820557,7.196855545043945
1761392301831537700,3.28653759765625,5.300210475921631,5.2852325439453125,7.220039367675781
1761392301841619500,3.296619384765625,4.551663875579834,5.923150062561035,6.345678806304932
1761392301851701500,3.306701416015625,3.5966084003448486,6.361485481262207,5.331133842468262
1761392301861783600,3.316783447265625,2.902963876724243,6.924094200134277,4.521553039550781
1761392301871866600,3.32686669921875,2.5229175090789795,7.086893081665039,4.132822513580322
1761392301881948700,3.33694873046875,2.250253200531006,6.4650492668151855,4.079331398010254
1761392301892030500,3.347030517578125,1.8427979946136475,5.0106072425842285,4.071278095245361
1761392301902112500,3.357112548828125,1.221100926399231,3.6234130859375,3.830481767654419
1761392301912195600,3.367195556640625,0.5397199392318726,3.3938629627227783,3.2456471920013428
1761392301922277600,3.377277587890625,-0.05355909839272499,3.817233085632324,2.3742752075195312
1761392301932359700,3.387359619140625,-0.26358476281166077,4.039396286010742,1.4985586404800415
1761392301942441700,3.397441650390625,-0.015079350210726261,3.520380735397339,0.9804672598838806
1761392301952524500,3.407524658203125,0.47186926007270813,2.6392152309417725,1.0272283554077148
1761392301962606600,3.417606689453125,1.0384002923965454,1.4741805791854858,1.314864993095398
1761392301972688600,3.427688720703125,1.505918264389038,-0.3181753158569336,1.4268263578414917
1761392301982770700,3.437770751953125,1.5678753852844238,-2.2292301654815674,0.9359085559844971
1761392301992853800,3.447853759765625,0.8728169798851013,-3.3981082439422607,-0.4555318355560303
1761392302002935600,3.457935546875,-0.27883243560791016,-3.841740608215332,-2.757584810256958
1761392302013017600,3.468017578125,-1.3553292751312256,-3.8652853965759277,-5.437794208526611
1761392302023099600,3.478099609375,-1.9373133182525635,-3.263716459274292,-7.468325138092041
1761392302033182700,3.4881826171875,-2.0940558910369873,-2.3559327125549316,-7.893579959869385
1761392302043264500,3.498264404296875,-1.9232633113861084,-2.316950559616089,-6.940640926361084
1761392302053346600,3.5083466796875,-1.387052297592163,-3.0705888271331787,-5.479066371917725
1761392302063428600,3.5184287109375,-0.6208741664886475,-4.133529186248779,-4.304648399353027
1761392302073510700,3.5285107421875,-0.029397569596767426,-4.857329368591309,-3.608837842941284
1761392302083593700,3.53859375,0.17959558963775635,-5.086287021636963,-3.118483066558838
1761392302093675500,3.548675537109375,0.0003603257064241916,-5.0744853019714355,-2.8362271785736084
1761392302103757600,3.558757568359375,-0.3860430419445038,-4.748223304748535,-2.9759531021118164
1761392302113839600,3.568839599609375,-0.8104209303855896,-3.954279661178589,-3.450849771499634
1761392302123922700,3.578922607421875,-1.2959834337234497,-2.8939173221588135,-3.8756985664367676
1761392302134004500,3.58900439453125,-1.7996702194213867,-2.1840085983276367,-4.066046237945557
1761392302144086500,3.59908642578125,-2.1043074131011963,-2.405376672744751,-3.885990619659424
1761392302154168600,3.60916845703125,-1.930627703666687,-3.2603602409362793,-3.010061740875244
1761392302164250600,3.619250732421875,-1.3209308385849,-3.937654733657837,-1.4294922351837158
1761392302174333700,3.629333740234375,-0.8137067556381226,-4.300800800323486,0.19853626191616058
1761392302184415500,3.63941552734375,-0.5029733777046204,-4.190028190612793,1.2772462368011475
1761392302194497500,3.64949755859375,-0.6211727261543274,-3.625864267349243,1.4902501106262207
1761392302204579600,3.65957958984375,-1.3482511043548584,-3.0101094245910645,0.9020206332206726
1761392302214662700,3.66966259765625,-2.211703062057495,-2.461714744567871,0.11902572214603424
1761392302224744400,3.679744384765625,-2.730727434158325,-1.6546381711959839,-0.1637364625930786
1761392302234826500,3.689826416015625,-3.012485980987549,-0.20558485388755798,0.11347542703151703
1761392302244908500,3.699908447265625,-2.9635281562805176,1.8546847105026245,0.728499710559845
1761392302254991600,3.70999169921875,-2.3799471855163574,4.098230361938477,1.2833338975906372
1761392302265073700,3.72007373046875,-1.3462505340576172,5.866921424865723,1.7026041746139526
1761392302275155500,3.730155517578125,-0.27597326040267944,6.538559913635254,2.1171584129333496
1761392302285237500,3.740237548828125,0.5333709716796875,6.508644104003906,2.6336722373962402
1761392302295319600,3.750319580078125,1.0657472610473633,6.363964080810547,3.0238821506500244
1761392302305402600,3.760402587890625,1.488011121749878,6.404463291168213,3.175136089324951
1761392302315484400,3.770484375,1.745849847793579,6.698330402374268,3.0770347118377686
1761392302325566500,3.78056640625,1.8195637464523315,7.134647369384766,2.736398458480835
1761392302335648500,3.7906484375,1.7956494092941284,7.546003818511963,2.3281404972076416
1761392302345731600,3.800731689453125,1.828688621520996,7.565462112426758,2.0435233116149902
1761392302355813400,3.8108134765625,1.896408200263977,6.9932169914245605,2.0777242183685303
1761392302365895400,3.8208955078125,2.014378547668457,5.912929534912109,2.397603988647461
1761392302375977500,3.8309775390625,2.242281913757324,4.549328804016113,2.7809531688690186
1761392302386059500,3.8410595703125,2.7416274547576904,3.258443593978882,3.0547444820404053
1761392302396142600,3.851142578125,3.508282423019409,2.1401209831237793,3.246569871902466
1761392302406224400,3.861224365234375,3.7829537391662598,0.9145265817642212,3.130218029022217
1761392302416306400,3.871306396484375,3.0568392276763916,-0.8995295166969299,2.323331117630005
1761392302426388500,3.881388427734375,1.8313051462173462,-2.7366714477539062,0.7573039531707764
1761392302436471800,3.891471923828125,0.9496752619743347,-3.2512640953063965,-1.117098331451416
1761392302446553600,3.9015537109375,0.4550234377384186,-1.7427738904953003,-2.6338226795196533
1761392302456635400,3.911635498046875,0.26765167713165283,0.6066955327987671,-3.4468796253204346
1761392302466717400,3.921717529296875,0.24851927161216736,2.2616138458251953,-3.390469789505005
1761392302476800800,3.93180078125,0.31780192255973816,2.2538912296295166,-2.831073522567749
1761392302486882600,3.941882568359375,0.3479861915111542,0.3828509747982025,-2.4498956203460693
1761392302496964600,3.951964599609375,0.331561416387558,-2.1280524730682373,-2.533672571182251
1761392302507046700,3.962046630859375,0.1443348079919815,-3.9797780513763428,-3.105961322784424
1761392302517128700,3.972128662109375,-0.19480544328689575,-4.6071977615356445,-4.070800304412842
1761392302527211800,3.982211669921875,-0.6273672580718994,-4.276661396026611,-5.207444190979004
1761392302537293600,3.99229345703125,-1.177628517150879,-3.482983350753784,-6.180678367614746
1761392302547374600,4.00237451171875,-1.7091374397277832,-2.6315441131591797,-6.517943859100342
1761392302557457700,4.012457763671875,-2.108285427093506,-2.2129509449005127,-6.124927520751953
1761392302567539700,4.022539794921875,-2.1958861351013184,-2.7405037879943848,-5.247335910797119
1761392302577621800,4.032621826171875,-1.7354975938796997,-3.975834608078003,-4.023564338684082
1761392302587703800,4.042703857421875,-1.107998251914978,-5.45974063873291,-2.6964235305786133
1761392302597785600,4.05278564453125,-0.6775025725364685,-6.7324934005737305,-1.531711220741272
1761392302607868700,4.06286865234375,-0.5230299234390259,-7.095055103302002,-0.6655415296554565
1761392302617950700,4.07295068359375,-0.7692950963973999,-6.49357795715332,-0.6207924485206604
1761392302628032800,4.08303271484375,-1.3970996141433716,-5.176943302154541,-1.6946429014205933
1761392302638114800,4.09311474609375,-2.067826509475708,-3.7161459922790527,-3.2459278106689453
1761392302648197600,4.10319775390625,-2.6060473918914795,-2.8817696571350098,-4.259023189544678
1761392302658279700,4.11327978515625,-3.1154394149780273,-2.69761323928833,-4.353762149810791
1761392302668361700,4.12336181640625,-3.4692320823669434,-2.4648053646087646,-3.748680591583252
1761392302678443800,4.13344384765625,-3.3902642726898193,-1.7283228635787964,-2.875079393386841
1761392302688525600,4.143525634765625,-2.853038787841797,-0.07183051109313965,-2.1547064781188965
1761392302698608600,4.153608642578125,-1.6949284076690674,2.0608413219451904,-1.3850586414337158
1761392302708690700,4.163690673828125,-0.08167275786399841,3.391451835632324,-0.25827229022979736
1761392302718772700,4.173772705078125,1.6035537719726562,3.608699321746826,1.1817628145217896
1761392302728854800,4.183854736328125,3.2093896865844727,3.2607884407043457,2.8802742958068848
1761392302738937600,4.1939375,4.412508487701416,2.9369609355926514,4.50251579284668
1761392302749019600,4.20401953125,5.054282188415527,2.7856624126434326,5.838291645050049
1761392302759101700,4.214101806640625,5.125380039215088,2.8734261989593506,6.659335136413574
1761392302769183700,4.224183837890625,4.674696922302246,3.367940902709961,6.832451343536377
1761392302779265500,4.234265625,3.913940668106079,4.168764591217041,6.4310078620910645
1761392302789348600,4.2443486328125,3.139756441116333,5.040051460266113,5.667109966278076
1761392302799430700,4.2544306640625,2.589230537414551,5.656102657318115,4.85528564453125
1761392302809512700,4.2645126953125,2.3275249004364014,6.00234317779541,4.3510847091674805
1761392302819594500,4.274594482421875,2.1798009872436523,6.040259838104248,4.384517669677734
1761392302829677600,4.284677490234375,2.1536080837249756,5.5918073654174805,4.761614799499512
1761392302839759600,4.294759521484375,2.396757125854492,4.735093593597412,5.045036792755127
1761392302849837800,4.304837890625,2.8349955081939697,3.4165561199188232,5.122910022735596
1761392302859920000,4.314919921875,3.0239953994750977,1.2814897298812866,5.111298561096191
1761392302870002000,4.325001953125,2.511467695236206,-1.654834508895874,4.530701637268066
1761392302880084700,4.335084716796875,1.2619260549545288,-3.8376197814941406,2.863445281982422
1761392302890166800,4.345166748046875,-0.133741557598114,-3.882953643798828,0.4613146185874939
1761392302900248800,4.355248779296875,-0.6697458624839783,-1.263617753982544,-1.4429155588150024
1761392302910331000,4.365330810546875,-0.8675960898399353,1.7989495992660522,-2.49360990524292
1761392302920413700,4.37541357421875,-1.119579553604126,3.146761178970337,-3.075383424758911
1761392302930495700,4.385495849609375,-1.0709636211395264,2.189054250717163,-3.55094575881958
1761392302940577800,4.395577880859375,-0.9966193437576294,-0.05332154408097267,-3.9881250858306885
1761392302950659800,4.405659912109375,-1.0436323881149292,-2.275524139404297,-4.266142845153809
1761392302960743000,4.415742919921875,-1.0389633178710938,-3.690239429473877,-4.523904323577881
1761392302970825000,4.425824951171875,-0.9642819166183472,-4.172684669494629,-4.826716423034668
1761392302980906800,4.43590673828125,-0.9944637417793274,-3.9013099670410156,-4.889156818389893
1761392302990988800,4.44598876953125,-1.3445464372634888,-3.1111679077148438,-4.624110698699951
1761392303001070800,4.45607080078125,-1.9317742586135864,-2.940497636795044,-4.43157958984375
1761392303011154000,4.46615380859375,-2.485468626022339,-3.4764750003814697,-4.434375762939453
1761392303021236000,4.476236083984375,-2.712069511413574,-4.1665568351745605,-4.588944911956787
1761392303031318000,4.486318115234375,-2.6537833213806152,-5.225374698638916,-4.0702996253967285
1761392303041400000,4.496400146484375,-2.576219320297241,-6.443778038024902,-2.942516803741455
1761392303051483000,4.50648291015625,-2.660764694213867,-6.882961273193359,-2.367126226425171
1761392303061565000,4.51656494140625,-3.0134689807891846,-6.668313503265381,-2.6351449489593506
1761392303071647000,4.52664697265625,-3.5901455879211426,-6.296477794647217,-3.184896469116211
1761392303081729000,4.53672900390625,-4.376682758331299,-5.9227495193481445,-3.5088894367218018
1761392303091810800,4.546810791015625,-5.099918842315674,-5.380831718444824,-3.4922118186950684
1761392303101894000,4.556893798828125,-5.335582256317139,-4.502804756164551,-3.107494831085205
1761392303111976000,4.566975830078125,-4.864814281463623,-2.8569893836975098,-2.2354469299316406
1761392303122058000,4.57705810546875,-3.8831326961517334,-0.7403846383094788,-0.9266138672828674
1761392303132140000,4.58714013671875,-2.601559638977051,1.080039143562317,0.5091604590415955
1761392303142222800,4.597222900390625,-1.2360385656356812,2.434274435043335,1.9118542671203613
1761392303152305000,4.607304931640625,-0.052976131439208984,3.4159889221191406,3.1526732444763184
1761392303162387000,4.617386962890625,0.7543014883995056,3.9662132263183594,4.130182266235352
1761392303172469000,4.627468994140625,1.1352139711380005,4.323008060455322,4.6973090171813965
1761392303182551800,4.6375517578125,1.308695673942566,4.777431964874268,4.863519668579102
1761392303192633900,4.6476337890625,1.383256196975708,5.289783477783203,4.811412811279297
1761392303202716000,4.6577158203125,1.4087448120117188,5.727692604064941,4.739872932434082
1761392303212798700,4.667798828125,1.411176323890686,5.953644752502441,4.675694942474365
1761392303222880800,4.677880859375,1.3938087224960327,5.992711544036865,4.605030536651611
1761392303232962800,4.687962890625,1.2829948663711548,5.924158573150635,4.555018424987793
1761392303243044900,4.698044921875,1.032374382019043,5.99768590927124,4.481297016143799
1761392303253128000,4.7081279296875,0.8427038192749023,6.248584747314453,4.308706283569336
1761392303263209700,4.718209716796875,1.1593188047409058,6.221769332885742,4.029965877532959
1761392303273291800,4.728291748046875,2.016514778137207,5.58753776550293,3.64776611328125
1761392303283373800,4.738373779296875,2.846416473388672,4.156248569488525,3.3787317276000977
1761392303293456000,4.748455810546875,2.9175727367401123,1.1513721942901611,2.8927454948425293
1761392303303538700,4.75853857421875,1.6596513986587524,-2.3492627143859863,1.6631203889846802
1761392303313620700,4.768620849609375,0.4629032015800476,-3.1510939598083496,0.48808231949806213
1761392303323702800,4.778702880859375,0.19535298645496368,-0.6091895699501038,-0.24334421753883362
1761392303333784800,4.788784912109375,-0.03323731571435928,2.6313319206237793,-0.8684653639793396
1761392303343868000,4.798867919921875,-0.27697646617889404,3.9365994930267334,-1.6041414737701416
1761392303353949700,4.80894970703125,-0.2657792270183563,2.9055287837982178,-2.525027275085449
1761392303364031700,4.81903173828125,-0.2886999845504761,0.6793321967124939,-3.2565207481384277
1761392303374113800,4.82911376953125,-0.44045302271842957,-1.667533278465271,-3.4892849922180176
1761392303384196900,4.83919677734375,-0.6708521246910095,-3.3302831649780273,-3.4775853157043457
1761392303394278700,4.849278564453125,-0.8074528574943542,-4.092374324798584,-3.580305576324463
1761392303404360700,4.859360595703125,-0.8967217803001404,-4.235525608062744,-3.731769561767578
1761392303414442800,4.86944287109375,-1.0046581029891968,-4.150888919830322,-3.8015172481536865
1761392303424524800,4.87952490234375,-1.184715986251831,-4.054757118225098,-3.8069841861724854
1761392303434607900,4.88960791015625,-1.4869301319122314,-4.075587272644043,-4.033226013183594
1761392303444689700,4.899689697265625,-1.846255898475647,-4.478198051452637,-4.149714469909668
1761392303454771700,4.909771728515625,-2.10391902923584,-5.243372440338135,-4.323699474334717
1761392303464853800,4.919853759765625,-1.9710906744003296,-5.890503883361816,-4.213444232940674
1761392303474937000,4.92993701171875,-1.5412884950637817,-6.724130153656006,-3.1584837436676025
1761392303485018600,4.9400185546875,-1.2923026084899902,-6.995676517486572,-2.164579153060913
1761392303495100700,4.9501005859375,-1.380038857460022,-6.545777320861816,-2.113140821456909
1761392303505182700,4.9601826171875,-2.0229947566986084,-5.693159580230713,-3.0292460918426514
1761392303515264800,4.9702646484375,-2.897810220718384,-4.828214168548584,-3.971468448638916
1761392303525347800,4.980347900390625,-3.577265739440918,-4.547370910644531,-4.173367977142334
1761392303535430000,4.990429931640625,-3.758971691131592,-4.132562637329102,-3.1752853393554688
1761392303545512000,5.000511962890625,-3.4653432369232178,-2.360602617263794,-1.1954420804977417
1761392303555593700,5.01059375,-2.810468912124634,0.1596280038356781,0.6097245812416077
1761392303565676800,5.0206767578125,-1.9472501277923584,2.5416605472564697,1.687929630279541
1761392303575758800,5.0307587890625,-1.2735306024551392,4.495608806610107,2.2439656257629395
1761392303585841000,5.0408408203125,-0.7615188956260681,5.788807392120361,2.7831950187683105
1761392303595923000,5.0509228515625,-0.19653142988681793,6.46587610244751,3.352942705154419
1761392303606005000,5.0610048828125,0.4787711203098297,6.783544063568115,3.857381582260132
1761392303616087800,5.071087890625,1.1503806114196777,6.825371265411377,4.381936073303223
1761392303626169900,5.081169921875,1.7370688915252686,6.637295246124268,4.952775955200195
1761392303636252000,5.091251953125,2.146467685699463,6.338760852813721,5.48561954498291
1761392303646334000,5.101333984375,2.3668651580810547,6.065661430358887,5.908056735992432
1761392303656416000,5.111416015625,2.4250056743621826,5.894960403442383,6.1671247482299805
1761392303666498800,5.121498779296875,2.2657155990600586,5.878147125244141,6.274974346160889
1761392303676580900,5.131580810546875,2.039982557296753,6.242077827453613,6.037038803100586
1761392303686663000,5.141662841796875,2.0770232677459717,6.657602310180664,5.399121284484863
1761392303696745000,5.151744873046875,2.370906114578247,6.800625801086426,4.460933685302734
1761392303706827800,5.161827880859375,2.9750404357910156,6.381131649017334,3.0941991806030273
1761392303716909800,5.171909912109375,4.015381813049316,4.484650135040283,1.9986916780471802
1761392303726992000,5.181991943359375,3.912731170654297,-0.3715895414352417,0.9583100080490112
1761392303737074000,5.192073974609375,2.1283655166625977,-4.732359886169434,-0.02231436036527157
1761392303747156700,5.20215673828125,0.9615694284439087,-4.631076812744141,-0.8240552544593811
1761392303757238800,5.21223876953125,0.15587002038955688,-0.26025500893592834,-1.9216419458389282
1761392303767320800,5.22232080078125,-0.5809081196784973,4.374244689941406,-3.303945541381836
1761392303777403000,5.23240283203125,-0.7828178405761719,5.9133076667785645,-4.292011737823486
1761392303787485000,5.24248486328125,-0.783027172088623,4.478743553161621,-4.796292304992676
1761392303797567700,5.252567626953125,-0.7035147547721863,1.4390974044799805,-4.661815643310547
1761392303807649800,5.26264990234375,-0.5737029314041138,-1.8073875904083252,-4.227985382080078
1761392303817731800,5.27273193359375,-0.42421838641166687,-4.042529582977295,-3.9531896114349365
1761392303827814000,5.28281396484375,-0.346238911151886,-5.327103137969971,-4.079651832580566
1761392303837896700,5.292896728515625,-0.4713400900363922,-5.600212574005127,-4.272915363311768
1761392303847979500,5.3029794921875,-0.8697308897972107,-5.235717296600342,-4.47383451461792
1761392303858061300,5.313061279296875,-1.37151300907135,-4.7684783935546875,-4.743510723114014
1761392303868143400,5.323143310546875,-1.7731976509094238,-4.728641510009766,-4.8216753005981445
1761392303878225400,5.333225341796875,-1.8434048891067505,-5.339121341705322,-4.721830368041992
1761392303888308500,5.34330859375,-1.6198402643203735,-6.386607646942139,-4.320561408996582
1761392303898390500,5.353390625,-1.2067393064498901,-7.629019737243652,-3.613250732421875
1761392303908472600,5.36347265625,-1.0447919368743896,-8.434531211853027,-2.8635013103485107
1761392303918554600,5.3735546875,-1.140496850013733,-8.34962272644043,-2.3365302085876465
1761392303928637400,5.383637451171875,-1.4139689207077026,-7.492481231689453,-2.0243709087371826
1761392303938719500,5.393719482421875,-1.774545431137085,-6.246429443359375,-1.8211283683776855
1761392303948801500,5.403801513671875,-2.1468284130096436,-5.054464340209961,-1.3264875411987305
1761392303958883600,5.413883544921875,-2.626380205154419,-4.086680889129639,-0.7083103060722351
1761392303968965600,5.423965576171875,-3.1937615871429443,-3.110867500305176,-0.308211088180542
1761392303979048400,5.43404833984375,-3.761570453643799,-1.816737413406372,-0.0742177739739418
1761392303989130500,5.444130615234375,-4.091719627380371,-0.03845870867371559,0.24748383462429047
1761392303999212500,5.454212646484375,-3.8432884216308594,2.2901830673217773,0.7479871511459351
1761392304009294600,5.464294677734375,-2.852595806121826,4.527333736419678,1.5183809995651245
1761392304019376600,5.474376708984375,-1.5186132192611694,5.843973636627197,2.4919326305389404
1761392304029459500,5.48445947265625,-0.2746051847934723,6.110933303833008,3.516356945037842
1761392304039541500,5.49454150390625,0.5234631896018982,5.621269226074219,4.457151889801025
1761392304049623600,5.50462353515625,0.8083487749099731,5.1175312995910645,5.087238311767578
1761392304059705600,5.51470556640625,0.7605820298194885,4.957183361053467,5.234757423400879
1761392304069788400,5.524788330078125,0.5078725218772888,5.194427967071533,4.920520782470703
1761392304079870500,5.534870361328125,0.10207124054431915,5.709288597106934,4.319973468780518
1761392304089952500,5.544952392578125,-0.3688962757587433,6.5990447998046875,3.55659556388855
1761392304100034600,5.55503466796875,-0.7408424019813538,7.550489902496338,2.666600465774536
1761392304110116600,5.56511669921875,-0.8699593544006348,8.148524284362793,1.7868098020553589
1761392304120199400,5.575199462890625,-0.7234753966331482,7.921985626220703,1.0550719499588013
1761392304130281500,5.585281494140625,-0.37957262992858887,7.052648067474365,0.6952163577079773
1761392304140363500,5.595363525390625,0.3186107277870178,5.5773539543151855,0.7072109580039978
1761392304150445600,5.605445556640625,1.445860743522644,4.073073387145996,1.050460934638977
1761392304160528400,5.6155283203125,2.640833854675293,2.1956632137298584,1.5411436557769775
1761392304170610400,5.6256103515625,2.9288127422332764,-0.36163702607154846,1.596712350845337
1761392304180692500,5.6356923828125,2.115546464920044,-2.390639543533325,0.9715741276741028
1761392304190774500,5.6457744140625,1.2535827159881592,-2.53363299369812,-0.02094416320323944
1761392304200856300,5.655856201171875,0.729465126991272,-1.52371084690094,-1.5751473903656006
1761392304210939400,5.665939453125,0.5473619103431702,-0.27680203318595886,-3.3611338138580322
1761392304221021400,5.676021484375,0.42202848196029663,0.44237634539604187,-4.82094144821167
1761392304231103500,5.686103515625,0.046973101794719696,0.6022043824195862,-5.729406356811523
1761392304241185500,5.696185546875,-0.2612965703010559,0.24521295726299286,-6.151658535003662
1761392304251268400,5.706268310546875,-0.41385042667388916,-0.4620659053325653,-6.256081581115723
1761392304261350400,5.716350341796875,-0.42196375131607056,-1.4927865266799927,-6.165563106536865
1761392304271432400,5.726432373046875,-0.38108184933662415,-2.548732042312622,-5.946558475494385
1761392304281514500,5.736514404296875,-0.5130129456520081,-3.674250364303589,-5.5935959815979
1761392304291596300,5.74659619140625,-0.8377660512924194,-4.578675746917725,-5.185563564300537
1761392304301679400,5.756679443359375,-1.278775691986084,-4.787674427032471,-5.085505485534668
1761392304311761400,5.766761474609375,-1.7058470249176025,-4.476869583129883,-5.974163055419922
1761392304321843500,5.776843505859375,-2.0707125663757324,-3.6605379581451416,-7.003394603729248
1761392304331925500,5.786925537109375,-2.456840753555298,-3.068915605545044,-7.839669704437256
1761392304342008300,5.79700830078125,-2.4811325073242188,-2.0905065536499023,-8.072530746459961
1761392304352090400,5.80709033203125,-1.9855862855911255,-1.3794543743133545,-7.086770534515381
1761392304362172400,5.81717236328125,-1.423354983329773,-1.4930280447006226,-5.180150985717773
1761392304372254500,5.82725439453125,-0.8371031880378723,-1.6283458471298218,-2.824699878692627
1761392304382336300,5.837336181640625,-0.28886324167251587,-1.7723584175109863,-0.4605862498283386
1761392304392419300,5.84741943359375,-0.1046353355050087,-1.3621571063995361,1.6763054132461548
1761392304402501400,5.85750146484375,-0.4281446933746338,-1.139517068862915,3.227080821990967
1761392304412583400,5.86758349609375,-0.8217793107032776,-1.4325129985809326,3.9657657146453857
1761392304422665500,5.87766552734375,-1.0163339376449585,-1.857762336730957,3.8081445693969727
1761392304432747300,5.887747314453125,-1.0434914827346802,-2.091459274291992,2.9618947505950928
1761392304442830300,5.897830322265625,-0.9421228170394897,-1.657834529876709,1.8342177867889404
1761392304452912400,5.907912353515625,-0.7735747694969177,-0.2959240674972534,0.8896766304969788
1761392304462994400,5.917994384765625,-0.5340697765350342,1.4637987613677979,0.22925209999084473
1761392304473076200,5.928076171875,-0.2168889045715332,2.719424247741699,-0.4531610906124115
1761392304483159600,5.93815966796875,0.15163852274417877,3.3035926818847656,-1.1207460165023804
1761392304493241300,5.948241455078125,0.6507173180580139,3.46881365776062,-1.5526154041290283
1761392304503323400,5.958323486328125,1.1031851768493652,3.1087911128997803,-1.5641053915023804
1761392304513405400,5.968405517578125,1.4991607666015625,2.2731940746307373,-1.2994463443756104
1761392304523487200,5.9784873046875,1.5843347311019897,1.2383041381835938,-1.0152475833892822
1761392304533570600,5.988570556640625,1.4246777296066284,0.48251739144325256,-0.7520266175270081
1761392304543652600,5.998652587890625,1.2502888441085815,-0.019356120377779007,-0.49125948548316956
1761392304553734700,6.008734619140625,1.0858447551727295,-0.5230070352554321,-0.2597562074661255
1761392304563816200,6.018816162109375,0.8718497157096863,-1.0228458642959595,-0.11645417660474777
1761392304573899500,6.0288994140625,0.6325934529304504,-1.180685043334961,-0.0684909075498581
1761392304583981600,6.038981689453125,0.4347410798072815,-0.7625964283943176,0.07177165895700455
1761392304594063600,6.049063720703125,0.30886730551719666,-0.09450333565473557,0.21908147633075714
1761392304604145400,6.0591455078125,0.2858828902244568,0.6313928961753845,0.4167809784412384
1761392304614227500,6.0692275390625,0.3914279639720917,1.1928609609603882,0.6382758021354675
1761392304624310500,6.079310546875,0.6257584095001221,1.692410945892334,0.87599116563797
1761392304634392600,6.089392578125,0.862392246723175,1.7719310522079468,1.081984281539917
1761392304644474600,6.099474609375,1.0214240550994873,1.171062707901001,1.2208590507507324
1761392304654556400,6.109556396484375,1.0743180513381958,0.8117586374282837,1.2244386672973633
1761392304664639500,6.119639404296875,1.0055561065673828,0.5491246581077576,1.063989281654358
1761392304674721500,6.129721435546875,0.8840872049331665,0.4146943986415863,0.8265733122825623
1761392304684803600,6.139803466796875,0.7777538299560547,0.5602207183837891,0.7172244191169739
1761392304694885400,6.149885498046875,0.7364194393157959,0.8996120691299438,0.7468395829200745
1761392304704967400,6.159967529296875,0.7005032300949097,1.3622084856033325,0.8824487924575806
1761392304715050500,6.170050537109375,0.6137606501579285,1.6656749248504639,1.007420301437378
1761392304725132500,6.180132568359375,0.47498542070388794,1.528813123703003,0.9333506226539612
1761392304735214600,6.190214599609375,0.29664233326911926,0.9289534687995911,0.6228728890419006
1761392304745296400,6.20029638671875,0.13828463852405548,0.20345191657543182,0.2101423144340515
1761392304755378400,6.21037841796875,0.04145742952823639,-0.154831662774086,-0.10701166838407516
1761392304765461500,6.22046142578125,-0.029714485630393028,-0.2268856167793274,-0.2594563364982605
1761392304775543600,6.23054345703125,-0.08455482870340347,-0.17819982767105103,-0.3381170630455017
1761392304785625300,6.240625244140625,-0.11923664808273315,-0.0058067562058568,-0.45639631152153015
1761392304795707400,6.250707275390625,-0.11434681713581085,0.25116220116615295,-0.5877811908721924
1761392304805790500,6.26079052734375,-0.059786900877952576,0.6250942349433899,-0.5946521759033203
1761392304815872500,6.27087255859375,0.040474988520145416,0.9333420991897583,-0.4923710823059082
1761392304825954600,6.28095458984375,0.1182084009051323,1.0010204315185547,-0.35594719648361206
1761392304836036400,6.291036376953125,0.13101287186145782,0.8844088912010193,-0.18159402906894684
1761392304846117600,6.30111767578125,0.09979983419179916,0.5953890681266785,-0.045333925634622574
1761392304856200700,6.31120068359375,0.05548562854528427,0.21995766460895538,0.0127570740878582
1761392304866282800,6.32128271484375,0.029927272349596024,-0.030535271391272545,0.05566912144422531
1761392304876364800,6.33136474609375,0.022534603253006935,-0.10373997688293457,0.13822178542613983
1761392304886446600,6.341446533203125,0.009207080118358135,-0.09467457979917526,0.25270816683769226
1761392304896528600,6.351528564453125,-0.024698954075574875,-0.12778379023075104,0.30515244603157043
1761392304906611700,6.36161181640625,-0.0670461431145668,-0.11459262669086456,0.34500372409820557
1761392304916693800,6.37169384765625,-0.09445380419492722,-0.0006013417732901871,0.3810325562953949
1761392304926775800,6.38177587890625,-0.11161627620458603,0.1203615665435791,0.4100301265716553
1761392304936857600,6.391857666015625,-0.15211762487888336,0.16900579631328583,0.3734486997127533
1761392304946940700,6.401940673828125,-0.19110338389873505,0.18608225882053375,0.2708727717399597
1761392304957022700,6.412022705078125,-0.21612830460071564,0.28773805499076843,0.15727084875106812
1761392304967104800,6.422104736328125,-0.21950092911720276,0.44590744376182556,0.046720366925001144
1761392304977186600,6.4321865234375,-0.2064913958311081,0.5395796298980713,-0.06687942892313004
1761392304987268600,6.4422685546875,-0.1777106076478958,0.5204064249992371,-0.14884646236896515
1761392304997351700,6.4523515625,-0.15195757150650024,0.3906551003456116,-0.2076951414346695
1761392305007433700,6.462433837890625,-0.11782410740852356,0.24574531614780426,-0.24388110637664795
1761392305017515800,6.472515869140625,-0.05296681076288223,0.15417252480983734,-0.26972469687461853
1761392305027597600,6.48259765625,-0.01774730533361435,0.14616812765598297,-0.2087358981370926
1761392305037679600,6.4926796875,-0.051229365170001984,0.18034526705741882,-0.048641838133335114
1761392305047762700,6.5027626953125,-0.11533511430025101,0.23387853801250458,0.1273757964372635
1761392305057844700,6.5128447265625,-0.1689317673444748,0.2789440155029297,0.28533267974853516
1761392305067926500,6.522926513671875,-0.1864098161458969,0.24008822441101074,0.3641928732395172
1761392305078008600,6.533008544921875,-0.17640486359596252,0.13306963443756104,0.36893728375434875
1761392305088091600,6.543091552734375,-0.19106769561767578,0.044377319514751434,0.36044979095458984
1761392305098173700,6.553173583984375,-0.22410739958286285,0.03194621577858925,0.3720654249191284
1761392305108255700,6.563255859375,-0.2165035456418991,0.12803812325000763,0.3844811022281647
1761392305118337500,6.573337646484375,-0.13242754340171814,0.2832689881324768,0.3665143549442291
1761392305128419600,6.583419677734375,-0.03355689346790314,0.4218710660934448,0.31650498509407043
1761392305138503000,6.5935029296875,0.02652614936232567,0.5225196480751038,0.26551610231399536
1761392305148584700,6.603584716796875,0.03804272413253784,0.5805845856666565,0.25767868757247925
1761392305158666500,6.61366650390625,0.017117734998464584,0.627324640750885,0.28633055090904236
1761392305168748500,6.62374853515625,-0.01130724884569645,0.6346579194068909,0.331595242023468
1761392305178830600,6.63383056640625,-0.035656798630952835,0.5695571899414062,0.37486228346824646
1761392305188914000,6.643913818359375,-0.04327157512307167,0.3577671945095062,0.47315824031829834
1761392305198995700,6.65399560546875,-0.02298574335873127,-0.0967627614736557,0.5718488693237305
1761392305209077800,6.664077880859375,0.01296613272279501,-0.3628716766834259,0.6603859066963196
1761392305219159600,6.67415966796875,0.029047897085547447,-0.3974642753601074,0.6963819861412048
1761392305229241600,6.68424169921875,0.03538302332162857,-0.2975155711174011,0.6494600176811218
1761392305239325000,6.694324951171875,0.037330593913793564,-0.14372600615024567,0.5569511651992798
1761392305249406700,6.70440673828125,0.032707344740629196,0.004573180340230465,0.4573736786842346
