time,seconds_elapsed,z,y,x
1761392273987336400,0.07633642578125,0.5045015215873718,0.10593841969966888,1.1155608892440796
1761392273997419300,0.086419189453125,0.5527723431587219,0.40364015102386475,1.0886930227279663
1761392274007501300,0.096501220703125,0.6483268737792969,0.6879909038543701,1.0651768445968628
1761392274017583400,0.106583251953125,0.8059021234512329,0.8997665643692017,0.9730095863342285
1761392274027665400,0.11666552734375,0.9994891285896301,0.9792153239250183,0.7775383591651917
1761392274037748200,0.126748291015625,1.1795995235443115,0.9756839275360107,0.5214059352874756
1761392274047830300,0.136830322265625,1.3147773742675781,0.8483624458312988,0.2586477994918823
1761392274057912300,0.146912353515625,1.3968229293823242,0.7420980930328369,0.100186787545681
1761392274067994400,0.156994384765625,1.43568754196167,0.7214156985282898,0.09223964810371399
1761392274078076400,0.167076416015625,1.4151982069015503,0.8220685720443726,0.22942999005317688
1761392274088159500,0.177159423828125,1.3410602807998657,0.9703264832496643,0.4633391499519348
1761392274098241500,0.187241455078125,1.277441143989563,1.1472498178482056,0.7311649918556213
1761392274108323300,0.1973232421875,1.226420283317566,1.3060871362686157,0.9534465670585632
1761392274118405400,0.2074052734375,1.1829127073287964,1.3294122219085693,1.0605860948562622
1761392274128487400,0.2174873046875,1.1736655235290527,1.2911686897277832,1.077131986618042
1761392274138570500,0.227570556640625,1.1805018186569214,1.2601481676101685,1.0416892766952515
1761392274148652500,0.237652587890625,1.1953742504119873,1.2027416229248047,0.9748498201370239
1761392274158734600,0.247734619140625,1.1732321977615356,1.1045559644699097,0.9168730974197388
1761392274168816600,0.257816650390625,1.1260268688201904,0.9803969264030457,0.8814013600349426
1761392274178899500,0.2678994140625,1.054465889930725,0.7169844508171082,0.801191508769989
1761392274188981500,0.2779814453125,0.9001654982566833,0.360584020614624,0.6953164935112
1761392274199063600,0.2880634765625,0.6832336783409119,0.07588490843772888,0.6016603112220764
1761392274209145600,0.2981455078125,0.5018295645713806,-0.048166465014219284,0.5056504011154175
1761392274219227600,0.3082275390625,0.46039289236068726,0.12637178599834442,0.42776253819465637
1761392274229310500,0.318310546875,0.5926180481910706,0.4788728356361389,0.3593861162662506
1761392274239392500,0.328392578125,0.8166738152503967,0.8282209634780884,0.27514129877090454
1761392274249474600,0.338474609375,1.0689460039138794,1.1715610027313232,0.16893629729747772
1761392274259556600,0.348556640625,1.5305479764938354,1.4097850322723389,0.00818149745464325
1761392274269638700,0.358638671875,2.0171713829040527,1.3055158853530884,-0.20206867158412933
1761392274279721500,0.368721435546875,2.3555755615234375,0.8588257431983948,-0.47917085886001587
1761392274289803500,0.378803466796875,2.4255800247192383,0.2656463086605072,-0.6755456924438477
1761392274299885600,0.388885498046875,2.300598382949829,-0.12288118153810501,-0.7087012529373169
1761392274309967600,0.398967529296875,2.0582263469696045,-0.20853003859519958,-0.6037324666976929
1761392274320050400,0.409050537109375,1.7794419527053833,-0.09100500494241714,-0.5205934047698975
1761392274330132500,0.419132568359375,1.5715627670288086,-0.12989674508571625,-0.6242420077323914
1761392274340214500,0.429214599609375,1.4703885316848755,-0.2505509853363037,-0.8552078604698181
1761392274350296600,0.439296630859375,1.5122816562652588,-0.2607373297214508,-1.1153744459152222
1761392274360378600,0.449378662109375,1.6315616369247437,-0.278167188167572,-1.4483630657196045
1761392274370461400,0.45946142578125,1.7234455347061157,-0.4082021415233612,-1.9196062088012695
1761392274380543500,0.46954345703125,1.6557124853134155,-0.6413238048553467,-2.3465328216552734
1761392274390625500,0.47962548828125,1.5061057806015015,-0.842443585395813,-2.526519298553467
1761392274400707600,0.48970751953125,1.3594350814819336,-0.919252872467041,-2.5937373638153076
1761392274410789400,0.499789306640625,1.1830639839172363,-0.9006112813949585,-2.75614070892334
1761392274420872400,0.50987255859375,1.0209074020385742,-0.8759730458259583,-3.064385175704956
1761392274430954500,0.51995458984375,0.8372887969017029,-0.9013662934303284,-3.430408239364624
1761392274441036500,0.53003662109375,0.6133808493614197,-0.9240846633911133,-3.8177237510681152
1761392274451118600,0.54011865234375,0.3963329493999481,-0.8747754693031311,-4.102084159851074
1761392274461201400,0.550201416015625,0.20711830258369446,-0.8096992373466492,-4.13636589050293
1761392274471283500,0.560283447265625,-0.0365966260433197,-0.8946681618690491,-3.9360263347625732
1761392274481365500,0.570365478515625,-0.3625986874103546,-1.2827882766723633,-3.6818206310272217
1761392274491447600,0.580447509765625,-0.7046921253204346,-1.9924333095550537,-3.5086538791656494
1761392274501529300,0.590529296875,-1.0579493045806885,-2.7496116161346436,-3.4191887378692627
1761392274511612400,0.6006123046875,-1.516103744506836,-3.361572504043579,-3.5165112018585205
1761392274521694500,0.610694580078125,-2.095581293106079,-3.5546329021453857,-3.847311019897461
1761392274531776500,0.620776611328125,-2.6239383220672607,-3.2848293781280518,-4.297644138336182
1761392274541858600,0.630858642578125,-3.1277201175689697,-2.716726064682007,-4.614073753356934
1761392274551940400,0.6409404296875,-3.5127718448638916,-1.7716619968414307,-4.370282173156738
1761392274562023400,0.6510234375,-3.627351760864258,-0.5716922879219055,-3.3828468322753906
1761392274572105500,0.66110546875,-3.5092971324920654,0.38079634308815,-1.9946943521499634
1761392274582187500,0.6711875,-3.2140440940856934,0.9036135077476501,-0.5448063015937805
1761392274592269300,0.681269287109375,-2.8430118560791016,0.9482198357582092,0.780952513217926
1761392274602352400,0.691352294921875,-2.52980637550354,0.5215654373168945,2.0101473331451416
1761392274612434400,0.701434326171875,-2.348902702331543,-0.19252577424049377,3.0982823371887207
1761392274622516500,0.7115166015625,-2.2673768997192383,-0.9835570454597473,3.9621939659118652
1761392274632598500,0.7215986328125,-2.255605697631836,-1.3217159509658813,4.539710521697998
1761392274642680300,0.731680419921875,-2.2833664417266846,-1.107620120048523,4.824092388153076
1761392274652763400,0.741763427734375,-2.3623111248016357,-0.4987906217575073,4.916304111480713
1761392274662845400,0.751845458984375,-2.473898410797119,0.21986737847328186,4.856910705566406
1761392274672927500,0.761927490234375,-2.586531162261963,1.0221869945526123,4.750901222229004
1761392274683009300,0.77200927734375,-2.6522207260131836,1.7721960544586182,4.6338210105896
1761392274693091300,0.78209130859375,-2.6121878623962402,2.3465051651000977,4.538534641265869
1761392274703174400,0.79217431640625,-2.5106756687164307,2.634622812271118,4.47349739074707
1761392274713256400,0.80225634765625,-2.297755479812622,2.8170225620269775,4.4804511070251465
1761392274723338200,0.812338134765625,-1.9380578994750977,2.9786033630371094,4.633232116699219
1761392274733420300,0.822420166015625,-1.4636200666427612,3.305966854095459,4.813485622406006
1761392274743503600,0.832503662109375,-0.8450438976287842,3.8970954418182373,4.924925327301025
1761392274753585400,0.84258544921875,-0.07317141443490982,4.601123332977295,4.99984073638916
1761392274763667500,0.85266748046875,0.6931044459342957,5.00740385055542,4.99559211730957
1761392274773749200,0.862749267578125,1.2045516967773438,5.181896686553955,4.976231098175049
1761392274783831300,0.872831298828125,1.3533891439437866,5.02371883392334,4.803548812866211
1761392274793914600,0.88291455078125,1.2124477624893188,4.6854567527771,4.108246326446533
1761392274803996700,0.89299658203125,1.2617117166519165,4.550098896026611,2.747049331665039
1761392274814078500,0.903078369140625,1.574157476425171,4.792208194732666,1.0072650909423828
1761392274824160000,0.913159912109375,1.9994081258773804,5.262967586517334,-0.9249789714813232
1761392274834242000,0.923241943359375,2.32238507270813,5.614590167999268,-2.7582058906555176
1761392274844325000,0.9333251953125,2.403542995452881,5.639584064483643,-3.9072368144989014
1761392274854407200,0.9434072265625,2.2970056533813477,5.277717113494873,-4.309181213378906
1761392274864489000,0.953489013671875,2.136381149291992,4.610940456390381,-4.369930744171143
1761392274874571000,0.963571044921875,1.9911205768585205,3.7348945140838623,-4.636500358581543
1761392274884654000,0.973654052734375,1.970542073249817,2.756981134414673,-5.343760967254639
1761392274894736100,0.983736083984375,2.013667106628418,1.9703972339630127,-6.220091819763184
1761392274904818200,0.993818115234375,1.8932195901870728,1.5460600852966309,-6.8223443031311035
1761392274914900000,1.00389990234375,1.5878945589065552,1.4158098697662354,-6.934370517730713
1761392274924982000,1.01398193359375,1.2183336019515991,1.200120210647583,-6.584389686584473
1761392274935065300,1.0240654296875,0.8814098834991455,0.7433569431304932,-5.89959716796875
1761392274945147400,1.0341474609375,0.48783278465270996,0.25807201862335205,-5.144014835357666
1761392274955229000,1.04422900390625,-0.062483884394168854,-0.2962074279785156,-4.5081353187561035
1761392274965311000,1.05431103515625,-0.5695620179176331,-0.8979784846305847,-4.034121990203857
1761392274975394300,1.064394287109375,-0.9645482301712036,-1.3706810474395752,-3.5968871116638184
1761392274985476400,1.074476318359375,-1.365391731262207,-1.5487120151519775,-3.0912938117980957
1761392274995558100,1.08455810546875,-1.9053966999053955,-1.292763590812683,-2.5852715969085693
1761392275005640200,1.09464013671875,-2.553788185119629,-0.9517301321029663,-2.275092363357544
1761392275015722200,1.10472216796875,-3.0752031803131104,-0.8330490589141846,-2.0994842052459717
1761392275025805300,1.114805419921875,-3.510007381439209,-1.0023683309555054,-1.8584973812103271
1761392275035887400,1.124887451171875,-3.916476249694824,-1.5373486280441284,-1.3528331518173218
1761392275045969200,1.13496923828125,-4.300421714782715,-2.3573355674743652,-0.5449314713478088
1761392275056051200,1.14505126953125,-4.5667266845703125,-2.925452709197998,0.3188070058822632
1761392275066134300,1.15513427734375,-4.72853422164917,-2.9595937728881836,0.816143274307251
1761392275076216300,1.16521630859375,-4.919155597686768,-2.3190832138061523,0.7778768539428711
1761392275086298000,1.175298095703125,-5.169860363006592,-1.3600350618362427,0.6379812955856323
1761392275096380200,1.185380126953125,-5.283733367919922,-0.5546096563339233,0.8738327026367188
1761392275106462200,1.195462158203125,-5.131032943725586,-0.3629808723926544,1.6885868310928345
1761392275116545300,1.205545166015625,-4.687343597412109,-0.4636126756668091,2.973188877105713
1761392275126627300,1.21562744140625,-4.065883636474609,-0.4429044723510742,4.189843654632568
1761392275136709000,1.225709228515625,-3.4604032039642334,-0.06868185847997665,4.867552280426025
1761392275146791200,1.235791259765625,-2.9131462574005127,0.538493812084198,4.901434421539307
1761392275156873200,1.245873291015625,-2.4074039459228516,1.193323016166687,4.487173080444336
1761392275166956300,1.255956298828125,-1.8966516256332397,1.7596296072006226,3.9060311317443848
1761392275177038000,1.2660380859375,-1.3886398077011108,2.0427634716033936,3.215733051300049
1761392275187120000,1.2761201171875,-0.8771358132362366,2.1269338130950928,2.57053542137146
1761392275197202200,1.2862021484375,-0.2819933295249939,2.1881825923919678,2.2137176990509033
1761392275207285200,1.29628515625,0.4315490126609802,2.2773776054382324,2.1234071254730225
1761392275217367300,1.3063671875,1.1470983028411865,2.2611939907073975,2.0393736362457275
1761392275227449000,1.316448974609375,1.6649121046066284,2.1005306243896484,1.858130931854248
1761392275237531100,1.32653125,1.8583993911743164,1.627057671546936,1.6446013450622559
1761392275247613200,1.33661328125,1.9080992937088013,1.0066466331481934,1.3178902864456177
1761392275257696300,1.3466962890625,2.033268690109253,0.558361828327179,0.7901518940925598
1761392275267778000,1.356778076171875,2.315305471420288,0.3584361672401428,0.15388543903827667
1761392275277860000,1.366860107421875,2.61676287651062,0.5090752243995667,-0.2873761057853699
1761392275287942100,1.376942138671875,2.847066879272461,0.94882732629776,-0.3819335103034973
1761392275298025200,1.387025146484375,2.988247871398926,1.5197120904922485,-0.2919633984565735
1761392275308107300,1.397107177734375,3.111330270767212,1.8062658309936523,-0.19093267619609833
1761392275318189000,1.40718896484375,3.1742172241210938,1.5989049673080444,-0.039689354598522186
1761392275328271000,1.41727099609375,3.03271746635437,1.2760562896728516,0.11929470300674438
1761392275338353200,1.427353271484375,2.670837640762329,1.1016680002212524,0.07014686614274979
1761392275348436200,1.437436279296875,2.2544190883636475,1.174094796180725,-0.31775185465812683
1761392275358518000,1.44751806640625,1.9559639692306519,1.3701715469360352,-0.9452794194221497
1761392275368600000,1.45760009765625,1.748919129371643,1.227914810180664,-1.5596842765808105
1761392275378682000,1.46768212890625,1.3624300956726074,0.34777766466140747,-2.1486153602600098
1761392275388765200,1.47776513671875,0.6219583749771118,-0.8072110414505005,-2.8953535556793213
1761392275398847000,1.487846923828125,-0.2562485635280609,-1.4898468255996704,-3.9876725673675537
1761392275408929000,1.497928955078125,-1.0600107908248901,-1.4110136032104492,-5.326168060302734
1761392275419011000,1.508010986328125,-1.6697332859039307,-0.6668509840965271,-6.222052574157715
1761392275429093000,1.518093017578125,-2.1644845008850098,0.21100863814353943,-6.117577075958252
1761392275439176200,1.52817626953125,-2.5780081748962402,0.41325974464416504,-5.272091865539551
1761392275449258000,1.538258056640625,-2.951209545135498,-0.38208797574043274,-4.42450475692749
1761392275459340000,1.548340087890625,-3.3067054748535156,-1.8505877256393433,-3.949138641357422
1761392275469422000,1.558422119140625,-3.6085331439971924,-3.496708393096924,-3.5881104469299316
1761392275479505200,1.568505126953125,-3.9731318950653076,-4.975293159484863,-3.277055025100708
1761392275489587000,1.5785869140625,-4.2582807540893555,-6.104112148284912,-3.166830062866211
1761392275499669000,1.5886689453125,-4.600492000579834,-6.4139180183410645,-3.226149797439575
1761392275509751000,1.5987509765625,-4.960059642791748,-5.62524938583374,-3.000030517578125
1761392275519833000,1.6088330078125,-5.147561550140381,-3.6851181983947754,-2.2766926288604736
1761392275529916200,1.618916259765625,-5.018359184265137,-1.2285252809524536,-1.2659934759140015
1761392275539998000,1.628998046875,-4.665582180023193,0.6978963017463684,-0.2512250244617462
1761392275550080000,1.639080078125,-4.317826271057129,1.5586392879486084,0.8198107481002808
1761392275560162000,1.649162109375,-3.974520206451416,1.1487287282943726,1.9805558919906616
1761392275570245400,1.659245361328125,-3.705233097076416,-0.1634690910577774,3.1534926891326904
1761392275580327200,1.6693271484375,-3.545957326889038,-1.7904554605484009,4.190321445465088
1761392275590409200,1.6794091796875,-3.449640989303589,-2.951565980911255,4.862224578857422
1761392275600491000,1.689490966796875,-3.3407912254333496,-3.2992820739746094,5.0704240798950195
1761392275610573000,1.699572998046875,-3.2066829204559326,-3.1213390827178955,4.976313591003418
1761392275620656000,1.70965625,-3.015632152557373,-2.6582236289978027,4.86090087890625
1761392275630738200,1.71973828125,-2.7816414833068848,-1.9012548923492432,4.870222091674805
1761392275640820200,1.7298203125,-2.516887664794922,-0.7826838493347168,4.90859842300415
1761392275650902300,1.73990234375,-2.257385015487671,0.0624130442738533,4.870639324188232
1761392275660985300,1.7499853515625,-1.9519543647766113,0.3738652169704437,4.7347822189331055
1761392275671067100,1.760067138671875,-1.5855650901794434,0.12526097893714905,4.521129608154297
1761392275681149200,1.770149169921875,-1.1667476892471313,-0.14811302721500397,4.395216464996338
1761392275691231200,1.780231201171875,-0.806718111038208,-0.01811002753674984,3.9826014041900635
1761392275701313300,1.790313232421875,-0.44979220628738403,0.6567927598953247,3.1044716835021973
1761392275711396000,1.80039599609375,-0.026443058624863625,1.5059137344360352,1.6923792362213135
1761392275721478100,1.81047802734375,0.5049055218696594,2.2263436317443848,-0.23030591011047363
1761392275731560200,1.820560302734375,1.249412178993225,2.722770929336548,-2.230414628982544
1761392275741642200,1.830642333984375,2.1493752002716064,2.8162264823913574,-3.9035825729370117
1761392275751725300,1.840725341796875,2.9314892292022705,2.5235209465026855,-4.829780578613281
1761392275761807000,1.85080712890625,3.3747005462646484,2.2202041149139404,-4.928289413452148
1761392275771889200,1.86088916015625,3.5285863876342773,2.20609450340271,-4.4513468742370605
1761392275781971200,1.87097119140625,3.456282615661621,2.335080623626709,-4.007802963256836
1761392275792054300,1.88105419921875,3.3162214756011963,2.425516128540039,-3.901287794113159
1761392275802136000,1.891135986328125,3.016812324523926,2.305168867111206,-4.13723611831665
1761392275812218000,1.901218017578125,2.4679365158081055,2.0199737548828125,-4.543395519256592
1761392275822304000,1.911303955078125,1.819447636604309,1.4692409038543701,-4.936776161193848
1761392275832386000,1.921385986328125,1.2400470972061157,0.6384784579277039,-5.083419322967529
1761392275842468900,1.93146875,0.6620866060256958,-0.27041417360305786,-4.811070919036865
1761392275852551000,1.941551025390625,0.07865193486213684,-0.980584442615509,-4.231225967407227
1761392275862633000,1.951633056640625,-0.5570089221000671,-1.294779896736145,-3.5787465572357178
1761392275872715000,1.961715087890625,-1.317799687385559,-1.1730244159698486,-3.2771711349487305
1761392275882798000,1.971798095703125,-2.167167901992798,-0.6522137522697449,-3.5565779209136963
1761392275892880000,1.9818798828125,-2.8648502826690674,-0.0800628811120987,-4.126022815704346
1761392275902962000,1.9919619140625,-3.4225335121154785,0.028534172102808952,-4.4470109939575195
1761392275913044000,2.0020439453125,-3.7715485095977783,-0.45098716020584106,-4.1460137367248535
1761392275923127000,2.012126953125,-3.7882890701293945,-1.2690305709838867,-3.283588171005249
1761392275933208800,2.022208740234375,-3.6688578128814697,-2.144564628601074,-2.2673563957214355
1761392275943291000,2.032290771484375,-3.6311182975769043,-2.7909231185913086,-1.340266227722168
1761392275953373000,2.042373046875,-3.658290386199951,-3.028554677963257,-0.39105698466300964
1761392275963455000,2.052455078125,-3.5075347423553467,-2.774250030517578,0.828696072101593
1761392275973538000,2.0625380859375,-3.0529541969299316,-2.154191732406616,2.3483471870422363
1761392275983619800,2.072619873046875,-2.643120050430298,-1.5498234033584595,3.9817161560058594
1761392275993702000,2.082701904296875,-2.5772788524627686,-0.9866761565208435,5.406528949737549
1761392276003784000,2.092783935546875,-2.8432676792144775,-0.4178968369960785,6.1485066413879395
1761392276013867000,2.102866943359375,-3.1910266876220703,0.11095767468214035,6.105226039886475
1761392276023948800,2.11294873046875,-3.3983559608459473,0.5034818053245544,5.8153395652771
1761392276034030800,2.12303076171875,-3.3660595417022705,0.9097467660903931,5.911192893981934
1761392276044113000,2.13311279296875,-3.1149654388427734,1.230125069618225,6.491390228271484
1761392276054195000,2.14319482421875,-2.5726356506347656,1.475134253501892,7.307977199554443
1761392276064277800,2.15327783203125,-1.853963017463684,1.7876226902008057,7.993930816650391
1761392276074359800,2.16335986328125,-1.1463472843170166,2.0790278911590576,8.206286430358887
1761392276084441900,2.17344189453125,-0.4626307487487793,2.287991523742676,7.882330894470215
1761392276094524000,2.18352392578125,0.07587132602930069,2.4148612022399902,7.278356552124023
1761392276104607000,2.19360693359375,0.4088921546936035,2.4911508560180664,6.53732442855835
1761392276114688800,2.203688720703125,0.5960037112236023,2.7870571613311768,5.495184898376465
1761392276124770800,2.213770751953125,0.8867937326431274,3.6183700561523438,3.949442148208618
1761392276134852900,2.223852783203125,1.4648786783218384,4.574934005737305,2.1021718978881836
1761392276144936000,2.23393603515625,2.1495299339294434,5.0249505043029785,0.5672626495361328
1761392276155017700,2.244017822265625,2.6460225582122803,4.5924835205078125,-0.30449917912483215
1761392276165099800,2.254099853515625,2.8575680255889893,3.5452864170074463,-0.5463269948959351
1761392276175181800,2.264181884765625,3.1056976318359375,2.402756690979004,-0.39512014389038086
1761392276185265200,2.27426513671875,3.704756498336792,1.5801831483840942,-0.04171122610569
1761392276195347000,2.284346923828125,4.36637544631958,1.1231412887573242,0.38627418875694275
1761392276205428700,2.2944287109375,4.696771144866943,1.0214985609054565,0.6813979744911194
1761392276215510800,2.3045107421875,4.516875267028809,1.1250030994415283,0.5259511470794678
1761392276225592800,2.3145927734375,3.919748544692993,1.1841734647750854,-0.0491797961294651
1761392276235676200,2.32467626953125,3.205604076385498,1.1537607908248901,-0.9267310500144958
1761392276245758000,2.334758056640625,2.686565637588501,1.0223242044448853,-1.9838498830795288
1761392276255840000,2.344840087890625,2.4360053539276123,0.9199714064598083,-2.9304330348968506
1761392276265922000,2.354922119140625,2.2793548107147217,1.0184937715530396,-3.5331568717956543
1761392276276005000,2.365005126953125,2.106776237487793,1.24881112575531,-3.7835705280303955
1761392276286087000,2.3750869140625,1.9508203268051147,1.4788552522659302,-3.864849805831909
1761392276296169000,2.3851689453125,1.8152217864990234,1.342301607131958,-3.895678758621216
1761392276306251000,2.3952509765625,1.7673163414001465,0.8176455497741699,-3.898603916168213
1761392276316334000,2.405333984375,1.7409776449203491,0.0011472897604107857,-3.7559831142425537
1761392276326416100,2.415416015625,1.5237358808517456,-0.7204351425170898,-3.442765951156616
1761392276336498000,2.425497802734375,1.1202150583267212,-0.8315430283546448,-3.207292318344116
1761392276346580000,2.435580078125,0.6605291962623596,-0.37668150663375854,-3.4091320037841797
1761392276356663000,2.4456630859375,0.2826511263847351,0.3189774453639984,-4.1766886711120605
1761392276366745000,2.4557451171875,0.11241576075553894,0.6859429478645325,-5.153008937835693
1761392276376827000,2.465826904296875,0.030227145180106163,0.4594815671443939,-5.952218055725098
1761392276386909000,2.475908935546875,-0.17494304478168488,-0.5102978944778442,-6.519138336181641
1761392276396992000,2.485991943359375,-0.5361531972885132,-1.9448564052581787,-6.844934463500977
1761392276407074000,2.496073974609375,-0.9710825085639954,-3.0647823810577393,-6.8605732917785645
1761392276417156000,2.506156005859375,-1.2954508066177368,-3.4810891151428223,-6.385515213012695
1761392276427238000,2.51623779296875,-1.385568380355835,-3.115772247314453,-5.270488739013672
1761392276437321000,2.526321044921875,-1.3205097913742065,-2.5353024005889893,-3.7468740940093994
1761392276447403000,2.536403076171875,-1.3377410173416138,-2.1988346576690674,-2.321199417114258
1761392276457485000,2.546485107421875,-1.4977554082870483,-2.112290143966675,-1.1827654838562012
1761392276467566800,2.55656689453125,-1.7567267417907715,-2.236767053604126,-0.2568213939666748
1761392276477649000,2.56664892578125,-2.0101118087768555,-2.388563394546509,0.5910603404045105
1761392276487732000,2.57673193359375,-2.177129030227661,-2.3268940448760986,1.481112003326416
1761392276497814000,2.58681396484375,-2.319672107696533,-1.9883549213409424,2.404489278793335
1761392276507896000,2.59689599609375,-2.527297019958496,-1.5824604034423828,3.253852367401123
1761392276517977900,2.606977783203125,-2.7714781761169434,-1.145622968673706,3.9246509075164795
1761392276528061000,2.61706103515625,-2.9667470455169678,-0.74336838722229,4.423195838928223
1761392276538143000,2.62714306640625,-3.0792810916900635,-0.44737350940704346,4.8012824058532715
1761392276548225000,2.63722509765625,-3.0579237937927246,-0.2640332579612732,5.11436653137207
1761392276558306800,2.647306884765625,-2.9640705585479736,-0.14895272254943848,5.4012017250061035
1761392276568390000,2.657389892578125,-2.8284430503845215,-0.13856054842472076,5.690323829650879
1761392276578472000,2.667471923828125,-2.605882167816162,-0.20921926200389862,5.9376444816589355
1761392276588554000,2.677553955078125,-2.3939285278320312,-0.3115656077861786,6.120075225830078
1761392276598636000,2.687635986328125,-2.2861289978027344,-0.47123411297798157,6.305388927459717
1761392276608718800,2.69771875,-2.3254830837249756,-0.5624297857284546,6.640331745147705
1761392276618801000,2.70780078125,-2.4742674827575684,-0.3928671181201935,7.008278846740723
1761392276628883000,2.717883056640625,-2.6747846603393555,0.12137755751609802,7.094963550567627
1761392276638965000,2.727965087890625,-2.8893890380859375,0.9846582412719727,6.8461198806762695
1761392276649046800,2.738046875,-3.0430240631103516,2.1875979900360107,6.453781604766846
1761392276659129900,2.7481298828125,-2.994062662124634,3.319977283477783,6.029491424560547
1761392276669212000,2.7582119140625,-2.77608585357666,4.119777202606201,5.515999794006348
1761392276679294000,2.7682939453125,-2.4972431659698486,4.6382551193237305,4.810695171356201
1761392276689376000,2.7783759765625,-2.2424356937408447,4.864755153656006,3.9135639667510986
1761392276699458800,2.788458740234375,-2.0127968788146973,4.884482383728027,2.8741533756256104
1761392276709540900,2.798540771484375,-1.697633147239685,4.7838616371154785,1.7036763429641724
1761392276719623000,2.808622802734375,-1.2239078283309937,4.768439769744873,0.5718784332275391
1761392276729705000,2.818705078125,-0.5208525061607361,4.9199090003967285,-0.3843742907047272
1761392276739788000,2.8287880859375,0.3214624524116516,5.021763801574707,-1.0641722679138184
1761392276749870000,2.8388701171875,1.1738135814666748,4.941606044769287,-1.4023798704147339
1761392276759952100,2.8489521484375,1.941591739654541,4.661724090576172,-1.3852612972259521
1761392276770034000,2.859033935546875,2.5987446308135986,4.185697555541992,-1.1526185274124146
1761392276780117000,2.869116943359375,3.092020273208618,3.595627784729004,-0.9407176971435547
1761392276790199000,2.879198974609375,3.401585817337036,2.943899631500244,-0.8864597678184509
1761392276800281000,2.889281005859375,3.5771825313568115,2.404942035675049,-1.0078786611557007
1761392276810363100,2.899363037109375,3.7300188541412354,2.0813658237457275,-1.3456825017929077
1761392276820441900,2.90944189453125,3.890911817550659,1.9793585538864136,-1.8419759273529053
1761392276830524000,2.91952392578125,4.058136463165283,2.0848915576934814,-2.372549057006836
1761392276840606000,2.92960595703125,4.134398937225342,2.340833902359009,-2.833547830581665
1761392276850688000,2.93968798828125,4.147005081176758,2.617790937423706,-3.2124969959259033
1761392276860770800,2.949770751953125,4.147364616394043,2.732438087463379,-3.5146915912628174
1761392276870852900,2.959852783203125,4.165429592132568,2.568075656890869,-3.673273801803589
1761392276880935000,2.969934814453125,4.16906213760376,2.1150739192962646,-3.6208651065826416
1761392276891017000,2.980016845703125,4.053627014160156,1.5352522134780884,-3.4653820991516113
1761392276901100000,2.99010009765625,3.7481956481933594,1.0809624195098877,-3.4181461334228516
1761392276911181800,3.000181884765625,3.316286087036133,0.9148658514022827,-3.5627472400665283
1761392276921263900,3.010263916015625,2.9150888919830322,1.0643008947372437,-3.8201844692230225
1761392276931346000,3.020345947265625,2.6335701942443848,1.3761471509933472,-4.005740165710449
1761392276941428000,3.030427978515625,2.500991106033325,1.6160913705825806,-4.002906799316406
1761392276951511000,3.040510986328125,2.4272704124450684,1.4896711111068726,-3.763929605484009
1761392276961593000,3.050593017578125,2.3008997440338135,1.0003548860549927,-3.3025176525115967
1761392276971675000,3.0606748046875,2.0074968338012695,0.4532543122768402,-2.739673614501953
1761392276981757000,3.0707568359375,1.4351540803909302,0.17126336693763733,-2.3207650184631348
1761392276991840000,3.080840087890625,0.7918861508369446,0.22580569982528687,-2.374936103820801
1761392277001922000,3.090922119140625,0.3646378815174103,0.5507036447525024,-3.0917394161224365
1761392277012004000,3.101004150390625,0.21797999739646912,0.7572339177131653,-4.501199245452881
1761392277022086100,3.111086181640625,0.1398593634366989,0.4364505410194397,-6.185186386108398
1761392277032169200,3.121169189453125,-0.07413414865732193,-0.39499205350875854,-7.336798667907715
1761392277042251000,3.1312509765625,-0.30618521571159363,-1.1828662157058716,-7.4504475593566895
1761392277052333000,3.1413330078125,-0.5812756419181824,-1.4896548986434937,-6.418822288513184
1761392277062415000,3.1514150390625,-0.7879931330680847,-1.1205921173095703,-4.629123687744141
1761392277072498200,3.161498291015625,-0.7875864505767822,-0.3848171830177307,-2.9654276371002197
1761392277082580000,3.171580078125,-0.7873976826667786,0.01423539500683546,-2.1047143936157227
1761392277092662000,3.181662109375,-0.9495239853858948,0.25238484144210815,-1.9408392906188965
1761392277102744000,3.191744140625,-1.30880868434906,0.22083251178264618,-2.072711944580078
1761392277112827100,3.2018271484375,-1.759596586227417,0.1276991069316864,-1.9663540124893188
1761392277122909200,3.2119091796875,-2.208674430847168,0.058099523186683655,-1.503981590270996
1761392277132991000,3.221990966796875,-2.5626227855682373,0.050512708723545074,-0.7139756679534912
1761392277143073000,3.232072998046875,-2.761784791946411,0.1859845221042633,0.22140643000602722
1761392277153156000,3.242156005859375,-2.8801445960998535,0.40754035115242004,1.0898534059524536
1761392277163238100,3.252238037109375,-2.996901273727417,0.5441170930862427,1.8110501766204834
1761392277173320000,3.26231982421875,-3.069406032562256,0.48531344532966614,2.4054834842681885
1761392277183402000,3.272402099609375,-3.07906436920166,0.14616386592388153,2.927178382873535
1761392277193485000,3.282485107421875,-3.008408784866333,-0.4238671064376831,3.4820713996887207
1761392277203567000,3.292567138671875,-2.891056537628174,-0.9001290202140808,4.079558372497559
1761392277213649200,3.302649169921875,-2.7605395317077637,-1.2131396532058716,4.584197998046875
1761392277223731000,3.31273095703125,-2.6858646869659424,-1.1887434720993042,5.007013320922852
1761392277233814000,3.32281396484375,-2.649754762649536,-0.8275810480117798,5.291794776916504
1761392277243896000,3.33289599609375,-2.640561103820801,-0.2694213390350342,5.360808849334717
1761392277253978000,3.34297802734375,-2.6343157291412354,0.43736347556114197,5.322059631347656
1761392277264060000,3.353059814453125,-2.6036033630371094,1.0432323217391968,5.3152594566345215
1761392277274142000,3.363141845703125,-2.490781545639038,1.339898705482483,5.333642482757568
1761392277284225000,3.37322509765625,-2.260258436203003,1.4129332304000854,5.328485488891602
1761392277294307000,3.38330712890625,-1.9275696277618408,1.4707224369049072,5.38933801651001
1761392277304389000,3.39338916015625,-1.634742021560669,1.6317569017410278,5.5835347175598145
1761392277314471000,3.403470947265625,-1.4378478527069092,1.877581000328064,5.787362098693848
1761392277324554000,3.413553955078125,-1.2834070920944214,2.2329325675964355,5.84634256362915
1761392277334636000,3.423635986328125,-1.1662360429763794,2.8255038261413574,5.599823474884033
1761392277344718000,3.433718017578125,-1.0300390720367432,3.6061699390411377,4.752161502838135
1761392277354799900,3.4437998046875,-0.4556295871734619,4.365146160125732,3.2202811241149902
1761392277364883000,3.453883056640625,0.5477829575538635,5.008802890777588,1.4083863496780396
1761392277374965000,3.463965087890625,1.6417242288589478,5.289520263671875,-0.28347644209861755
1761392277385047000,3.474047119140625,2.4770760536193848,4.934203147888184,-1.583799958229065
1761392277395129000,3.484129150390625,2.84262752532959,4.01420259475708,-2.34590220451355
1761392277405212000,3.4942119140625,2.9172821044921875,3.0790836811065674,-2.6314940452575684
1761392277415294000,3.5042939453125,2.923475742340088,2.3841440677642822,-2.6492958068847656
1761392277425376000,3.5143759765625,2.9991509914398193,2.0451748371124268,-2.555926561355591
1761392277435458000,3.5244580078125,3.1628811359405518,2.001749038696289,-2.536843776702881
1761392277445541000,3.534541015625,3.342196464538574,1.9874275922775269,-2.7143731117248535
1761392277455623200,3.544623046875,3.3659801483154297,1.7470320463180542,-3.051697015762329
1761392277465705200,3.554705322265625,3.138172149658203,1.2878111600875854,-3.477687120437622
1761392277475787000,3.564787109375,2.6494529247283936,0.7267026305198669,-3.950488567352295
1761392277485870000,3.5748701171875,1.9917742013931274,0.28957056999206543,-4.512477397918701
1761392277495952100,3.5849521484375,1.3166756629943848,0.06024789437651634,-5.279308795928955
1761392277506034200,3.5950341796875,0.7871078848838806,0.04225850850343704,-6.13757848739624
1761392277516116200,3.6051162109375,0.34284257888793945,0.17570258677005768,-6.80796480178833
1761392277526199000,3.615198974609375,-0.07214023917913437,0.29879334568977356,-7.165838718414307
1761392277536281000,3.625281005859375,-0.5496886968612671,0.47792449593544006,-7.061415195465088
1761392277546363100,3.635363037109375,-1.2469394207000732,0.6839178800582886,-6.6827778816223145
1761392277556445200,3.645445068359375,-2.061450481414795,0.7159628868103027,-6.096090793609619
1761392277566528000,3.655528076171875,-2.7190465927124023,0.36417344212532043,-5.419754505157471
1761392277576610000,3.665610107421875,-3.1350326538085938,-0.04511874169111252,-4.707103252410889
1761392277586692000,3.675692138671875,-3.4459614753723145,-0.3869839310646057,-3.866039752960205
1761392277596774100,3.685774169921875,-3.6947643756866455,-0.6540473103523254,-2.9685001373291016
1761392277606857000,3.69585693359375,-3.9765474796295166,-0.6813071966171265,-2.2296409606933594
1761392277616939000,3.70593896484375,-4.2989301681518555,-0.6683493256568909,-1.556379795074463
1761392277627021000,3.71602099609375,-4.741621971130371,-0.687401294708252,-0.8025529384613037
1761392277637103000,3.72610302734375,-5.148488998413086,-0.6527857780456543,-0.15721918642520905
1761392277647185200,3.73618505859375,-5.4801836013793945,-0.5456265807151794,0.21095910668373108
1761392277657268000,3.74626806640625,-5.639553546905518,-0.6361567378044128,0.23588016629219055
1761392277667350000,3.75635009765625,-5.559437274932861,-1.1237136125564575,0.25221705436706543
1761392277677432000,3.76643212890625,-5.357504367828369,-2.043041944503784,0.6716132760047913
1761392277687514000,3.77651416015625,-5.019466400146484,-3.166659116744995,1.8063929080963135
1761392277697597000,3.786596923828125,-4.535745620727539,-4.0405707359313965,3.533722400665283
1761392277707679000,3.796678955078125,-4.04955530166626,-4.344059467315674,5.312560081481934
1761392277717761000,3.806760986328125,-3.7087106704711914,-4.052544116973877,6.38078498840332
1761392277727843000,3.816843017578125,-3.5944252014160156,-3.3415987491607666,6.401834011077881
1761392277737926000,3.82692578125,-3.5987515449523926,-2.4312820434570312,5.667880058288574
1761392277748008000,3.837008056640625,-3.7067275047302246,-1.552085518836975,4.6997246742248535
1761392277758090000,3.847090087890625,-3.8640553951263428,-0.8495907187461853,3.900207281112671
1761392277768172000,3.857172119140625,-3.8900091648101807,-0.33277714252471924,3.3950321674346924
1761392277778255000,3.867255126953125,-3.695150852203369,0.09131952375173569,3.1244213581085205
1761392277788337000,3.8773369140625,-3.283991813659668,0.4613734781742096,2.9428110122680664
1761392277798419000,3.8874189453125,-2.712794780731201,0.8105543851852417,2.827439308166504
1761392277808501000,3.8975009765625,-2.023611307144165,1.1319193840026855,2.8017067909240723
1761392277818584000,3.907583984375,-1.3208863735198975,1.4172874689102173,2.8645267486572266
1761392277828670200,3.917670166015625,-0.6917036175727844,1.6008487939834595,2.9624996185302734
1761392277838752300,3.927752197265625,-0.17437686026096344,1.6186375617980957,3.0472218990325928
1761392277848834300,3.937834228515625,0.2266531139612198,1.554341435432434,3.1157877445220947
1761392277858916400,3.947916259765625,0.5321243405342102,1.4261174201965332,3.159719467163086
1761392277868999200,3.957999267578125,0.7479432225227356,1.339401125907898,3.153132915496826
1761392277879081200,3.968081298828125,0.8916806578636169,1.3391926288604736,3.0905494689941406
1761392277889163300,3.978163330078125,1.0331743955612183,1.4286540746688843,2.982356071472168
1761392277899245300,3.988245361328125,1.199681043624878,1.5511113405227661,2.80253005027771
1761392277909327400,3.998327392578125,1.3403642177581787,1.6321525573730469,2.530156373977661
1761392277919409200,4.0084091796875,1.441981315612793,1.6599102020263672,2.1962926387786865
1761392277929491200,4.0184912109375,1.5152297019958496,1.624495267868042,1.7973970174789429
1761392277939574300,4.02857421875,1.5529882907867432,1.5423418283462524,1.3174010515213013
1761392277949656300,4.03865625,1.5607436895370483,1.5422061681747437,0.8011379837989807
1761392277959738400,4.04873828125,1.5584906339645386,1.6558645963668823,0.28146761655807495
1761392277969820200,4.058820068359375,1.5467228889465332,1.7656691074371338,-0.22450821101665497
1761392277979903200,4.0689033203125,1.5132536888122559,1.8447322845458984,-0.7177272439002991
1761392277989985300,4.0789853515625,1.4732670783996582,1.8400176763534546,-1.2825605869293213
1761392278000067300,4.0890673828125,1.5158982276916504,1.6258811950683594,-2.0336315631866455
1761392278010149000,4.099149169921875,1.6735596656799316,1.0837475061416626,-3.0524752140045166
1761392278020232400,4.109232421875,1.7694132328033447,0.2583220899105072,-4.146846771240234
1761392278030314500,4.119314453125,1.7537418603897095,-0.36049479246139526,-5.059660911560059
1761392278040396300,4.129396240234375,1.7221128940582275,-0.3481638431549072,-5.679776668548584
1761392278050478300,4.139478271484375,1.774246096611023,0.42843738198280334,-5.87905216217041
1761392278060560100,4.14956005859375,1.892135739326477,1.580328345298767,-5.738479137420654
1761392278070643500,4.1596435546875,1.9413949251174927,2.2218401432037354,-5.648724555969238
1761392278080725500,4.1697255859375,1.8155770301818848,2.112616777420044,-5.777014255523682
1761392278090807600,4.1798076171875,1.4519990682601929,1.202121376991272,-5.963066577911377
1761392278100889300,4.189889404296875,0.8794277310371399,-0.08386267721652985,-6.181440830230713
1761392278110972400,4.199972412109375,0.24956482648849487,-1.2508132457733154,-6.623353004455566
1761392278121054500,4.210054443359375,-0.27092471718788147,-1.7815583944320679,-7.258472442626953
1761392278131136500,4.220136474609375,-0.7005325555801392,-1.688389778137207,-7.892029285430908
1761392278141218300,4.23021826171875,-1.2811882495880127,-1.095526933670044,-8.390084266662598
1761392278151301400,4.24030126953125,-2.121546506881714,-0.18545667827129364,-8.668018341064453
1761392278161383400,4.250383544921875,-3.118563175201416,0.8188884854316711,-8.68036937713623
1761392278171465500,4.260465576171875,-3.9559333324432373,1.7014899253845215,-8.39033317565918
1761392278181547500,4.270547607421875,-4.525913238525391,2.247858762741089,-7.776852130889893
1761392278191630300,4.28063037109375,-4.856992721557617,2.320042371749878,-6.694738864898682
1761392278201712400,4.29071240234375,-4.994986057281494,1.9277241230010986,-5.070634365081787
1761392278211794400,4.30079443359375,-4.994593620300293,1.0868269205093384,-3.2093441486358643
1761392278221876500,4.31087646484375,-4.938487529754639,0.1372651755809784,-1.4973905086517334
1761392278231959300,4.320959228515625,-4.891401767730713,-0.7315599322319031,-0.22903797030448914
1761392278242041300,4.331041259765625,-4.855118274688721,-1.4691461324691772,0.538632869720459
1761392278252123400,4.341123291015625,-4.832551956176758,-1.9877538681030273,0.9352161288261414
1761392278262205400,4.351205322265625,-4.8565144538879395,-2.2252962589263916,1.1952471733093262
1761392278272288300,4.361288330078125,-4.904636383056641,-2.2289836406707764,1.4679324626922607
1761392278282370300,4.371370361328125,-5.00570821762085,-1.959695816040039,1.8608167171478271
1761392278292452400,4.381452392578125,-5.107158660888672,-1.4547394514083862,2.2683908939361572
1761392278302534400,4.391534423828125,-5.17318058013916,-0.8034072518348694,2.4474027156829834
1761392278312616400,4.401616455078125,-5.111667156219482,-0.015359248965978622,2.3149068355560303
1761392278322699300,4.41169921875,-4.8051533699035645,0.6979194283485413,1.9337260723114014
1761392278332781300,4.42178125,-4.413768768310547,1.1430803537368774,1.5439913272857666
1761392278342863400,4.43186328125,-3.9827206134796143,1.2965583801269531,1.455250859260559
1761392278352945400,4.4419453125,-3.4044547080993652,1.1864060163497925,1.7821868658065796
1761392278363028200,4.4520283203125,-2.5946412086486816,1.030122995376587,2.5231363773345947
1761392278373110300,4.4621103515625,-1.6738100051879883,1.0844460725784302,3.518188953399658
1761392278383192300,4.4721923828125,-0.7653783559799194,1.2065986394882202,4.379764080047607
1761392278393274400,4.4822744140625,0.020242154598236084,1.1511719226837158,4.87519645690918
1761392278403357200,4.492357177734375,0.6198323369026184,1.0526498556137085,5.078969955444336
1761392278413439200,4.502439208984375,0.9873376488685608,0.9740317463874817,5.0417399406433105
1761392278423521300,4.512521240234375,1.1518739461898804,0.9166635274887085,4.825043678283691
1761392278433603300,4.522603271484375,1.18874990940094,0.9020765423774719,4.4433112144470215
1761392278443686100,4.53268603515625,1.1493302583694458,0.8885117769241333,3.8959450721740723
1761392278453768200,4.542768310546875,1.0574296712875366,0.9763146042823792,3.3171746730804443
1761392278463850200,4.552850341796875,0.9210574626922607,1.266074538230896,2.730914354324341
1761392278473932300,4.562932373046875,0.7854722142219543,1.6062285900115967,2.1149632930755615
1761392278484014300,4.573014404296875,0.6610692739486694,1.9784953594207764,1.4672329425811768
1761392278494097200,4.58309716796875,0.60312819480896,2.422245979309082,0.7715396285057068
1761392278504179200,4.59317919921875,0.6381490230560303,2.9246530532836914,0.048939045518636703
1761392278514261200,4.60326123046875,0.7106397747993469,3.4496700763702393,-0.5906521081924438
1761392278524343300,4.61334326171875,0.8350375890731812,3.8693959712982178,-1.032676100730896
1761392278534426000,4.623426025390625,0.9899808764457703,4.11164665222168,-1.3085784912109375
1761392278544509400,4.633509521484375,1.1161049604415894,4.098086833953857,-1.42898428440094
1761392278554591500,4.643591552734375,1.2101051807403564,3.8851866722106934,-1.4176791906356812
1761392278564673500,4.653673583984375,1.2635242938995361,3.549537181854248,-1.3695745468139648
1761392278574755300,4.66375537109375,1.345861792564392,3.2115073204040527,-1.336926817893982
1761392278584837400,4.67383740234375,1.497715950012207,2.9026646614074707,-1.3691198825836182
1761392278594920400,4.68392041015625,1.6997226476669312,2.552701473236084,-1.5341945886611938
1761392278605002500,4.69400244140625,1.938020944595337,2.1140964031219482,-1.8440155982971191
1761392278615084300,4.704084228515625,2.1031696796417236,1.663508653640747,-2.2034976482391357
1761392278625166300,4.714166259765625,2.020087480545044,1.235755205154419,-2.3794994354248047
1761392278635249400,4.72424951171875,1.7276597023010254,0.9131044745445251,-2.3907015323638916
1761392278645331500,4.73433154296875,1.4644757509231567,0.9123331904411316,-2.421066999435425
1761392278655413500,4.74441357421875,1.4083610773086548,0.792678952217102,-2.8040103912353516
1761392278665495300,4.754495361328125,1.393338680267334,0.1512334644794464,-3.472027540206909
1761392278675578400,4.764578369140625,1.2163937091827393,-0.8942782878875732,-4.043265342712402
1761392278685660400,4.774660400390625,0.8837398886680603,-1.828115463256836,-4.253139972686768
1761392278695742500,4.784742431640625,0.6997120380401611,-2.3848230838775635,-3.9311161041259766
1761392278705824300,4.79482421875,0.6631255149841309,-2.208571434020996,-3.3506417274475098
1761392278715907300,4.8049072265625,0.4542370140552521,-1.6774940490722656,-3.18070912361145
1761392278725989400,4.8149892578125,0.030907316133379936,-1.191968321800232,-3.536297559738159
1761392278736071400,4.825071533203125,-0.5042503476142883,-1.1393996477127075,-4.2057719230651855
1761392278746153500,4.835153564453125,-1.2012678384780884,-2.097275733947754,-4.769084453582764
1761392278756235300,4.8452353515625,-2.103977680206299,-3.28342604637146,-4.518993854522705
1761392278766318300,4.855318359375,-2.7571330070495605,-3.6719162464141846,-3.3017029762268066
1761392278776400400,4.865400390625,-2.9217708110809326,-2.733916759490967,-1.5739002227783203
1761392278786482400,4.875482421875,-2.5674550533294678,-1.068976640701294,0.10561138391494751
1761392278796564200,4.885564208984375,-1.978501796722412,0.38825345039367676,1.6680281162261963
1761392278806647300,4.895647216796875,-1.4861253499984741,1.070021390914917,3.083507776260376
1761392278816729300,4.905729248046875,-1.0978444814682007,1.0476864576339722,4.313720703125
1761392278826810600,4.915810546875,-0.848119854927063,0.4209453761577606,5.237603664398193
1761392278836892700,4.925892578125,-0.7435250282287598,-0.5092912316322327,5.892831802368164
1761392278846975500,4.9359755859375,-0.7333418726921082,-1.3507413864135742,6.325270175933838
1761392278857057500,4.9460576171875,-0.771316409111023,-1.8483344316482544,6.551263809204102
1761392278867139600,4.9561396484375,-0.825697124004364,-2.0617127418518066,6.599842548370361
1761392278877221600,4.9662216796875,-0.9079459309577942,-2.112811803817749,6.519049167633057
1761392278887304400,4.976304443359375,-1.0204898118972778,-2.0149993896484375,6.362009525299072
1761392278897386500,4.986386474609375,-1.183161735534668,-1.7262994050979614,6.1532721519470215
1761392278907468500,4.996468505859375,-1.4458205699920654,-1.2585777044296265,5.840456008911133
1761392278917550600,5.006550537109375,-1.7623941898345947,-0.6610453128814697,5.346081733703613
1761392278927633700,5.016633544921875,-2.054807424545288,-0.0847465768456459,4.541730880737305
1761392278937715700,5.0267158203125,-2.2735767364501953,0.5391455292701721,3.586214780807495
1761392278947797800,5.0367978515625,-2.184156656265259,1.2470721006393433,2.741748094558716
1761392278957879800,5.0468798828125,-1.6332898139953613,2.002519130706787,2.0500648021698
1761392278967961600,5.056961669921875,-0.8913379311561584,2.675323247909546,1.4236547946929932
1761392278978044700,5.067044677734375,-0.1440061777830124,2.8663313388824463,0.8246819376945496
1761392278988126700,5.077126708984375,0.4687690734863281,2.5581727027893066,0.20288413763046265
1761392278998208800,5.087208740234375,0.8515998125076294,2.186971426010132,-0.4507642388343811
1761392279008290800,5.097290771484375,1.0829062461853027,2.2864952087402344,-0.9785449504852295
1761392279018373600,5.10737353515625,1.2722264528274536,2.8690338134765625,-1.3454031944274902
1761392279028455700,5.11745556640625,1.464308500289917,3.534510850906372,-1.6143081188201904
1761392279038537700,5.127537841796875,1.698689579963684,3.9178667068481445,-1.8522756099700928
1761392279048619800,5.137619873046875,1.9728089570999146,3.70731258392334,-2.1426522731781006
1761392279058702600,5.14770263671875,2.1558666229248047,2.9122934341430664,-2.4494211673736572
1761392279068784600,5.15778466796875,2.1254594326019287,1.7197679281234741,-2.712526798248291
1761392279078866700,5.16786669921875,1.9838308095932007,0.5567021369934082,-2.9044439792633057
1761392279088948700,5.17794873046875,1.9137102365493774,-0.3635009825229645,-3.09112811088562
1761392279099030800,5.18803076171875,1.9176222085952759,-0.9308914542198181,-3.2636380195617676
1761392279109113600,5.198113525390625,1.8096176385879517,-1.082726240158081,-3.4683315753936768
1761392279119195600,5.208195556640625,1.4391573667526245,-0.9104796648025513,-3.828325033187866
1761392279129277700,5.218277587890625,0.8655470609664917,-0.6902612447738647,-4.320272922515869
1761392279139359700,5.22835986328125,0.35199373960494995,-0.6210792660713196,-4.756898403167725
1761392279149442600,5.238442626953125,0.013823137618601322,-0.8445796966552734,-5.010997772216797
1761392279159524600,5.248524658203125,-0.3492661118507385,-1.1329222917556763,-5.021829128265381
1761392279169606700,5.258606689453125,-0.9173164963722229,-1.29500150680542,-4.9468302726745605
1761392279179688700,5.268688720703125,-1.7522708177566528,-1.2382620573043823,-4.854353904724121
1761392279189771800,5.278771728515625,-2.6663806438446045,-0.7679270505905151,-4.693332195281982
1761392279199853600,5.288853515625,-3.2468760013580322,0.08870749920606613,-4.363328456878662
1761392279209935600,5.298935546875,-3.1926870346069336,1.0083249807357788,-3.573639392852783
1761392279220017700,5.309017578125,-2.6670165061950684,1.3898768424987793,-2.143676280975342
1761392279230100700,5.319100830078125,-2.0088629722595215,0.9558034539222717,-0.2307751625776291
1761392279240182500,5.3291826171875,-1.3891946077346802,-0.21882182359695435,1.867335319519043
1761392279250264600,5.3392646484375,-0.9126591682434082,-1.5986851453781128,3.579146146774292
1761392279260346600,5.3493466796875,-0.5945709347724915,-2.527254581451416,4.538590908050537
1761392279270428700,5.3594287109375,-0.4414493143558502,-2.6716396808624268,4.88103723526001
1761392279280511700,5.36951171875,-0.4935583174228668,-2.2809231281280518,4.91547966003418
1761392279290593500,5.379593505859375,-0.6952184438705444,-1.5881694555282593,4.827341079711914
1761392279300675600,5.389675537109375,-0.9546734690666199,-0.6921451687812805,4.743051052093506
1761392279310757600,5.399757568359375,-1.0933362245559692,0.6188344955444336,4.832520961761475
1761392279320840700,5.4098408203125,-1.0608190298080444,2.2808492183685303,5.032582759857178
1761392279330922500,5.419922607421875,-0.7689664363861084,3.7804160118103027,5.299373149871826
1761392279341004500,5.430004638671875,-0.3214544653892517,4.6576619148254395,5.652476787567139
1761392279351086600,5.440086669921875,0.04133731871843338,4.732478618621826,6.031271457672119
1761392279361169700,5.450169677734375,0.278432160615921,3.8367674350738525,6.338385581970215
1761392279371251500,5.46025146484375,0.2863963544368744,2.3651673793792725,6.508040428161621
1761392279381333500,5.47033349609375,0.1674579679965973,1.3494703769683838,6.5154805183410645
1761392279391415600,5.48041552734375,0.12237677723169327,1.025122046470642,6.291906356811523
1761392279401497600,5.49049755859375,0.2493530958890915,1.3664724826812744,5.817633628845215
1761392279411580700,5.50058056640625,0.483089417219162,2.0858139991760254,4.945282459259033
1761392279421662500,5.510662353515625,0.571811854839325,2.963296413421631,3.536505937576294
1761392279431744500,5.52074462890625,0.6099928021430969,3.8168699741363525,1.89572012424469
1761392279441826600,5.53082666015625,0.6273896098136902,4.442800998687744,0.3692776560783386
1761392279451910000,5.540909912109375,0.7048066258430481,4.674840450286865,-0.851181149482727
1761392279461991400,5.550991455078125,0.8398299813270569,4.781674861907959,-1.6844719648361206
1761392279472073500,5.561073486328125,1.1603691577911377,4.7819013595581055,-2.220554828643799
1761392279482155500,5.571155517578125,1.8421095609664917,4.606669902801514,-2.5081350803375244
1761392279492238800,5.58123876953125,2.753147602081299,4.146235942840576,-2.5685887336730957
1761392279502320600,5.591320556640625,3.5591959953308105,3.2465786933898926,-2.4068241119384766
1761392279512402700,5.601402587890625,4.07841682434082,2.147646903991699,-2.1011545658111572
1761392279522484700,5.611484619140625,4.297828674316406,1.086773157119751,-1.9046603441238403
1761392279532567800,5.62156787109375,4.269841194152832,0.314333438873291,-2.012345552444458
1761392279542649900,5.63164990234375,4.092267036437988,-0.059536829590797424,-2.512263774871826
1761392279552731600,5.641731689453125,3.858018398284912,0.007392668630927801,-3.434999465942383
1761392279562813700,5.651813720703125,3.6634912490844727,0.3606548607349396,-4.635548114776611
1761392279572896800,5.661896728515625,3.4268782138824463,0.8013880252838135,-5.8427581787109375
1761392279582978800,5.671978759765625,3.093057870864868,1.0794247388839722,-6.783293724060059
1761392279593060600,5.682060546875,2.7060678005218506,0.9788344502449036,-7.248144149780273
1761392279603142700,5.692142578125,2.383869171142578,0.6058968305587769,-7.24712610244751
1761392279613224700,5.702224609375,2.16048002243042,0.11048949509859085,-6.925678730010986
1761392279623307800,5.712307861328125,2.0441508293151855,-0.3262622654438019,-6.279812812805176
1761392279633389800,5.722389892578125,2.1011803150177,-0.681804895401001,-5.346553802490234
1761392279643471600,5.7324716796875,2.2391915321350098,-1.0073941946029663,-4.149430751800537
1761392279653553700,5.7425537109375,2.346836805343628,-1.3044759035110474,-2.740354061126709
1761392279663636700,5.75263671875,2.1132407188415527,-1.305977463722229,-1.2864428758621216
1761392279673718800,5.76271875,1.5203858613967896,-1.1121419668197632,-0.46776241064071655
1761392279683800600,5.772800537109375,0.8094273209571838,-0.404965341091156,-0.36793941259384155
1761392279693882600,5.782882568359375,0.04426386579871178,0.4889017641544342,-0.6936581134796143
1761392279703965700,5.792965576171875,-0.7333157658576965,1.1923919916152954,-0.9891598224639893
1761392279714047700,5.8030478515625,-1.3321999311447144,1.4579288959503174,-0.9275947213172913
1761392279724129800,5.8131298828125,-1.606571078300476,1.3663305044174194,-0.292066752910614
1761392279734211600,5.823211669921875,-1.3594915866851807,1.3489893674850464,1.0820393562316895
1761392279744293600,5.833293701171875,-0.7267396450042725,1.6625864505767822,2.909452438354492
1761392279754376700,5.843376708984375,-0.06752285361289978,1.8398488759994507,4.654957294464111
1761392279764458800,5.853458740234375,0.3168219029903412,1.5209262371063232,5.843564987182617
1761392279774540500,5.86354052734375,0.5111849904060364,0.969755232334137,6.347895622253418
1761392279784622600,5.87362255859375,0.5648090839385986,0.4897007346153259,6.292360305786133
1761392279794705700,5.88370556640625,0.4655599594116211,0.20398561656475067,5.9016547203063965
1761392279804787700,5.89378759765625,0.1960424780845642,0.2034207582473755,5.241898536682129
1761392279814869800,5.903869873046875,-0.18396610021591187,0.45399412512779236,4.301634311676025
1761392279824952300,5.913952392578125,-0.598936915397644,0.7959825992584229,3.219614267349243
1761392279835035400,5.924035400390625,-1.0235595703125,0.857760488986969,2.149198055267334
1761392279845117400,5.934117431640625,-1.402153491973877,0.5996525287628174,1.1737152338027954
1761392279855199200,5.94419921875,-1.6022623777389526,0.44501689076423645,0.4071264863014221
1761392279865281300,5.95428125,-1.4640424251556396,0.6683080196380615,0.06358084082603455
1761392279875364400,5.9643642578125,-0.9572892189025879,1.2353562116622925,0.19632850587368011
1761392279885446400,5.9744462890625,-0.32940080761909485,1.5876471996307373,0.6603131890296936
1761392279895528200,5.984528076171875,0.17395181953907013,1.3779534101486206,1.100751280784607
1761392279905610200,5.9946103515625,0.5223915576934814,0.7526801824569702,1.2351490259170532
1761392279915692300,6.0046923828125,0.6958872079849243,0.00723527604714036,0.9838396310806274
1761392279925775400,6.014775390625,0.7523147463798523,-0.6237637400627136,0.424468994140625
1761392279935857400,6.024857421875,0.7177858352661133,-1.0086677074432373,-0.3133440613746643
1761392279945939200,6.034939208984375,0.6758596897125244,-1.080026388168335,-1.1115115880966187
1761392279956021200,6.045021240234375,0.6413370966911316,-1.0537891387939453,-1.8985230922698975
1761392279966104300,6.055104248046875,0.5984945893287659,-1.0625213384628296,-2.568288803100586
1761392279976186400,6.065186279296875,0.5518048405647278,-1.1445763111114502,-3.0953593254089355
1761392279986268200,6.07526806640625,0.465411901473999,-1.3175104856491089,-3.4244790077209473
1761392279996350200,6.08535009765625,0.332267701625824,-1.4801108837127686,-3.5292842388153076
1761392280006433300,6.095433349609375,0.28244686126708984,-1.61345636844635,-3.432432174682617
1761392280016515300,6.105515380859375,0.3892558813095093,-1.6194413900375366,-3.1319198608398438
1761392280026597400,6.115597412109375,0.48487746715545654,-1.479931354522705,-2.5871052742004395
1761392280036679200,6.12567919921875,0.3133467435836792,-1.052032232284546,-1.812278151512146
1761392280046762200,6.13576220703125,-0.17160530388355255,-0.41736873984336853,-1.0462299585342407
1761392280056844300,6.14584423828125,-0.735813319683075,0.03784431889653206,-0.5326293110847473
1761392280066926300,6.15592626953125,-1.1647273302078247,0.1686665117740631,-0.036978788673877716
1761392280077008100,6.166008056640625,-1.3711974620819092,0.1800462007522583,0.8073369860649109
1761392280087090200,6.176090087890625,-1.3563178777694702,0.10758824646472931,1.9728691577911377
1761392280097173200,6.18617333984375,-1.1865158081054688,0.048765674233436584,3.1087827682495117
1761392280107255300,6.19625537109375,-0.9570785760879517,0.09224338084459305,4.001090049743652
1761392280117337300,6.20633740234375,-0.7503605484962463,0.2110597789287567,4.579840183258057
1761392280127419100,6.216419189453125,-0.5478716492652893,0.2200080007314682,4.764283657073975
1761392280137502200,6.226502197265625,-0.38196441531181335,0.10614188015460968,4.576898574829102
1761392280147584300,6.236584228515625,-0.3680773675441742,-0.023394804447889328,4.133543968200684
1761392280157666300,6.246666259765625,-0.4827954173088074,-0.20714838802814484,3.446521282196045
1761392280167748000,6.256748046875,-0.75628662109375,-0.20918810367584229,2.481936454772949
1761392280177831200,6.2668310546875,-1.2570985555648804,0.2593687176704407,1.1698142290115356
1761392280187913200,6.276913330078125,-1.6300990581512451,1.2043567895889282,-0.2334095537662506
1761392280197995300,6.286995361328125,-1.5467535257339478,2.2743616104125977,-1.3485219478607178
1761392280208077300,6.297077392578125,-1.0610697269439697,3.1456663608551025,-1.8960646390914917
1761392280218159000,6.3071591796875,-0.4610280692577362,3.423884391784668,-1.8777514696121216
1761392280228242400,6.317242431640625,0.0832086056470871,2.939674139022827,-1.5141890048980713
1761392280238324500,6.327324462890625,0.4747377634048462,1.73284912109375,-1.0701502561569214
1761392280248406300,6.33740625,0.7098336219787598,0.2006785124540329,-0.7377667427062988
1761392280258488000,6.347488037109375,0.8063237071037292,-1.0613155364990234,-0.5824413299560547
1761392280268571400,6.3575712890625,0.8575221300125122,-1.743367314338684,-0.6802136898040771
1761392280278653400,6.3676533203125,0.8336426615715027,-1.9033799171447754,-1.0626574754714966
1761392280288735500,6.377735595703125,0.7049062252044678,-1.736276626586914,-1.6552823781967163
1761392280298817300,6.3878173828125,0.44032278656959534,-1.4261070489883423,-2.3564844131469727
1761392280308900400,6.397900390625,0.08502834290266037,-1.1031266450881958,-3.05753755569458
1761392280318982400,6.407982421875,-0.2817579209804535,-0.9583228230476379,-3.5549166202545166
1761392280329064400,6.418064453125,-0.6236603856086731,-0.8764305710792542,-3.7229926586151123
1761392280339146500,6.428146484375,-0.9850923418998718,-0.7700932621955872,-3.531196355819702
1761392280349228300,6.438228271484375,-1.1471017599105835,-0.9231983423233032,-3.1379616260528564
1761392280359311400,6.448311279296875,-1.225823163986206,-1.382503628730774,-2.7755126953125
1761392280369393400,6.458393310546875,-1.2296397686004639,-1.8681625127792358,-2.285407066345215
1761392280379475500,6.468475341796875,-1.2571475505828857,-2.058845043182373,-1.4237102270126343
1761392280389557200,6.47855712890625,-1.5180037021636963,-1.865100622177124,-0.39439657330513
1761392280399640300,6.488640380859375,-1.9248896837234497,-1.4172110557556152,0.2695222795009613
1761392280409722400,6.498722412109375,-2.2211787700653076,-0.825554370880127,0.31657421588897705
1761392280419804400,6.508804443359375,-2.3296499252319336,-0.04700559005141258,0.2743447422981262
1761392280429886500,6.518886474609375,-2.2827353477478027,0.5823662281036377,0.6149049997329712
1761392280439969300,6.52896923828125,-2.1661269664764404,0.7992319464683533,1.3781533241271973
1761392280450051300,6.53905126953125,-1.9629124402999878,0.7985895872116089,2.4339828491210938
1761392280460133400,6.54913330078125,-1.7141268253326416,0.5503712892532349,3.3653242588043213
1761392280470215400,6.55921533203125,-1.4204480648040771,0.34082069993019104,3.935689926147461
1761392280480298200,6.56929833984375,-1.0859202146530151,0.3323238790035248,4.221431255340576
1761392280490380300,6.57938037109375,-0.7976729273796082,0.3809952735900879,4.235882759094238
1761392280500462300,6.58946240234375,-0.6548532247543335,0.40618717670440674,3.9908435344696045
1761392280510544400,6.59954443359375,-0.6859354972839355,0.529141902923584,3.455669403076172
1761392280520626400,6.60962646484375,-0.8505697250366211,0.640994668006897,2.6281402111053467
1761392280530709200,6.619709228515625,-1.0601160526275635,0.6894897222518921,1.6477049589157104
1761392280540791300,6.629791259765625,-1.2800012826919556,0.9915584921836853,0.6437461972236633
1761392280550873300,6.639873291015625,-1.438011884689331,1.5807850360870361,-0.21992969512939453
1761392280560955400,6.649955322265625,-1.2452019453048706,2.2128260135650635,-0.8513848781585693
1761392280571038200,6.6600380859375,-0.5845656991004944,2.6079208850860596,-1.179624080657959
1761392280581120300,6.670120361328125,0.1582373082637787,2.462676525115967,-1.2211754322052002
1761392280591202300,6.680202392578125,0.6266955733299255,1.7103440761566162,-1.1089352369308472
1761392280601284400,6.690284423828125,0.7744928002357483,0.5485624670982361,-0.9715794920921326
1761392280611367200,6.7003671875,0.7546975016593933,-0.6372728943824768,-0.9912064671516418
1761392280621449200,6.71044921875,0.6636325716972351,-1.3846935033798218,-1.2769516706466675
1761392280631531300,6.72053125,0.5400426983833313,-1.5992285013198853,-1.8535505533218384
1761392280641613300,6.73061328125,0.4933633804321289,-1.3176324367523193,-2.6662631034851074
1761392280651695400,6.7406953125,0.41375163197517395,-0.7448342442512512,-3.466752290725708
1761392280661778200,6.750778076171875,0.215072900056839,-0.23909221589565277,-4.0884480476379395
1761392280671860200,6.760860107421875,-0.03534068167209625,0.03092249669134617,-4.367885589599609
1761392280681942300,6.7709423828125,-0.5219151377677917,-0.009461412206292152,-4.3133769035339355
1761392280692024300,6.7810244140625,-1.1375473737716675,-0.37740400433540344,-4.027658939361572
1761392280702107100,6.791107177734375,-1.7356864213943481,-1.0822618007659912,-3.630253553390503
1761392280712189200,6.801189208984375,-2.1062960624694824,-2.0518851280212402,-3.0250890254974365
1761392280722271200,6.811271240234375,-2.128014087677002,-2.876830816268921,-2.133918523788452
1761392280732353300,6.821353271484375,-1.9330089092254639,-3.2147562503814697,-1.0554834604263306
1761392280742436000,6.83143603515625,-1.7694928646087646,-3.1557540893554688,-0.04379861429333687
1761392280752518100,6.84151806640625,-1.619701862335205,-2.895806074142456,0.7075625061988831
1761392280762600200,6.85160009765625,-1.4953569173812866,-2.356433153152466,1.1119368076324463
1761392280772682200,6.86168212890625,-1.4490134716033936,-1.5258618593215942,1.195928692817688
1761392280782764300,6.871764404296875,-1.4340808391571045,-0.6078750491142273,0.9505500793457031
1761392280792847400,6.881847412109375,-1.440697193145752,-0.014751248992979527,0.44795912504196167
1761392280802929400,6.891929443359375,-1.458253264427185,0.14858734607696533,-0.08890031278133392
1761392280813011200,6.90201123046875,-1.4948277473449707,-0.28593161702156067,-0.4774720370769501
1761392280823093200,6.91209326171875,-1.3913285732269287,-1.0462756156921387,-0.813515305519104
1761392280833175600,6.922175537109375,-1.2959420680999756,-1.0008904933929443,-1.0492782592773438
1761392280843257600,6.932257568359375,-1.183748722076416,-1.1797590255737305,-1.0518873929977417
1761392280853339600,6.942339599609375,-1.0910214185714722,-1.1291179656982422,-0.9246900081634521
1761392280863421700,6.952421630859375,-0.9265300035476685,-0.663193941116333,-0.7282898426055908
1761392280873504500,6.96250439453125,-0.58407062292099,0.21615733206272125,-0.4332970976829529
1761392280883586600,6.972586669921875,-0.16036969423294067,0.6592596769332886,-0.22207167744636536
1761392280893668600,6.982668701171875,0.22772850096225739,0.7661765217781067,-0.05632852017879486
1761392280903750700,6.992750732421875,0.46155616641044617,0.9651426076889038,0.13780607283115387
1761392280913832700,7.002832763671875,0.5246051549911499,1.060166835784912,0.2977006733417511
1761392280923915500,7.01291552734375,0.3825974464416504,0.8149094581604004,0.32473787665367126
1761392280933997600,7.02299755859375,0.08482673764228821,0.47687360644340515,0.2687816619873047
1761392280944079600,7.03307958984375,-0.23155386745929718,0.4033653140068054,0.20920196175575256
1761392280954161700,7.04316162109375,-0.4291771948337555,0.539307177066803,0.12211312353610992
1761392280964244500,7.053244384765625,-0.4473239779472351,0.7182694673538208,-0.07110133767127991
1761392280974326500,7.063326416015625,-0.3657894432544708,0.80843186378479,-0.3366541862487793
1761392280984408600,7.07340869140625,-0.2971315383911133,0.9431906938552856,-0.4838681221008301
1761392280994490600,7.08349072265625,-0.2572408616542816,1.1211282014846802,-0.5004452466964722
1761392281004573700,7.09357373046875,-0.14705044031143188,1.249444603919983,-0.5336703062057495
1761392281014655500,7.103655517578125,0.008481102995574474,1.44123375415802,-0.6373533010482788
1761392281024737500,7.113737548828125,0.10130611807107925,1.7074165344238281,-0.7723627686500549
1761392281034819600,7.123819580078125,0.10144992172718048,1.5145024061203003,-0.9357053637504578
1761392281044901600,7.133901611328125,0.029209017753601074,0.795216977596283,-1.0924899578094482
1761392281054984700,7.143984619140625,-0.11864489316940308,-0.22701610624790192,-1.0478886365890503
1761392281065066800,7.154066650390625,-0.2977358102798462,-0.8811049461364746,-0.6566178202629089
1761392281075148800,7.164148681640625,-0.4484097361564636,-0.9689149856567383,-0.02394607849419117
1761392281085230600,7.174230712890625,-0.5797904133796692,-0.6892761588096619,0.5824522376060486
1761392281095313700,7.184313720703125,-0.5884131789207458,-0.335970014333725,0.9383858442306519
1761392281105395700,7.194395751953125,-0.4814630448818207,-0.020793961361050606,0.8765323162078857
1761392281115477800,7.204477783203125,-0.4124107360839844,0.19294016063213348,0.4790174663066864
1761392281125559800,7.214559814453125,-0.3885488212108612,0.44955968856811523,0.052147090435028076
1761392281135643000,7.224642822265625,-0.3725362718105316,0.49220091104507446,-0.36824434995651245
1761392281145724700,7.234724609375,-0.34850552678108215,0.3909800052642822,-0.7059890627861023
1761392281155806700,7.244806640625,-0.3078917860984802,0.24767237901687622,-0.9266322255134583
1761392281165888800,7.254888671875,-0.246381014585495,0.12736354768276215,-0.9738264083862305
1761392281175970800,7.264970703125,-0.17116641998291016,0.17189505696296692,-0.8322114944458008
1761392281186053600,7.2750537109375,-0.0900832861661911,0.31025826930999756,-0.5770119428634644
1761392281196135700,7.2851357421875,-0.02227015234529972,0.38922765851020813,-0.3351028859615326
1761392281206217700,7.2952177734375,-0.0073503246530890465,0.3304985463619232,-0.1623963713645935
1761392281216299800,7.3052998046875,-0.05317453667521477,0.06778757274150848,-0.08039204776287079
1761392281226382800,7.3153828125,-0.14376088976860046,-0.24475276470184326,-0.08546590059995651
1761392281236464600,7.325464599609375,-0.24714215099811554,-0.38297268748283386,-0.15006034076213837
1761392281246546700,7.335546630859375,-0.3823108971118927,-0.3385266661643982,-0.2548738420009613
1761392281256628700,7.345628662109375,-0.5066933035850525,-0.13715945184230804,-0.3069301247596741
1761392281266710800,7.355710693359375,-0.5644106268882751,0.217857226729393,-0.2248416393995285
1761392281276793600,7.365793701171875,-0.5609527826309204,0.494556188583374,-0.08688589930534363
1761392281286875600,7.375875732421875,-0.5230783820152283,0.748973548412323,0.008958607912063599
1761392281296957700,7.385957763671875,-0.4785892069339752,0.8835369944572449,0.06013497710227966
1761392281307039700,7.396039794921875,-0.46236711740493774,0.7293356657028198,0.1340121328830719
1761392281317122800,7.406122802734375,-0.4005029499530792,0.32272931933403015,0.18066352605819702
1761392281327204600,7.41620458984375,-0.29967594146728516,-0.022883478552103043,0.23464259505271912
1761392281337286700,7.42628662109375,-0.21634215116500854,-0.2303815484046936,0.27757301926612854
1761392281347368700,7.43636865234375,-0.22119976580142975,-0.3062395453453064,0.26843518018722534
1761392281357451800,7.44645166015625,-0.28247538208961487,-0.1793537735939026,0.25837242603302
1761392281367533600,7.456533447265625,-0.3421919643878937,0.034497521817684174,0.2738696336746216
