time,seconds_elapsed,z,y,x
1761392274007501300,0.096501220703125,0.6349347829818726,0.6963930726051331,1.0629011392593384
1761392274017583400,0.106583251953125,0.7925100326538086,0.9081687331199646,0.9707338213920593
1761392274027665400,0.11666552734375,0.9860965609550476,0.9876137971878052,0.7752615809440613
1761392274037748200,0.126748291015625,1.166206955909729,0.9840824007987976,0.5191291570663452
1761392274047830300,0.136830322265625,1.3013849258422852,0.856761634349823,0.2563712000846863
1761392274057912300,0.146912353515625,1.3834304809570312,0.7504972815513611,0.09791019558906555
1761392274067994400,0.156994384765625,1.4222956895828247,0.7298198938369751,0.08996444940567017
1761392274078076400,0.167076416015625,1.401806354522705,0.8304727673530579,0.22715479135513306
1761392274088159500,0.177159423828125,1.327667474746704,0.9787236452102661,0.4610620141029358
1761392274098241500,0.187241455078125,1.2640483379364014,1.1556469202041626,0.7288878560066223
1761392274108323300,0.1973232421875,1.213028073310852,1.3144882917404175,0.9511705040931702
1761392274118405400,0.2074052734375,1.1695204973220825,1.337813377380371,1.0583100318908691
1761392274128487400,0.2174873046875,1.1602736711502075,1.2995725870132446,1.0748566389083862
1761392274138570500,0.227570556640625,1.1671099662780762,1.2685520648956299,1.0394139289855957
1761392274148652500,0.237652587890625,1.1819814443588257,1.2111387252807617,0.9725726842880249
1761392274158734600,0.247734619140625,1.159839391708374,1.1129530668258667,0.9145959615707397
1761392274168816600,0.257816650390625,1.112634539604187,0.988797128200531,0.8791250586509705
1761392274178899500,0.2678994140625,1.0410735607147217,0.7253846526145935,0.7989152073860168
1761392274188981500,0.2779814453125,0.8867729306221008,0.3689825236797333,0.6930397152900696
1761392274199063600,0.2880634765625,0.6698411107063293,0.08428340405225754,0.599383533000946
1761392274209145600,0.2981455078125,0.48843759298324585,-0.03976326063275337,0.5033749341964722
1761392274219227600,0.3082275390625,0.4470009207725525,0.13477498292922974,0.42548707127571106
1761392274229310500,0.318310546875,0.5792256593704224,0.4872730076313019,0.35710981488227844
1761392274239392500,0.328392578125,0.8032814264297485,0.8366211652755737,0.2728649973869324
1761392274249474600,0.338474609375,1.0555535554885864,1.1799604892730713,0.16665980219841003
1761392274259556600,0.348556640625,1.5171555280685425,1.418184518814087,0.005905001889914274
1761392274269638700,0.358638671875,2.0037786960601807,1.313913345336914,-0.2043457180261612
1761392274279721500,0.368721435546875,2.3421828746795654,0.8672232627868652,-0.48144790530204773
1761392274289803500,0.378803466796875,2.4121875762939453,0.2740451395511627,-0.6778223514556885
1761392274299885600,0.388885498046875,2.287205934524536,-0.1144823506474495,-0.7109779119491577
1761392274309967600,0.398967529296875,2.0448334217071533,-0.20013421773910522,-0.6060099601745605
1761392274320050400,0.409050537109375,1.7660490274429321,-0.08260919153690338,-0.5228708982467651
1761392274330132500,0.419132568359375,1.5581704378128052,-0.12149656563997269,-0.6265183091163635
1761392274340214500,0.429214599609375,1.456996202468872,-0.24215081334114075,-0.8574841618537903
1761392274350296600,0.439296630859375,1.4988888502120972,-0.25234049558639526,-1.1176517009735107
1761392274360378600,0.449378662109375,1.618168830871582,-0.2697703540325165,-1.450640320777893
1761392274370461400,0.45946142578125,1.7100532054901123,-0.3998012840747833,-1.9218823909759521
1761392274380543500,0.46954345703125,1.642320156097412,-0.6329229474067688,-2.348809003829956
1761392274390625500,0.47962548828125,1.4927133321762085,-0.8340437412261963,-2.5287957191467285
1761392274400707600,0.48970751953125,1.3460426330566406,-0.9108530282974243,-2.5960137844085693
1761392274410789400,0.499789306640625,1.1696714162826538,-0.8922131061553955,-2.7584176063537598
1761392274420872400,0.50987255859375,1.0075148344039917,-0.8675748705863953,-3.066662073135376
1761392274430954500,0.51995458984375,0.8238966464996338,-0.8929644227027893,-3.4326841831207275
1761392274441036500,0.53003662109375,0.5999886989593506,-0.9156827926635742,-3.8199996948242188
1761392274451118600,0.54011865234375,0.38294118642807007,-0.8663705587387085,-4.104359149932861
1761392274461201400,0.550201416015625,0.1937265545129776,-0.8012943267822266,-4.138640880584717
1761392274471283500,0.560283447265625,-0.04998907074332237,-0.886268675327301,-3.938302755355835
1761392274481365500,0.570365478515625,-0.3759911358356476,-1.2743887901306152,-3.6840970516204834
1761392274491447600,0.580447509765625,-0.7180849313735962,-1.9840364456176758,-3.5109310150146484
1761392274501529300,0.590529296875,-1.07134211063385,-2.7412147521972656,-3.4214658737182617
1761392274511612400,0.6006123046875,-1.5294959545135498,-3.353170871734619,-3.518787145614624
1761392274521694500,0.610694580078125,-2.108973503112793,-3.546231269836426,-3.8495869636535645
1761392274531776500,0.620776611328125,-2.6373307704925537,-3.2764291763305664,-4.299920558929443
1761392274541858600,0.630858642578125,-3.1411125659942627,-2.7083258628845215,-4.616350173950195
1761392274551940400,0.6409404296875,-3.5261642932891846,-1.7632617950439453,-4.37255859375
1761392274562023400,0.6510234375,-3.640744209289551,-0.5632920861244202,-3.3851232528686523
1761392274572105500,0.66110546875,-3.5226893424987793,0.38919854164123535,-1.9969700574874878
1761392274582187500,0.6711875,-3.2274363040924072,0.9120156764984131,-0.5470820665359497
1761392274592269300,0.681269287109375,-2.8564043045043945,0.9566200375556946,0.7786762118339539
1761392274602352400,0.691352294921875,-2.543198823928833,0.5299656391143799,2.00787091255188
1761392274612434400,0.701434326171875,-2.362295627593994,-0.18413063883781433,3.0960047245025635
1761392274622516500,0.7115166015625,-2.2807698249816895,-0.9751619100570679,3.959916353225708
1761392274632598500,0.7215986328125,-2.26899790763855,-1.3133153915405273,4.537434101104736
1761392274642680300,0.731680419921875,-2.2967586517333984,-1.099219560623169,4.8218159675598145
1761392274652763400,0.741763427734375,-2.3757035732269287,-0.4903907775878906,4.914027690887451
1761392274662845400,0.751845458984375,-2.487290859222412,0.22826722264289856,4.8546342849731445
1761392274672927500,0.761927490234375,-2.599923610687256,1.0305871963500977,4.748624801635742
1761392274683009300,0.77200927734375,-2.6656131744384766,1.7805962562561035,4.631544589996338
1761392274693091300,0.78209130859375,-2.6255810260772705,2.35489821434021,4.536256313323975
1761392274703174400,0.79217431640625,-2.524068832397461,2.6430158615112305,4.471219062805176
1761392274713256400,0.80225634765625,-2.3111484050750732,2.8254189491271973,4.478173732757568
1761392274723338200,0.812338134765625,-1.9514507055282593,2.986999750137329,4.630954742431641
1761392274733420300,0.822420166015625,-1.4770121574401855,3.3143694400787354,4.8112101554870605
1761392274743503600,0.832503662109375,-0.8584359288215637,3.9054980278015137,4.92264986038208
1761392274753585400,0.84258544921875,-0.08656394481658936,4.609522342681885,4.99756383895874
1761392274763667500,0.85266748046875,0.6797119379043579,5.01580286026001,4.99331521987915
1761392274773749200,0.862749267578125,1.1911593675613403,5.1902971267700195,4.973954677581787
1761392274783831300,0.872831298828125,1.3399968147277832,5.032119274139404,4.801272392272949
1761392274793914600,0.88291455078125,1.1990562677383423,4.693863868713379,4.105971813201904
1761392274803996700,0.89299658203125,1.24832022190094,4.558506011962891,2.7447750568389893
1761392274814078500,0.903078369140625,1.5607657432556152,4.8006134033203125,1.0049902200698853
1761392274824160000,0.913159912109375,1.9860163927078247,5.2713727951049805,-0.9272539019584656
1761392274834242000,0.923241943359375,2.308993101119995,5.622993469238281,-2.760481357574463
1761392274844325000,0.9333251953125,2.390151023864746,5.647987365722656,-3.9095122814178467
1761392274854407200,0.9434072265625,2.283613681793213,5.2861199378967285,-4.311456680297852
1761392274864489000,0.953489013671875,2.1229891777038574,4.619343280792236,-4.372206211090088
1761392274874571000,0.963571044921875,1.977729082107544,3.7433018684387207,-4.638774871826172
1761392274884654000,0.973654052734375,1.9571505784988403,2.7653884887695312,-5.346035480499268
1761392274894736100,0.983736083984375,2.000274658203125,1.9787970781326294,-6.222368240356445
1761392274904818200,0.993818115234375,1.8798271417617798,1.5544599294662476,-6.824620723724365
1761392274914900000,1.00389990234375,1.5745019912719727,1.424208402633667,-6.936647415161133
1761392274924982000,1.01398193359375,1.2049410343170166,1.2085187435150146,-6.586666584014893
1761392274935065300,1.0240654296875,0.8680174946784973,0.7517571449279785,-5.901873588562012
1761392274945147400,1.0341474609375,0.47444042563438416,0.266472190618515,-5.146291255950928
1761392274955229000,1.04422900390625,-0.07587624341249466,-0.28780725598335266,-4.510411739349365
1761392274965311000,1.05431103515625,-0.582953929901123,-0.8895745873451233,-4.036397457122803
1761392274975394300,1.064394287109375,-0.9779399037361145,-1.36227548122406,-3.5991618633270264
1761392274985476400,1.074476318359375,-1.3787833452224731,-1.5403064489364624,-3.0935685634613037
1761392274995558100,1.08455810546875,-1.9187887907028198,-1.2843613624572754,-2.5875473022460938
1761392275005640200,1.09464013671875,-2.5671803951263428,-0.9433279633522034,-2.2773680686950684
1761392275015722200,1.10472216796875,-3.088594913482666,-0.8246434926986694,-2.1017589569091797
1761392275025805300,1.114805419921875,-3.5233991146087646,-0.9939627647399902,-1.8607722520828247
1761392275035887400,1.124887451171875,-3.929868221282959,-1.5289450883865356,-1.3551084995269775
1761392275045969200,1.13496923828125,-4.31381368637085,-2.3489320278167725,-0.5472068786621094
1761392275056051200,1.14505126953125,-4.580118179321289,-2.9170475006103516,0.31653207540512085
1761392275066134300,1.15513427734375,-4.7419257164001465,-2.951188564300537,0.8138683438301086
1761392275076216300,1.16521630859375,-4.9325480461120605,-2.3106846809387207,0.7756000757217407
1761392275086298000,1.175298095703125,-5.183252811431885,-1.351636528968811,0.635704517364502
1761392275096380200,1.185380126953125,-5.297125339508057,-0.546205461025238,0.8715574741363525
1761392275106462200,1.195462158203125,-5.144424915313721,-0.35457664728164673,1.6863116025924683
1761392275116545300,1.205545166015625,-4.700736045837402,-0.4552125036716461,2.970912456512451
1761392275126627300,1.21562744140625,-4.079276084899902,-0.43450430035591125,4.187567234039307
1761392275136709000,1.225709228515625,-3.4737954139709473,-0.06028100848197937,4.865276336669922
1761392275146791200,1.235791259765625,-2.9265384674072266,0.5468946695327759,4.899158477783203
1761392275156873200,1.245873291015625,-2.420794725418091,1.2017356157302856,4.484899997711182
1761392275166956300,1.255956298828125,-1.910042405128479,1.7680422067642212,3.9037582874298096
1761392275177038000,1.2660380859375,-1.4020318984985352,2.0511655807495117,3.2134573459625244
1761392275187120000,1.2761201171875,-0.8905279040336609,2.135335922241211,2.5682597160339355
1761392275197202200,1.2862021484375,-0.29538556933403015,2.1965837478637695,2.2114417552948
1761392275207285200,1.29628515625,0.41815677285194397,2.285778760910034,2.121131181716919
1761392275217367300,1.3063671875,1.13370680809021,2.269601345062256,2.0370993614196777
1761392275227449000,1.316448974609375,1.6515206098556519,2.108937978744507,1.8558565378189087
1761392275237531100,1.32653125,1.8450068235397339,1.6354562044143677,1.6423245668411255
1761392275247613200,1.33661328125,1.8947067260742188,1.015045166015625,1.3156135082244873
1761392275257696300,1.3466962890625,2.019876718521118,0.5667657256126404,0.7878766059875488
1761392275267778000,1.356778076171875,2.3019134998321533,0.36684003472328186,0.15161015093326569
1761392275277860000,1.366860107421875,2.6033713817596436,0.5174814462661743,-0.28965073823928833
1761392275287942100,1.376942138671875,2.8336753845214844,0.9572335481643677,-0.38420814275741577
1761392275298025200,1.387025146484375,2.974855899810791,1.5281152725219727,-0.2942388653755188
1761392275308107300,1.397107177734375,3.097938299179077,1.8146690130233765,-0.19320815801620483
1761392275318189000,1.40718896484375,3.1608264446258545,1.607317328453064,-0.041962333023548126
1761392275328271000,1.41727099609375,3.019326686859131,1.284468650817871,0.11702172458171844
1761392275338353200,1.427353271484375,2.6574459075927734,1.110073208808899,0.06787194311618805
1761392275348436200,1.437436279296875,2.241027355194092,1.1825000047683716,-0.32002678513526917
1761392275358518000,1.44751806640625,1.9425725936889648,1.37857985496521,-0.9475535154342651
1761392275368600000,1.45760009765625,1.735527753829956,1.2363231182098389,-1.5619583129882812
1761392275378682000,1.46768212890625,1.3490391969680786,0.35618895292282104,-2.150888681411743
1761392275388765200,1.47776513671875,0.6085674166679382,-0.7987997531890869,-2.8976268768310547
1761392275398847000,1.487846923828125,-0.2696397006511688,-1.4814372062683105,-3.9899463653564453
1761392275408929000,1.497928955078125,-1.073401927947998,-1.4026039838790894,-5.328441619873047
1761392275419011000,1.508010986328125,-1.6831251382827759,-0.6584464311599731,-6.224327564239502
1761392275429093000,1.518093017578125,-2.1778762340545654,0.21941319108009338,-6.119852066040039
1761392275439176200,1.52817626953125,-2.591399908065796,0.42166396975517273,-5.274366855621338
1761392275449258000,1.538258056640625,-2.9646012783050537,-0.37368375062942505,-4.426779747009277
1761392275459340000,1.548340087890625,-3.320096731185913,-1.842179775238037,-3.9514129161834717
1761392275469422000,1.558422119140625,-3.62192440032959,-3.4883005619049072,-3.5903847217559814
1761392275479505200,1.568505126953125,-3.986523151397705,-4.966885089874268,-3.2793290615081787
1761392275489587000,1.5785869140625,-4.271672248840332,-6.095704078674316,-3.1691040992736816
1761392275499669000,1.5886689453125,-4.613883972167969,-6.405513286590576,-3.2284247875213623
1761392275509751000,1.5987509765625,-4.973451614379883,-5.616844654083252,-3.002305507659912
1761392275519833000,1.6088330078125,-5.160953521728516,-3.6767146587371826,-2.278968095779419
1761392275529916200,1.618916259765625,-5.0317511558532715,-1.2201217412948608,-1.2682688236236572
1761392275539998000,1.628998046875,-4.678974151611328,0.7062994837760925,-0.25350049138069153
1761392275550080000,1.639080078125,-4.331218242645264,1.5670424699783325,0.8175352811813354
1761392275560162000,1.649162109375,-3.987910747528076,1.1571424007415771,1.9782832860946655
1761392275570245400,1.659245361328125,-3.718623638153076,-0.155055433511734,3.1512200832366943
1761392275580327200,1.6693271484375,-3.5593483448028564,-1.7820451259613037,4.188047885894775
1761392275590409200,1.6794091796875,-3.4630320072174072,-2.9431557655334473,4.859951019287109
1761392275600491000,1.689490966796875,-3.354182481765747,-3.2908742427825928,5.068150043487549
1761392275610573000,1.699572998046875,-3.22007417678833,-3.112931251525879,4.974039554595947
1761392275620656000,1.70965625,-3.029022693634033,-2.6498095989227295,4.858628273010254
1761392275630738200,1.71973828125,-2.795032024383545,-1.89284086227417,4.867949485778809
1761392275640820200,1.7298203125,-2.5302789211273193,-0.7742745876312256,4.90632438659668
1761392275650902300,1.73990234375,-2.2707762718200684,0.07082231342792511,4.868365287780762
1761392275660985300,1.7499853515625,-1.965345025062561,0.38227853178977966,4.732509613037109
1761392275671067100,1.760067138671875,-1.598955750465393,0.13367429375648499,4.518857002258301
1761392275681149200,1.770149169921875,-1.1801385879516602,-0.13970106840133667,4.392943382263184
1761392275691231200,1.780231201171875,-0.820108950138092,-0.009698061272501945,3.980328321456909
1761392275701313300,1.790313232421875,-0.46318304538726807,0.6652047038078308,3.102198600769043
1761392275711396000,1.80039599609375,-0.039833903312683105,1.514325737953186,1.6901061534881592
1761392275721478100,1.81047802734375,0.49151402711868286,2.234750509262085,-0.23258036375045776
1761392275731560200,1.820560302734375,1.2360206842422485,2.731177806854248,-2.232689142227173
1761392275741642200,1.830642333984375,2.135983943939209,2.824634313583374,-3.9058568477630615
1761392275751725300,1.840725341796875,2.918097972869873,2.531928777694702,-4.832054615020752
1761392275761807000,1.85080712890625,3.36130952835083,2.228614330291748,-4.930562973022461
1761392275771889200,1.86088916015625,3.515195369720459,2.2145047187805176,-4.453620433807373
1761392275781971200,1.87097119140625,3.442892074584961,2.3434946537017822,-4.010075569152832
1761392275792054300,1.88105419921875,3.302830934524536,2.4339301586151123,-3.9035604000091553
1761392275802136000,1.891135986328125,3.0034213066101074,2.3135790824890137,-4.139509677886963
1761392275812218000,1.901218017578125,2.454545497894287,2.02838397026062,-4.545669078826904
1761392275822304000,1.911303955078125,1.8060564994812012,1.4776501655578613,-4.939050197601318
1761392275832386000,1.921385986328125,1.2266559600830078,0.6468877196311951,-5.085693359375
1761392275842468900,1.93146875,0.6486954092979431,-0.26200491189956665,-4.813344955444336
1761392275852551000,1.941551025390625,0.06526139378547668,-0.9721701145172119,-4.233498573303223
1761392275862633000,1.951633056640625,-0.5703995227813721,-1.2863658666610718,-3.581019163131714
1761392275872715000,1.961715087890625,-1.3311902284622192,-1.1646103858947754,-3.2794437408447266
1761392275882798000,1.971798095703125,-2.1805579662323,-0.6437963843345642,-3.558849573135376
1761392275892880000,1.9818798828125,-2.8782403469085693,-0.07164550572633743,-4.128294467926025
1761392275902962000,1.9919619140625,-3.4359238147735596,0.03695053234696388,-4.449282646179199
1761392275913044000,2.0020439453125,-3.7849388122558594,-0.4425708055496216,-4.148285388946533
1761392275923127000,2.012126953125,-3.801678419113159,-1.260606050491333,-3.285857915878296
1761392275933208800,2.022208740234375,-3.6822471618652344,-2.1361401081085205,-2.2696261405944824
1761392275943291000,2.032290771484375,-3.6445086002349854,-2.7825071811676025,-1.3425382375717163
1761392275953373000,2.042373046875,-3.6716806888580322,-3.020138740539551,-0.3933289349079132
1761392275963455000,2.052455078125,-3.5209250450134277,-2.7658329010009766,0.8264244198799133
1761392275973538000,2.0625380859375,-3.0663444995880127,-2.1457746028900146,2.3460755348205566
1761392275983619800,2.072619873046875,-2.656511068344116,-1.5414124727249146,3.979442834854126
1761392275993702000,2.082701904296875,-2.590669870376587,-0.9782652258872986,5.404255390167236
1761392276003784000,2.092783935546875,-2.856658697128296,-0.4094865620136261,6.146233081817627
1761392276013867000,2.102866943359375,-3.2044177055358887,0.11936794966459274,6.102952480316162
1761392276023948800,2.11294873046875,-3.4117465019226074,0.5118957757949829,5.8130669593811035
1761392276034030800,2.12303076171875,-3.3794500827789307,0.9181607365608215,5.9089202880859375
1761392276044113000,2.13311279296875,-3.1283562183380127,1.238537073135376,6.48911714553833
1761392276054195000,2.14319482421875,-2.586026430130005,1.483546257019043,7.305704116821289
1761392276064277800,2.15327783203125,-1.8673540353775024,1.796033263206482,7.991657257080078
1761392276074359800,2.16335986328125,-1.159738302230835,2.0874385833740234,8.204012870788574
1761392276084441900,2.17344189453125,-0.4760218858718872,2.296401023864746,7.880057334899902
1761392276094524000,2.18352392578125,0.06248018145561218,2.4232707023620605,7.276082992553711
1761392276104607000,2.19360693359375,0.39550095796585083,2.4995601177215576,6.535050392150879
1761392276114688800,2.203688720703125,0.5826125144958496,2.795466423034668,5.492910861968994
1761392276124770800,2.213770751953125,0.8734028935432434,3.626781940460205,3.947169065475464
1761392276134852900,2.223852783203125,1.4514877796173096,4.583345890045166,2.0998988151550293
1761392276144936000,2.23393603515625,2.136139154434204,5.0333638191223145,0.5649899244308472
1761392276155017700,2.244017822265625,2.632631778717041,4.600896835327148,-0.3067718744277954
1761392276165099800,2.254099853515625,2.84417724609375,3.553698778152466,-0.5485999584197998
1761392276175181800,2.264181884765625,3.0923068523406982,2.4111690521240234,-0.3973931074142456
1761392276185265200,2.27426513671875,3.691366672515869,1.5886032581329346,-0.043982066214084625
1761392276195347000,2.284346923828125,4.352985858917236,1.1315613985061646,0.38400334119796753
1761392276205428700,2.2944287109375,4.683380603790283,1.0299131870269775,0.6791256666183472
1761392276215510800,2.3045107421875,4.503484725952148,1.1334177255630493,0.5236788392066956
1761392276225592800,2.3145927734375,3.906358242034912,1.1925891637802124,-0.051451846957206726
1761392276235676200,2.32467626953125,3.192213773727417,1.162176489830017,-0.929003119468689
1761392276245758000,2.334758056640625,2.67317533493042,1.0307399034500122,-1.9861218929290771
1761392276255840000,2.344840087890625,2.4226150512695312,0.9283871054649353,-2.9327051639556885
1761392276265922000,2.354922119140625,2.2659637928009033,1.0269043445587158,-3.535430431365967
1761392276276005000,2.365005126953125,2.0933852195739746,1.2572216987609863,-3.785844087600708
1761392276286087000,2.3750869140625,1.9374297857284546,1.4872692823410034,-3.8671224117279053
1761392276296169000,2.3851689453125,1.8018312454223633,1.3507156372070312,-3.897951364517212
1761392276306251000,2.3952509765625,1.753926157951355,0.8260622620582581,-3.9008755683898926
1761392276316334000,2.405333984375,1.7275874614715576,0.009563988074660301,-3.7582547664642334
1761392276326416100,2.415416015625,1.510345220565796,-0.7120218276977539,-3.4450385570526123
1761392276336498000,2.425497802734375,1.1068243980407715,-0.8231297135353088,-3.2095649242401123
1761392276346580000,2.435580078125,0.6471390724182129,-0.3682641386985779,-3.4114036560058594
1761392276356663000,2.4456630859375,0.269260972738266,0.3273948132991791,-4.17896032333374
1761392276366745000,2.4557451171875,0.09902474284172058,0.6943535804748535,-5.155282497406006
1761392276376827000,2.465826904296875,0.016836129128932953,0.4678921699523926,-5.95449161529541
1761392276386909000,2.475908935546875,-0.1883334070444107,-0.5018821954727173,-6.5214104652404785
1761392276396992000,2.485991943359375,-0.549543559551239,-1.9364407062530518,-6.8472065925598145
1761392276407074000,2.496073974609375,-0.9844722151756287,-3.056361675262451,-6.862843990325928
1761392276417156000,2.506156005859375,-1.3088405132293701,-3.472668409347534,-6.387785911560059
1761392276427238000,2.51623779296875,-1.3989585638046265,-3.1073555946350098,-5.272760391235352
1761392276437321000,2.526321044921875,-1.333899974822998,-2.526885747909546,-3.749145746231079
1761392276447403000,2.536403076171875,-1.351131558418274,-2.190420627593994,-2.323472023010254
1761392276457485000,2.546485107421875,-1.5111459493637085,-2.1038761138916016,-1.1850379705429077
1761392276467566800,2.55656689453125,-1.770117163658142,-2.228351593017578,-0.2590935230255127
1761392276477649000,2.56664892578125,-2.0235021114349365,-2.380147933959961,0.5887882113456726
1761392276487732000,2.57673193359375,-2.1905200481414795,-2.318483352661133,1.478838562965393
1761392276497814000,2.58681396484375,-2.3330631256103516,-1.9799443483352661,2.4022157192230225
1761392276507896000,2.59689599609375,-2.5406875610351562,-1.5740463733673096,3.251579761505127
1761392276517977900,2.606977783203125,-2.7848687171936035,-1.1372089385986328,3.9223783016204834
1761392276528061000,2.61706103515625,-2.980137586593628,-0.7349544167518616,4.420923233032227
1761392276538143000,2.62714306640625,-3.0926716327667236,-0.4389595091342926,4.799009799957275
1761392276548225000,2.63722509765625,-3.0713136196136475,-0.25561249256134033,5.112095832824707
1761392276558306800,2.647306884765625,-2.9774603843688965,-0.14053195714950562,5.39893102645874
1761392276568390000,2.657389892578125,-2.8418333530426025,-0.13014385104179382,5.688052177429199
1761392276578472000,2.667471923828125,-2.619272470474243,-0.20080256462097168,5.935372829437256
1761392276588554000,2.677553955078125,-2.407318115234375,-0.30314382910728455,6.117805004119873
1761392276598636000,2.687635986328125,-2.299518585205078,-0.4628123342990875,6.303118705749512
1761392276608718800,2.69771875,-2.3388733863830566,-0.5540134310722351,6.638060092926025
1761392276618801000,2.70780078125,-2.4876577854156494,-0.384450763463974,7.006007194519043
1761392276628883000,2.717883056640625,-2.6881747245788574,0.12979628145694733,7.0926923751831055
1761392276638965000,2.727965087890625,-2.9027791023254395,0.9930769801139832,6.843848705291748
1761392276649046800,2.738046875,-3.0564146041870117,2.196011543273926,6.45150899887085
1761392276659129900,2.7481298828125,-3.007453203201294,3.3283908367156982,6.027218818664551
1761392276669212000,2.7582119140625,-2.7894763946533203,4.128190994262695,5.513727188110352
1761392276679294000,2.7682939453125,-2.510633707046509,4.646668910980225,4.808422565460205
1761392276689376000,2.7783759765625,-2.255826473236084,4.873167037963867,3.9112908840179443
1761392276699458800,2.788458740234375,-2.0261876583099365,4.892894268035889,2.871880292892456
1761392276709540900,2.798540771484375,-1.7110235691070557,4.7922773361206055,1.701404333114624
1761392276719623000,2.808622802734375,-1.2372982501983643,4.77685546875,0.569606363773346
1761392276729705000,2.818705078125,-0.5342423319816589,4.928328990936279,-0.3866451382637024
1761392276739788000,2.8287880859375,0.30807265639305115,5.030183792114258,-1.0664430856704712
1761392276749870000,2.8388701171875,1.160422921180725,4.950019359588623,-1.4046525955200195
1761392276759952100,2.8489521484375,1.9282010793685913,4.670137405395508,-1.3875340223312378
1761392276770034000,2.859033935546875,2.585354804992676,4.194117069244385,-1.1548895835876465
1761392276780117000,2.869116943359375,3.0786304473876953,3.6040472984313965,-0.9429887533187866
1761392276790199000,2.879198974609375,3.388195276260376,2.9523143768310547,-0.8887320756912231
1761392276800281000,2.889281005859375,3.5637919902801514,2.4133567810058594,-1.0101510286331177
1761392276810363100,2.899363037109375,3.7166285514831543,2.0897815227508545,-1.347954511642456
1761392276820441900,2.90944189453125,3.877521514892578,1.9877742528915405,-1.8442479372024536
1761392276830524000,2.91952392578125,4.044746398925781,2.093309164047241,-2.3748204708099365
1761392276840606000,2.92960595703125,4.12100887298584,2.3492515087127686,-2.8358192443847656
1761392276850688000,2.93968798828125,4.133615016937256,2.6262083053588867,-3.214768648147583
1761392276860770800,2.949770751953125,4.133974552154541,2.7408554553985596,-3.516963243484497
1761392276870852900,2.959852783203125,4.15203857421875,2.5764875411987305,-3.675546884536743
1761392276880935000,2.969934814453125,4.155671119689941,2.123485803604126,-3.623138189315796
1761392276891017000,2.980016845703125,4.040236473083496,1.5436662435531616,-3.4676547050476074
1761392276901100000,2.99010009765625,3.734805107116699,1.089376449584961,-3.4204187393188477
1761392276911181800,3.000181884765625,3.302896499633789,0.9232876300811768,-3.5650177001953125
1761392276921263900,3.010263916015625,2.9016993045806885,1.0727226734161377,-3.8224549293518066
1761392276931346000,3.020345947265625,2.620180130004883,1.3845645189285278,-4.008011817932129
1761392276941428000,3.030427978515625,2.4876010417938232,1.6245087385177612,-4.005178451538086
1761392276951511000,3.040510986328125,2.4138801097869873,1.4980875253677368,-3.7662014961242676
1761392276961593000,3.050593017578125,2.2875094413757324,1.008771300315857,-3.3047895431518555
1761392276971675000,3.0606748046875,1.9941071271896362,0.46167540550231934,-2.7419440746307373
1761392276981757000,3.0707568359375,1.4217643737792969,0.17968447506427765,-2.323035478591919
1761392276991840000,3.080840087890625,0.7784963250160217,0.23422545194625854,-2.377207040786743
1761392277001922000,3.090922119140625,0.35124802589416504,0.5591233968734741,-3.094010353088379
1761392277012004000,3.101004150390625,0.20459049940109253,0.7656563520431519,-4.503469467163086
1761392277022086100,3.111086181640625,0.12646986544132233,0.44487300515174866,-6.1874566078186035
1761392277032169200,3.121169189453125,-0.08752408623695374,-0.3865729868412018,-7.339069843292236
1761392277042251000,3.1312509765625,-0.31957516074180603,-1.1744471788406372,-7.452718734741211
1761392277052333000,3.1413330078125,-0.5946654677391052,-1.4812347888946533,-6.421092987060547
1761392277062415000,3.1514150390625,-0.8013829588890076,-1.11217200756073,-4.631394386291504
1761392277072498200,3.161498291015625,-0.8009758591651917,-0.37639403343200684,-2.9676976203918457
1761392277082580000,3.171580078125,-0.800787091255188,0.02265853062272072,-2.1069843769073486
1761392277092662000,3.181662109375,-0.9629141092300415,0.26080256700515747,-1.9431108236312866
1761392277102744000,3.191744140625,-1.322198748588562,0.2292502224445343,-2.0749833583831787
1761392277112827100,3.2018271484375,-1.772986888885498,0.13611546158790588,-1.9686259031295776
1761392277122909200,3.2119091796875,-2.222064733505249,0.06651588529348373,-1.5062534809112549
1761392277132991000,3.221990966796875,-2.5760133266448975,0.05892670154571533,-0.7162481546401978
1761392277143073000,3.232072998046875,-2.7751753330230713,0.19439852237701416,0.2191339135169983
1761392277153156000,3.242156005859375,-2.8935351371765137,0.4159553647041321,1.0875811576843262
1761392277163238100,3.252238037109375,-3.010291814804077,0.5525320768356323,1.808777928352356
1761392277173320000,3.26231982421875,-3.0827958583831787,0.49373388290405273,2.403212785720825
1761392277183402000,3.272402099609375,-3.092454195022583,0.15458428859710693,2.924907684326172
1761392277193485000,3.282485107421875,-3.0217995643615723,-0.41545480489730835,3.4797983169555664
1761392277203567000,3.292567138671875,-2.904447317123413,-0.891716718673706,4.077285289764404
1761392277213649200,3.302649169921875,-2.7739293575286865,-1.2047189474105835,4.581927299499512
1761392277223731000,3.31273095703125,-2.6992545127868652,-1.1803227663040161,5.004742622375488
1761392277233814000,3.32281396484375,-2.663144588470459,-0.8191619515419006,5.289523601531982
1761392277243896000,3.33289599609375,-2.6539509296417236,-0.2610022723674774,5.358537673950195
1761392277253978000,3.34297802734375,-2.6477062702178955,0.4457774758338928,5.31978702545166
1761392277264060000,3.353059814453125,-2.6169939041137695,1.05164635181427,5.312986850738525
1761392277274142000,3.363141845703125,-2.5041720867156982,1.3483136892318726,5.3313703536987305
1761392277284225000,3.37322509765625,-2.273648977279663,1.421348214149475,5.326213359832764
1761392277294307000,3.38330712890625,-1.9409595727920532,1.479141116142273,5.387066841125488
1761392277304389000,3.39338916015625,-1.6481319665908813,1.6401755809783936,5.581263542175293
1761392277314471000,3.403470947265625,-1.4512375593185425,1.8860020637512207,5.785091400146484
1761392277324554000,3.413553955078125,-1.2967967987060547,2.241353750228882,5.844071865081787
1761392277334636000,3.423635986328125,-1.1796258687973022,2.833923816680908,5.59755277633667
1761392277344718000,3.433718017578125,-1.043428897857666,3.6145899295806885,4.7498908042907715
1761392277354799900,3.4437998046875,-0.4690192639827728,4.3735671043396,3.218010663986206
1761392277364883000,3.453883056640625,0.534393310546875,5.017223834991455,1.4061157703399658
1761392277374965000,3.463965087890625,1.6283347606658936,5.297943592071533,-0.2857464551925659
1761392277385047000,3.474047119140625,2.46368670463562,4.942626476287842,-1.586069941520691
1761392277395129000,3.484129150390625,2.829237222671509,4.022618293762207,-2.3481743335723877
1761392277405212000,3.4942119140625,2.9038918018341064,3.0874993801116943,-2.6337661743164062
1761392277415294000,3.5042939453125,2.910085439682007,2.3925600051879883,-2.6515676975250244
1761392277425376000,3.5143759765625,2.9857606887817383,2.053590774536133,-2.5581984519958496
1761392277435458000,3.5244580078125,3.14949107170105,2.010166645050049,-2.5391151905059814
1761392277445541000,3.534541015625,3.3288064002990723,1.9958453178405762,-2.716644525527954
1761392277455623200,3.544623046875,3.3525893688201904,1.7554453611373901,-3.053969621658325
1761392277465705200,3.554705322265625,3.124781370162964,1.2962244749069214,-3.479959726333618
1761392277475787000,3.564787109375,2.6360630989074707,0.73512202501297,-3.9527595043182373
1761392277485870000,3.5748701171875,1.978384256362915,0.29798996448516846,-4.514748573303223
1761392277495952100,3.5849521484375,1.3032861948013306,0.068670354783535,-5.28157901763916
1761392277506034200,3.5950341796875,0.7737183570861816,0.050680965185165405,-6.139848709106445
1761392277516116200,3.6051162109375,0.3294525444507599,0.18412098288536072,-6.810235977172852
1761392277526199000,3.615198974609375,-0.08553025871515274,0.3072117269039154,-7.168109893798828
1761392277536281000,3.625281005859375,-0.5630787014961243,0.4863428771495819,-7.063686370849609
1761392277546363100,3.635363037109375,-1.2603291273117065,0.6923390030860901,-6.685048580169678
1761392277556445200,3.645445068359375,-2.0748403072357178,0.7243829965591431,-6.098361492156982
1761392277566528000,3.655528076171875,-2.732436418533325,0.3725935220718384,-5.422025203704834
1761392277576610000,3.665610107421875,-3.1484222412109375,-0.036697641015052795,-4.709373950958252
1761392277586692000,3.675692138671875,-3.459351062774658,-0.3785628378391266,-3.8683102130889893
1761392277596774100,3.685774169921875,-3.7081544399261475,-0.6456299424171448,-2.9707717895507812
1761392277606857000,3.69585693359375,-3.9899375438690186,-0.6728898286819458,-2.231912612915039
1761392277616939000,3.70593896484375,-4.312320709228516,-0.6599356532096863,-1.558652400970459
1761392277627021000,3.71602099609375,-4.755012512207031,-0.6789876222610474,-0.8048255443572998
1761392277637103000,3.72610302734375,-5.16187858581543,-0.6443646550178528,-0.15948975086212158
1761392277647185200,3.73618505859375,-5.493573188781738,-0.5372054576873779,0.20868854224681854
1761392277657268000,3.74626806640625,-5.652943134307861,-0.6277332901954651,0.23361025750637054
1761392277667350000,3.75635009765625,-5.572826862335205,-1.1152901649475098,0.24994714558124542
1761392277677432000,3.76643212890625,-5.370894432067871,-2.034623861312866,0.6693418622016907
1761392277687514000,3.77651416015625,-5.032856464385986,-3.158241033554077,1.804121494293213
1761392277697597000,3.786596923828125,-4.549135208129883,-4.032150745391846,3.531451463699341
1761392277707679000,3.796678955078125,-4.0629448890686035,-4.335639476776123,5.31028938293457
1761392277717761000,3.806760986328125,-3.7221007347106934,-4.044125556945801,6.378513813018799
1761392277727843000,3.816843017578125,-3.6078152656555176,-3.3331799507141113,6.399562835693359
1761392277737926000,3.82692578125,-3.6121418476104736,-2.422866106033325,5.665607929229736
1761392277748008000,3.837008056640625,-3.7201178073883057,-1.5436694622039795,4.697452545166016
1761392277758090000,3.847090087890625,-3.877445936203003,-0.8411767482757568,3.897934675216675
1761392277768172000,3.857172119140625,-3.903399705886841,-0.3243631422519684,3.3927595615386963
1761392277778255000,3.867255126953125,-3.7085413932800293,0.0997338518500328,3.1221489906311035
1761392277788337000,3.8773369140625,-3.297382354736328,0.4697878062725067,2.9405386447906494
1761392277798419000,3.8874189453125,-2.7261855602264404,0.8189666867256165,2.8251662254333496
1761392277808501000,3.8975009765625,-2.0370020866394043,1.140331745147705,2.799433708190918
1761392277818584000,3.907583984375,-1.3342764377593994,1.4257055521011353,2.862255334854126
1761392277828670200,3.917670166015625,-0.7050936818122864,1.6092668771743774,2.960228204727173
1761392277838752300,3.927752197265625,-0.18776753544807434,1.6270508766174316,3.0449492931365967
1761392277848834300,3.937834228515625,0.2132624387741089,1.56275475025177,3.1135151386260986
1761392277858916400,3.947916259765625,0.5187342166900635,1.4345351457595825,3.1574480533599854
1761392277868999200,3.957999267578125,0.7345530986785889,1.3478188514709473,3.1508615016937256
1761392277879081200,3.968081298828125,0.8782901763916016,1.3476072549819946,3.0882771015167236
1761392277889163300,3.978163330078125,1.019783854484558,1.4370687007904053,2.980083703994751
1761392277899245300,3.988245361328125,1.1862906217575073,1.5595263242721558,2.800257921218872
1761392277909327400,3.998327392578125,1.326973795890808,1.6405675411224365,2.5278842449188232
1761392277919409200,4.0084091796875,1.428591251373291,1.6683279275894165,2.194021224975586
1761392277929491200,4.0184912109375,1.5018396377563477,1.6329129934310913,1.7951254844665527
1761392277939574300,4.02857421875,1.5395978689193726,1.5507571697235107,1.3151289224624634
1761392277949656300,4.03865625,1.5473532676696777,1.550621509552002,0.7988658547401428
1761392277959738400,4.04873828125,1.5451011657714844,1.6642874479293823,0.2791975140571594
1761392277969820200,4.058820068359375,1.533333420753479,1.7740919589996338,-0.2267783135175705
1761392277979903200,4.0689033203125,1.499863862991333,1.8531520366668701,-0.7199981808662415
1761392277989985300,4.0789853515625,1.4598772525787354,1.8484374284744263,-1.2848315238952637
1761392278000067300,4.0890673828125,1.5025079250335693,1.634297251701355,-2.0359034538269043
1761392278010149000,4.099149169921875,1.6601693630218506,1.0921635627746582,-3.0547471046447754
1761392278020232400,4.109232421875,1.7560232877731323,0.2667408287525177,-4.149117946624756
1761392278030314500,4.119314453125,1.740351915359497,-0.35207605361938477,-5.06193208694458
1761392278040396300,4.129396240234375,1.708722710609436,-0.33974647521972656,-5.682048320770264
1761392278050478300,4.139478271484375,1.7608559131622314,0.436854749917984,-5.88132381439209
1761392278060560100,4.14956005859375,1.8787450790405273,1.588741660118103,-5.74075174331665
1761392278070643500,4.1596435546875,1.928004264831543,2.2302534580230713,-5.650997161865234
1761392278080725500,4.1697255859375,1.8021864891052246,2.121030807495117,-5.779286861419678
1761392278090807600,4.1798076171875,1.4386085271835327,1.2105354070663452,-5.965339183807373
1761392278100889300,4.189889404296875,0.8660375475883484,-0.07544563710689545,-6.183712482452393
1761392278110972400,4.199972412109375,0.23617462813854218,-1.2423962354660034,-6.625624656677246
1761392278121054500,4.210054443359375,-0.28431573510169983,-1.7731478214263916,-7.260746002197266
1761392278131136500,4.220136474609375,-0.7139235734939575,-1.6799792051315308,-7.894302845001221
1761392278141218300,4.23021826171875,-1.294577717781067,-1.0871044397354126,-8.392354011535645
1761392278151301400,4.24030126953125,-2.1349360942840576,-0.17703421413898468,-8.6702880859375
1761392278161383400,4.250383544921875,-3.131953477859497,0.8273041844367981,-8.68264102935791
1761392278171465500,4.260465576171875,-3.9693236351013184,1.7099056243896484,-8.39260482788086
1761392278181547500,4.270547607421875,-4.539303779602051,2.256274700164795,-7.7791242599487305
1761392278191630300,4.28063037109375,-4.870383262634277,2.328458309173584,-6.6970109939575195
1761392278201712400,4.29071240234375,-5.0083770751953125,1.936134696006775,-5.0729079246521
1761392278211794400,4.30079443359375,-5.007984638214111,1.0952374935150146,-3.2116177082061768
1761392278221876500,4.31087646484375,-4.951878070831299,0.1456805169582367,-1.4996626377105713
1761392278231959300,4.320959228515625,-4.904792308807373,-0.7231445908546448,-0.23131011426448822
1761392278242041300,4.331041259765625,-4.868508338928223,-1.4607287645339966,0.5363612771034241
1761392278252123400,4.341123291015625,-4.84594202041626,-1.9793365001678467,0.9329445362091064
1761392278262205400,4.351205322265625,-4.869904518127441,-2.2168781757354736,1.1929757595062256
1761392278272288300,4.361288330078125,-4.918026447296143,-2.2205655574798584,1.4656610488891602
1761392278282370300,4.371370361328125,-5.01909875869751,-1.9512821435928345,1.858544111251831
1761392278292452400,4.381452392578125,-5.120549201965332,-1.4463257789611816,2.266118288040161
1761392278302534400,4.391534423828125,-5.186570644378662,-0.7949905395507812,2.4451310634613037
1761392278312616400,4.401616455078125,-5.125057220458984,-0.006942550651729107,2.3126351833343506
1761392278322699300,4.41169921875,-4.818543434143066,0.7063371539115906,1.9314545392990112
1761392278332781300,4.42178125,-4.427158832550049,1.1514980792999268,1.5417197942733765
1761392278342863400,4.43186328125,-3.996110439300537,1.3049777746200562,1.4529798030853271
1761392278352945400,4.4419453125,-3.417844533920288,1.1948254108428955,1.7799158096313477
1761392278363028200,4.4520283203125,-2.608031988143921,1.0385355949401855,2.5208635330200195
1761392278373110300,4.4621103515625,-1.6872007846832275,1.0928586721420288,3.515916109085083
1761392278383192300,4.4721923828125,-0.7787686586380005,1.2150150537490845,4.377492427825928
1761392278393274400,4.4822744140625,0.00685187429189682,1.15958833694458,4.8729248046875
1761392278403357200,4.492357177734375,0.6064415574073792,1.061062216758728,5.076696872711182
1761392278413439200,4.502439208984375,0.9739468693733215,0.9824440479278564,5.039466857910156
1761392278423521300,4.512521240234375,1.1384834051132202,0.925077497959137,4.822771072387695
1761392278433603300,4.522603271484375,1.1753593683242798,0.9104905128479004,4.441038608551025
1761392278443686100,4.53268603515625,1.135940670967102,0.8969331979751587,3.893674612045288
1761392278453768200,4.542768310546875,1.0440400838851929,0.9847360253334045,3.31490421295166
1761392278463850200,4.552850341796875,0.9076666831970215,1.2744871377944946,2.7286415100097656
1761392278473932300,4.562932373046875,0.7720814347267151,1.6146411895751953,2.1126904487609863
1761392278484014300,4.573014404296875,0.6476786732673645,1.986909031867981,1.4649603366851807
1761392278494097200,4.58309716796875,0.589737594127655,2.430659532546997,0.7692670226097107
1761392278504179200,4.59317919921875,0.6247584223747253,2.9330670833587646,0.04666653275489807
1761392278514261200,4.60326123046875,0.697249174118042,3.4580841064453125,-0.5929245948791504
1761392278524343300,4.61334326171875,0.8216468691825867,3.8778090476989746,-1.0349489450454712
1761392278534426000,4.623426025390625,0.9765901565551758,4.120059490203857,-1.3108513355255127
1761392278544509400,4.633509521484375,1.1027144193649292,4.106500625610352,-1.4312567710876465
1761392278554591500,4.643591552734375,1.1967146396636963,3.8936007022857666,-1.4199516773223877
1761392278564673500,4.653673583984375,1.2501341104507446,3.5579543113708496,-1.3718461990356445
1761392278574755300,4.66375537109375,1.3324716091156006,3.2199244499206543,-1.3391984701156616
1761392278584837400,4.67383740234375,1.484325647354126,2.911081075668335,-1.371391773223877
1761392278594920400,4.68392041015625,1.68633234500885,2.5611178874969482,-1.5364664793014526
1761392278605002500,4.69400244140625,1.9246299266815186,2.122507095336914,-1.846289038658142
1761392278615084300,4.704084228515625,2.0897786617279053,1.6719192266464233,-2.2057712078094482
1761392278625166300,4.714166259765625,2.006696939468384,1.2441701889038086,-2.3817715644836426
1761392278635249400,4.72424951171875,1.7142692804336548,0.9215194582939148,-2.3929736614227295
1761392278645331500,4.73433154296875,1.4510853290557861,0.9207488894462585,-2.4233391284942627
1761392278655413500,4.74441357421875,1.3949706554412842,0.801094651222229,-2.8062825202941895
1761392278665495300,4.754495361328125,1.379948616027832,0.15965117514133453,-3.4742989540100098
1761392278675578400,4.764578369140625,1.2030036449432373,-0.8858605623245239,-4.045536994934082
1761392278685660400,4.774660400390625,0.870349645614624,-1.8196988105773926,-4.255411624908447
1761392278695742500,4.784742431640625,0.6863217949867249,-2.37640643119812,-3.9333877563476562
1761392278705824300,4.79482421875,0.6497352123260498,-2.20015549659729,-3.3529136180877686
1761392278715907300,4.8049072265625,0.44084668159484863,-1.66907799243927,-3.182981014251709
1761392278725989400,4.8149892578125,0.017516430467367172,-1.1835566759109497,-3.5385706424713135
1761392278736071400,4.825071533203125,-0.5176412463188171,-1.1309880018234253,-4.20804500579834
1761392278746153500,4.835153564453125,-1.2146587371826172,-2.0888638496398926,-4.771357536315918
1761392278756235300,4.8452353515625,-2.117368459701538,-3.2750141620635986,-4.521266937255859
1761392278766318300,4.855318359375,-2.7705233097076416,-3.663499593734741,-3.3039746284484863
1761392278776400400,4.865400390625,-2.9351611137390137,-2.7255001068115234,-1.5761719942092896
1761392278786482400,4.875482421875,-2.580845594406128,-1.0605629682540894,0.10333877801895142
1761392278796564200,4.885564208984375,-1.9918924570083618,0.39666709303855896,1.6657555103302002
1761392278806647300,4.895647216796875,-1.4995157718658447,1.078437089920044,3.081235647201538
1761392278816729300,4.905729248046875,-1.1112349033355713,1.0561021566390991,4.311448574066162
1761392278826810600,4.915810546875,-0.8615099191665649,0.4293634295463562,5.235332489013672
1761392278836892700,4.925892578125,-0.7569150924682617,-0.5008732080459595,5.890560626983643
1761392278846975500,4.9359755859375,-0.7467325925827026,-1.342328429222107,6.322997570037842
1761392278857057500,4.9460576171875,-0.7847071290016174,-1.839921474456787,6.5489912033081055
1761392278867139600,4.9561396484375,-0.839087724685669,-2.0532991886138916,6.597569942474365
1761392278877221600,4.9662216796875,-0.9213365316390991,-2.104398250579834,6.5167765617370605
1761392278887304400,4.976304443359375,-1.0338810682296753,-2.0065908432006836,6.359735488891602
1761392278897386500,4.986386474609375,-1.1965529918670654,-1.7178908586502075,6.150998115539551
1761392278907468500,4.996468505859375,-1.4592111110687256,-1.2501633167266846,5.838183403015137
1761392278917550600,5.006550537109375,-1.7757847309112549,-0.6526309847831726,5.343809127807617
1761392278927633700,5.016633544921875,-2.0681967735290527,-0.07632344216108322,4.5394606590271
1761392278937715700,5.0267158203125,-2.28696608543396,0.547568678855896,3.583944797515869
1761392278947797800,5.0367978515625,-2.197547674179077,1.2554824352264404,2.7394745349884033
1761392278957879800,5.0468798828125,-1.6466808319091797,2.0109293460845947,2.0477912425994873
1761392278967961600,5.056961669921875,-0.9047284126281738,2.6837382316589355,1.4213825464248657
1761392278978044700,5.067044677734375,-0.15739662945270538,2.874746322631836,0.8224096894264221
1761392278988126700,5.077126708984375,0.4553776979446411,2.5665805339813232,0.20060995221138
1761392278998208800,5.087208740234375,0.8382084369659424,2.1953792572021484,-0.45303842425346375
1761392279008290800,5.097290771484375,1.0695158243179321,2.2949109077453613,-0.9808170199394226
1761392279018373600,5.10737353515625,1.258836030960083,2.8774495124816895,-1.3476752042770386
1761392279028455700,5.11745556640625,1.4509176015853882,3.5429224967956543,-1.6165813207626343
1761392279038537700,5.127537841796875,1.6852986812591553,3.9262783527374268,-1.8545488119125366
1761392279048619800,5.137619873046875,1.959418773651123,3.7157299518585205,-2.1449239253997803
1761392279058702600,5.14770263671875,2.1424765586853027,2.920710802078247,-2.451692819595337
1761392279068784600,5.15778466796875,2.1120688915252686,1.7281819581985474,-2.714799404144287
1761392279078866700,5.16786669921875,1.9704402685165405,0.5651161074638367,-2.9067165851593018
1761392279088948700,5.17794873046875,1.9003194570541382,-0.35508835315704346,-3.0934009552001953
1761392279099030800,5.18803076171875,1.9042314291000366,-0.9224787950515747,-3.2659108638763428
1761392279109113600,5.198113525390625,1.7962273359298706,-1.0743101835250854,-3.4706034660339355
1761392279119195600,5.208195556640625,1.4257670640945435,-0.9020636677742004,-3.830596923828125
1761392279129277700,5.218277587890625,0.8521566390991211,-0.6818459033966064,-4.322545051574707
1761392279139359700,5.22835986328125,0.33860331773757935,-0.6126639246940613,-4.7591705322265625
1761392279149442600,5.238442626953125,0.0004319045692682266,-0.8361707925796509,-5.013271808624268
1761392279159524600,5.248524658203125,-0.3626573383808136,-1.1245133876800537,-5.024103164672852
1761392279169606700,5.258606689453125,-0.9307075142860413,-1.2865909337997437,-4.949103832244873
1761392279179688700,5.268688720703125,-1.7656618356704712,-1.229851484298706,-4.856627464294434
1761392279189771800,5.278771728515625,-2.679771661758423,-0.7595161199569702,-4.695605754852295
1761392279199853600,5.288853515625,-3.2602670192718506,0.09711845219135284,-4.365602016448975
1761392279209935600,5.298935546875,-3.206078290939331,1.0167335271835327,-3.575913429260254
1761392279220017700,5.309017578125,-2.680407762527466,1.3982853889465332,-2.1459503173828125
1761392279230100700,5.319100830078125,-2.0222537517547607,0.9642153978347778,-0.2330482304096222
1761392279240182500,5.3291826171875,-1.402585506439209,-0.21040984988212585,1.8650622367858887
1761392279250264600,5.3392646484375,-0.9260504245758057,-1.5902762413024902,3.5768723487854004
1761392279260346600,5.3493466796875,-0.6079621911048889,-2.518845558166504,4.536316871643066
1761392279270428700,5.3594287109375,-0.45484042167663574,-2.6632297039031982,4.878763675689697
1761392279280511700,5.36951171875,-0.5069494247436523,-2.2725131511688232,4.913206100463867
1761392279290593500,5.379593505859375,-0.7086098790168762,-1.5797622203826904,4.825066566467285
1761392279300675600,5.389675537109375,-0.9680649042129517,-0.6837379336357117,4.740776538848877
1761392279310757600,5.399757568359375,-1.1067261695861816,0.6272535920143127,4.830249786376953
1761392279320840700,5.4098408203125,-1.0742089748382568,2.2892682552337646,5.030311584472656
1761392279330922500,5.419922607421875,-0.7823560833930969,3.788837194442749,5.297102451324463
1761392279341004500,5.430004638671875,-0.3348441421985626,4.666082859039307,5.650206089019775
1761392279351086600,5.440086669921875,0.027945956215262413,4.740886688232422,6.028997421264648
1761392279361169700,5.450169677734375,0.265040785074234,3.845175266265869,6.336111545562744
1761392279371251500,5.46025146484375,0.2730049192905426,2.373574733734131,6.505765914916992
1761392279381333500,5.47033349609375,0.1540665179491043,1.3578776121139526,6.5132060050964355
1761392279391415600,5.48041552734375,0.10898597538471222,1.0335344076156616,6.289633274078369
1761392279401497600,5.49049755859375,0.23596230149269104,1.374884843826294,5.8153605461120605
1761392279411580700,5.50058056640625,0.46969860792160034,2.094226360321045,4.943009376525879
1761392279421662500,5.510662353515625,0.5584210753440857,2.9717087745666504,3.5342328548431396
1761392279431744500,5.52074462890625,0.5966024994850159,3.825286388397217,1.8934482336044312
1761392279441826600,5.53082666015625,0.6139993071556091,4.451217174530029,0.3670057952404022
1761392279451910000,5.540909912109375,0.6914166212081909,4.683259010314941,-0.8534523844718933
1761392279461991400,5.550991455078125,0.8264399766921997,4.790093421936035,-1.686743140220642
1761392279472073500,5.561073486328125,1.1469786167144775,4.7903151512146,-2.222827434539795
1761392279482155500,5.571155517578125,1.8287190198898315,4.615083694458008,-2.5104076862335205
1761392279492238800,5.58123876953125,2.739757776260376,4.1546549797058105,-2.570859909057617
1761392279502320600,5.591320556640625,3.5458061695098877,3.254997730255127,-2.409095287322998
1761392279512402700,5.601402587890625,4.065025806427002,2.1560592651367188,-2.1034276485443115
1761392279522484700,5.611484619140625,4.284437656402588,1.0951855182647705,-1.906933307647705
1761392279532567800,5.62156787109375,4.25645112991333,0.32275015115737915,-2.0146172046661377
1761392279542649900,5.63164990234375,4.078876972198486,-0.05112013220787048,-2.514535427093506
1761392279552731600,5.641731689453125,3.8446273803710938,0.0158036220818758,-3.437272787094116
1761392279562813700,5.651813720703125,3.6501002311706543,0.3690658211708069,-4.637821674346924
1761392279572896800,5.661896728515625,3.4134879112243652,0.809804379940033,-5.845029830932617
1761392279582978800,5.671978759765625,3.079667568206787,1.0878411531448364,-6.785565376281738
1761392279593060600,5.682060546875,2.6926770210266113,0.9872467517852783,-7.250417232513428
1761392279603142700,5.692142578125,2.370478391647339,0.6143091320991516,-7.249399185180664
1761392279613224700,5.702224609375,2.1470887660980225,0.11889775097370148,-6.927952766418457
1761392279623307800,5.712307861328125,2.030759572982788,-0.31785401701927185,-6.2820868492126465
1761392279633389800,5.722389892578125,2.087790012359619,-0.673387885093689,-5.348825454711914
1761392279643471600,5.7324716796875,2.2258012294769287,-0.9989771842956543,-4.151702404022217
1761392279653553700,5.7425537109375,2.3334455490112305,-1.2960666418075562,-2.7426278591156006
1761392279663636700,5.75263671875,2.0998494625091553,-1.2975682020187378,-1.2887166738510132
1761392279673718800,5.76271875,1.506995439529419,-1.1037262678146362,-0.4700344502925873
1761392279683800600,5.772800537109375,0.796036958694458,-0.39654964208602905,-0.3702114522457123
1761392279693882600,5.782882568359375,0.030873887240886688,0.4973205029964447,-0.6959293484687805
1761392279703965700,5.792965576171875,-0.7467057704925537,1.2008106708526611,-0.9914310574531555
1761392279714047700,5.8030478515625,-1.3455909490585327,1.4663394689559937,-0.9298681616783142
1761392279724129800,5.8131298828125,-1.6199620962142944,1.3747410774230957,-0.29434019327163696
1761392279734211600,5.823211669921875,-1.372881293296814,1.3574098348617554,1.0797686576843262
1761392279744293600,5.833293701171875,-0.7401294112205505,1.6710069179534912,2.907181739807129
1761392279754376700,5.843376708984375,-0.08091439306735992,1.8482553958892822,4.652682781219482
1761392279764458800,5.853458740234375,0.30343037843704224,1.5293327569961548,5.841290473937988
1761392279774540500,5.86354052734375,0.4977944493293762,0.9781695604324341,6.345623016357422
1761392279784622600,5.87362255859375,0.5514185428619385,0.49811506271362305,6.290087699890137
1761392279794705700,5.88370556640625,0.4521692991256714,0.2123989313840866,5.8993821144104
1761392279804787700,5.89378759765625,0.1826518028974533,0.21183407306671143,5.239625930786133
1761392279814869800,5.903869873046875,-0.19735682010650635,0.46240711212158203,4.299361705780029
1761392279824952300,5.913952392578125,-0.6123276352882385,0.8043955564498901,3.217341423034668
1761392279835035400,5.924035400390625,-1.0369492769241333,0.8661808967590332,2.1469273567199707
1761392279845117400,5.934117431640625,-1.4155431985855103,0.6080729365348816,1.1714445352554321
1761392279855199200,5.94419921875,-1.6156532764434814,0.4534285068511963,0.40485331416130066
1761392279865281300,5.95428125,-1.4774333238601685,0.6767196655273438,0.06130767613649368
1761392279875364400,5.9643642578125,-0.9706794619560242,1.2437728643417358,0.19405673444271088
1761392279885446400,5.9744462890625,-0.34279105067253113,1.5960638523101807,0.6580414175987244
1761392279895528200,5.984528076171875,0.16056114435195923,1.3863667249679565,1.0984785556793213
1761392279905610200,5.9946103515625,0.5090008974075317,0.7610934972763062,1.2328763008117676
1761392279915692300,6.0046923828125,0.6824967861175537,0.015650620684027672,0.9815675020217896
1761392279925775400,6.014775390625,0.7389243245124817,-0.6153483986854553,0.4221968650817871
1761392279935857400,6.024857421875,0.7043951153755188,-1.00025475025177,-0.3156168460845947
1761392279945939200,6.034939208984375,0.6624689698219299,-1.0716134309768677,-1.1137844324111938
1761392279956021200,6.045021240234375,0.6279466152191162,-1.0453741550445557,-1.900795340538025
1761392279966104300,6.055104248046875,0.5851041078567505,-1.05410635471344,-2.570560932159424
1761392279976186400,6.065186279296875,0.5384131073951721,-1.1361714601516724,-3.0976343154907227
1761392279986268200,6.07526806640625,0.45202013850212097,-1.309105634689331,-3.4267539978027344
1761392279996350200,6.08535009765625,0.3188771903514862,-1.4716962575912476,-3.5315566062927246
1761392280006433300,6.095433349609375,0.2690563499927521,-1.605041742324829,-3.434704542160034
1761392280016515300,6.105515380859375,0.3758651614189148,-1.6110284328460693,-3.134192705154419
1761392280026597400,6.115597412109375,0.47148674726486206,-1.4715183973312378,-2.5893781185150146
1761392280036679200,6.12567919921875,0.29995590448379517,-1.043620228767395,-1.8145512342453003
1761392280046762200,6.13576220703125,-0.18499614298343658,-0.40895676612854004,-1.048503041267395
1761392280056844300,6.14584423828125,-0.7492043375968933,0.04625493288040161,-0.5349027514457703
1761392280066926300,6.15592626953125,-1.178118348121643,0.17707712948322296,-0.039252229034900665
1761392280077008100,6.166008056640625,-1.3845884799957275,0.18845681846141815,0.8050635457038879
1761392280087090200,6.176090087890625,-1.3697088956832886,0.11599886417388916,1.9705957174301147
1761392280097173200,6.18617333984375,-1.199906587600708,0.05717797577381134,3.1065096855163574
1761392280107255300,6.19625537109375,-0.9704693555831909,0.1006556823849678,3.998816967010498
1761392280117337300,6.20633740234375,-0.7637513279914856,0.21947208046913147,4.577567100524902
1761392280127419100,6.216419189453125,-0.5612629652023315,0.22841624915599823,4.762009620666504
1761392280137502200,6.226502197265625,-0.3953549265861511,0.11455655097961426,4.574626445770264
1761392280147584300,6.236584228515625,-0.38146787881851196,-0.014980134554207325,4.131271839141846
1761392280157666300,6.246666259765625,-0.4961862564086914,-0.19873642921447754,3.4442481994628906
1761392280167748000,6.256748046875,-0.769677460193634,-0.2007761299610138,2.479663372039795
1761392280177831200,6.2668310546875,-1.2704896926879883,0.26777830719947815,1.1675405502319336
1761392280187913200,6.276913330078125,-1.643490195274353,1.212766408920288,-0.23568327724933624
1761392280197995300,6.286995361328125,-1.560144305229187,2.282773971557617,-1.3507949113845825
1761392280208077300,6.297077392578125,-1.074460506439209,3.154078722000122,-1.8983376026153564
1761392280218159000,6.3071591796875,-0.4744184911251068,3.432299852371216,-1.8800235986709595
1761392280228242400,6.317242431640625,0.06981819868087769,2.948089599609375,-1.5164611339569092
1761392280238324500,6.327324462890625,0.46134665608406067,1.7412590980529785,-1.0724239349365234
1761392280248406300,6.33740625,0.6964425444602966,0.20908845961093903,-0.7400403618812561
1761392280258488000,6.347488037109375,0.7929320931434631,-1.0529096126556396,-0.5847160816192627
1761392280268571400,6.3575712890625,0.8441305160522461,-1.7349613904953003,-0.6824884414672852
1761392280278653400,6.3676533203125,0.8202520608901978,-1.8949662446975708,-1.0649300813674927
1761392280288735500,6.377735595703125,0.6915156245231628,-1.7278629541397095,-1.6575549840927124
1761392280298817300,6.3878173828125,0.42693179845809937,-1.4176961183547974,-2.358757734298706
1761392280308900400,6.397900390625,0.07163736969232559,-1.0947157144546509,-3.0598108768463135
1761392280318982400,6.407982421875,-0.2951483428478241,-0.9499074816703796,-3.5571887493133545
1761392280329064400,6.418064453125,-0.6370508074760437,-0.8680152297019958,-3.72526478767395
1761392280339146500,6.428146484375,-0.998482882976532,-0.76167893409729,-3.533468723297119
1761392280349228300,6.438228271484375,-1.1604923009872437,-0.9147840142250061,-3.1402339935302734
1761392280359311400,6.448311279296875,-1.2392141819000244,-1.3740930557250977,-2.7777862548828125
1761392280369393400,6.458393310546875,-1.2430307865142822,-1.8597519397735596,-2.2876806259155273
1761392280379475500,6.468475341796875,-1.270538091659546,-2.0504310131073,-1.4259827136993408
1761392280389557200,6.47855712890625,-1.5313942432403564,-1.8566865921020508,-0.39666908979415894
1761392280399640300,6.488640380859375,-1.938280701637268,-1.408800721168518,0.2672487497329712
1761392280409722400,6.498722412109375,-2.234569787979126,-0.8171440958976746,0.31430068612098694
1761392280419804400,6.508804443359375,-2.3430404663085938,-0.038590580224990845,0.2720724940299988
1761392280429886500,6.518886474609375,-2.296125888824463,0.5907812118530273,0.6126327514648438
1761392280439969300,6.52896923828125,-2.1795177459716797,0.8076438903808594,1.375880241394043
1761392280450051300,6.53905126953125,-1.9763033390045166,0.807001531124115,2.4317097663879395
1761392280460133400,6.54913330078125,-1.727517008781433,0.558788001537323,3.3630526065826416
1761392280470215400,6.55921533203125,-1.4338382482528687,0.3492374122142792,3.9334182739257812
1761392280480298200,6.56929833984375,-1.0993106365203857,0.3407392203807831,4.219159126281738
1761392280490380300,6.57938037109375,-0.8110633492469788,0.3894106149673462,4.2336106300354
1761392280500462300,6.58946240234375,-0.6682438254356384,0.4146011769771576,3.9885709285736084
1761392280510544400,6.59954443359375,-0.6993260979652405,0.5375558733940125,3.453396797180176
1761392280520626400,6.60962646484375,-0.8639604449272156,0.6494076251983643,2.6258673667907715
1761392280530709200,6.619709228515625,-1.0735067129135132,0.6979026794433594,1.6454321146011353
1761392280540791300,6.629791259765625,-1.2933909893035889,0.9999792575836182,0.6414755582809448
1761392280550873300,6.639873291015625,-1.4514015913009644,1.5892057418823242,-0.22220034897327423
1761392280560955400,6.649955322265625,-1.2585926055908203,2.2212393283843994,-0.853657603263855
1761392280571038200,6.6600380859375,-0.5979563593864441,2.6163341999053955,-1.1818968057632446
1761392280581120300,6.670120361328125,0.1448458582162857,2.471083879470825,-1.2234498262405396
1761392280591202300,6.680202392578125,0.6133041381835938,1.718751311302185,-1.1112096309661865
1761392280601284400,6.690284423828125,0.7611017823219299,0.5569730997085571,-0.9738529324531555
1761392280611367200,6.7003671875,0.741306483745575,-0.6288622617721558,-0.9934799075126648
1761392280621449200,6.71044921875,0.6502419710159302,-1.3762798309326172,-1.2792242765426636
1761392280631531300,6.72053125,0.5266520977020264,-1.5908148288726807,-1.8558231592178345
1761392280641613300,6.73061328125,0.4799732267856598,-1.3092150688171387,-2.668534755706787
1761392280651695400,6.7406953125,0.40036147832870483,-0.7364168763160706,-3.4690239429473877
1761392280661778200,6.750778076171875,0.2016827017068863,-0.23067517578601837,-4.090719699859619
1761392280671860200,6.760860107421875,-0.04873087629675865,0.03933953493833542,-4.370157241821289
1761392280681942300,6.7709423828125,-0.5353066921234131,-0.001055179163813591,-4.3156514167785645
1761392280692024300,6.7810244140625,-1.1509389877319336,-0.3689977824687958,-4.029933452606201
1761392280702107100,6.791107177734375,-1.7490770816802979,-1.0738481283187866,-3.632526159286499
1761392280712189200,6.801189208984375,-2.1196866035461426,-2.043471574783325,-3.0273616313934326
1761392280722271200,6.811271240234375,-2.141404628753662,-2.8684160709381104,-2.136190891265869
1761392280732353300,6.821353271484375,-1.946399450302124,-3.206341505050659,-1.0577558279037476
1761392280742436000,6.83143603515625,-1.7828835248947144,-3.1473405361175537,-0.04607122018933296
1761392280752518100,6.84151806640625,-1.6330925226211548,-2.887392520904541,0.705289900302887
1761392280762600200,6.85160009765625,-1.5087486505508423,-2.3480281829833984,1.1096618175506592
1761392280772682200,6.86168212890625,-1.4624052047729492,-1.5174570083618164,1.1936537027359009
1761392280782764300,6.871764404296875,-1.4474718570709229,-0.5994647741317749,0.9482765197753906
1761392280792847400,6.881847412109375,-1.4540882110595703,-0.00634097121655941,0.44568559527397156
1761392280802929400,6.891929443359375,-1.4716448783874512,0.15699291229248047,-0.0911751464009285
1761392280813011200,6.90201123046875,-1.5082193613052368,-0.27752605080604553,-0.47974687814712524
1761392280823093200,6.91209326171875,-1.4047197103500366,-1.0378663539886475,-0.8157891035079956
1761392280833175600,6.922175537109375,-1.3093332052230835,-0.9924812316894531,-1.0515520572662354
1761392280843257600,6.932257568359375,-1.1971389055252075,-1.1713420152664185,-1.0541590452194214
1761392280853339600,6.942339599609375,-1.1044116020202637,-1.1207009553909302,-0.9269616603851318
1761392280863421700,6.952421630859375,-0.9399207830429077,-0.6547812819480896,-0.7305627465248108
1761392280873504500,6.96250439453125,-0.5974614024162292,0.22456997632980347,-0.43556997179985046
1761392280883586600,6.972586669921875,-0.17376048862934113,0.6676719784736633,-0.2243446558713913
1761392280893668600,6.982668701171875,0.21433770656585693,0.7745888233184814,-0.0586014986038208
1761392280903750700,6.992750732421875,0.4481649398803711,0.9735515117645264,0.1355321705341339
1761392280913832700,7.002832763671875,0.5112138986587524,1.0685757398605347,0.29542675614356995
1761392280923915500,7.01291552734375,0.3692060112953186,0.8233166933059692,0.3224635124206543
1761392280933997600,7.02299755859375,0.07143528759479523,0.485280841588974,0.2665072977542877
1761392280944079600,7.03307958984375,-0.24494440853595734,0.41177964210510254,0.2069295346736908
1761392280954161700,7.04316162109375,-0.44256773591041565,0.5477215051651001,0.11984070390462875
1761392280964244500,7.053244384765625,-0.4607146978378296,0.7266824245452881,-0.07337412983179092
1761392280974326500,7.063326416015625,-0.3791801631450653,0.8168448209762573,-0.3389269709587097
1761392280984408600,7.07340869140625,-0.31052297353744507,0.9515979290008545,-0.48614248633384705
1761392280994490600,7.08349072265625,-0.2706322968006134,1.129535436630249,-0.5027196407318115
1761392281004573700,7.09357373046875,-0.16044116020202637,1.2578575611114502,-0.5359430909156799
1761392281014655500,7.103655517578125,-0.004909609444439411,1.4496467113494873,-0.6396260857582092
1761392281024737500,7.113737548828125,0.08791488409042358,1.7158254384994507,-0.7746366858482361
1761392281034819600,7.123819580078125,0.08805868774652481,1.5229113101959229,-0.9379792809486389
1761392281044901600,7.133901611328125,0.015818435698747635,0.8036309480667114,-1.0947624444961548
1761392281054984700,7.143984619140625,-0.13203547894954681,-0.21860210597515106,-1.0501611232757568
1761392281065066800,7.154066650390625,-0.3111264705657959,-0.8726916313171387,-0.6588905453681946
1761392281075148800,7.164148681640625,-0.46180039644241333,-0.9605016708374023,-0.026218779385089874
1761392281085230600,7.174230712890625,-0.593181848526001,-0.6808685660362244,0.5801779627799988
1761392281095313700,7.184313720703125,-0.6018046140670776,-0.3275624215602875,0.936111569404602
1761392281105395700,7.194395751953125,-0.49485403299331665,-0.012383008375763893,0.8742589950561523
1761392281115477800,7.204477783203125,-0.42580169439315796,0.2013511061668396,0.4767441153526306
1761392281125559800,7.214559814453125,-0.4019400477409363,0.4579686224460602,0.04987318441271782
1761392281135643000,7.224642822265625,-0.3859274983406067,0.500609815120697,-0.3705182671546936
1761392281145724700,7.234724609375,-0.3618965446949005,0.3993906080722809,-0.7082625031471252
1761392281155806700,7.244806640625,-0.3212828040122986,0.2560829818248749,-0.9289056658744812
1761392281165888800,7.254888671875,-0.2597719430923462,0.13577483594417572,-0.9760996699333191
1761392281175970800,7.264970703125,-0.18455734848976135,0.1803063452243805,-0.8344847559928894
1761392281186053600,7.2750537109375,-0.10347416996955872,0.3186698853969574,-0.5792850852012634
1761392281196135700,7.2851357421875,-0.035661038011312485,0.39763927459716797,-0.33737605810165405
1761392281206217700,7.2952177734375,-0.020742380991578102,0.3389010727405548,-0.16467203199863434
1761392281216299800,7.3052998046875,-0.0665665939450264,0.07619009912014008,-0.08266770839691162
1761392281226382800,7.3153828125,-0.15715211629867554,-0.23634383082389832,-0.08773980289697647
1761392281236464600,7.325464599609375,-0.2605333924293518,-0.3745637536048889,-0.15233424305915833
1761392281246546700,7.335546630859375,-0.39570140838623047,-0.3301120102405548,-0.2571461796760559
1761392281256628700,7.345628662109375,-0.5200837850570679,-0.12874478101730347,-0.3092024624347687
1761392281266710800,7.355710693359375,-0.5778023600578308,0.22626210749149323,-0.227116659283638
1761392281276793600,7.365793701171875,-0.5743445158004761,0.5029610991477966,-0.08916091918945312
1761392281286875600,7.375875732421875,-0.5364693999290466,0.757384181022644,0.0066851656883955
1761392281296957700,7.385957763671875,-0.4919802248477936,0.8919476270675659,0.057861536741256714
1761392281307039700,7.396039794921875,-0.4757583439350128,0.7377445697784424,0.13173823058605194
1761392281317122800,7.406122802734375,-0.4138941764831543,0.3311382532119751,0.17838962376117706
1761392281327204600,7.41620458984375,-0.31306755542755127,-0.014477582648396492,0.2323678582906723
1761392281337286700,7.42628662109375,-0.22973378002643585,-0.2219756543636322,0.27529826760292053
1761392281347368700,7.43636865234375,-0.23459021747112274,-0.29782453179359436,0.2661629319190979
1761392281357451800,7.44645166015625,-0.29586583375930786,-0.17093876004219055,0.2561001777648926
1761392281367533600,7.456533447265625,-0.3555834889411926,0.0429040901362896,0.2715950906276703
