time,seconds_elapsed,z,y,x
1761379475534570800,0.07557080078125,-0.9862518310546875,0.0366668701171875,0.2140655517578125
1761379475544652800,0.08565283203125,-0.9801025390625,0.037689208984375,0.2126007080078125
1761379475554735600,0.095735595703125,-0.9721527099609375,0.034820556640625,0.2098236083984375
1761379475564817700,0.105817626953125,-0.9703216552734375,0.0341796875,0.214813232421875
1761379475574899700,0.115899658203125,-0.9669647216796875,0.032745361328125,0.21490478515625
1761379475584981800,0.125981689453125,-0.9605865478515625,0.0326995849609375,0.2126007080078125
1761379475595063800,0.136063720703125,-0.96368408203125,0.035552978515625,0.213226318359375
1761379475605145600,0.1461455078125,-0.97430419921875,0.0366668701171875,0.2132110595703125
1761379475615227600,0.1562275390625,-0.97998046875,0.0380706787109375,0.2127838134765625
1761379475625310700,0.166310791015625,-0.96868896484375,0.0379180908203125,0.21331787109375
1761379475635392800,0.176392822265625,-0.9561004638671875,0.0363922119140625,0.2130279541015625
1761379475645474600,0.186474609375,-0.962432861328125,0.036285400390625,0.2147369384765625
1761379475655556600,0.196556640625,-0.9803924560546875,0.0378570556640625,0.216583251953125
1761379475665638700,0.206638671875,-0.9791259765625,0.038421630859375,0.2144927978515625
1761379475675720700,0.216720703125,-0.9663848876953125,0.0377960205078125,0.2152099609375
1761379475685802800,0.226802734375,-0.961273193359375,0.03656005859375,0.218414306640625
1761379475695884800,0.236884765625,-0.95989990234375,0.033447265625,0.216583251953125
1761379475705967600,0.246967529296875,-0.96905517578125,0.031951904296875,0.21630859375
1761379475716049700,0.257049560546875,-0.9770355224609375,0.0311279296875,0.2183380126953125
1761379475726131700,0.267131591796875,-0.975921630859375,0.0312652587890625,0.2180938720703125
1761379475736213800,0.2772138671875,-0.9684906005859375,0.0329742431640625,0.219268798828125
1761379475746295800,0.2872958984375,-0.9634246826171875,0.0338897705078125,0.21826171875
1761379475756377600,0.297377685546875,-0.966461181640625,0.0368804931640625,0.2172393798828125
1761379475766459600,0.307459716796875,-0.97607421875,0.0374603271484375,0.217315673828125
1761379475776541700,0.317541748046875,-0.9777984619140625,0.0344390869140625,0.2158660888671875
1761379475786624800,0.327624755859375,-0.971923828125,0.0336151123046875,0.214630126953125
1761379475796706600,0.33770654296875,-0.9711761474609375,0.032470703125,0.2157440185546875
1761379475806788600,0.34778857421875,-0.971343994140625,0.032012939453125,0.216461181640625
1761379475816870700,0.35787060546875,-0.967376708984375,0.03173828125,0.2177734375
1761379475826952700,0.36795263671875,-0.9595489501953125,0.03125,0.2185516357421875
1761379475837034800,0.37803466796875,-0.96490478515625,0.0340118408203125,0.2222137451171875
1761379475847116800,0.38811669921875,-0.9818572998046875,0.0366363525390625,0.2259063720703125
1761379475857198600,0.398198486328125,-0.981353759765625,0.0368499755859375,0.222991943359375
1761379475867281700,0.40828173828125,-0.964874267578125,0.038970947265625,0.21685791015625
1761379475877363700,0.41836376953125,-0.9590606689453125,0.0391082763671875,0.2129058837890625
1761379475887445800,0.42844580078125,-0.971710205078125,0.0388946533203125,0.2139739990234375
1761379475897527800,0.43852783203125,-0.9857330322265625,0.036529541015625,0.2159576416015625
1761379475907609600,0.448609619140625,-0.9869537353515625,0.03753662109375,0.2144927978515625
1761379475917691600,0.458691650390625,-0.97259521484375,0.03704833984375,0.2132568359375
1761379475927773700,0.468773681640625,-0.96234130859375,0.0357818603515625,0.2158660888671875
1761379475937855700,0.478855712890625,-0.97021484375,0.0384521484375,0.22198486328125
1761379475947938600,0.4889384765625,-0.9771881103515625,0.042816162109375,0.224151611328125
1761379475958020600,0.4990205078125,-0.9697723388671875,0.0469970703125,0.2211151123046875
1761379475968102700,0.5091025390625,-0.955322265625,0.045135498046875,0.2231292724609375
1761379475978184700,0.519184814453125,-0.9523162841796875,0.0416412353515625,0.227508544921875
1761379475988266800,0.529266845703125,-0.9644012451171875,0.038421630859375,0.2296295166015625
1761379475998348800,0.539348876953125,-0.9740753173828125,0.0350494384765625,0.224334716796875
1761379476008430600,0.5494306640625,-0.977203369140625,0.032958984375,0.2165679931640625
1761379476018513700,0.559513671875,-0.9790802001953125,0.0308990478515625,0.21295166015625
1761379476028596000,0.569595947265625,-0.979644775390625,0.028594970703125,0.2126312255859375
1761379476038678000,0.579677978515625,-0.9768218994140625,0.0283355712890625,0.212249755859375
1761379476048760000,0.589760009765625,-0.97119140625,0.0293121337890625,0.21343994140625
1761379476058841900,0.599841796875,-0.963836669921875,0.0320892333984375,0.2135009765625
1761379476068924000,0.609923828125,-0.9653167724609375,0.0336761474609375,0.21563720703125
1761379476079006000,0.620005859375,-0.9735565185546875,0.03546142578125,0.2175445556640625
1761379476089088000,0.630087890625,-0.972381591796875,0.0356597900390625,0.217926025390625
1761379476099170800,0.6401708984375,-0.9644775390625,0.034332275390625,0.2185211181640625
1761379476109252900,0.6502529296875,-0.96429443359375,0.0328216552734375,0.21954345703125
1761379476119335000,0.6603349609375,-0.9681854248046875,0.0322418212890625,0.2201690673828125
1761379476129417000,0.6704169921875,-0.968170166015625,0.030792236328125,0.2181243896484375
1761379476139499000,0.6804990234375,-0.9712371826171875,0.0308685302734375,0.2176361083984375
1761379476149581000,0.6905810546875,-0.974456787109375,0.03179931640625,0.217376708984375
1761379476159662800,0.700662841796875,-0.9742279052734375,0.033477783203125,0.216949462890625
1761379476169745000,0.710744873046875,-0.9756927490234375,0.033966064453125,0.2171173095703125
1761379476179828000,0.720827880859375,-0.9750823974609375,0.0332489013671875,0.2170867919921875
1761379476189910000,0.730909912109375,-0.9735260009765625,0.0340423583984375,0.21527099609375
1761379476199992000,0.740991943359375,-0.971923828125,0.0361480712890625,0.21209716796875
1761379476210073900,0.751073974609375,-0.9753875732421875,0.0364990234375,0.2121429443359375
1761379476220156000,0.761156005859375,-0.9728240966796875,0.03558349609375,0.211517333984375
1761379476230238000,0.771238037109375,-0.9707489013671875,0.0341796875,0.210235595703125
1761379476240320000,0.781320068359375,-0.9711456298828125,0.031646728515625,0.2092742919921875
1761379476250402000,0.791402099609375,-0.9689788818359375,0.031524658203125,0.208099365234375
1761379476260484900,0.80148486328125,-0.9703826904296875,0.0321502685546875,0.208648681640625
1761379476270567000,0.81156689453125,-0.9732208251953125,0.032196044921875,0.21124267578125
1761379476280649000,0.82164892578125,-0.9736175537109375,0.033050537109375,0.21221923828125
1761379476290731000,0.83173095703125,-0.9698638916015625,0.032562255859375,0.2117462158203125
1761379476300813000,0.84181298828125,-0.9654083251953125,0.03363037109375,0.210418701171875
1761379476310894800,0.851894775390625,-0.964111328125,0.0347747802734375,0.2095184326171875
1761379476320977000,0.861976806640625,-0.966278076171875,0.0357513427734375,0.2085723876953125
1761379476331060000,0.87206005859375,-0.9756011962890625,0.037200927734375,0.20965576171875
1761379476341142000,0.88214208984375,-0.980377197265625,0.036590576171875,0.209228515625
1761379476351224000,0.89222412109375,-0.9765167236328125,0.031982421875,0.2099761962890625
1761379476361305900,0.902305908203125,-0.9741973876953125,0.028167724609375,0.2101898193359375
1761379476371388000,0.912387939453125,-0.9767303466796875,0.0299530029296875,0.2130126953125
1761379476381470000,0.922469970703125,-0.973175048828125,0.0301971435546875,0.21417236328125
1761379476391552000,0.932552001953125,-0.963714599609375,0.02862548828125,0.21478271484375
1761379476401634000,0.942634033203125,-0.9607391357421875,0.0290069580078125,0.2143402099609375
1761379476411716900,0.952716796875,-0.9727783203125,0.0311279296875,0.2142333984375
1761379476421799000,0.962798828125,-0.982879638671875,0.0336151123046875,0.2135162353515625
1761379476431881000,0.972880859375,-0.9780731201171875,0.0340423583984375,0.212310791015625
1761379476441963000,0.982962890625,-0.9711761474609375,0.03240966796875,0.2125244140625
1761379476452045000,0.993045166015625,-0.9697113037109375,0.0298919677734375,0.211090087890625
1761379476462126800,1.003126953125,-0.974090576171875,0.0299224853515625,0.2110748291015625
1761379476472209000,1.013208984375,-0.9819488525390625,0.0303192138671875,0.210784912109375
1761379476482291000,1.023291015625,-0.97784423828125,0.03094482421875,0.2108154296875
1761379476492374000,1.0333740234375,-0.968963623046875,0.0296173095703125,0.2106781005859375
1761379476502456000,1.0434560546875,-0.959503173828125,0.0282135009765625,0.208343505859375
1761379476512537900,1.053537841796875,-0.962554931640625,0.026397705078125,0.207122802734375
1761379476522620000,1.063619873046875,-0.975616455078125,0.0258026123046875,0.208038330078125
1761379476532702000,1.073701904296875,-0.9881591796875,0.0278167724609375,0.2076263427734375
1761379476542784000,1.083783935546875,-0.9893798828125,0.0308380126953125,0.204681396484375
1761379476552866000,1.093865966796875,-0.9844512939453125,0.031036376953125,0.2039031982421875
1761379476562948900,1.103948974609375,-0.972747802734375,0.0263671875,0.2072601318359375
1761379476573031000,1.114031005859375,-0.963226318359375,0.02703857421875,0.2088470458984375
1761379476583113000,1.124113037109375,-0.96319580078125,0.0319671630859375,0.2091217041015625
1761379476593195000,1.134195068359375,-0.9645538330078125,0.0347747802734375,0.209320068359375
1761379476603277000,1.144277099609375,-0.9703521728515625,0.0319366455078125,0.209503173828125
1761379476613358800,1.15435888671875,-0.978515625,0.0281829833984375,0.2121124267578125
1761379476623441000,1.16444091796875,-0.979248046875,0.026031494140625,0.2121429443359375
1761379476633523000,1.17452294921875,-0.975128173828125,0.0277862548828125,0.2109832763671875
1761379476643606000,1.18460595703125,-0.9730072021484375,0.0309295654296875,0.2106475830078125
1761379476653688000,1.19468798828125,-0.9712677001953125,0.0312042236328125,0.21087646484375
1761379476663769900,1.204769775390625,-0.967041015625,0.03173828125,0.210052490234375
1761379476673852000,1.214851806640625,-0.9707183837890625,0.02850341796875,0.210845947265625
1761379476683934000,1.224933837890625,-0.97894287109375,0.027191162109375,0.2102813720703125
1761379476694016000,1.23501611328125,-0.982208251953125,0.0220489501953125,0.209869384765625
1761379476704098000,1.24509814453125,-0.978790283203125,0.0199737548828125,0.2103118896484375
1761379476714180000,1.25518017578125,-0.9751129150390625,0.02166748046875,0.2096099853515625
1761379476724263000,1.265262939453125,-0.9721832275390625,0.0255889892578125,0.2079315185546875
1761379476734345000,1.275344970703125,-0.96875,0.0287933349609375,0.20513916015625
1761379476744427000,1.285427001953125,-0.9739227294921875,0.02789306640625,0.205810546875
1761379476754509000,1.295509033203125,-0.9756317138671875,0.0246429443359375,0.2079315185546875
1761379476764591000,1.305591064453125,-0.97216796875,0.0235595703125,0.2061767578125
1761379476774673000,1.3156728515625,-0.9675445556640625,0.0235443115234375,0.204925537109375
1761379476784755000,1.3257548828125,-0.9693603515625,0.0231781005859375,0.205718994140625
1761379476794838000,1.335838134765625,-0.9722900390625,0.0239715576171875,0.2075042724609375
1761379476804920000,1.345920166015625,-0.9744415283203125,0.0260772705078125,0.2067718505859375
1761379476815001900,1.356001953125,-0.9768829345703125,0.0301055908203125,0.2091522216796875
1761379476825084000,1.366083984375,-0.97454833984375,0.0301971435546875,0.2119903564453125
1761379476835166000,1.376166015625,-0.9700927734375,0.027923583984375,0.2140350341796875
1761379476845248000,1.386248046875,-0.9638824462890625,0.02618408203125,0.2114410400390625
1761379476855330000,1.396330078125,-0.964752197265625,0.0252838134765625,0.2090606689453125
1761379476865412000,1.406412109375,-0.969970703125,0.0245208740234375,0.2082061767578125
1761379476875495000,1.416494873046875,-0.9776153564453125,0.023773193359375,0.2086334228515625
1761379476885577000,1.426576904296875,-0.9798583984375,0.0252227783203125,0.2091827392578125
1761379476895659000,1.436658935546875,-0.9740753173828125,0.0263214111328125,0.207763671875
1761379476905741000,1.446740966796875,-0.9722900390625,0.0264739990234375,0.20697021484375
1761379476915823000,1.456822998046875,-0.9716796875,0.0235443115234375,0.2059173583984375
1761379476925905000,1.46690478515625,-0.974761962890625,0.023193359375,0.2040252685546875
1761379476935987000,1.476987060546875,-0.9757843017578125,0.02362060546875,0.2048492431640625
1761379476946069000,1.487069091796875,-0.9727935791015625,0.0215301513671875,0.2067108154296875
1761379476956152000,1.497152099609375,-0.96685791015625,0.0214691162109375,0.209381103515625
1761379476966233900,1.50723388671875,-0.9620208740234375,0.0213623046875,0.2105712890625
1761379476976316000,1.51731591796875,-0.9606170654296875,0.0201873779296875,0.209503173828125
1761379476986398000,1.52739794921875,-0.972564697265625,0.0214385986328125,0.2091827392578125
1761379476996480000,1.53747998046875,-0.983123779296875,0.0242767333984375,0.20587158203125
1761379477006562000,1.54756201171875,-0.9842987060546875,0.0279693603515625,0.2039642333984375
1761379477016644000,1.55764404296875,-0.980926513671875,0.0279693603515625,0.2082366943359375
1761379477026725600,1.5677255859375,-0.9756622314453125,0.0240478515625,0.20654296875
1761379477036807400,1.577807373046875,-0.9662933349609375,0.0281982421875,0.205718994140625
1761379477046889500,1.587889404296875,-0.9672393798828125,0.0289154052734375,0.2117462158203125
1761379477056971500,1.597971435546875,-0.968017578125,0.025360107421875,0.21307373046875
1761379477067053600,1.608053466796875,-0.96917724609375,0.0252838134765625,0.210693359375
1761379477077135600,1.618135498046875,-0.9691619873046875,0.02557373046875,0.208648681640625
1761379477087217700,1.6282177734375,-0.969451904296875,0.0234832763671875,0.20849609375
1761379477097299500,1.638299560546875,-0.97357177734375,0.021697998046875,0.2079620361328125
1761379477107382500,1.648382568359375,-0.9789581298828125,0.0221710205078125,0.20684814453125
1761379477117464600,1.658464599609375,-0.97314453125,0.0242156982421875,0.2043914794921875
1761379477127546600,1.668546630859375,-0.9641876220703125,0.0248870849609375,0.20257568359375
1761379477137628700,1.678628662109375,-0.9675140380859375,0.0235443115234375,0.20330810546875
1761379477147710500,1.68871044921875,-0.9769287109375,0.0225982666015625,0.20355224609375
1761379477157792500,1.69879248046875,-0.9778594970703125,0.0230255126953125,0.2060546875
1761379477167874600,1.70887451171875,-0.971282958984375,0.0235595703125,0.206817626953125
1761379477177956600,1.71895654296875,-0.9629669189453125,0.0251617431640625,0.2048797607421875
1761379477188039400,1.729039306640625,-0.961456298828125,0.02545166015625,0.2050018310546875
1761379477198121500,1.73912158203125,-0.9647979736328125,0.0219268798828125,0.2078857421875
1761379477208203500,1.74920361328125,-0.9710540771484375,0.0250244140625,0.2058868408203125
1761379477218285600,1.75928564453125,-0.97735595703125,0.0311279296875,0.2043914794921875
1761379477228367600,1.76936767578125,-0.9920806884765625,0.0324859619140625,0.2022857666015625
1761379477238449700,1.77944970703125,-1.0039215087890625,0.030853271484375,0.2005157470703125
1761379477248531500,1.789531494140625,-0.99945068359375,0.025909423828125,0.1972198486328125
1761379477258614500,1.799614501953125,-0.98590087890625,0.022064208984375,0.19952392578125
1761379477268696600,1.809696533203125,-0.968505859375,0.020355224609375,0.2049407958984375
1761379477278778600,1.819778564453125,-0.9544830322265625,0.0212860107421875,0.2058563232421875
1761379477288860700,1.829860595703125,-0.9523773193359375,0.0270233154296875,0.20379638671875
1761379477298942500,1.8399423828125,-0.967681884765625,0.029571533203125,0.2038116455078125
1761379477309024500,1.8500244140625,-0.982696533203125,0.029998779296875,0.2036895751953125
1761379477319106600,1.8601064453125,-0.9831695556640625,0.0304718017578125,0.2007293701171875
1761379477329188600,1.870188720703125,-0.98114013671875,0.0307464599609375,0.1972198486328125
1761379477339271400,1.880271484375,-0.978790283203125,0.0284576416015625,0.1977081298828125
1761379477349353500,1.890353515625,-0.971771240234375,0.0251312255859375,0.1977081298828125
1761379477359435500,1.900435546875,-0.970611572265625,0.0218353271484375,0.1988372802734375
1761379477369517600,1.910517578125,-0.9780426025390625,0.0231475830078125,0.1989898681640625
1761379477379599600,1.920599609375,-0.9810028076171875,0.0230865478515625,0.200531005859375
1761379477389681700,1.930681640625,-0.9761962890625,0.0225372314453125,0.1999359130859375
1761379477399763700,1.940763671875,-0.9746246337890625,0.023529052734375,0.19976806640625
1761379477409845500,1.950845458984375,-0.9809112548828125,0.0235137939453125,0.200164794921875
1761379477419928600,1.960928466796875,-0.9888916015625,0.0244598388671875,0.1990509033203125
1761379477430010600,1.9710107421875,-0.9886322021484375,0.023651123046875,0.1980133056640625
1761379477440092700,1.9810927734375,-0.9840545654296875,0.017974853515625,0.200775146484375
1761379477450174500,1.991174560546875,-0.973876953125,0.015625,0.200286865234375
1761379477460256500,2.001256591796875,-0.967803955078125,0.0192718505859375,0.1979522705078125
1761379477470338600,2.011338623046875,-0.96978759765625,0.0255889892578125,0.198455810546875
1761379477480420600,2.021420654296875,-0.974578857421875,0.0262603759765625,0.195953369140625
1761379477490503400,2.03150341796875,-0.9781036376953125,0.0233001708984375,0.196044921875
1761379477500585500,2.04158544921875,-0.981475830078125,0.020294189453125,0.1965484619140625
1761379477510667500,2.05166748046875,-0.979644775390625,0.0191802978515625,0.19720458984375
1761379477520749600,2.06174951171875,-0.9737548828125,0.019622802734375,0.1961212158203125
1761379477530831600,2.07183154296875,-0.972259521484375,0.0199127197265625,0.200408935546875
1761379477540913700,2.08191357421875,-0.9665374755859375,0.0193328857421875,0.2025604248046875
1761379477550995700,2.09199560546875,-0.9659271240234375,0.02081298828125,0.202484130859375
1761379477561077500,2.102077392578125,-0.971099853515625,0.02117919921875,0.2040557861328125
1761379477571160600,2.11216064453125,-0.9759063720703125,0.021026611328125,0.2041015625
1761379477581242600,2.12224267578125,-0.9758453369140625,0.021270751953125,0.203582763671875
1761379477591324700,2.13232470703125,-0.9742889404296875,0.0212860107421875,0.200592041015625
1761379477601406500,2.142406494140625,-0.9734954833984375,0.0203399658203125,0.19970703125
1761379477611488500,2.152488525390625,-0.974884033203125,0.017486572265625,0.1998138427734375
1761379477621570600,2.162570556640625,-0.97503662109375,0.016937255859375,0.1990509033203125
1761379477631652600,2.172652587890625,-0.9759979248046875,0.0164337158203125,0.198883056640625
1761379477641735700,2.182735595703125,-0.975738525390625,0.015411376953125,0.1981658935546875
1761379477651817500,2.1928173828125,-0.9766693115234375,0.01470947265625,0.200408935546875
1761379477661899500,2.2028994140625,-0.97515869140625,0.01824951171875,0.200592041015625
1761379477671981600,2.212981689453125,-0.9696197509765625,0.0212860107421875,0.2028350830078125
1761379477682063600,2.223063720703125,-0.9657135009765625,0.021575927734375,0.204193115234375
1761379477692145700,2.233145751953125,-0.9709930419921875,0.0210723876953125,0.2041473388671875
1761379477702227700,2.243227783203125,-0.97833251953125,0.0180206298828125,0.2034454345703125
1761379477712309500,2.2533095703125,-0.9801177978515625,0.016326904296875,0.2058258056640625
1761379477722392600,2.263392578125,-0.9785003662109375,0.019805908203125,0.2064666748046875
1761379477732474600,2.273474609375,-0.97088623046875,0.020172119140625,0.2053985595703125
1761379477742556700,2.283556640625,-0.9689788818359375,0.0186004638671875,0.2064056396484375
1761379477752638500,2.293638427734375,-0.9676666259765625,0.0167083740234375,0.2071685791015625
1761379477762720500,2.303720458984375,-0.9669952392578125,0.0155792236328125,0.2044219970703125
1761379477772802600,2.313802490234375,-0.969482421875,0.0145111083984375,0.2051849365234375
1761379477782884600,2.323884521484375,-0.97235107421875,0.014434814453125,0.201080322265625
1761379477792966700,2.333966552734375,-0.9759368896484375,0.0137939453125,0.197479248046875
1761379477803049500,2.344049560546875,-0.983367919921875,0.012298583984375,0.19476318359375
1761379477813131500,2.354131591796875,-0.9849090576171875,0.0121002197265625,0.199188232421875
1761379477823213600,2.364213623046875,-0.9801788330078125,0.010986328125,0.199249267578125
1761379477833295600,2.374295654296875,-0.97076416015625,0.013214111328125,0.2015380859375
1761379477843377700,2.384377685546875,-0.96368408203125,0.01605224609375,0.2021942138671875
1761379477853459700,2.394459716796875,-0.962493896484375,0.0157012939453125,0.2032012939453125
1761379477863541500,2.40454150390625,-0.96710205078125,0.0136871337890625,0.2058868408203125
1761379477873624600,2.41462451171875,-0.9718017578125,0.0118865966796875,0.206207275390625
1761379477883706600,2.42470654296875,-0.9747161865234375,0.0144500732421875,0.2022552490234375
1761379477893788700,2.43478857421875,-0.975311279296875,0.0176849365234375,0.2002105712890625
1761379477903870500,2.444870361328125,-0.9755096435546875,0.0139617919921875,0.19927978515625
1761379477913952500,2.454952392578125,-0.9735107421875,0.0098724365234375,0.2030487060546875
1761379477924034600,2.46503466796875,-0.97320556640625,0.006866455078125,0.2065887451171875
1761379477934116600,2.47511669921875,-0.974578857421875,0.0078277587890625,0.205657958984375
1761379477944198700,2.48519873046875,-0.9734649658203125,0.009857177734375,0.203826904296875
1761379477954281500,2.495281494140625,-0.976226806640625,0.008575439453125,0.202239990234375
1761379477964363500,2.505363525390625,-0.985107421875,0.0063629150390625,0.201263427734375
1761379477974445600,2.515445556640625,-0.985504150390625,0.0082550048828125,0.2017059326171875
1761379477984527600,2.525527587890625,-0.984100341796875,0.00927734375,0.20025634765625
1761379477994609700,2.535609619140625,-0.9825592041015625,0.0109405517578125,0.197418212890625
1761379478004691700,2.545691650390625,-0.9824981689453125,0.0120086669921875,0.197601318359375
1761379478014773500,2.5557734375,-0.9765472412109375,0.0115509033203125,0.1999359130859375
1761379478024856600,2.565856689453125,-0.970489501953125,0.014617919921875,0.1982269287109375
1761379478034939600,2.575939697265625,-0.970916748046875,0.0182952880859375,0.1988677978515625
1761379478045021400,2.586021484375,-0.975677490234375,0.0185546875,0.2003021240234375
1761379478055103500,2.596103515625,-0.97528076171875,0.01715087890625,0.19720458984375
1761379478065185500,2.606185546875,-0.97711181640625,0.019500732421875,0.1958160400390625
1761379478075267600,2.616267578125,-0.9805908203125,0.0190277099609375,0.1955108642578125
1761379478085349600,2.626349609375,-0.9803619384765625,0.0167236328125,0.198822021484375
1761379478095431700,2.636431640625,-0.974884033203125,0.013763427734375,0.2029266357421875
1761379478105514500,2.646514404296875,-0.969329833984375,0.011474609375,0.2039947509765625
1761379478115596500,2.656596435546875,-0.9659423828125,0.0106201171875,0.201690673828125
1761379478125678600,2.6666787109375,-0.9659576416015625,0.0096282958984375,0.1980743408203125
1761379478135760600,2.6767607421875,-0.971466064453125,0.010589599609375,0.1956024169921875
1761379478145842400,2.686842529296875,-0.97760009765625,0.0115966796875,0.195770263671875
1761379478155924500,2.696924560546875,-0.9795684814453125,0.0132293701171875,0.198883056640625
1761379478166006500,2.707006591796875,-0.9759979248046875,0.0121917724609375,0.201019287109375
1761379478176088600,2.717088623046875,-0.97137451171875,0.0133056640625,0.201690673828125
1761379478186171600,2.727171630859375,-0.9775848388671875,0.0170745849609375,0.2027435302734375
1761379478196253400,2.73725341796875,-0.9836578369140625,0.0169219970703125,0.2013702392578125
1761379478206335500,2.74733544921875,-0.9847564697265625,0.0136566162109375,0.2001495361328125
1761379478216417500,2.75741748046875,-0.9813385009765625,0.0101318359375,0.201507568359375
1761379478226499600,2.76749951171875,-0.9759979248046875,0.0103759765625,0.2047882080078125
1761379478236581600,2.77758154296875,-0.97418212890625,0.010345458984375,0.2087554931640625
1761379478246663700,2.78766357421875,-0.9701385498046875,0.0120086669921875,0.20794677734375
1761379478256746500,2.79774658203125,-0.97076416015625,0.015533447265625,0.2065277099609375
1761379478266828500,2.80782861328125,-0.9730072021484375,0.0178985595703125,0.2019805908203125
1761379478276910600,2.81791064453125,-0.9746246337890625,0.016815185546875,0.1973724365234375
1761379478286992600,2.82799267578125,-0.9780120849609375,0.0142059326171875,0.1950225830078125
1761379478297074400,2.838074462890625,-0.9824066162109375,0.0113983154296875,0.192474365234375
1761379478307156500,2.848156494140625,-0.9855804443359375,0.0101165771484375,0.190399169921875
1761379478317238500,2.858238525390625,-0.983001708984375,0.010894775390625,0.191436767578125
1761379478327320600,2.868320556640625,-0.9759674072265625,0.01318359375,0.1934051513671875
1761379478337403600,2.878403564453125,-0.9688720703125,0.015625,0.1965179443359375
1761379478347485400,2.8884853515625,-0.9646148681640625,0.0181121826171875,0.19775390625
1761379478357567500,2.8985673828125,-0.9663848876953125,0.01971435546875,0.198822021484375
1761379478367649500,2.9086494140625,-0.966796875,0.0213470458984375,0.197601318359375
1761379478377731600,2.918731689453125,-0.9678192138671875,0.019195556640625,0.1982269287109375
1761379478387813600,2.928813720703125,-0.9747161865234375,0.0148468017578125,0.1987152099609375
1761379478397895700,2.938895751953125,-0.9785308837890625,0.0105743408203125,0.1960296630859375
1761379478407977500,2.9489775390625,-0.9809417724609375,0.0084991455078125,0.1959686279296875
1761379478418060500,2.959060546875,-0.9873504638671875,0.0079498291015625,0.197357177734375
1761379478428142600,2.969142578125,-0.9914703369140625,0.008941650390625,0.19976806640625
1761379478438224600,2.979224609375,-0.9814300537109375,0.0106353759765625,0.2017669677734375
1761379478448306700,2.989306640625,-0.9674224853515625,0.013885498046875,0.2032623291015625
1761379478458388500,2.999388427734375,-0.9644927978515625,0.0150299072265625,0.204254150390625
1761379478468470500,3.009470458984375,-0.9728240966796875,0.01373291015625,0.208251953125
1761379478478552600,3.019552490234375,-0.977813720703125,0.0142974853515625,0.208038330078125
1761379478488634600,3.029634521484375,-0.974212646484375,0.0154571533203125,0.2037506103515625
1761379478498717400,3.039717529296875,-0.9707183837890625,0.0149688720703125,0.2010650634765625
1761379478508799500,3.049799560546875,-0.9740447998046875,0.0128326416015625,0.1998443603515625
1761379478518881500,3.059881591796875,-0.977142333984375,0.01129150390625,0.197784423828125
1761379478528963600,3.069963623046875,-0.9739990234375,0.0123291015625,0.1958770751953125
1761379478539045600,3.080045654296875,-0.9738922119140625,0.016357421875,0.196319580078125
1761379478549127700,3.090127685546875,-0.980560302734375,0.018798828125,0.1992950439453125
1761379478559209500,3.10020947265625,-0.97991943359375,0.0185089111328125,0.201263427734375
1761379478569292500,3.11029248046875,-0.9713592529296875,0.0186614990234375,0.2018890380859375
1761379478579374600,3.12037451171875,-0.962066650390625,0.017547607421875,0.202606201171875
1761379478589456600,3.13045654296875,-0.961639404296875,0.0153656005859375,0.204681396484375
1761379478599538700,3.14053857421875,-0.965728759765625,0.0126495361328125,0.205657958984375
1761379478609620500,3.150620361328125,-0.96881103515625,0.0131378173828125,0.2027435302734375
1761379478619702500,3.16070263671875,-0.972930908203125,0.0141143798828125,0.199249267578125
1761379478629784600,3.17078466796875,-0.9815216064453125,0.014129638671875,0.1974334716796875
1761379478639866600,3.18086669921875,-0.9909820556640625,0.0141754150390625,0.1953125
1761379478649949400,3.190949462890625,-0.993865966796875,0.0137786865234375,0.1932373046875
1761379478660031500,3.201031494140625,-0.9902801513671875,0.0166168212890625,0.1942291259765625
1761379478670113500,3.211113525390625,-0.98779296875,0.016937255859375,0.1955413818359375
1761379478680195600,3.221195556640625,-0.9805450439453125,0.017913818359375,0.197479248046875
1761379478690277600,3.231277587890625,-0.972930908203125,0.0204315185546875,0.19964599609375
1761379478700359700,3.241359619140625,-0.9670257568359375,0.0207672119140625,0.2032928466796875
1761379478710441500,3.25144140625,-0.963134765625,0.0199737548828125,0.20477294921875
1761379478720523500,3.2615234375,-0.964080810546875,0.01983642578125,0.206573486328125
1761379478730606600,3.271606689453125,-0.96435546875,0.0185089111328125,0.2071685791015625
1761379478740688600,3.281688720703125,-0.9675445556640625,0.0193939208984375,0.2040863037109375
1761379478750770700,3.291770751953125,-0.9727630615234375,0.022796630859375,0.2014312744140625
1761379478760852500,3.3018525390625,-0.9754638671875,0.0225830078125,0.201507568359375
1761379478770934500,3.3119345703125,-0.9755401611328125,0.0202789306640625,0.2027587890625
1761379478781016600,3.3220166015625,-0.975677490234375,0.0158538818359375,0.2035064697265625
1761379478791098600,3.3320986328125,-0.978057861328125,0.012969970703125,0.2039031982421875
1761379478801181400,3.342181396484375,-0.977874755859375,0.0130157470703125,0.2024688720703125
1761379478811263500,3.352263427734375,-0.9741058349609375,0.0168609619140625,0.199462890625
1761379478821345500,3.362345458984375,-0.9767303466796875,0.0195770263671875,0.1979217529296875
1761379478831427600,3.372427490234375,-0.979339599609375,0.019683837890625,0.199737548828125
1761379478841509600,3.382509521484375,-0.9771881103515625,0.0199432373046875,0.2025299072265625
1761379478851591700,3.392591796875,-0.976409912109375,0.0211639404296875,0.2035675048828125
1761379478861673500,3.402673583984375,-0.972076416015625,0.0229949951171875,0.20501708984375
1761379478871755500,3.412755615234375,-0.9701080322265625,0.023162841796875,0.2068939208984375
1761379478881838600,3.422838623046875,-0.972412109375,0.0238189697265625,0.208038330078125
1761379478891920600,3.432920654296875,-0.972747802734375,0.02581787109375,0.2060546875
1761379478902002700,3.443002685546875,-0.9720916748046875,0.0283050537109375,0.20428466796875
1761379478912084500,3.45308447265625,-0.97576904296875,0.02606201171875,0.2031097412109375
1761379478922166500,3.46316650390625,-0.979034423828125,0.0211029052734375,0.201324462890625
1761379478932248600,3.47324853515625,-0.9798736572265625,0.018096923828125,0.197479248046875
1761379478942330600,3.48333056640625,-0.985626220703125,0.016265869140625,0.1971435546875
1761379478952412700,3.49341259765625,-0.989837646484375,0.0175628662109375,0.1975860595703125
1761379478962495500,3.50349560546875,-0.9819183349609375,0.019195556640625,0.1966705322265625
1761379478972577500,3.51357763671875,-0.9690704345703125,0.0193939208984375,0.1961669921875
1761379478982659600,3.52365966796875,-0.966094970703125,0.01824951171875,0.1971435546875
1761379478992741600,3.53374169921875,-0.969085693359375,0.0188446044921875,0.199493408203125
1761379479002823700,3.54382373046875,-0.9695892333984375,0.02294921875,0.2022552490234375
1761379479012905500,3.553905517578125,-0.9695892333984375,0.0251312255859375,0.203125
1761379479022987000,3.563987060546875,-0.9690399169921875,0.0233917236328125,0.2011871337890625
1761379479033069800,3.57406982421875,-0.9680938720703125,0.021148681640625,0.1997222900390625
1761379479043152000,3.58415185546875,-0.9756927490234375,0.019805908203125,0.1988677978515625
1761379479053234000,3.59423388671875,-0.9832000732421875,0.0191650390625,0.1995849609375
1761379479063316000,3.60431591796875,-0.9817047119140625,0.016326904296875,0.201385498046875
1761379479073397800,3.614397705078125,-0.9797821044921875,0.0143585205078125,0.2079315185546875
1761379479083479800,3.624479736328125,-0.9821319580078125,0.0151214599609375,0.212432861328125
1761379479093561900,3.634561767578125,-0.9772491455078125,0.0170440673828125,0.2122650146484375
1761379479103644000,3.644643798828125,-0.9703521728515625,0.02105712890625,0.2105865478515625
1761379479113727000,3.65472705078125,-0.9712677001953125,0.0235137939453125,0.2105255126953125
1761379479123808800,3.664808837890625,-0.9740142822265625,0.0240631103515625,0.2098388671875
1761379479133890800,3.674890869140625,-0.975830078125,0.0240478515625,0.208892822265625
1761379479143972900,3.684972900390625,-0.9729156494140625,0.0193023681640625,0.208343505859375
1761379479154055000,3.695054931640625,-0.972900390625,0.0154571533203125,0.2104949951171875
1761379479164137000,3.705136962890625,-0.9753570556640625,0.016815185546875,0.2107696533203125
1761379479174219000,3.715218994140625,-0.9735565185546875,0.0191650390625,0.2086944580078125
1761379479184300800,3.72530078125,-0.9713134765625,0.020172119140625,0.20648193359375
1761379479194384000,3.7353837890625,-0.9694061279296875,0.0220794677734375,0.2060394287109375
1761379479204466000,3.7454658203125,-0.967041015625,0.019866943359375,0.2069091796875
1761379479214548000,3.7555478515625,-0.962799072265625,0.0180206298828125,0.20660400390625
1761379479224629800,3.765629638671875,-0.96502685546875,0.0175628662109375,0.2042388916015625
1761379479234711800,3.7757119140625,-0.9691925048828125,0.0181732177734375,0.2032928466796875
1761379479244793900,3.7857939453125,-0.9746551513671875,0.0158538818359375,0.1997528076171875
1761379479254876000,3.7958759765625,-0.9810638427734375,0.0164031982421875,0.1999053955078125
1761379479264959000,3.805958984375,-0.9861602783203125,0.0186767578125,0.201416015625
1761379479275040800,3.816040771484375,-0.9824676513671875,0.019500732421875,0.2057342529296875
1761379479285122800,3.826122802734375,-0.9715728759765625,0.01910400390625,0.2083587646484375
1761379479295204900,3.836204833984375,-0.965423583984375,0.0176239013671875,0.212127685546875
1761379479305287000,3.846286865234375,-0.9652862548828125,0.019073486328125,0.2174835205078125
1761379479315369000,3.856368896484375,-0.9631805419921875,0.023040771484375,0.21343994140625
1761379479325451000,3.866450927734375,-0.9754791259765625,0.0212860107421875,0.2134857177734375
1761379479335532800,3.87653271484375,-0.9753875732421875,0.018524169921875,0.2170562744140625
1761379479345616000,3.886615966796875,-0.974212646484375,0.014923095703125,0.2140045166015625
1761379479355698000,3.896697998046875,-0.977081298828125,0.014312744140625,0.2141265869140625
1761379479365780000,3.906780029296875,-0.9797515869140625,0.015167236328125,0.20965576171875
1761379479375861800,3.91686181640625,-0.9808502197265625,0.0163726806640625,0.2074737548828125
1761379479385943800,3.92694384765625,-0.9741973876953125,0.014495849609375,0.2078094482421875
1761379479396025900,3.93702587890625,-0.9707794189453125,0.0137786865234375,0.207275390625
1761379479406108000,3.94710791015625,-0.9730682373046875,0.0132293701171875,0.207672119140625
1761379479416190000,3.95718994140625,-0.9754791259765625,0.01275634765625,0.207672119140625
1761379479426272800,3.967272705078125,-0.9778289794921875,0.017120361328125,0.2100067138671875
1761379479436354800,3.977354736328125,-0.972930908203125,0.020263671875,0.212188720703125
1761379479446436900,3.987436767578125,-0.9679412841796875,0.01806640625,0.214141845703125
1761379479456519000,3.997518798828125,-0.9653167724609375,0.01800537109375,0.216644287109375
1761379479466601000,4.00760107421875,-0.963775634765625,0.019500732421875,0.2177886962890625
1761379479476683000,4.01768310546875,-0.9697113037109375,0.0201873779296875,0.2178955078125
1761379479486764800,4.027764892578125,-0.973175048828125,0.0189971923828125,0.2176361083984375
1761379479496846600,4.0378466796875,-0.9701690673828125,0.01873779296875,0.21539306640625
1761379479506930000,4.047929931640625,-0.9665069580078125,0.019927978515625,0.2147369384765625
1761379479517012000,4.058011962890625,-0.96307373046875,0.02142333984375,0.2142181396484375
1761379479527093800,4.06809375,-0.96343994140625,0.0216827392578125,0.211761474609375
1761379479537175800,4.07817578125,-0.96820068359375,0.0219879150390625,0.2095184326171875
1761379479547257900,4.0882578125,-0.976715087890625,0.0218048095703125,0.2077789306640625
1761379479557340000,4.09833984375,-0.98297119140625,0.0227203369140625,0.20977783203125
1761379479567421700,4.108421630859375,-0.97845458984375,0.0240020751953125,0.2130889892578125
1761379479577503700,4.118503662109375,-0.9673004150390625,0.024749755859375,0.215850830078125
1761379479587586800,4.1285869140625,-0.9608917236328125,0.0235443115234375,0.21856689453125
1761379479597668900,4.1386689453125,-0.9605560302734375,0.0215911865234375,0.2189178466796875
1761379479607751000,4.1487509765625,-0.9686126708984375,0.0214691162109375,0.217315673828125
1761379479617833000,4.1588330078125,-0.9754180908203125,0.02093505859375,0.21734619140625
1761379479627915000,4.1689150390625,-0.9755706787109375,0.017181396484375,0.219085693359375
1761379479637996800,4.178996826171875,-0.97314453125,0.0185394287109375,0.221038818359375
1761379479648078600,4.18907861328125,-0.9700927734375,0.02130126953125,0.2203826904296875
1761379479658162000,4.199161865234375,-0.9702911376953125,0.02301025390625,0.2185821533203125
1761379479668244000,4.209243896484375,-0.9729461669921875,0.023681640625,0.217803955078125
1761379479678326000,4.219325927734375,-0.974853515625,0.024932861328125,0.2183380126953125
1761379479688407800,4.22940771484375,-0.9734649658203125,0.023345947265625,0.2174835205078125
1761379479698489900,4.23948974609375,-0.9729766845703125,0.0194854736328125,0.2149658203125
1761379479708572000,4.249572021484375,-0.9708404541015625,0.0160369873046875,0.2149200439453125
1761379479718653700,4.25965380859375,-0.970306396484375,0.0147705078125,0.216705322265625
1761379479728735700,4.26973583984375,-0.9703826904296875,0.0164794921875,0.217742919921875
1761379479738818800,4.27981884765625,-0.9734649658203125,0.0194549560546875,0.217620849609375
1761379479748900900,4.28990087890625,-0.9744110107421875,0.0233306884765625,0.2179412841796875
1761379479758983000,4.29998291015625,-0.9724273681640625,0.024627685546875,0.2181243896484375
1761379479769065000,4.31006494140625,-0.9716949462890625,0.0227508544921875,0.2181549072265625
1761379479779147000,4.32014697265625,-0.9706878662109375,0.02099609375,0.2171173095703125
1761379479789228800,4.330228759765625,-0.9699859619140625,0.019195556640625,0.2146453857421875
1761379479799310600,4.340310546875,-0.9734954833984375,0.017578125,0.21527099609375
1761379479809392600,4.350392578125,-0.97320556640625,0.0204925537109375,0.2177734375
1761379479819476000,4.36047607421875,-0.9711151123046875,0.0240631103515625,0.2155609130859375
1761379479829558000,4.37055810546875,-0.9716339111328125,0.02716064453125,0.21435546875
1761379479839639800,4.380639892578125,-0.97406005859375,0.0284271240234375,0.213592529296875
1761379479849721900,4.390721923828125,-0.973419189453125,0.0273284912109375,0.2147674560546875
1761379479859803600,4.4008037109375,-0.970184326171875,0.0271453857421875,0.215179443359375
1761379479869885700,4.4108857421875,-0.9637451171875,0.0269775390625,0.2138214111328125
1761379479879967700,4.4209677734375,-0.9609527587890625,0.0260162353515625,0.213165283203125
1761379479890050800,4.43105078125,-0.971099853515625,0.024627685546875,0.215545654296875
1761379479900132900,4.4411328125,-0.976806640625,0.0255889892578125,0.2159881591796875
1761379479910215000,4.45121484375,-0.9727020263671875,0.026458740234375,0.2176971435546875
1761379479920297000,4.461296875,-0.9640350341796875,0.02447509765625,0.217376708984375
1761379479930378800,4.471378662109375,-0.964385986328125,0.02349853515625,0.216278076171875
1761379479940460800,4.481460693359375,-0.9706878662109375,0.0230712890625,0.2161865234375
1761379479950542600,4.49154248046875,-0.9783172607421875,0.0249176025390625,0.2164306640625
1761379479960624600,4.501624755859375,-0.9773101806640625,0.025146484375,0.2152252197265625
1761379479970708000,4.5117080078125,-0.973846435546875,0.0228118896484375,0.216094970703125
1761379479980790000,4.5217900390625,-0.9697265625,0.021820068359375,0.2171630859375
1761379479990871800,4.531871826171875,-0.9660186767578125,0.0210418701171875,0.21728515625
1761379480000953600,4.54195361328125,-0.967376708984375,0.024322509765625,0.21478271484375
1761379480011035600,4.55203564453125,-0.972320556640625,0.030303955078125,0.21221923828125
1761379480021117700,4.56211767578125,-0.976165771484375,0.032958984375,0.2125244140625
1761379480031200500,4.572200439453125,-0.9767303466796875,0.027496337890625,0.212738037109375
1761379480041282300,4.5822822265625,-0.974029541015625,0.0215301513671875,0.21435546875
1761379480051365600,4.59236572265625,-0.974395751953125,0.02191162109375,0.21307373046875
1761379480061447700,4.60244775390625,-0.97479248046875,0.0247650146484375,0.211883544921875
1761379480071529500,4.612529541015625,-0.9755096435546875,0.0260772705078125,0.2124786376953125
1761379480081611500,4.622611572265625,-0.9728546142578125,0.028350830078125,0.2149658203125
1761379480091693300,4.632693359375,-0.967254638671875,0.030670166015625,0.217926025390625
1761379480101775400,4.642775390625,-0.9680633544921875,0.031402587890625,0.219024658203125
1761379480111857400,4.652857421875,-0.9684600830078125,0.0290679931640625,0.21795654296875
1761379480121939500,4.662939453125,-0.9723358154296875,0.0255279541015625,0.2165374755859375
1761379480132022500,4.6730224609375,-0.976287841796875,0.02447509765625,0.21490478515625
1761379480142104300,4.683104248046875,-0.975799560546875,0.0231170654296875,0.211273193359375
1761379480152186400,4.693186279296875,-0.9759521484375,0.0247039794921875,0.2098236083984375
1761379480162268400,4.703268310546875,-0.9740142822265625,0.02685546875,0.2107696533203125
1761379480172350500,4.7133505859375,-0.96685791015625,0.0285186767578125,0.2100830078125
1761379480182432500,4.7234326171875,-0.9654083251953125,0.0287933349609375,0.2097320556640625
1761379480192514300,4.733514404296875,-0.9661102294921875,0.0287322998046875,0.2098541259765625
1761379480202596400,4.743596435546875,-0.965576171875,0.030670166015625,0.2124481201171875
1761379480212679400,4.753679443359375,-0.96148681640625,0.0307464599609375,0.2129974365234375
1761379480222761500,4.763761474609375,-0.9623260498046875,0.0291900634765625,0.2142791748046875
1761379480232843500,4.773843505859375,-0.970794677734375,0.03076171875,0.2137451171875
1761379480242925300,4.78392529296875,-0.9755096435546875,0.031982421875,0.21405029296875
1761379480253007400,4.79400732421875,-0.9767913818359375,0.0301971435546875,0.2159271240234375
1761379480263089400,4.80408935546875,-0.981231689453125,0.0284576416015625,0.2171173095703125
1761379480273171500,4.81417138671875,-0.981292724609375,0.0269317626953125,0.2164154052734375
1761379480283253500,4.82425341796875,-0.9757843017578125,0.02655029296875,0.2140960693359375
1761379480293336300,4.83433642578125,-0.974334716796875,0.026641845703125,0.2139434814453125
1761379480303418400,4.84441845703125,-0.975494384765625,0.027069091796875,0.2150726318359375
1761379480313500400,4.85450048828125,-0.9736175537109375,0.027435302734375,0.216094970703125
1761379480323582500,4.86458251953125,-0.9727783203125,0.029083251953125,0.216644287109375
1761379480333664500,4.87466455078125,-0.9688568115234375,0.030120849609375,0.216064453125
1761379480343746300,4.884746337890625,-0.96551513671875,0.0294952392578125,0.2162017822265625
1761379480353828400,4.894828369140625,-0.9659576416015625,0.0274658203125,0.2159271240234375
1761379480363910400,4.904910400390625,-0.97100830078125,0.0291748046875,0.2140350341796875
1761379480373993500,4.914993408203125,-0.976959228515625,0.0287628173828125,0.2137298583984375
1761379480384075500,4.925075439453125,-0.97418212890625,0.02569580078125,0.2133636474609375
1761379480394157300,4.9351572265625,-0.9681396484375,0.02374267578125,0.212066650390625
1761379480404239400,4.9452392578125,-0.967620849609375,0.026153564453125,0.2120819091796875
1761379480414321400,4.9553212890625,-0.9686126708984375,0.028045654296875,0.2128753662109375
1761379480424403500,4.965403564453125,-0.968017578125,0.027801513671875,0.212799072265625
1761379480434485500,4.975485595703125,-0.9661102294921875,0.02886962890625,0.213470458984375
1761379480444568300,4.985568359375,-0.9705963134765625,0.0295562744140625,0.2152557373046875
1761379480454650400,4.995650390625,-0.9692840576171875,0.0296478271484375,0.214111328125
1761379480464732400,5.005732421875,-0.96478271484375,0.0291748046875,0.21343994140625
1761379480474814500,5.015814453125,-0.969573974609375,0.0289764404296875,0.2138824462890625
1761379480484896500,5.025896484375,-0.977264404296875,0.0286407470703125,0.2143707275390625
1761379480494978300,5.035978271484375,-0.978485107421875,0.0285186767578125,0.2137451171875
1761379480505060400,5.046060302734375,-0.978118896484375,0.0288238525390625,0.2134246826171875
1761379480515142400,5.056142333984375,-0.9744110107421875,0.02691650390625,0.2175750732421875
1761379480525225500,5.0662255859375,-0.9715728759765625,0.028533935546875,0.2175445556640625
1761379480535307500,5.0763076171875,-0.9689788818359375,0.028045654296875,0.2182159423828125
1761379480545389300,5.086389404296875,-0.96533203125,0.0261383056640625,0.214813232421875
1761379480555471400,5.096471435546875,-0.9678192138671875,0.026885986328125,0.2136077880859375
1761379480565553400,5.106553466796875,-0.97100830078125,0.02777099609375,0.212554931640625
1761379480575635500,5.116635498046875,-0.9691314697265625,0.02679443359375,0.211181640625
1761379480585717500,5.126717529296875,-0.969970703125,0.0245819091796875,0.2079315185546875
1761379480595799600,5.136799560546875,-0.9787750244140625,0.02740478515625,0.208282470703125
1761379480605882400,5.14688232421875,-0.9862060546875,0.0288238525390625,0.2098388671875
1761379480615964400,5.15696435546875,-0.978424072265625,0.0287017822265625,0.2105712890625
1761379480626046500,5.16704638671875,-0.967926025390625,0.02783203125,0.2104034423828125
1761379480636128500,5.17712841796875,-0.9650115966796875,0.0278472900390625,0.21240234375
1761379480646210600,5.18721044921875,-0.967987060546875,0.0274505615234375,0.215362548828125
1761379480656292400,5.197292236328125,-0.9695892333984375,0.0289459228515625,0.21612548828125
1761379480666374400,5.20737451171875,-0.970794677734375,0.032257080078125,0.2132720947265625
1761379480676456400,5.21745654296875,-0.9700164794921875,0.0365142822265625,0.21173095703125
1761379480686539500,5.22753955078125,-0.9703521728515625,0.032196044921875,0.2114410400390625
1761379480696621300,5.237621337890625,-0.9708251953125,0.02874755859375,0.2095184326171875
1761379480706703400,5.247703369140625,-0.975860595703125,0.0275726318359375,0.207916259765625
1761379480716785400,5.257785400390625,-0.9867706298828125,0.026153564453125,0.2083587646484375
1761379480726867500,5.267867431640625,-0.9875335693359375,0.0261993408203125,0.211700439453125
1761379480736949500,5.277949462890625,-0.9752655029296875,0.0272369384765625,0.211822509765625
1761379480747031600,5.288031494140625,-0.967681884765625,0.03021240234375,0.21270751953125
1761379480757113300,5.29811328125,-0.9673919677734375,0.03021240234375,0.2154541015625
1761379480767196400,5.308196533203125,-0.9693603515625,0.028717041015625,0.21685791015625
1761379480777278500,5.318278564453125,-0.970794677734375,0.025970458984375,0.215301513671875
1761379480787360500,5.328360595703125,-0.9736175537109375,0.0250396728515625,0.2154388427734375
1761379480797442600,5.338442626953125,-0.9726104736328125,0.0257720947265625,0.214447021484375
1761379480807524400,5.3485244140625,-0.9681243896484375,0.0256195068359375,0.21185302734375
1761379480817606400,5.3586064453125,-0.966522216796875,0.0278778076171875,0.2115478515625
1761379480827688400,5.3686884765625,-0.9698028564453125,0.0294647216796875,0.2096099853515625
1761379480837771500,5.378771484375,-0.97515869140625,0.0294952392578125,0.2067718505859375
1761379480847853300,5.388853271484375,-0.97503662109375,0.0292205810546875,0.20623779296875
1761379480857935400,5.398935302734375,-0.9752655029296875,0.0283966064453125,0.2096405029296875
1761379480868017400,5.409017333984375,-0.97332763671875,0.029327392578125,0.2126007080078125
1761379480878099500,5.419099365234375,-0.9710540771484375,0.032135009765625,0.2127227783203125
1761379480888181500,5.429181396484375,-0.9663543701171875,0.034637451171875,0.211395263671875
1761379480898263600,5.439263671875,-0.96954345703125,0.032318115234375,0.2108612060546875
1761379480908345300,5.449345458984375,-0.973236083984375,0.031280517578125,0.2089996337890625
1761379480918428400,5.459428466796875,-0.9739990234375,0.027130126953125,0.20745849609375
1761379480928510500,5.469510498046875,-0.975738525390625,0.0250091552734375,0.2075958251953125
1761379480938592500,5.479592529296875,-0.97845458984375,0.0250701904296875,0.206756591796875
1761379480948674600,5.489674560546875,-0.9770660400390625,0.025787353515625,0.2078399658203125
1761379480958756400,5.49975634765625,-0.972991943359375,0.0290069580078125,0.2089691162109375
1761379480968838400,5.50983837890625,-0.9722747802734375,0.0319366455078125,0.2098388671875
1761379480978920400,5.51992041015625,-0.9715118408203125,0.034393310546875,0.2104034423828125
1761379480989002500,5.53000244140625,-0.970550537109375,0.032623291015625,0.211090087890625
1761379480999085300,5.540085205078125,-0.9720458984375,0.027984619140625,0.2112274169921875
1761379481009167400,5.55016748046875,-0.9723358154296875,0.0270843505859375,0.2123870849609375
1761379481019249400,5.56024951171875,-0.96856689453125,0.0267333984375,0.210662841796875
1761379481029331700,5.570331787109375,-0.9677734375,0.0272216796875,0.20794677734375
1761379481039413800,5.580413818359375,-0.9754180908203125,0.0260162353515625,0.2070770263671875
1761379481049495800,5.590495849609375,-0.98004150390625,0.0249786376953125,0.208892822265625
1761379481059577600,5.60057763671875,-0.9763336181640625,0.027069091796875,0.2072601318359375
1761379481069659600,5.61065966796875,-0.975921630859375,0.030609130859375,0.2068939208984375
1761379481079742700,5.62074267578125,-0.972900390625,0.029693603515625,0.2055511474609375
1761379481089824800,5.63082470703125,-0.9716796875,0.0274505615234375,0.207000732421875
1761379481099906600,5.640906494140625,-0.97119140625,0.0266876220703125,0.210601806640625
1761379481109988600,5.650988525390625,-0.96820068359375,0.0283203125,0.2111358642578125
1761379481120070700,5.661070556640625,-0.967864990234375,0.0294647216796875,0.2116241455078125
1761379481130152700,5.671152587890625,-0.9695281982421875,0.0291595458984375,0.2116546630859375
1761379481140234800,5.68123486328125,-0.969451904296875,0.029632568359375,0.2113037109375
1761379481150316800,5.69131689453125,-0.968048095703125,0.0293426513671875,0.2105712890625
1761379481160399600,5.701399658203125,-0.9682769775390625,0.0296478271484375,0.2104949951171875
1761379481170481700,5.711481689453125,-0.9720001220703125,0.028564453125,0.2104949951171875
1761379481180563700,5.721563720703125,-0.974273681640625,0.02764892578125,0.21258544921875
1761379481190645800,5.731645751953125,-0.9713592529296875,0.0250244140625,0.2087860107421875
1761379481200727800,5.741727783203125,-0.970489501953125,0.026611328125,0.2050323486328125
1761379481210809600,5.7518095703125,-0.9749908447265625,0.0260467529296875,0.2028045654296875
1761379481220891600,5.7618916015625,-0.9810028076171875,0.02655029296875,0.2023773193359375
1761379481230973700,5.7719736328125,-0.9810028076171875,0.025909423828125,0.2032012939453125
1761379481241056800,5.782056884765625,-0.9775238037109375,0.0276641845703125,0.2033843994140625
1761379481251138600,5.792138671875,-0.976104736328125,0.028564453125,0.2069549560546875
1761379481261220600,5.802220703125,-0.9738922119140625,0.026641845703125,0.2089080810546875
1761379481271302700,5.812302734375,-0.9686279296875,0.0272369384765625,0.2075347900390625
1761379481281384700,5.822384765625,-0.96685791015625,0.02923583984375,0.2078094482421875
1761379481291466800,5.832466796875,-0.9701080322265625,0.03045654296875,0.2084197998046875
1761379481301548800,5.842548828125,-0.973358154296875,0.029815673828125,0.20721435546875
1761379481311631600,5.852631591796875,-0.97216796875,0.03033447265625,0.20379638671875
1761379481321713700,5.862713623046875,-0.971160888671875,0.0308837890625,0.201995849609375
1761379481331795700,5.872795654296875,-0.973846435546875,0.0289154052734375,0.2028656005859375
1761379481341877800,5.882877685546875,-0.976409912109375,0.0268096923828125,0.2025909423828125
1761379481351959800,5.892959716796875,-0.97711181640625,0.026214599609375,0.200347900390625
1761379481362041600,5.90304150390625,-0.9808349609375,0.026336669921875,0.200439453125
1761379481372123600,5.91312353515625,-0.9796905517578125,0.0279388427734375,0.20257568359375
1761379481382205700,5.923205810546875,-0.9734344482421875,0.0289764404296875,0.2054443359375
1761379481392287700,5.933287841796875,-0.97174072265625,0.028778076171875,0.20574951171875
1761379481402370800,5.943370849609375,-0.974212646484375,0.02734375,0.20611572265625
1761379481412452600,5.95345263671875,-0.975067138671875,0.024871826171875,0.2093963623046875
1761379481422534700,5.96353466796875,-0.973876953125,0.0240631103515625,0.2086181640625
1761379481432616700,5.97361669921875,-0.9739837646484375,0.0242462158203125,0.2067413330078125
1761379481442698800,5.98369873046875,-0.9732208251953125,0.0262298583984375,0.2032928466796875
1761379481452780800,5.99378076171875,-0.9748077392578125,0.025054931640625,0.20184326171875
1761379481462862800,6.00386279296875,-0.977569580078125,0.0231475830078125,0.2017669677734375
1761379481472945700,6.013945556640625,-0.9753570556640625,0.0218353271484375,0.200836181640625
1761379481483027700,6.02402783203125,-0.971832275390625,0.0219268798828125,0.1998291015625
1761379481493109800,6.03410986328125,-0.9691314697265625,0.0252838134765625,0.2010040283203125
1761379481503191800,6.04419189453125,-0.9668426513671875,0.0267181396484375,0.2012176513671875
1761379481513273600,6.054273681640625,-0.97259521484375,0.0285491943359375,0.2033538818359375
1761379481523355600,6.064355712890625,-0.9746551513671875,0.029144287109375,0.20391845703125
1761379481533437700,6.074437744140625,-0.9721221923828125,0.0279693603515625,0.2033843994140625
1761379481543519700,6.084519775390625,-0.971527099609375,0.02685546875,0.2025604248046875
1761379481553602800,6.094602783203125,-0.9719085693359375,0.0263671875,0.203460693359375
1761379481563684600,6.1046845703125,-0.9707794189453125,0.02484130859375,0.2042694091796875
1761379481573766700,6.1147666015625,-0.9718170166015625,0.0229949951171875,0.2033843994140625
1761379481583848700,6.1248486328125,-0.97283935546875,0.0239715576171875,0.2028961181640625
1761379481593930800,6.1349306640625,-0.9720001220703125,0.024749755859375,0.20489501953125
1761379481604012800,6.1450126953125,-0.9712677001953125,0.024932861328125,0.2017364501953125
1761379481614094800,6.1550947265625,-0.97137451171875,0.027587890625,0.1963348388671875
1761379481624176600,6.1651767578125,-0.977203369140625,0.03399658203125,0.1935882568359375
1761379481634259700,6.175259765625,-0.982391357421875,0.032684326171875,0.190673828125
1761379481644341800,6.185341796875,-0.99432373046875,0.026885986328125,0.1904296875
1761379481654423800,6.195423828125,-0.99359130859375,0.0208740234375,0.19854736328125
1761379481664505600,6.205505615234375,-0.98291015625,0.0196380615234375,0.19415283203125
1761379481674587600,6.215587646484375,-0.9820098876953125,0.0245208740234375,0.1975860595703125
1761379481684669700,6.225669677734375,-0.976104736328125,0.025299072265625,0.1965484619140625
1761379481694751700,6.235751708984375,-0.9742279052734375,0.0283660888671875,0.1980743408203125
1761379481704833500,6.24583349609375,-0.973968505859375,0.0297393798828125,0.1960601806640625
1761379481714916600,6.25591650390625,-0.977813720703125,0.0337066650390625,0.1915130615234375
1761379481724998700,6.26599853515625,-0.983306884765625,0.03253173828125,0.193817138671875
1761379481735080700,6.276080810546875,-0.97967529296875,0.0227203369140625,0.19598388671875
1761379481745162800,6.286162841796875,-0.9735260009765625,0.023712158203125,0.19586181640625
1761379481755244800,6.296244873046875,-0.967620849609375,0.02557373046875,0.1979827880859375
1761379481765326800,6.306326904296875,-0.96533203125,0.02447509765625,0.198333740234375
1761379481775408600,6.31640869140625,-0.96661376953125,0.025238037109375,0.1992950439453125
1761379481785490400,6.326490478515625,-0.97119140625,0.0266571044921875,0.2001800537109375
1761379481795573800,6.33657373046875,-0.9729461669921875,0.0257568359375,0.1985321044921875
1761379481805655800,6.34665576171875,-0.977783203125,0.02386474609375,0.1979522705078125
1761379481815737600,6.356737548828125,-0.9816741943359375,0.02410888671875,0.20013427734375
1761379481825819600,6.366819580078125,-0.9782562255859375,0.02398681640625,0.2003326416015625
1761379481835901700,6.376901611328125,-0.9735107421875,0.022705078125,0.2003631591796875
1761379481845983700,6.386983642578125,-0.9706268310546875,0.0239105224609375,0.2006378173828125
1761379481856065500,6.3970654296875,-0.9711456298828125,0.025146484375,0.1999969482421875
1761379481866147600,6.407147705078125,-0.9771270751953125,0.0252532958984375,0.1998443603515625
1761379481876230700,6.417230712890625,-0.978118896484375,0.0233154296875,0.2003326416015625
1761379481886312700,6.427312744140625,-0.9774627685546875,0.02166748046875,0.19921875
1761379481896394800,6.437394775390625,-0.9784698486328125,0.0232086181640625,0.1977996826171875
1761379481906476800,6.447476806640625,-0.9812774658203125,0.02593994140625,0.198394775390625
1761379481916558800,6.457558837890625,-0.98150634765625,0.02667236328125,0.1998443603515625
1761379481926640400,6.467640380859375,-0.9743194580078125,0.026031494140625,0.1985931396484375
1761379481936722400,6.477722412109375,-0.97039794921875,0.02716064453125,0.1987152099609375
1761379481946804500,6.487804443359375,-0.968292236328125,0.0275421142578125,0.201263427734375
1761379481956887800,6.4978876953125,-0.9687652587890625,0.0276031494140625,0.2012481689453125
1761379481966969900,6.507969970703125,-0.9714508056640625,0.03106689453125,0.1973724365234375
1761379481977051600,6.5180517578125,-0.974578857421875,0.031585693359375,0.1964874267578125
1761379481987133700,6.5281337890625,-0.9788665771484375,0.025665283203125,0.19775390625
1761379481997215500,6.538215576171875,-0.9755859375,0.0225830078125,0.1984100341796875
1761379482007297500,6.548297607421875,-0.97576904296875,0.0234527587890625,0.197723388671875
1761379482017379600,6.558379638671875,-0.977325439453125,0.02490234375,0.19915771484375
1761379482027461600,6.568461669921875,-0.975982666015625,0.0255279541015625,0.19921875
1761379482037544400,6.57854443359375,-0.9729156494140625,0.028289794921875,0.19952392578125
1761379482047626500,6.58862646484375,-0.9723052978515625,0.0293426513671875,0.2017822265625
1761379482057708500,6.59870849609375,-0.9728240966796875,0.02532958984375,0.2021331787109375
1761379482067790600,6.60879052734375,-0.9763946533203125,0.0223236083984375,0.201446533203125
1761379482077872600,6.61887255859375,-0.98187255859375,0.02215576171875,0.2013702392578125
1761379482087954400,6.628954345703125,-0.982696533203125,0.0222015380859375,0.1985931396484375
1761379482098036500,6.639036376953125,-0.9771728515625,0.0233917236328125,0.1988983154296875
1761379482108118500,6.649118408203125,-0.9709930419921875,0.0234832763671875,0.19903564453125
1761379482118201600,6.65920166015625,-0.9710845947265625,0.0270843505859375,0.198944091796875
1761379482128283400,6.669283447265625,-0.9742889404296875,0.0299835205078125,0.198638916015625
1761379482138365400,6.679365478515625,-0.976593017578125,0.0300445556640625,0.2003021240234375
1761379482148447500,6.689447509765625,-0.97259521484375,0.0308990478515625,0.20196533203125
1761379482158529500,6.699529541015625,-0.967559814453125,0.0292510986328125,0.2015533447265625
1761379482168611600,6.709611572265625,-0.9648284912109375,0.0253448486328125,0.2014312744140625
1761379482178693600,6.719693603515625,-0.9626007080078125,0.022705078125,0.1999664306640625
1761379482188775400,6.729775390625,-0.97161865234375,0.024017333984375,0.200927734375
1761379482198857500,6.739857421875,-0.981170654296875,0.0262603759765625,0.20074462890625
1761379482208940500,6.7499404296875,-0.9829864501953125,0.0266876220703125,0.200347900390625
1761379482219022600,6.760022705078125,-0.9790191650390625,0.0265350341796875,0.19940185546875
1761379482229104600,6.770104736328125,-0.97576904296875,0.0257720947265625,0.1975250244140625
1761379482239186400,6.7801865234375,-0.9795379638671875,0.0243988037109375,0.198089599609375
1761379482249268500,6.7902685546875,-0.9827423095703125,0.02496337890625,0.19989013671875
1761379482259350500,6.8003505859375,-0.982940673828125,0.02825927734375,0.2021636962890625
1761379482269432600,6.8104326171875,-0.9784698486328125,0.029571533203125,0.2047576904296875
1761379482279515400,6.820515380859375,-0.974151611328125,0.025177001953125,0.2082672119140625
1761379482289597400,6.830597412109375,-0.9738616943359375,0.0215606689453125,0.211669921875
1761379482299679500,6.840679443359375,-0.9677886962890625,0.0260467529296875,0.215240478515625
1761379482309761500,6.850761474609375,-0.960784912109375,0.028656005859375,0.2059326171875
1761379482319843600,6.860843505859375,-0.9556884765625,0.0280609130859375,0.2056121826171875
1761379482329925600,6.870925537109375,-0.956207275390625,0.0333709716796875,0.2084503173828125
1761379482340007400,6.88100732421875,-0.969757080078125,0.0317230224609375,0.2053680419921875
1761379482350089500,6.89108935546875,-0.9699554443359375,0.024932861328125,0.2025604248046875
1761379482360172500,6.901172607421875,-0.96142578125,0.017425537109375,0.2039642333984375
1761379482370254600,6.911254638671875,-0.964141845703125,0.0194854736328125,0.20220947265625
1761379482380336600,6.921336669921875,-0.9782867431640625,0.0269012451171875,0.203857421875
1761379482390418400,6.93141845703125,-0.987152099609375,0.0309600830078125,0.2024688720703125
1761379482400500500,6.94150048828125,-0.9884796142578125,0.0324554443359375,0.199737548828125
1761379482410582500,6.95158251953125,-0.9842376708984375,0.0330047607421875,0.2013397216796875
1761379482420664600,6.96166455078125,-0.97906494140625,0.0323028564453125,0.1997833251953125
1761379482430746600,6.97174658203125,-0.9754486083984375,0.030853271484375,0.1995391845703125
1761379482440828700,6.98182861328125,-0.9715728759765625,0.0261383056640625,0.2057952880859375
1761379482450911500,6.991911376953125,-0.9712982177734375,0.02154541015625,0.208709716796875
1761379482460993500,7.00199365234375,-0.9764404296875,0.0307159423828125,0.2095947265625
1761379482471075600,7.01207568359375,-0.9707794189453125,0.0360260009765625,0.212432861328125
1761379482481157600,7.02215771484375,-0.9591217041015625,0.031158447265625,0.212860107421875
1761379482491239400,7.032239501953125,-0.9620208740234375,0.0305328369140625,0.2083892822265625
1761379482501321500,7.042321533203125,-0.973114013671875,0.0367584228515625,0.2084503173828125
1761379482511403500,7.052403564453125,-0.9770050048828125,0.0306243896484375,0.2115936279296875
1761379482521485600,7.062485595703125,-0.97259521484375,0.0235748291015625,0.2110137939453125
1761379482531568600,7.072568603515625,-0.970489501953125,0.0279541015625,0.20831298828125
1761379482541650400,7.082650390625,-0.96783447265625,0.0336151123046875,0.2044525146484375
1761379482551732500,7.092732421875,-0.9602813720703125,0.0351104736328125,0.202056884765625
1761379482561814500,7.102814453125,-0.9682464599609375,0.0347900390625,0.1992645263671875
1761379482571896600,7.112896484375,-0.973114013671875,0.0341339111328125,0.197357177734375
1761379482581978600,7.122978515625,-0.9829864501953125,0.038665771484375,0.196014404296875
1761379482592060700,7.133060791015625,-0.997802734375,0.04388427734375,0.2017822265625
1761379482602142500,7.143142578125,-0.99249267578125,0.0377197265625,0.203277587890625
1761379482612225500,7.1532255859375,-0.9769287109375,0.034912109375,0.1970062255859375
1761379482622307600,7.1633076171875,-0.9650726318359375,0.0428466796875,0.195465087890625
1761379482632389600,7.1733896484375,-0.9569549560546875,0.03924560546875,0.1964569091796875
1761379482642471400,7.183471435546875,-0.9642181396484375,0.0292510986328125,0.1927642822265625
1761379482652553500,7.193553466796875,-0.97308349609375,0.033447265625,0.190673828125
1761379482662635500,7.203635498046875,-0.9559326171875,0.0453338623046875,0.1873779296875
1761379482672717600,7.213717529296875,-0.9817352294921875,0.03326416015625,0.1879730224609375
1761379482682799600,7.223799560546875,-0.9920654296875,0.01165771484375,0.1841278076171875
1761379482692882400,7.23388232421875,-1.0068206787109375,0.0240478515625,0.19342041015625
1761379482702964500,7.243964599609375,-1.0017852783203125,0.0284881591796875,0.1878204345703125
1761379482713046500,7.254046630859375,-0.9909820556640625,0.02935791015625,0.1904754638671875
1761379482723128600,7.264128662109375,-0.9931640625,0.0326080322265625,0.2001495361328125
1761379482733210600,7.274210693359375,-0.9893035888671875,0.0286407470703125,0.20257568359375
1761379482743292700,7.284292724609375,-0.9828033447265625,0.027496337890625,0.20465087890625
1761379482753374500,7.29437451171875,-0.965087890625,0.0308990478515625,0.2114410400390625
1761379482763456500,7.30445654296875,-0.938690185546875,0.0398712158203125,0.2107696533203125
