time,seconds_elapsed,z,y,x
1761379475540872000,0.081871826171875,-0.06977203988432884,0.06789451904203743,-0.00799757462516427
1761379475550954000,0.0919541015625,0.014825813210010528,0.04838241117931902,-0.051223552889376876
1761379475561036800,0.102036865234375,0.050634793215990063,0.036176443345192814,-0.0357614876024425
1761379475571118800,0.112118896484375,0.0649631782978773,0.023674250777158883,-0.014389906010776757
1761379475581201000,0.122200927734375,0.12468787142038344,0.01685651532001793,-0.04775806873589754
1761379475591283000,0.132282958984375,0.13930676388144492,0.0376132529489696,-0.06189136963710189
1761379475601364700,0.14236474609375,0.04832768531739712,0.0540678729372099,-0.06291837459728121
1761379475611446800,0.15244677734375,-0.044424248138070103,0.06670808573644608,-0.07244403557255864
1761379475621528800,0.16252880859375,0.004843348377943039,0.07757233837172389,-0.07271452307701111
1761379475631612000,0.17261181640625,0.15282207901477812,0.06016416225200519,-0.07629077412858605
1761379475641694000,0.18269384765625,0.16818623688519,0.05039152251202613,-0.06918401086330414
1761379475651775700,0.192775634765625,0.003620528584718704,0.0630225473578088,-0.04608034478202462
1761379475661857800,0.20285791015625,-0.07847147916853428,0.0745864544287324,-0.061000850538164376
1761379475671939800,0.21293994140625,0.04014204077422619,0.07137836083611473,-0.07568710914701222
1761379475682022000,0.22302197265625,0.11841010632514953,0.06939219198757782,-0.04946545717567205
1761379475692104000,0.23310400390625,0.14258242455124853,0.04068668731125071,-0.04785612228289246
1761379475702186000,0.24318603515625,0.09861761061847209,0.017071601109113543,-0.07101166468188166
1761379475712268800,0.253268798828125,-0.011499299135804176,0.0029974465166218577,-0.05458952219113707
1761379475722350800,0.263350830078125,-0.03177987062036991,0.0020259528696537016,-0.0557744941920042
1761379475732433000,0.273432861328125,0.028141221857070922,0.010577106256969273,-0.05313800820857286
1761379475742515000,0.283514892578125,0.08788929585516453,0.020810257914476094,-0.05236337057426572
1761379475752596700,0.2935966796875,0.09993629200160503,0.041669031145796176,-0.06829042302444577
1761379475762678800,0.3036787109375,0.013138883036375046,0.057688109260983764,-0.06662731211781502
1761379475772760800,0.3137607421875,-0.04682137240767479,0.0374924030482769,-0.07479600552618502
1761379475782842600,0.323842529296875,0.00434007503092289,0.01796659545376897,-0.09383096086382865
1761379475792926000,0.333926025390625,0.027127660900354383,0.006926657458022237,-0.08934139435961842
1761379475803007700,0.3440078125,0.02856616927087307,0.003146919723600149,-0.07808496406897902
1761379475813089800,0.35408984375,0.03625146307647228,-0.0032874972380697726,-0.06959332231655717
1761379475823171800,0.364171875,0.11942542084753513,-0.010799151509813964,-0.05807897174209356
1761379475833254000,0.37425390625,0.13523030822277068,0.001195858721062541,-0.03237345259934664
1761379475843336000,0.3843359375,-0.02445698038637638,0.02428173341732472,0.012392448583245277
1761379475853417700,0.394417724609375,-0.09768588272631168,0.03937072760816663,0.012081482937932014
1761379475863500800,0.404500732421875,0.023119594302773473,0.049271578571386636,-0.03672287998050451
1761379475873582800,0.414582763671875,0.15847148307859896,0.0597737198960036,-0.08729132996201515
1761379475883665000,0.424664794921875,0.08193126423358917,0.05454316229876131,-0.09070537618920206
1761379475893747000,0.434746826171875,-0.06919920843243599,0.038250235678255556,-0.0733214029289782
1761379475903828700,0.444828857421875,-0.1404500886976719,0.03511555438172072,-0.07652429062351584
1761379475913910800,0.454910888671875,-0.04531505949795246,0.04226538960374891,-0.09841156665235758
1761379475923992600,0.46499267578125,0.09750058928728103,0.025357399824820458,-0.09066124478653073
1761379475934074600,0.47507470703125,0.0806359637260437,0.0335465514993295,-0.045337709721177816
1761379475944158000,0.485157958984375,-0.02182838544845581,0.07185794278029352,-0.0017449439711868762
1761379475954239700,0.49523974609375,-0.0019148937106132505,0.11961447714623064,-0.024693565621227025
1761379475964321800,0.50532177734375,0.12857669555246828,0.13077095419373364,-0.02509615507274866
1761379475974403800,0.51540380859375,0.22486790904998777,0.09237593974992632,0.014264233804494141
1761379475984486000,0.52548583984375,0.14376374329030514,0.05892682074308395,0.06225406546965241
1761379475994567700,0.535567626953125,0.03151742029190063,0.02322367573175579,0.03879340264424681
1761379476004649700,0.545649658203125,-0.02277764899730682,-0.001487315948307514,-0.026176789916306734
1761379476014731500,0.5557314453125,-0.03538578615784645,-0.019839293990470467,-0.0840910726159811
1761379476024814800,0.56581494140625,-0.05349661238789558,-0.045556101712211965,-0.09364756712093948
1761379476034897000,0.57589697265625,-0.03847556886672973,-0.05035853355787694,-0.0964985726378858
1761379476044979000,0.58597900390625,0.005510872375965118,-0.04873469521570951,-0.09179331755638122
1761379476055060700,0.596060791015625,0.08240998766124248,-0.024327947179228065,-0.09239815158173441
1761379476065142800,0.606142822265625,0.10415127934813499,-0.0036912192007526753,-0.07883709761053323
1761379476075224800,0.616224853515625,0.036979777351021766,0.009701602064073086,-0.06076090430244803
1761379476085307000,0.626306884765625,-0.0033078093737363813,0.020966763650439677,-0.04883505031764507
1761379476095390000,0.636389892578125,0.06753039843738079,0.014825447883829473,-0.04402969586253166
1761379476105471700,0.6464716796875,0.11155249551534652,-0.005341689821518957,-0.033772651872783895
1761379476115553800,0.6565537109375,0.06969605203866958,-0.008789126861654221,-0.015376286699622868
1761379476125635800,0.6666357421875,0.06711947954893112,-0.022182569180987773,-0.02508110363408923
1761379476135718000,0.6767177734375,0.045453591185808176,-0.02802460974007845,-0.03068900664374232
1761379476145800000,0.686800048828125,0.014440613284707068,-0.0227336271924898,-0.03042436435818672
1761379476155882000,0.696882080078125,0.0003495440900325775,-0.004462970758229494,-0.032690409594029184
1761379476165963800,0.7069638671875,0.0031119945406913757,0.008969378799386323,-0.03260550778955221
1761379476176046800,0.717046875,-0.011822539740800856,0.0003622209085151553,-0.03003638795390725
1761379476186129000,0.72712890625,0.009098083212971687,0.0034975232595577835,-0.03818754570558667
1761379476196211000,0.7372109375,0.02608428932726383,0.024008615564368663,-0.06508841211274266
1761379476206293000,0.74729296875,0.006920154651999473,0.03887234963197261,-0.08176102223321795
1761379476216374800,0.757374755859375,0.00784486828148365,0.034026699699088926,-0.08068506356477737
1761379476226456800,0.767456787109375,0.03742985920608043,0.024085516725480555,-0.08923574202805756
1761379476236539000,0.777538818359375,0.035514965495467184,0.0041834231644868845,-0.10030819405391812
1761379476246621000,0.787620849609375,0.05089315189123153,-0.006914345965720713,-0.11561769912764429
1761379476256703700,0.797703857421875,0.05377426028549671,-0.0005252659831196069,-0.11516893244683742
1761379476266785800,0.807785888671875,0.02361643790900707,0.003014306319877505,-0.10079144752621651
1761379476276867800,0.817867919921875,0.008967734831571579,0.007697751428373157,-0.07830372138619422
1761379476286950000,0.827949951171875,0.03473170616328716,0.01210555793326348,-0.0755452164582908
1761379476297032000,0.838031982421875,0.08258651327192783,0.009689728963188827,-0.08782967462241649
1761379476307114000,0.848114013671875,0.10588789388239384,0.030330950453691184,-0.09165697782561183
1761379476317195800,0.85819580078125,0.10344342333972453,0.031481910587102174,-0.1009393315643072
1761379476327277800,0.86827783203125,0.03369534885287285,0.055458523578010496,-0.0896801247946918
1761379476337361000,0.87836083984375,-0.045830607804656025,0.053355779145099216,-0.09324541606083511
1761379476347443000,0.88844287109375,-0.032039398339390755,0.031205723994225262,-0.08582783328071236
1761379476357525000,0.89852490234375,0.012861819660663604,-0.021872662981599567,-0.08650134862810373
1761379476367606800,0.908606689453125,-0.008358663022518158,-0.01467933567771688,-0.06977437797188758
1761379476377688800,0.918688720703125,-0.0003577273964881897,-0.000709079851116985,-0.050815848871320485
1761379476387771000,0.92877099609375,0.07549626275002956,-0.012260785027593374,-0.03640402328968048
1761379476397853000,0.93885302734375,0.15476444525420666,-0.016102591680176557,-0.03781052908673882
1761379476407935000,0.94893505859375,0.08000058843195437,0.003563227173220366,-0.03394508583024144
1761379476418017800,0.959017822265625,-0.05007072959244251,0.02593920003445819,-0.033438743743300435
1761379476428099800,0.969099853515625,-0.05225041171908378,0.04239802127378061,-0.04329977415278554
1761379476438182000,0.979181884765625,0.025808394995331763,0.03510587323792279,-0.032983401191234586
1761379476448264000,0.989263916015625,0.060955696222186086,0.007973298700433224,-0.04562529449090361
1761379476458346000,0.999345947265625,0.04766016131937503,0.004834927609469741,-0.044836043809354305
1761379476468427800,1.009427734375,-0.038025487011671064,0.011193630720116197,-0.04600333402305841
1761379476478509800,1.019509765625,-0.0457838460534811,0.018041085462085903,-0.04437690186500549
1761379476488593000,1.029593017578125,0.03549333818554878,0.014305917521752417,-0.041236411882191897
1761379476498675000,1.039675048828125,0.13805822512507437,0.0008580050688236951,-0.04831380292251706
1761379476508757000,1.049757080078125,0.1610188294738531,-0.011116017172951251,-0.07169336333572864
1761379476518838800,1.0598388671875,0.06604688188135624,-0.029897746668197212,-0.06162029761075973
1761379476528920800,1.0699208984375,-0.08623100725412368,-0.015534984392672776,-0.05913228018730878
1761379476539003000,1.0800029296875,-0.12666998514831065,0.009815748229343443,-0.07807707302346825
1761379476549085000,1.0900849609375,-0.10793547406196594,0.03765975897181779,-0.10944295601546764
1761379476559167000,1.1001669921875,-0.011566519153118134,0.003317563582770526,-0.0812989576794207
1761379476569249800,1.110249755859375,0.10365326669812201,-0.012263269245624542,-0.06187354171946644
1761379476579331800,1.120331787109375,0.13172493045032024,0.02743627019179985,-0.050451253342628476
1761379476589414000,1.130413818359375,0.12527940757274628,0.06963955434476957,-0.0482823848709464
1761379476599496000,1.140495849609375,0.08489595925807952,0.062436290168762204,-0.04511866014301777
1761379476609578000,1.150577880859375,0.008543956461548805,0.022534360027033833,-0.03060805036202073
1761379476619659800,1.16065966796875,-0.03879764042794704,-0.004581409506127238,-0.009237637814134359
1761379476629741800,1.170741943359375,0.0021159692406654356,-0.0011614449948072433,-0.023698855495452878
1761379476639824000,1.180823974609375,0.027154548907279967,0.03206075165467336,-0.031003771681338547
1761379476649907000,1.190906982421875,0.04317454033792019,0.040726380000822245,-0.02364478722065687
1761379476659989000,1.200989013671875,0.07893792763650417,0.04791082987850532,-0.029650603506714102
1761379476670070800,1.21107080078125,0.08095160554647446,0.029664449368976054,-0.019501988327503203
1761379476680152800,1.22115283203125,0.005990764847397804,0.010686557980813085,-0.023526859929412603
1761379476690235000,1.23123486328125,-0.05164718512892723,-0.02397937120357528,-0.023080431336164473
1761379476700317000,1.24131689453125,-0.036978608307242394,-0.060837549735233185,-0.023458178607374428
1761379476710399000,1.25139892578125,0.0063397244155406944,-0.055302785027027124,-0.021571488077938555
1761379476720481800,1.261481689453125,0.03154255473315715,-0.017722009575553237,-0.033810791926085944
1761379476730563800,1.271563720703125,0.07400923906266689,0.01699541233405471,-0.06258329742401839
1761379476740646000,1.28164599609375,0.05032207400500774,0.026802538865525274,-0.07482946940436959
1761379476750728000,1.29172802734375,0.00911444982588291,0.005013754775095731,-0.04831482583582401
1761379476760810000,1.30181005859375,0.02914601498544216,-0.020395685764215885,-0.061689125063270324
1761379476770892000,1.31189208984375,0.07542202847003936,-0.009563344370853155,-0.07306275199279189
1761379476780973800,1.321973876953125,0.08550678463280201,-0.023090569137688723,-0.07890329471454025
1761379476791056000,1.332055908203125,0.048667877057194706,-0.011412004444841296,-0.05812602575421333
1761379476801139000,1.342138916015625,0.031493454894423484,-0.0010647979536093771,-0.06270370893329381
1761379476811221000,1.352220947265625,0.000800210466980934,0.039309298010822384,-0.05514321055114269
1761379476821302800,1.362302734375,0.006196516552567481,0.0547905429222621,-0.02855199461504817
1761379476831384800,1.372384765625,0.046185412591695785,0.04351358130024746,-0.0031350831553339955
1761379476841467000,1.382466796875,0.10224398442208767,0.020493026925157753,-0.012473697125911712
1761379476851549000,1.392548828125,0.12780337309241294,0.007263104604464024,-0.03959726637303829
1761379476861631000,1.402630859375,0.08951192862093447,0.0047993083068169655,-0.056306993633508676
1761379476871713000,1.412713134765625,0.02010463039577007,-0.009782266084849833,-0.054138563553243875
1761379476881795800,1.4227958984375,-0.039680268481373786,-0.000737392630148679,-0.043318332722783084
1761379476891878000,1.4328779296875,0.008336451190710067,0.016031572270579636,-0.05411956659182906
1761379476901960000,1.4429599609375,0.03804243814647198,0.02137331689102575,-0.06119608084931969
1761379476912042000,1.4530419921875,0.05043021055459976,0.0016128054914996027,-0.06669935444071888
1761379476922124000,1.4631240234375,0.03175765878856182,-0.01476385388970375,-0.09099617582932114
1761379476932205800,1.473205810546875,0.00813420661687851,-0.004600954456813633,-0.09674860187619924
1761379476942288000,1.483287841796875,0.018904022434353827,-0.017275215656124054,-0.07785641601011156
1761379476952371000,1.493370849609375,0.07567395740449429,-0.02467201137654483,-0.06166019122973084
1761379476962453000,1.503452880859375,0.12401976290047168,-0.02304497643029317,-0.03240384773761034
1761379476972534800,1.51353466796875,0.16670739650428293,-0.03299995046723634,-0.04427402601242065
1761379476982616800,1.523616943359375,0.09352759400308132,-0.03524435012685135,-0.040326457430422305
1761379476992699000,1.533698974609375,-0.037226445588469506,-0.014063030410278588,-0.06277808934375644
1761379477002781000,1.543781005859375,-0.0805786805808544,0.017310177371650932,-0.10357830176576971
1761379477012863000,1.553863037109375,-0.056337388771772384,0.04746975331380963,-0.0750631320297718
1761379477022943700,1.56394384765625,-0.019690204375982283,0.007301957043819129,-0.06664192516505718
1761379477033026800,1.57402685546875,0.06975099709630012,0.02215736167449504,-0.09936799059435725
1761379477043108600,1.584108642578125,0.10105155976712703,0.05686528510339558,-0.06144362586960196
1761379477053190700,1.594190673828125,0.0830932937502861,0.027697642808035015,-0.023100158949941395
1761379477063272700,1.604272705078125,0.0696603962033987,0.010131810174882412,-0.04170344487205147
1761379477073354800,1.614354736328125,0.06963759984970093,0.017840612720232456,-0.05877513731271028
1761379477083436800,1.624436767578125,0.06818272486627101,0.0029207097522914406,-0.07117649985477328
1761379477093518800,1.634518798828125,0.05040799872279167,-0.020996154141705484,-0.07141659222096204
1761379477103600600,1.6446005859375,-0.01677811632156372,-0.021890472632925956,-0.07955021431595087
1761379477113683700,1.65468359375,-0.0037198973059654234,-0.0063707588746212416,-0.09309621684849262
1761379477123765800,1.664765869140625,0.09442658866941929,0.012356244758702815,-0.12212941910922527
1761379477133847800,1.674847900390625,0.1126554883211851,0.0006010346330702304,-0.10972732591480017
1761379477143929600,1.6849296875,0.0247872352540493,-0.011987721973564475,-0.10981748841628432
1761379477154011600,1.69501171875,-0.020088263782858846,-0.010982453921157867,-0.0884906227491796
1761379477164093700,1.70509375,0.019068273085355757,-0.008451364540960639,-0.06702507926374673
1761379477174175700,1.71517578125,0.10688099657297134,0.0026565971896983682,-0.07262815996780991
1761379477184258800,1.7252587890625,0.1541425139635801,0.01307538934610784,-0.08657689808234571
1761379477194340600,1.735340576171875,0.1359749891102314,-0.0194300738687627,-0.05032879600673914
1761379477204422700,1.745422607421875,0.08180208489596844,-0.0286517834614031,-0.04412190419062972
1761379477214504700,1.755504638671875,0.026315759995579717,0.031612021506484594,-0.05730784123912453
1761379477224586800,1.765586669921875,-0.08118132264912128,0.05853752916455268,-0.06956000456884504
1761379477234668800,1.775668701171875,-0.23323417085707188,0.05637614987958222,-0.08254340478256345
1761379477244750800,1.785750732421875,-0.24742577781677244,0.023075426367484032,-0.1073135427713394
1761379477254832600,1.79583251953125,-0.13630290589034558,-0.015045520375296472,-0.10810776188895106
1761379477264915700,1.805915771484375,0.025915362501144408,-0.03587230929946527,-0.055553837178647515
1761379477274997800,1.815997802734375,0.18456278666853904,-0.03484468328477815,-0.01387801096588373
1761379477285079800,1.826079833984375,0.2642541630208492,0.007953662418201566,-0.028358956260979173
1761379477295161600,1.83616162109375,0.17119184844195842,0.05147133537167683,-0.02972571456953883
1761379477305243600,1.84624365234375,-0.0033452187746763227,0.0513722406450659,-0.021783231132477522
1761379477315325700,1.85632568359375,-0.05879530331790447,0.06257348841605707,-0.03300546689257026
1761379477325407700,1.86640771484375,-0.02874386392533779,0.06405523314010352,-0.07400748549699783
1761379477335490800,1.87649072265625,-0.01815232728421688,0.059094523726496845,-0.07430515326932072
1761379477345572600,1.886572509765625,0.03970657196640968,0.032869711683690545,-0.06680471451133489
1761379477355654700,1.896654541015625,0.08825520655810833,-0.010492588044982402,-0.05879895657971501
1761379477365736700,1.90673681640625,0.03530687570273876,-0.006932009486574679,-0.045063568954914805
1761379477375818800,1.91681884765625,-0.021108839002251623,0.0005174845354631543,-0.03217939133197069
1761379477385900800,1.92690087890625,0.008894085073471069,-0.008890139550715685,-0.02005830703601241
1761379477395982800,1.93698291015625,0.0457750782251358,-0.006501216853875666,-0.027094050891697405
1761379477406064400,1.947064453125,0.016447276932001112,0.0003691986385732889,-0.015186901607364415
1761379477416147700,1.957147705078125,-0.07405892342329025,0.0027797669116407632,-0.020206775595992803
1761379477426229800,1.967229736328125,-0.09842238030731677,0.014994210313167422,-0.035970454178005457
1761379477436311800,1.977311767578125,-0.07275660865306854,-0.026900519347283987,-0.025084026243537665
1761379477446393900,1.987393798828125,0.009895371070504188,-0.06442591134971007,-0.009330576794594526
1761379477456475600,1.9974755859375,0.09993863008916377,-0.04982716662753373,-0.03963730612248182
1761379477466557700,2.0075576171875,0.10325929894447326,0.01453561635809019,-0.040885698748379946
1761379477476639500,2.017639404296875,0.061847092103958126,0.045450595511123536,-0.05791939726620912
1761379477486721500,2.027721435546875,0.021146832925081252,0.029186036468576638,-0.07500555662363767
1761379477496804600,2.0378046875,-0.01747252832651138,-0.004374342626705765,-0.07308379478082061
1761379477506886700,2.04788671875,-0.02390402267873287,-0.01623675772016868,-0.06968757647126912
1761379477516968700,2.05796875,0.02698269947171211,-0.015967786319367586,-0.08402852877378464
1761379477527050800,2.06805078125,0.05200666609108448,-0.0043469979620538645,-0.06274594063982367
1761379477537132800,2.0781328125,0.09678454997241497,-0.0073655603319406505,-0.030655542765557764
1761379477547214600,2.088214599609375,0.12933482044339178,-0.0017201017908751964,-0.029259266101568936
1761379477557296600,2.098296630859375,0.09079846130013465,0.011568199653550982,-0.017288842322677373
1761379477567379700,2.108379638671875,0.03925298298001289,0.00833646945701912,-0.014010697434842586
1761379477577461800,2.118461669921875,0.022094927430152893,0.012717241824511437,-0.014339052606374025
1761379477587543800,2.128543701171875,0.036630817782878876,0.015155611419957131,-0.037369507320970295
1761379477597625900,2.1386259765625,0.045615503749251364,0.011537183460779487,-0.05671031373739242
1761379477607707600,2.148707763671875,0.041681086909770966,-0.009457144050020724,-0.056334758423268794
1761379477617789700,2.158789794921875,0.03178630036115646,-0.020625676861498504,-0.0675756988838315
1761379477627871500,2.16887158203125,0.02148410205543041,-0.024726116183958945,-0.07506810046583413
1761379477637953500,2.17895361328125,0.027731472012400626,-0.03478349114945158,-0.089793522041291
1761379477648036600,2.18903662109375,0.012077391284704208,-0.042150951177533716,-0.08290873096361756
1761379477658118700,2.19911865234375,0.0196457807123661,-0.0256044151221402,-0.077741849719733
1761379477668200700,2.20920068359375,0.05342471619546413,0.016111962296720593,-0.06880465615689754
1761379477678282800,2.21928271484375,0.1128168163627386,0.0294473725521937,-0.04763312718197703
1761379477688364800,2.22936474609375,0.09340309084057807,0.0240574596747756,-0.049961131738126274
1761379477698446600,2.239446533203125,0.00938859059214592,0.011063848594296722,-0.06398074313178657
1761379477708528600,2.249528564453125,-0.01717149955332279,-0.020247984389215705,-0.057848962378501886
1761379477718610400,2.2596103515625,-0.03359247300028801,0.005259491430781782,-0.03994344946220517
1761379477728693800,2.26969384765625,0.04260463149547577,0.03044292292818427,-0.057456602060049766
1761379477738775800,2.27977587890625,0.07609890481829643,0.014462532855570316,-0.061314446531981225
1761379477748857900,2.28985791015625,0.08655190977156162,0.0016698694409802556,-0.04312017980217933
1761379477758939600,2.299939697265625,0.09887772285938262,-0.014357866904698311,-0.0682575436681509
1761379477769021400,2.310021484375,0.08959200811982154,-0.01932617510287091,-0.06645312459468841
1761379477779103500,2.320103515625,0.0535655859708786,-0.030099187524430453,-0.08090177505537867
1761379477789185500,2.330185546875,0.0347387204259634,-0.026437103086616842,-0.123129536062479
1761379477799268600,2.3402685546875,-0.03682312548458576,-0.04279343206584453,-0.1589522523328662
1761379477809350700,2.3503505859375,-0.07903554279208183,-0.043306733616534615,-0.13515227455049753
1761379477819432700,2.3604326171875,-0.05267535913288593,-0.05045276944627985,-0.12554127337932586
1761379477829514800,2.3705146484375,0.026831892824172972,-0.04135278653716668,-0.11217106580510734
1761379477839596500,2.380596435546875,0.1106032319664955,-0.0037749336951412257,-0.10163535100445151
1761379477849678600,2.3906787109375,0.14614508546888827,0.004102357284910977,-0.0965701765693724
1761379477859760600,2.4007607421875,0.11789923419356345,-0.010859293332369997,-0.07255553312301635
1761379477869842400,2.410842529296875,0.0742091455489397,-0.029482480398193,-0.052306379690021276
1761379477879925800,2.42092578125,0.02826104884445667,-0.023041113105928525,-0.07446268191859126
1761379477890007800,2.4310078125,0.02069850463569164,0.022214370825048534,-0.09928031231090426
1761379477900089900,2.44108984375,0.01862812810242176,0.013303151953686029,-0.11055471664965152
1761379477910171400,2.45117138671875,0.030036826345324515,-0.0296369129080791,-0.0851671774148941
1761379477920253400,2.46125341796875,0.048880643025040624,-0.060416785306204104,-0.03929872181788087
1761379477930335500,2.47133544921875,0.03245850053429603,-0.06388479021033272,-0.028680297169834373
1761379477940417500,2.48141748046875,0.04052840974330902,-0.03824334014658816,-0.04033098747506737
1761379477950500600,2.49150048828125,0.03885726166069507,-0.03940118667851202,-0.0532550587169826
1761379477960582700,2.501582763671875,-0.0395183559179306,-0.06176163317705504,-0.053313072514533995
1761379477970664700,2.511664794921875,-0.07606266446113585,-0.05617798782582394,-0.04979483526051044
1761379477980746500,2.52174658203125,-0.06043371817469596,-0.037308561780815944,-0.04537906464487314
1761379477990828500,2.53182861328125,-0.047555531901121134,-0.02207199407913722,-0.06866480929479002
1761379478000910600,2.54191064453125,-0.034310265880823136,-0.0087813910797704,-0.08864172165766358
1761379478010992600,2.55199267578125,-0.011816694521903991,-0.0044446679165586825,-0.05950023671686649
1761379478021074400,2.562074462890625,0.06607727701961993,0.01035899739372544,-0.06815262198895215
1761379478031158500,2.572158447265625,0.0854325503528118,0.05336384372054599,-0.07527122182250022
1761379478041240600,2.582240478515625,0.03949965121746063,0.07187003507688641,-0.056308747199177736
1761379478051322400,2.592322265625,0.027936639195680617,0.06218815149343572,-0.07678849451765418
1761379478061404400,2.602404296875,0.026749475237727163,0.0710301136540249,-0.09907456060573458
1761379478071486500,2.612486572265625,-0.011752981635928153,0.08339915396221913,-0.104428196593374
1761379478081568500,2.622568603515625,-0.02711655498445034,0.06680163663825951,-0.09096607295200228
1761379478091650600,2.632650634765625,0.01189560497701168,0.041945373002300036,-0.04191299596950412
1761379478101732600,2.642732666015625,0.07051555172801018,0.015094519749330355,-0.025911563108861446
1761379478111815400,2.6528154296875,0.11579729347825049,0.007966786761255935,-0.029144845941662785
1761379478121897500,2.6628974609375,0.12688976537883281,-0.004620079282391816,-0.06849193694591522
1761379478131979500,2.6729794921875,0.0973714099496603,-0.0026235534366220235,-0.0898185103520751
1761379478142061600,2.6830615234375,0.02653612474799156,0.006503034351626411,-0.10402619166374207
1761379478152143400,2.693143310546875,-0.0075169515013694755,0.023134125151624902,-0.07515782457590103
1761379478162225400,2.703225341796875,0.003547463348507881,0.01777398635796271,-0.05099632000476122
1761379478172307500,2.713307373046875,0.06638648909926415,0.012757162842946127,-0.0379892466545105
1761379478182390500,2.723390625,0.04082593138515949,0.04706193056474439,-0.025320026956498622
1761379478192472600,2.73347265625,-0.03331248701512814,0.06046625047111883,-0.02960486466884613
1761379478202554400,2.743554443359375,-0.05763970354199409,0.03760121545130387,-0.05180997447520494
1761379478212636400,2.753636474609375,-0.048805239701271055,-0.0002916490234900266,-0.04391644474640488
1761379478222718500,2.763718505859375,0.012564882540702819,-0.009409003192512318,-0.02725157954096794
1761379478232800500,2.773800537109375,0.03514963931441307,-0.009402801780588924,0.02021203629299998
1761379478242882600,2.783882568359375,0.07035247012078762,-0.0025263858056161553,0.024602234075963497
1761379478252964600,2.793964599609375,0.0811801536053419,0.025179641238274052,0.020386223816126585
1761379478263047400,2.80404736328125,0.06323240898251534,0.05706962116961367,-0.01637231199964881
1761379478273129500,2.81412939453125,0.0476093079149723,0.054815193306328724,-0.05988222177177667
1761379478283211500,2.82421142578125,0.016660627421736716,0.03155285693146288,-0.09657032269984483
1761379478293293600,2.83429345703125,-0.016090718579292295,-0.004108576963143423,-0.11136106459647416
1761379478303375400,2.844375244140625,-0.06429916143119335,-0.020643376914970576,-0.15251447437033055
1761379478313457400,2.85445751953125,-0.060209846290946,-0.01974059198950417,-0.14676482480242847
1761379478323539500,2.86453955078125,-0.0058306058496236796,-0.0031350283564068374,-0.1433186298713088
1761379478333621500,2.87462158203125,0.06523965715169906,0.01816898615807295,-0.11730258347466588
1761379478343704600,2.88470458984375,0.12609890726208686,0.045432411400461566,-0.10240823507308959
1761379478353786400,2.894786376953125,0.12283201442062854,0.057786400269996374,-0.08890943268314004
1761379478363868400,2.904868408203125,0.11059271057248114,0.07711084007350727,-0.09450871399492025
1761379478373950500,2.914950439453125,0.1100549504339695,0.06421783069013617,-0.09520473343506455
1761379478384032500,2.925032470703125,0.06180676009356975,0.024215088788745922,-0.07866744013205171
1761379478394114600,2.935114501953125,0.006361936247348785,-0.02344287144038826,-0.09474719892591238
1761379478404196600,2.945196533203125,-0.011669395005702972,-0.05508789103417657,-0.10576046811044215
1761379478414279400,2.955279541015625,-0.058846741244196886,-0.07282207510471343,-0.097959438970685
1761379478424361500,2.965361572265625,-0.1288163495272398,-0.06913555947854183,-0.0798448133483529
1761379478434443500,2.975443603515625,-0.08302607373297215,-0.05540261953915469,-0.062449003519862885
1761379478444525600,2.985525634765625,0.05888473516702652,-0.027080999613879247,-0.045336832938343286
1761379478454607400,2.995607421875,0.13776947131156922,-0.008203764721751213,-0.041121261069923636
1761379478464689400,3.005689453125,0.08993219985961913,-0.021171035784576086,-0.013020517353713512
1761379478474771500,3.015771484375,0.005424363136291504,-0.02038883589832112,0.008978256225585938
1761379478484853500,3.025853515625,0.023456278911232947,-0.011529201083723455,-0.024653525871783495
1761379478494936600,3.0359365234375,0.06513502773344516,-0.011446491236332804,-0.05898527293205261
1761379478505018400,3.046018310546875,0.060303954315185544,-0.028773583210166542,-0.07200111411064863
1761379478515100400,3.056100341796875,0.01257481941282749,-0.051739521321188656,-0.0852104320347309
1761379478525182500,3.066182373046875,0.028715222352743146,-0.05346271011829376,-0.1092807511910796
1761379478535264500,3.076264404296875,0.04929740713238716,-0.025934779587667434,-0.115985655657202
1761379478545346600,3.0863466796875,-0.0006651859104633331,0.012469057483412324,-0.09545520106479526
1761379478555428600,3.0964287109375,-0.033843817412853236,0.015905443406570702,-0.0722357996493578
1761379478565510400,3.106510498046875,0.0229354699075222,0.010959347040206194,-0.06130304835513234
1761379478575593500,3.116593505859375,0.1337479607105255,0.014359565671440214,-0.05646276871711015
1761379478585675500,3.126675537109375,0.16582359940707683,-0.011952522796019912,-0.03830941851958632
1761379478595757600,3.136757568359375,0.13822189125418663,-0.04024634139891713,-0.01613806485235691
1761379478605839600,3.146839599609375,0.10613514664173125,-0.051997916529048234,-0.020429770696908236
1761379478615921400,3.15692138671875,0.07015373267829418,-0.04307150008855387,-0.048804070657491684
1761379478626003500,3.16700341796875,0.011478256347775459,-0.043478363856393844,-0.07233692193627357
1761379478636085500,3.17708544921875,-0.09338789327144623,-0.046251774092484266,-0.083004884814471
1761379478646168600,3.18716845703125,-0.1502443374812603,-0.050492553467396645,-0.11056567643508314
1761379478656250400,3.19725048828125,-0.12950199370384216,-0.03506059105778113,-0.1116644314572215
1761379478666332400,3.20733251953125,-0.10320610745251178,-0.012208835644647479,-0.10908815122842788
1761379478676414500,3.21741455078125,-0.05266834487020969,-0.012451832353975623,-0.09596738837063312
1761379478686496500,3.22749658203125,0.025325579914450645,0.01388928127856925,-0.0897591813802719
1761379478696578600,3.23757861328125,0.08736088806688785,0.028961287801992145,-0.056917965138703584
1761379478706660600,3.24766064453125,0.13617372655272483,0.020326748713850974,-0.03987374522686005
1761379478716742400,3.257742431640625,0.13870470633506773,0.02029944058181718,-0.030587884356826543
1761379478726825500,3.267825439453125,0.13300503338873385,0.006316818463988602,-0.01463160581216216
1761379478736907500,3.277907470703125,0.11323241142630576,0.0034735030631534753,-0.03133884885460138
1761379478746989600,3.287989501953125,0.07071312012672423,0.032140228365361685,-0.06576426554769277
1761379478757071600,3.298071533203125,0.025402152281999588,0.042954906237870454,-0.07319543846175074
1761379478767153400,3.3081533203125,0.024278116688132286,0.023744137675594537,-0.059170858632028096
1761379478777235500,3.3182353515625,0.022770050212740898,-0.012142894268967211,-0.049165159054845566
1761379478787317500,3.3283173828125,0.008410685470700263,-0.04921168334400281,-0.04380027102082967
1761379478797399600,3.338399658203125,-0.006743629041314125,-0.06530196353187784,-0.045912148608267304
1761379478807482400,3.348482421875,0.02590659467279911,-0.034979415580350906,-0.07560834482237697
1761379478817564400,3.358564453125,0.031178397595882413,0.0011495718939229845,-0.09704963064938783
1761379478827646500,3.368646484375,-0.014396774142980575,0.00902783098835498,-0.09240779619291424
1761379478837728500,3.378728515625,0.0015168343037366865,0.005633658505417406,-0.06761135471910237
1761379478847810600,3.388810546875,0.006504559588432312,0.014233893465157597,-0.050758565726131195
1761379478857892600,3.398892578125,0.03923252471387386,0.03196293556969613,-0.04327259388491511
1761379478867974400,3.408974365234375,0.07157762800157069,0.044075343368854374,-0.020105945570021867
1761379478878056400,3.419056396484375,0.06433657083213329,0.04090491490550339,-0.008980448182672261
1761379478888139500,3.429139404296875,0.045700259423255916,0.05890407918831333,-0.00482566659078002
1761379478898221600,3.4392216796875,0.06139408763945102,0.08001474482147022,-0.03241013134792447
1761379478908303600,3.4493037109375,0.041164369559288025,0.08347135154874995,-0.03235255594179034
1761379478918385400,3.459385498046875,0.0002659574598073959,0.033361586853861806,-0.04162307311221957
1761379478928467500,3.469467529296875,-0.009321955096721648,-0.0018173881528899072,-0.07602320923358201
1761379478938549500,3.479549560546875,-0.04751227728128433,-0.025335425455030054,-0.09882862302064895
1761379478948631600,3.489631591796875,-0.11020166542828082,-0.018249485782068222,-0.09734890585690736
1761379478958714400,3.49971435546875,-0.08017009977996349,-0.0006102773854508996,-0.0998882150761783
1761379478968796400,3.50979638671875,0.04468436037898063,0.009366744086518884,-0.12349383933022617
1761379478978878500,3.51987841796875,0.11612287217080593,0.003490417665336281,-0.1207766893260181
1761379478988960500,3.52996044921875,0.09535305586457252,-0.0036719665110111236,-0.1111789860278368
1761379478999042600,3.54004248046875,0.07554360902309418,0.03140714658414945,-0.08595043674707412
1761379479009124600,3.55012451171875,0.08064063990116119,0.060297506308089936,-0.061850306974351406
1761379479019206400,3.560206298828125,0.07692483424842357,0.05543326127259061,-0.08253960539028048
1761379479029288000,3.570287841796875,0.09371347196400165,0.03490435931645334,-0.09358458488732575
1761379479039370800,3.580370849609375,0.05528875650167465,0.016626999146770686,-0.11003580734208225
1761379479049452800,3.590452880859375,-0.03982873704135418,0.009008633097540587,-0.10948854872286319
1761379479059534800,3.600534912109375,-0.056554246392846105,-0.006620550650916993,-0.0985541899934411
1761379479069617000,3.610616943359375,-0.024826982742547986,-0.03969144746251404,-0.05566007403209805
1761379479079698700,3.62069873046875,-0.03952829279005527,-0.035755295323673636,0.0018349603421986102
1761379479089780700,3.63078076171875,-0.028980595290660858,-0.022169125177524982,0.01667056429386139
1761379479099862800,3.64086279296875,0.0476268435716629,0.01228243060382083,-0.005886719951033592
1761379479109944800,3.65094482421875,0.0676566551655531,0.046802777305059134,-0.009590835165977477
1761379479120028000,3.66102783203125,0.04481587780416012,0.05560114691909402,-0.01711538545191288
1761379479130109700,3.671109619140625,0.013819851037859916,0.0625412666468881,-0.029452012194693088
1761379479140191700,3.681191650390625,0.027105449068546294,0.03668526965016499,-0.04260696958303451
1761379479150273800,3.691273681640625,0.048344051930308336,-0.013983827694226056,-0.03071910952106118
1761379479160355800,3.70135595703125,0.020931728869676588,-0.019383750509005038,-0.021273966436088084
1761379479170438000,3.71143798828125,0.019352350723743438,0.014014021903090179,-0.034574177514016625
1761379479180520000,3.72152001953125,0.04808627777695656,0.017944566285051405,-0.0638208763949573
1761379479190602800,3.731602783203125,0.06362754577994346,0.049459045701194554,-0.07797288199663162
1761379479200684800,3.741684814453125,0.08709259251952171,0.036000630120560526,-0.06771203861460089
1761379479210766800,3.751766845703125,0.12334639368355274,0.016203787032328543,-0.06535977640002966
1761379479220849000,3.761848876953125,0.13195873920619486,0.00267517402600497,-0.08040361627489329
1761379479230930700,3.7719306640625,0.08781330800950526,0.01357981347059831,-0.09337664122506975
1761379479241012700,3.7820126953125,0.0408124873816967,-0.008131393605284393,-0.12184943312406539
1761379479251094800,3.7920947265625,-0.01480301685631275,-0.016831618340779095,-0.14069178849905728
1761379479261176800,3.8021767578125,-0.08142097662389278,0.002316789042390883,-0.1377092655569315
1761379479271260000,3.812260009765625,-0.08393091361820697,0.022846184188872576,-0.10077902643606067
1761379479281341700,3.822341796875,0.004644026413559914,0.01893244481123984,-0.077277447078377
1761379479291423700,3.832423828125,0.09091068950295447,0.01333334616255015,-0.05006912215724587
1761379479301505800,3.842505859375,0.1149696104824543,0.005686009747162461,-0.008357493978738785
1761379479311587800,3.852587890625,0.11302373711168766,0.053510896641574796,0.009278846607357264
1761379479321670000,3.862669921875,0.07227437809407711,0.04357996106734499,-0.04811681904569268
1761379479331752000,3.872751953125,-0.022934885385632514,0.01998162507060915,0.00551014172360301
1761379479341833700,3.882833740234375,0.031242695003747937,-0.017092205505724996,-0.010476678089797496
1761379479351916800,3.892916748046875,0.00026829554736614226,-0.03479993082759902,-0.012412468457967042
1761379479361998800,3.902998779296875,-0.023066987332701683,-0.03179861185345798,-0.04508563465625048
1761379479372081000,3.913080810546875,-0.04926701199412346,-0.01620758642461151,-0.08217413307875394
1761379479382162700,3.92316259765625,-0.009817045137286186,-0.027394330746214834,-0.08476239600628614
1761379479392244700,3.93324462890625,0.05052724118828773,-0.038785767327062785,-0.08670797711610793
1761379479402326800,3.943326904296875,0.03822480897605419,-0.04277593294177204,-0.09382745373249053
1761379479412408800,3.953408935546875,0.013541618618369103,-0.05507997258920222,-0.09844546892195939
1761379479422492000,3.963491943359375,-0.014606032979488372,-0.02442627472085878,-0.0902593859873712
1761379479432573700,3.97357373046875,-0.003540449085831642,0.020131134810205547,-0.06823825444579124
1761379479442655700,3.98365576171875,0.06780337015986442,0.01722070898991078,-0.05766776059269905
1761379479452737800,3.99373779296875,0.0844049608707428,0.0005858005313202738,-0.03432473279759288
1761379479462819800,4.00381982421875,0.12130991941988467,0.01797430383618921,-0.023486381788551804
1761379479472902000,4.01390185546875,0.07682429648339748,0.025193331836909055,-0.021361352458596227
1761379479482984000,4.02398388671875,0.029867314997315406,0.02034839429007843,-0.022266630735248327
1761379479493065700,4.034065673828125,0.03236556155383587,0.01316578930960968,-0.03690554307103157
1761379479503148800,4.044148681640625,0.07642389898896217,0.01641708272313699,-0.053012920524179934
1761379479513230800,4.05423095703125,0.11071838277876377,0.031625246314238756,-0.04953910693377256
1761379479523313000,4.06431298828125,0.1227817455381155,0.03186066250531003,-0.06672697310000658
1761379479533394700,4.074394775390625,0.09708616326749324,0.03397703360477462,-0.08845321334823965
1761379479543476700,4.084476806640625,0.02170855846107006,0.02989166398728266,-0.11088818638771772
1761379479553558800,4.094558837890625,-0.06350128905177116,0.03478902584109455,-0.11439429481253027
1761379479563640800,4.104640869140625,-0.06082300975322723,0.048344691251125185,-0.07900339408814906
1761379479573723000,4.114722900390625,0.036737200766801835,0.05902293806131929,-0.05511076958626508
1761379479583805700,4.1248056640625,0.12414368154108524,0.05640280042449012,-0.025981997996568678
1761379479593887700,4.1348876953125,0.15059095896184443,0.028863270787615327,-0.01667787081748247
1761379479603969800,4.1449697265625,0.10106851090192794,0.01928072852594778,-0.028454087198525664
1761379479614051800,4.1550517578125,0.013555062621831893,0.018945139896031468,-0.035846973928809166
1761379479624134000,4.1651337890625,-0.007869418200850487,-0.019576916727237402,-0.023681465969234705
1761379479634216000,4.1752158203125,0.006621463966369629,-0.023252098108641803,0.0003514437861740589
1761379479644297700,4.185297607421875,0.043377369433641434,-0.0042489261487498875,-0.001689706652611494
1761379479654379800,4.1953798828125,0.05126899946630001,0.021188169582467525,-0.01497252820432186
1761379479664462800,4.205462890625,0.034010406151413916,0.02112449322910979,-0.027290011855214832
1761379479674545000,4.215544921875,0.006925999870896339,0.03484824521504342,-0.024658348177373408
1761379479684627000,4.225626953125,0.011851765835285187,0.029911208937969058,-0.02216740814447403
1761379479694708700,4.235708740234375,0.017331658551096914,-0.0035937319093383847,-0.048034401459246874
1761379479704790800,4.245790771484375,0.032304771277308464,-0.04302669283244759,-0.052673459436744445
1761379479714872800,4.255872802734375,0.053075172105431556,-0.0668824193900451,-0.043911330179870124
1761379479724955000,4.265954833984375,0.04530278453826904,-0.06327029330749065,-0.024273732773959635
1761379479735037000,4.276036865234375,0.03306640329957008,-0.041601372737064955,-0.029157851553708314
1761379479745119700,4.28611962890625,0.003497778987884521,-0.008319956713635474,-0.018051497258245945
1761379479755201800,4.296201904296875,0.02073649855852127,0.020013700709305703,-0.01872296677902341
1761379479765283800,4.306283935546875,0.03053717708289623,0.005266012503113597,-0.012711305274069308
1761379479775366000,4.316365966796875,0.04239303457140922,-0.01692696847403422,-0.019978812059015034
1761379479785448000,4.326447998046875,0.04961889417171478,-0.032564572990965095,-0.036444355300068856
1761379479795529700,4.33652978515625,0.034902386555075646,-0.05487442181343213,-0.050601037076860665
1761379479805611800,4.34661181640625,0.008614099088311195,-0.04476590118259191,-0.025279694946110248
1761379479815694800,4.35669482421875,0.03567453997135162,-0.012050247549451887,-0.030939766534417865
1761379479825777000,4.36677685546875,0.04069382943809032,0.020790110175590962,-0.05210121250674128
1761379479835859000,4.37685888671875,0.024286299994587895,0.040699437194969504,-0.0661472735159099
1761379479845940700,4.386940673828125,0.0016050971090793608,0.03283098710849881,-0.0537255988381803
1761379479856022800,4.397022705078125,0.04204582856893539,0.0308772226922214,-0.05580649676546454
1761379479866104800,4.407104736328125,0.07938742496967315,0.02402430632384494,-0.05727087022960186
1761379479876187000,4.417186767578125,0.1450631354510784,0.01807496946537867,-0.07803454905599355
1761379479886269000,4.42726904296875,0.07975099758505821,0.001455605635792017,-0.05681713511273265
1761379479896351700,4.437351806640625,-0.007812135055661201,-0.001860240913927555,-0.0520297547057271
1761379479906433800,4.447433837890625,-0.0034147768795490265,0.0143304491748102,-0.0334196006514132
1761379479916515800,4.457515869140625,0.07523848859667777,-0.0014005144476890562,-0.02820347343832254
1761379479926598000,4.467597900390625,0.12087152800261973,-0.015885533129703252,-0.04399301711395383
1761379479936680000,4.477679931640625,0.06882102276980877,-0.024571290948428214,-0.043348727861046786
1761379479946761700,4.48776171875,-0.009928104296326637,-0.01681600064653903,-0.03975727924033999
1761379479956843800,4.49784375,-0.033175708892941476,-0.001907112262956798,-0.049828737530112265
1761379479966925800,4.50792578125,-0.0010603227078914642,-0.021366521824058144,-0.04996215465143323
1761379479977009000,4.5180087890625,0.03452127828299999,-0.036571890669874846,-0.03525251516699791
1761379479987091000,4.528091064453125,0.07968377756774425,-0.044663354123570025,-0.03039163113236427
1761379479997172700,4.5381728515625,0.08461480422914028,-0.03277819747533649,-0.0414727048560977
1761379480007254800,4.5482548828125,0.05140636211037636,0.02063612519027665,-0.07218333880975843
1761379480017336800,4.5583369140625,-0.004402034351229668,0.0678667177196592,-0.07231865562722087
1761379480027419600,4.568419677734375,-0.012806290081143378,0.03921168285524473,-0.07134045824483036
1761379480037501700,4.578501708984375,-0.00042377837002277374,-0.028276008951570838,-0.05200725061297416
1761379480047583500,4.58858349609375,0.013802315381169319,-0.046554300703015174,-0.05934270806759596
1761379480057666600,4.59866650390625,0.0027051673054695126,-0.01977152598388493,-0.0748639561958611
1761379480067748600,4.60874853515625,-0.00003507131338119507,-0.0016044395219534636,-0.08075403714776039
1761379480077830700,4.61883056640625,0.00519055438041687,0.01742046934571117,-0.05896773727536201
1761379480087912400,4.628912353515625,0.062465516263246534,0.042634606508631254,-0.030495968289673325
1761379480097994500,4.638994384765625,0.07413374222517014,0.056016668917424975,-0.011469342388957738
1761379480108076500,4.64907666015625,0.07043254961967468,0.04828415670292452,-0.0073259589739143845
1761379480118158600,4.65915869140625,0.04822539398670196,0.012182166833430527,-0.023832418747246262
1761379480128241700,4.66924169921875,0.0012964695513248442,-0.006928721550945192,-0.031231004565954207
1761379480138323500,4.679323486328125,-0.01331248603761196,-0.020783461239095778,-0.06334390653297305
1761379480148405500,4.689405517578125,-0.001005962172150612,-0.010819591509643942,-0.08723404681682587
1761379480158487600,4.699487548828125,-0.002876432219147682,0.0055665846185758705,-0.08410159400999545
1761379480168569600,4.709569580078125,0.05939852990806102,0.02549540178971365,-0.0835125420756638
1761379480178651600,4.719651611328125,0.10038462029099464,0.03367456179317087,-0.08972644815444945
1761379480188733700,4.729733642578125,0.09123568367362021,0.0291743094981648,-0.09758388365656137
1761379480198815500,4.7398154296875,0.08908756572902202,0.04374019313035533,-0.07480097396224737
1761379480208898600,4.749898681640625,0.12156769357323646,0.05494218982001766,-0.05904562481716275
1761379480218980600,4.759980712890625,0.1449544143795967,0.042393363364972174,-0.05093392229303717
1761379480229062700,4.770062744140625,0.07785773118436336,0.04197700111642479,-0.04398351863324642
1761379480239144400,4.78014453125,0.010810732349753379,0.0582864770129323,-0.045347500462830065
1761379480249226500,4.7902265625,-0.0043850832164287566,0.050479310393333435,-0.026637831556797026
1761379480259308500,4.80030859375,-0.03640168520212173,0.032702520156931134,-0.012952712814509867
1761379480269390600,4.810390625,-0.06664192516505718,0.014035722278244792,-0.00549772063344717
1761379480279472600,4.82047265625,-0.019544658425450324,0.010663177105225623,-0.028910744924843308
1761379480289555500,4.830555419921875,0.010223872372508049,0.004727101587131619,-0.038992432347685096
1761379480299637500,4.840637451171875,0.0031160861939191816,0.016358612267859278,-0.034694150631874796
1761379480309719600,4.850719482421875,0.007674772411584854,0.009293167393654584,-0.026696429876238107
1761379480319801600,4.860801513671875,0.025206921970844266,0.028149861821252852,-0.018997107545286416
1761379480329883600,4.870883544921875,0.04095803333222866,0.039280711237154896,-0.019699995117634532
1761379480339965700,4.880965576171875,0.09229659090340137,0.04760083234757185,-0.02552314831316471
1761379480350047500,4.891047607421875,0.09996960974931716,0.021563797961827367,-0.021367343807965514
1761379480360129500,4.901129638671875,0.06742401545345783,0.02839910560827702,-0.039208120924979446
1761379480370212600,4.911212646484375,0.0004909983873367309,0.041358156832028176,-0.04926949621215462
1761379480380294700,4.921294677734375,-0.009658055183291435,0.016213486442435532,-0.05351736291497945
1761379480390376400,4.93137646484375,0.05354454318284988,-0.015483016743417828,-0.06815642138123512
1761379480400458500,4.94145849609375,0.07809855420291423,-0.003598609013855457,-0.07197612579986452
1761379480410540500,4.95154052734375,0.06584522182941437,0.02202681236369535,-0.0722331693008542
1761379480420622600,4.96162255859375,0.06537234362065791,0.02495451811235398,-0.0623687778905034
1761379480430704600,4.97170458984375,0.08649696471393108,0.023236845740582792,-0.0678768737874925
1761379480440786700,4.98178662109375,0.06658990271687507,0.03538593228831887,-0.0444059818290174
1761379480450869500,4.991869384765625,0.046235681474208826,0.03660628612982109,-0.0405573435768485
1761379480460951600,5.00195166015625,0.09305062414109706,0.03257178818304091,-0.047502048148214814
1761379480471033600,5.01203369140625,0.08988193097710609,0.029781956535112113,-0.04836480245739221
1761379480481115600,5.02211572265625,0.0035603228300809856,0.022432160027883945,-0.03927358737662434
1761379480491197700,5.03219775390625,-0.0332575419574976,0.017046357070002703,-0.038525399357825514
1761379480501279500,5.042279541015625,-0.027356793481111526,0.020577691267617045,-0.05786532899141311
1761379480511361500,5.052361572265625,-0.007565466818213462,0.014382654286082833,-0.01555485813692212
1761379480521444600,5.062444580078125,0.03350304115116596,0.007195062603242695,-0.008569383163750171
1761379480531526700,5.072526611328125,0.05062485634386539,0.023850374529045072,-0.001769786151498556
1761379480541608400,5.0826083984375,0.09166647630631923,-0.001621408923063427,-0.018428075485676525
1761379480551690500,5.0926904296875,0.09373509927392006,-0.003544851266313344,-0.04192614771202206
1761379480561772500,5.1027724609375,0.05040741420090198,0.006041892246436327,-0.04573737656325102
1761379480571854600,5.1128544921875,0.056873979866504665,0.0015599793257191777,-0.05082432443872094
1761379480581936600,5.1229365234375,0.06557692628204823,-0.024109756117593497,-0.07988412244543433
1761379480592018700,5.133018798828125,0.010771569383144377,-0.016096107140462845,-0.08862988508939743
1761379480602101500,5.1431015625,-0.0887269157230854,0.01085427923053503,-0.0760487820662558
1761379480612183600,5.15318359375,-0.07172609656155109,0.007414550572820007,-0.06901172303631901
1761379480622265600,5.163265625,0.043756139618158336,0.005772464187908917,-0.06824322288185358
1761379480632347600,5.17334765625,0.10460253024697304,0.0005944039628840983,-0.06478986755758523
1761379480642429700,5.1834296875,0.08403788112401962,-0.0025893589060753583,-0.031830285633355375
1761379480652511500,5.193511474609375,0.06385200218558311,0.002203282197937369,-0.012721680537611245
1761379480662593500,5.203593505859375,0.04967676183879375,0.02867114574899897,-0.031625849102437494
1761379480672675600,5.213675537109375,0.053873629006743425,0.07369564306885004,-0.04781476735919714
1761379480682758700,5.223758544921875,0.05494798023998737,0.06386241398174315,-0.04914791565909982
1761379480692840700,5.2338408203125,0.05428045624196529,0.00886094998884946,-0.0551568006850779
1761379480702922500,5.243922607421875,0.028653847554326057,0.0002797850557602942,-0.07659735585972666
1761379480713004500,5.254004638671875,-0.06505377919077873,-0.02271289493171498,-0.08209419971033931
1761379480723086600,5.264086669921875,-0.1345809044033289,-0.02283953525237739,-0.060747752559930084
1761379480733168600,5.274168701171875,-0.04370470169186592,-0.015597345571778713,-0.042472383417934176
1761379480743250700,5.284250732421875,0.06352583897113799,0.013285305769741535,-0.05118292861804366
1761379480753332700,5.294332763671875,0.08627543091773986,0.02759142422089353,-0.025657588347792623
1761379480763415600,5.30441552734375,0.06480009669065476,0.013470069485809652,-0.006188040985167026
1761379480773497600,5.31449755859375,0.057177346727252006,-0.0064390200715512035,-0.012300824777036904
1761379480783579600,5.32457958984375,0.030832360637187955,-0.03029469183022156,-0.01897708767056465
1761379480793661700,5.33466162109375,0.019564532169699667,-0.02127062370153144,-0.017207593780010938
1761379480803743500,5.344743408203125,0.06176935069262981,-0.022622878560703247,-0.03939896732196212
1761379480813825500,5.354825439453125,0.09198913238942623,-0.008021302560623734,-0.0484349450841546
1761379480823907600,5.364907470703125,0.07708674681186675,0.009883041311893612,-0.05371946135833859
1761379480833989600,5.37498974609375,0.022875264152884482,0.017553557673469184,-0.08910013294965029
1761379480844072700,5.38507275390625,0.00046001872718334194,0.015881514541711658,-0.10157163811847567
1761379480854154500,5.395154541015625,0.006640168666839599,0.005172288071364164,-0.08690057707875967
1761379480864236500,5.405236572265625,0.015507950255274771,0.010266871264018118,-0.046530280506610865
1761379480874318600,5.415318603515625,0.03585983341038227,0.03197933871522546,-0.033208880510181185
1761379480884400600,5.425400634765625,0.07909925567805767,0.06451625651428476,-0.04649769341126084
1761379480894482700,5.435482666015625,0.08605623520910739,0.05217077061161399,-0.04397343563064932
1761379480904564700,5.445564697265625,0.039247137761116026,0.04162400469398126,-0.05575111331641674
1761379480914646300,5.455646240234375,0.022806875091791152,0.009862327317427843,-0.0698933281764388
1761379480924729600,5.4657294921875,0.014807693031430244,-0.0229469411496073,-0.07537994289398194
1761379480934811600,5.475811767578125,-0.015001754298806189,-0.02766244363049045,-0.07607084776759147
1761379480944893700,5.485893798828125,-0.018020225337147713,-0.023040026260539886,-0.07534472545012831
1761379480954975500,5.4959755859375,0.017056933262944222,-0.00033646541275084016,-0.06214096048399806
1761379480965057500,5.5060576171875,0.03946399538218975,0.03288666281849146,-0.049547144109755754
1761379480975139600,5.5161396484375,0.043892917740345,0.05759259473094716,-0.05280307716578245
1761379480985221400,5.526221435546875,0.05493745884597301,0.0676696242449805,-0.03757262867763638
1761379480995303400,5.536303466796875,0.04819207623898983,0.01629542910484597,-0.04727320782840252
1761379481005386500,5.546386474609375,0.036218145328760144,0.0016024302279576657,-0.02607099145427346
1761379481015468500,5.556468505859375,0.060817164534330365,-0.00040019656503573057,-0.0373661463201046
1761379481025550600,5.566550537109375,0.08491817108988761,0.0024027685591019687,-0.05204422162249684
1761379481035632600,5.576632568359375,0.04991992294490337,-0.003353329015895724,-0.08923179650530219
1761379481045714700,5.586714599609375,-0.04249123424887657,-0.016200608694553375,-0.054809010160714385
1761379481055796700,5.596796630859375,-0.0077495912134647365,-0.011671057239826768,-0.06623086014613509
1761379481065878500,5.60687841796875,-0.0007055179208517074,0.029465784991718827,-0.0781678200468421
1761379481075960600,5.616960693359375,0.021080781951546668,0.04019634651103988,-0.0859448837891221
1761379481086043600,5.627043701171875,0.04538520212471485,0.01832529096463695,-0.09154241153523325
1761379481096125700,5.637125732421875,0.04001052334904671,0.007596738739311695,-0.05474558953568339
1761379481106207500,5.64720751953125,0.0705278266876936,0.014035137756355107,-0.04079319815933704
1761379481116289500,5.65728955078125,0.08785247097611427,0.03188287433711812,-0.03993965006992221
1761379481126371600,5.66737158203125,0.06975859588086605,0.034596919068787244,-0.03415449079722166
1761379481136453600,5.67745361328125,0.06566226647794246,0.03325609891908243,-0.033456425530463456
1761379481146535700,5.68753564453125,0.07459960617125033,0.03270378053225577,-0.03661357438713312
1761379481156618500,5.697618408203125,0.08318915534019469,0.03940515960073098,-0.03701835579574108
1761379481166700500,5.707700439453125,0.06029343292117118,0.029460688691493122,-0.03805982767269015
1761379481176782600,5.717782470703125,0.027656068688631057,0.020909425706323235,-0.013849369393289089
1761379481186864600,5.72786474609375,0.03908756328523159,-0.0019388225754722952,-0.027451193766295907
1761379481196946700,5.73794677734375,0.06145078626275062,0.00021884864876046777,-0.06558394054472447
1761379481207028700,5.74802880859375,0.04324935913980007,0.0035166298188269137,-0.08923676494136452
1761379481217110500,5.758110595703125,-0.027064532536268233,0.004978299869224429,-0.10108516977578401
1761379481227192600,5.768192626953125,-0.048079848036170006,0.0013354681211523711,-0.08889204315692185
1761379481237275600,5.778275634765625,-0.017965280279517173,0.011703863530885428,-0.09005173458606004
1761379481247357700,5.788357666015625,0.0020008184283971785,0.02973318548994139,-0.07174348608776926
1761379481257439500,5.798439453125,0.019233108258247374,0.016784107670933007,-0.03512479713410139
1761379481267521500,5.808521484375,0.05972410860061645,0.012014646513108164,-0.042474136983603236
1761379481277603600,5.818603515625,0.10073299533724785,0.030921481959056106,-0.04526932066008448
1761379481287685600,5.828685546875,0.0843921013891697,0.04850879577165469,-0.03734334996640682
1761379481297767700,5.838767578125,0.04074409832060337,0.045707565946877,-0.03813070095181465
1761379481307849700,5.848849609375,0.038138884258270264,0.04698578745545819,-0.06648658847287296
1761379481317932500,5.8589326171875,0.05824526821970939,0.05669867809852585,-0.085066639649868
1761379481328014600,5.8690146484375,0.04432721750438213,0.04537250703992322,-0.08700944428071379
1761379481338096600,5.8790966796875,0.01336567752957344,0.020648162687942385,-0.07979805159717798
1761379481348178700,5.8891787109375,0.004682604858279228,0.008806918246671557,-0.09818228794112802
1761379481358260700,5.8992607421875,-0.022886954590678212,0.01180034617530182,-0.11076382935568689
1761379481368342500,5.909342529296875,-0.043943771144747734,0.022123039279785005,-0.09640095748230815
1761379481378424600,5.919424560546875,0.015453589719533919,0.03822305541038513,-0.06945026058405637
1761379481388506600,5.929506591796875,0.052501171609759326,0.043118225307110694,-0.05635594734176993
1761379481398589700,5.939589599609375,0.0397667777210474,0.03222991594281047,-0.059157853019982574
1761379481408671700,5.949671630859375,0.019407880303263663,0.010480605346243827,-0.03204816616773605
1761379481418753500,5.95975341796875,0.027018355306982992,-0.005831921023875475,-0.018396072912216184
1761379481428835600,5.969835693359375,0.03216331698000431,-0.007387589500658214,-0.036243279770016665
1761379481438917600,5.979917724609375,0.037760698595643044,0.01135722378399223,-0.06409516329169274
1761379481448999700,5.989999755859375,0.03360883961319923,0.009536383298691362,-0.08705109146535396
1761379481459081700,6.000081787109375,0.0007657236754894256,-0.008200330655649304,-0.08733589975610374
1761379481469163800,6.010163818359375,0.009048983374238014,-0.02278453539581969,-0.09539850244149566
1761379481479246600,6.02024658203125,0.03979366572797298,-0.03206456931326538,-0.10487404066473245
1761379481489328600,6.03032861328125,0.07010989353656769,-0.003790386992599815,-0.10157368394508957
1761379481499410700,6.04041064453125,0.10055120902955532,0.01956254114201292,-0.0950626946158707
1761379481509492700,6.05049267578125,0.0716559539347887,0.03509157071793452,-0.07668284218609332
1761379481519574500,6.060574462890625,0.026424481067061422,0.043607579726632685,-0.06018982641622424
1761379481529656600,6.070656494140625,0.041535540959239,0.039558194737974554,-0.06120207219868898
1761379481539738600,6.080738525390625,0.060986675882339476,0.025984390883054584,-0.061893269333243364
1761379481549820700,6.090820556640625,0.05381166968643665,0.021032741558738053,-0.055239802793413395
1761379481559903700,6.10090380859375,0.0656564212590456,0.007872304277680814,-0.03846577812507748
1761379481569985500,6.110985595703125,0.06478782173097133,-0.014604918734636157,-0.03633344227150082
1761379481580067600,6.121067626953125,0.05467559303939342,-0.01580766385421157,-0.03581979366093874
1761379481590149600,6.131149658203125,0.056388242176175114,-0.007391041833069175,-0.015490706859529017
1761379481600231700,6.141231689453125,0.06793021140992642,-0.007381926944851875,-0.002592792972177267
1761379481610313700,6.151313720703125,0.0825572871774435,-0.002044182646088302,-0.051274114032834765
1761379481620395800,6.161395751953125,0.04185936608612537,0.050390682261809705,-0.08276829957962036
1761379481630477600,6.1714775390625,-0.019403788650035857,0.07820800592675804,-0.07362301622405648
1761379481640560600,6.181560546875,-0.08282499820291996,0.006584986147191375,-0.1500358092971146
1761379481650642700,6.191642578125,-0.18886194516718385,-0.03154933153381571,-0.027224691534042358
1761379481660724700,6.201724853515625,-0.050935237467288966,-0.08291589135676622,-0.06300429931506514
1761379481670806500,6.211806640625,-0.04095511072278023,-0.036943043803516776,-0.05304433857575059
1761379481680888600,6.221888671875,0.009634674307703971,-0.017237769722566007,-0.04467632320299744
1761379481690970600,6.231970703125,0.043967152020335194,0.005633969032671302,-0.04403583334237337
1761379481701052700,6.242052734375,0.0496311691313982,0.024678258454240858,-0.038808746343851085
1761379481711134700,6.252134765625,0.04418342511951923,0.04725843038437888,-0.08826660473495722
1761379481721217500,6.262217529296875,-0.04233633594810962,0.07515039018811658,-0.11155877912566065
1761379481731299600,6.272299560546875,-0.02724807240962982,0.0005090455006808042,-0.05318710804730654
1761379481741381600,6.282381591796875,0.03170446729660034,-0.04315262076705694,-0.08468070907220245
1761379481751463700,6.292463623046875,0.08570844468474388,-0.0031124511984176933,-0.06125087977647781
1761379481761545700,6.302545654296875,0.13250760526061056,-0.014054755772277713,-0.06134557232260704
1761379481771627800,6.312627685546875,0.12246668823957442,-0.013134206861257552,-0.050527679579705
1761379481781709600,6.32270947265625,0.08891630081534385,0.0013131466914899647,-0.04204232143759727
1761379481791791600,6.33279150390625,0.05742518400847912,0.0047458793528378,-0.04634045702293515
1761379481801874700,6.342874755859375,0.03581014904975891,-0.018491441311780363,-0.0667608753696084
1761379481811956700,6.352956787109375,-0.02709551219642162,-0.025228037824109196,-0.048782151086628436
1761379481822038500,6.36303857421875,-0.012695815443992614,-0.018622027155198156,-0.0376240666039288
1761379481832120600,6.37312060546875,0.03245850053429603,-0.03118802394075319,-0.03887728153541684
1761379481842202600,6.38320263671875,0.07140460952222347,-0.0305501278960146,-0.03593056055903435
1761379481852284700,6.39328466796875,0.08332944059371948,-0.0166247523907572,-0.037424744639545676
1761379481862366700,6.40336669921875,0.03886252235770225,-0.007994834678806365,-0.04034340856522321
1761379481872448800,6.41344873046875,-0.00028407763838768005,-0.022535309875104576,-0.03347556862235069
1761379481882531600,6.423531494140625,0.01721592321693897,-0.044289022652152926,-0.039490883389115335
1761379481892613600,6.433613525390625,0.004707154777646065,-0.045519021104834974,-0.049589960338175296
1761379481902695700,6.44369580078125,-0.009234861335158348,-0.014051212108321488,-0.0584822918459773
1761379481912777700,6.45377783203125,-0.03717617670595646,-0.00016781258126720785,-0.04049304616898298
1761379481922859800,6.46385986328125,0.014589081844687461,0.0002874386392533779,-0.04497340645343065
1761379481932941600,6.473941650390625,0.07472177124619483,0.00007322963299229741,-0.05863266010209918
1761379481943023600,6.484023681640625,0.09194120159447193,0.014519085348397492,-0.03796674256175756
1761379481953105700,6.494105712890625,0.10685586213171482,0.004896393739432096,-0.019952216313034295
1761379481963188700,6.504188720703125,0.07453355519771576,0.035979769995622336,-0.0525718987584114
1761379481973270500,6.5142705078125,0.0571820229023695,0.055613166150450706,-0.07125277996137738
1761379481983352600,6.5243525390625,0.002122398981451988,0.015868326266575604,-0.06424246280789375
1761379481993434600,6.5344345703125,0.017893384087085722,-0.02946026856638491,-0.05097016265019774
1761379482003516700,6.5445166015625,0.034648704054951664,-0.03541422680104151,-0.05844502857550978
1761379482013598700,6.5545986328125,0.013036007183790206,-0.01673659700108692,-0.05783917163684964
1761379482023680800,6.5646806640625,0.0185872115701437,-0.009394965534005314,-0.04757657468914985
1761379482033762600,6.574762451171875,0.04411678962409496,0.00847500114487484,-0.05702215616554022
1761379482043845400,6.584845458984375,0.05974164425730705,0.036706275905575604,-0.03517915766984224
1761379482053927400,6.594927490234375,0.0630120442301035,0.008928096940927208,-0.025698358749598263
1761379482064009500,6.605009521484375,0.036951135778427124,-0.02744580520512536,-0.031334757201373575
1761379482074091500,6.615091552734375,-0.019036124381422995,-0.039344332791585473,-0.0382255396284163
1761379482084173600,6.625173583984375,-0.04554068494737148,-0.03741707278974354,-0.05275806898027658
1761379482094255400,6.63525537109375,-0.013853168785572051,-0.028271095314435658,-0.06615677199661732
1761379482104337400,6.64533740234375,0.05803893199265003,-0.02482429759511724,-0.060554568075388664
1761379482114419500,6.65541943359375,0.07713350856304169,-0.008097838395554571,-0.06629778790250421
1761379482124502500,6.66550244140625,0.05245148724913597,0.03764527378873899,-0.06721154174655676
1761379482134584300,6.675584228515625,0.020879121899604797,0.04159183772373944,-0.06702478700280189
1761379482144666400,6.685666259765625,0.03231529267132282,0.050956152391154315,-0.043091099838167425
1761379482154748400,6.69574853515625,0.08946575139164924,0.05020959007386118,-0.03834931213855743
1761379482164830500,6.70583056640625,0.11830606142878532,0.017370949381869286,-0.044960400841385126
1761379482174912500,6.71591259765625,0.153698861849308,-0.015540007627662271,-0.053961015029251574
1761379482184994600,6.72599462890625,0.11119359907507896,-0.02027724701631814,-0.05215571917295456
1761379482195076400,6.736076416015625,-0.004268763360381126,0.0029113391357474027,-0.04077040180563926
1761379482205159400,6.746159423828125,-0.04443535405397415,0.015935765479598192,-0.04748319731727242
1761379482215241500,6.756241455078125,-0.024305589216947553,0.011040723447035997,-0.04931801152899861
1761379482225323500,6.766323486328125,0.0174281046628952,0.01011734325811267,-0.07115896419808268
1761379482235405600,6.776405517578125,0.006603343787789344,-0.002323090919014066,-0.07761340103447437
1761379482245487400,6.7864873046875,-0.03685352062284946,-0.008860895189922302,-0.06645078650712967
1761379482255569400,6.7965693359375,-0.05391805267035961,0.0226731839758344,-0.04938362411111593
1761379482265651500,6.8066513671875,-0.022615736433863637,0.04669078656425699,-0.03479848778918385
1761379482275733500,6.8167333984375,0.022508184406161307,0.029653032925818112,-0.004188099339604377
1761379482285816300,6.82681640625,0.043835634595155715,-0.027534816929139196,-0.0006707388684153556
1761379482295898400,6.8368984375,0.050722471499443054,-0.0004231025165878236,0.07838438540697097
1761379482305980400,6.84698046875,0.16609306399822235,0.03003828765004873,-0.019896248342096804
1761379482316062500,6.8570625,0.17808511508703231,0.03412952075274661,-0.035910248423367735
1761379482326144500,6.86714453125,0.23263445139825342,0.06115366647969931,-0.026657559170573948
1761379482336226600,6.8772265625,0.12434300350546836,0.07155010067382828,-0.02265489940047264
1761379482346308400,6.887308349609375,0.04749298805892467,0.01570798460571095,-0.07347133279368281
1761379482356390400,6.897390380859375,0.1247989305794239,-0.07886334629664198,-0.06390270945951342
1761379482366473500,6.907473388671875,0.1615279480397701,-0.10769291574405505,-0.08309051727131009
1761379482376555500,6.917555419921875,0.038675475353002545,-0.048903950835391875,-0.08740516560003161
1761379482386637600,6.927637451171875,-0.08024199597239494,-0.0005840104330331087,-0.08060410728305578
1761379482396719400,6.93771923828125,-0.11503566145598888,0.013764230126794426,-0.12183218972831963
1761379482406801400,6.947801513671875,-0.09921031581461429,0.020561087192688135,-0.11919219661355018
1761379482416883500,6.957883544921875,-0.037222353935241696,0.01699935785681009,-0.12001023499816656
1761379482426965500,6.967965576171875,-0.00433656789958477,0.009633468731306492,-0.1399168586038053
1761379482437047600,6.978047607421875,0.03922784853875637,-0.019613741606287656,-0.09530921672284602
1761379482447130400,6.98813037109375,0.05702244842648506,-0.0879069959086366,-0.045655105107277626
1761379482457212400,6.99821240234375,0.017870587733387944,-0.04028046286422759,-0.04090513410121202
1761379482467294500,7.00829443359375,0.01844283466339111,0.045037795192841436,-0.01029328434690833
1761379482477376500,7.01837646484375,0.13507073374688625,0.030294819694384932,0.015469956332445144
1761379482487458600,7.02845849609375,0.18168635444939135,-0.019939813489187507,-0.015004238516837357
1761379482497540400,7.038540283203125,0.07547580448389053,0.03973567019673064,-0.02773001070767641
1761379482507622400,7.048622314453125,0.003737432962656021,0.028899839938338844,0.008433920215815306
1761379482517704400,7.058704345703125,0.024784897166490554,-0.061149355630762875,0.027087913411855697
1761379482527787500,7.06878759765625,0.07329553783535957,-0.060904915883019564,0.014283230765908955
1761379482537869600,7.07886962890625,0.06882394537925719,-0.00352207317892462,-0.016730039396136997
1761379482547951400,7.088951416015625,0.15815408769249914,0.02249335216321051,-0.03412716439887881
1761379482558033400,7.099033447265625,0.1355383512586355,0.012161014447547495,-0.057391573999822136
1761379482568115500,7.109115478515625,0.05974924304187298,0.0029210020132362843,-0.06369535031914711
1761379482578197500,7.119197509765625,0.00788929194509983,0.008301306812092662,-0.08874488977119326
1761379482588279600,7.129279541015625,-0.14919102903604506,0.0758327646953985,-0.036731355547904965
1761379482598361600,7.139361572265625,-0.1768745702534914,0.0588346854802221,0.012281681685149669
1761379482608444400,7.1494443359375,-0.03774024032950401,-0.00892042509112507,-0.01644698467105627
1761379482618526500,7.1595263671875,0.10199614714086055,0.05464384619425982,-0.05357362314686179
1761379482628608500,7.1696083984375,0.19727496872544287,0.07683719249758869,-0.016611819843947887
1761379482638690600,7.179690673828125,0.199225518271327,-0.02669990047495812,-0.03291018982455134
1761379482648772400,7.1897724609375,0.08179156350195407,-0.05152191478144377,-0.049419864468276495
1761379482658854400,7.1998544921875,0.1724210979759693,0.06605586890541017,-0.06471417197287083
1761379482668936400,7.2099365234375,0.11408230625391005,0.08998948300480843,-0.051488925827294585
1761379482679018500,7.2200185546875,-0.09560147766768932,-0.17767974915653467,-0.1143694526322186
1761379482689100500,7.2301005859375,-0.21344459775984287,-0.1397845374610275,-0.04710895717740059
1761379482699183400,7.240183349609375,-0.2566998021185398,-0.04625051371715962,-0.06643865767791866
1761379482709265400,7.250265380859375,-0.13999766875505446,-0.04131908519696444,-0.10219283875674008
1761379482719347500,7.260347412109375,-0.1156143381267786,-0.012248144741728901,-0.020956132658571002
1761379482729429500,7.270429443359375,-0.12347849563062191,-0.028091427898593244,0.02116685279980302
1761379482739511600,7.280511474609375,-0.06571019727289676,-0.06732468326482921,0.023055881416797635
1761379482749593600,7.290593505859375,0.051477673780918116,-0.0536857782844454,0.07788125819042324
1761379482759675400,7.30067529296875,0.29730536875128744,-0.0014106339829042553,0.11221563559919595
