time,seconds_elapsed,z,y,x
1761379475540872000,0.081871826171875,0.01022420171648264,0.07944683730602264,0.013751260004937649
1761379475550954000,0.0919541015625,0.010880520567297935,0.10222135484218597,0.013605820946395397
1761379475561036800,0.102036865234375,0.014511475339531898,0.10280884802341461,0.007190799340605736
1761379475571118800,0.112118896484375,0.024539560079574585,0.09476014226675034,0.005175485275685787
1761379475581201000,0.122200927734375,0.02883843705058098,0.08545584976673126,-0.00922262854874134
1761379475591283000,0.132282958984375,0.02649669349193573,0.08097131550312042,-0.013064022175967693
1761379475601364700,0.14236474609375,0.026236768811941147,0.07109204679727554,0.000010234536603093147
1761379475611446800,0.15244677734375,0.012969312258064747,0.041877470910549164,0.01065092720091343
1761379475621528800,0.16252880859375,0.00039200112223625183,0.015778491273522377,0.009948650375008583
1761379475631612000,0.17261181640625,-0.0014469167217612267,0.015216384083032608,-0.013506532646715641
1761379475641694000,0.18269384765625,-0.002399529330432415,0.03672647103667259,-0.01912553608417511
1761379475651775700,0.192775634765625,-0.00025752559304237366,0.037948355078697205,0.004488217644393444
1761379475661857800,0.20285791015625,-0.0017837835475802422,0.03111894428730011,0.027577824890613556
1761379475671939800,0.21293994140625,-0.0022469256073236465,0.03630506992340088,0.018457449972629547
1761379475682022000,0.22302197265625,-0.004203549586236477,0.03455750644207001,0.0053456430323421955
1761379475692104000,0.23310400390625,-0.004385951906442642,0.039789337664842606,-0.01702725701034069
1761379475702186000,0.24318603515625,-0.006336717400699854,0.04667254164814949,-0.023394875228405
1761379475712268800,0.253268798828125,-0.011401597410440445,0.04138662666082382,-0.01611306704580784
1761379475722350800,0.263350830078125,-0.01197470910847187,0.030747301876544952,-0.006339265499264002
1761379475732433000,0.273432861328125,-0.009647076018154621,0.014195190742611885,-0.01353515312075615
1761379475742515000,0.283514892578125,-0.008821496739983559,0.007640086114406586,-0.019647639244794846
1761379475752596700,0.2935966796875,-0.008650600910186768,0.007161977235227823,-0.019155826419591904
1761379475762678800,0.3036787109375,-0.015502648428082466,0.0007608029991388321,-0.011622808873653412
1761379475772760800,0.3137607421875,-0.02225424535572529,-0.003459671512246132,-0.008047416806221008
1761379475782842600,0.323842529296875,-0.029155295342206955,0.0035771988332271576,-0.004144022241234779
1761379475792926000,0.333926025390625,-0.03485067933797836,0.004601002670824528,-0.0028006378561258316
1761379475803007700,0.3440078125,-0.042922720313072205,-0.0018563643097877502,0.0048716627061367035
1761379475813089800,0.35408984375,-0.048555172979831696,-0.016297154128551483,-0.0021272082813084126
1761379475823171800,0.364171875,-0.05104762315750122,-0.019988294690847397,-0.014464834704995155
1761379475833254000,0.37425390625,-0.047041699290275574,-0.009828070178627968,-0.01823240891098976
1761379475843336000,0.3843359375,-0.03682047873735428,-0.02274104207754135,-0.005587541963905096
1761379475853417700,0.394417724609375,-0.027443327009677887,-0.04067469760775566,0.00448062177747488
1761379475863500800,0.404500732421875,-0.021836042404174805,-0.036491136997938156,-0.0011383815435692668
1761379475873582800,0.414582763671875,-0.02562040090560913,-0.01018781028687954,-0.019832631573081017
1761379475883665000,0.424664794921875,-0.027032408863306046,0.011840793304145336,-0.015965187922120094
1761379475893747000,0.434746826171875,-0.027900148183107376,0.023705022409558296,0.004298346117138863
1761379475903828700,0.444828857421875,-0.031197676435112953,0.02324589341878891,0.019697008654475212
1761379475913910800,0.454910888671875,-0.03335874155163765,0.029399465769529343,0.014310348778963089
1761379475923992600,0.46499267578125,-0.02468429133296013,0.04955160245299339,-0.0062439278699457645
1761379475934074600,0.47507470703125,-0.011742805130779743,0.04824221134185791,-0.011410140432417393
1761379475944158000,0.485157958984375,0.003999939188361168,0.02647113800048828,0.009318840689957142
1761379475954239700,0.49523974609375,0.00885701458901167,-0.010286170989274979,0.01608213037252426
1761379475964321800,0.50532177734375,0.017592448741197586,-0.039620090276002884,0.00012952927500009537
1761379475974403800,0.51540380859375,0.03692907840013504,-0.0493583083152771,-0.02857837826013565
1761379475984486000,0.52548583984375,0.06021549552679062,-0.06462648510932922,-0.03387007862329483
1761379475994567700,0.535567626953125,0.06844785809516907,-0.06078699976205826,-0.02629338949918747
1761379476004649700,0.545649658203125,0.06866437196731567,-0.03836611658334732,-0.0174570195376873
1761379476014731500,0.5557314453125,0.05657226964831352,-0.005128928460180759,-0.01119738444685936
1761379476024814800,0.56581494140625,0.04868558794260025,0.01606770232319832,-0.005110463593155146
1761379476034897000,0.57589697265625,0.03676255792379379,0.016276206821203232,-0.0017080317484214902
1761379476044979000,0.58597900390625,0.027614597231149673,0.013788014650344849,-0.0036486773751676083
1761379476055060700,0.596060791015625,0.019930489361286163,0.01079125888645649,-0.008038820698857307
1761379476065142800,0.606142822265625,0.009768666699528694,0.019484082236886024,-0.006068347953259945
1761379476075224800,0.616224853515625,0.0034466469660401344,0.0042014638893306255,0.00228806771337986
1761379476085307000,0.626306884765625,0.0003786850720643997,-0.014603648334741592,0.010669035837054253
1761379476095390000,0.636389892578125,0.000788787379860878,-0.027217764407396317,0.0020970695186406374
1761379476105471700,0.6464716796875,0.004726270213723183,-0.04220470413565636,-0.0011722268536686897
1761379476115553800,0.6565537109375,0.006644886918365955,-0.05454936623573303,0.0005778842605650425
1761379476125635800,0.6666357421875,0.012379205785691738,-0.04820864275097847,-0.0020647705532610416
1761379476135718000,0.6767177734375,0.017174065113067627,-0.03759395703673363,-0.004545117728412151
1761379476145800000,0.686800048828125,0.022838342934846878,-0.029382899403572083,0.0022632540203630924
1761379476155882000,0.696882080078125,0.030558109283447266,-0.020344460383057594,0.00517190620303154
1761379476165963800,0.7069638671875,0.03510332480072975,-0.012509441003203392,0.005510127171874046
1761379476176046800,0.717046875,0.034514665603637695,-0.005293729715049267,0.0011802385561168194
1761379476186129000,0.72712890625,0.03916268050670624,-0.004515553824603558,0.0035206247121095657
1761379476196211000,0.7372109375,0.035608552396297455,-0.004198463633656502,0.005051846615970135
1761379476206293000,0.74729296875,0.03334619849920273,-0.007784676738083363,0.012557167559862137
1761379476216374800,0.757374755859375,0.03144978731870651,-0.006104703061282635,0.01673891209065914
1761379476226456800,0.767456787109375,0.028568513691425323,0.0009092641994357109,0.015682170167565346
1761379476236539000,0.777538818359375,0.022582661360502243,-0.0005377344787120819,0.014864202588796616
1761379476246621000,0.787620849609375,0.016086144372820854,0.006432024762034416,0.006415058858692646
1761379476256703700,0.797703857421875,0.01039536576718092,0.005093090236186981,0.0015935155097395182
1761379476266785800,0.807785888671875,0.004313505254685879,0.0020096823573112488,0.004875328857451677
1761379476276867800,0.817867919921875,-0.0007038898766040802,-0.01333199068903923,0.0072844247333705425
1761379476286950000,0.827949951171875,-0.004246959462761879,-0.02511461451649666,0.010637611150741577
1761379476297032000,0.838031982421875,-0.006765987258404493,-0.035093456506729126,0.0022526709362864494
1761379476307114000,0.848114013671875,-0.0014407308772206306,-0.03853585943579674,0.0007618330419063568
1761379476317195800,0.85819580078125,0.00030467379838228226,-0.02258455753326416,-0.0007241842104122043
1761379476327277800,0.86827783203125,0.00030893459916114807,-0.010986225679516792,0.013432648032903671
1761379476337361000,0.87836083984375,-0.004874163307249546,-0.0032777246087789536,0.02251000888645649
1761379476347443000,0.88844287109375,-0.005941558629274368,0.01148950308561325,0.024334806948900223
1761379476357525000,0.89852490234375,-0.0095810042694211,0.022731471806764603,0.023742759600281715
1761379476367606800,0.908606689453125,-0.01471664384007454,0.008890757337212563,0.030611319467425346
1761379476377688800,0.918688720703125,-0.008448386564850807,-0.018344376236200333,0.03826519474387169
1761379476387771000,0.92877099609375,-0.010990108363330364,-0.037016864866018295,0.02321860007941723
1761379476397853000,0.93885302734375,-0.0019145412370562553,-0.039009518921375275,0.005980397574603558
1761379476407935000,0.94893505859375,0.003611518070101738,-0.0355633869767189,0.004023507237434387
1761379476418017800,0.959017822265625,0.009522762149572372,-0.05456434190273285,0.012706132605671883
1761379476428099800,0.969099853515625,0.016620885580778122,-0.05539471656084061,0.01780582033097744
1761379476438182000,0.979181884765625,0.02033732458949089,-0.04540226608514786,0.009433640167117119
1761379476448264000,0.989263916015625,0.02328677847981453,-0.03217221423983574,0.0048974789679050446
1761379476458346000,0.999345947265625,0.028457753360271454,-0.015730462968349457,0.006970411166548729
1761379476468427800,1.009427734375,0.032796043902635574,-0.01464149635285139,0.01828485168516636
1761379476478509800,1.019509765625,0.0288555845618248,-0.02622554637491703,0.021923162043094635
1761379476488593000,1.029593017578125,0.027688052505254745,-0.03870778530836105,0.02195698395371437
1761379476498675000,1.039675048828125,0.025070616975426674,-0.0451713465154171,0.0010513642337173223
1761379476508757000,1.049757080078125,0.025277012959122658,-0.028846699744462967,-0.011191719211637974
1761379476518838800,1.0598388671875,0.02846558392047882,-0.010685513727366924,-0.014001593925058842
1761379476528920800,1.0699208984375,0.025918804109096527,0.0036934250965714455,0.0036287985276430845
1761379476539003000,1.0800029296875,0.015497691929340363,0.01886850595474243,0.02985066920518875
1761379476549085000,1.0900849609375,0.008455228060483932,0.017994191497564316,0.04338432103395462
1761379476559167000,1.1001669921875,0.01107061468064785,0.008431455120444298,0.03299174830317497
1761379476569249800,1.110249755859375,0.012183550745248795,-0.0016877586022019386,0.016147784888744354
1761379476579331800,1.120331787109375,0.014118054881691933,-0.020974498242139816,0.0016600626986473799
1761379476589414000,1.130413818359375,0.012764370068907738,-0.028420429676771164,0.000014495570212602615
1761379476599496000,1.140495849609375,0.013820884749293327,-0.015104446560144424,-0.0013011960545554757
1761379476609578000,1.150577880859375,0.015132226049900055,-0.011025281623005867,-0.00009584939107298851
1761379476619659800,1.16065966796875,0.01740395650267601,-0.008633477613329887,0.006358610466122627
1761379476629741800,1.170741943359375,0.023739881813526154,-0.008814571425318718,0.008264368399977684
1761379476639824000,1.180823974609375,0.02739384025335312,-0.009136340580880642,0.0009709668811410666
1761379476649907000,1.190906982421875,0.032119087874889374,-0.02023985981941223,-0.005970030091702938
1761379476659989000,1.200989013671875,0.03553837537765503,-0.024594375863671303,-0.010743190534412861
1761379476670070800,1.21107080078125,0.031049085780978203,-0.025370685383677483,-0.0025475784204900265
1761379476680152800,1.22115283203125,0.028473543003201485,-0.024012742564082146,0.00984118040651083
1761379476690235000,1.23123486328125,0.027093490585684776,-0.024230586364865303,0.014239923097193241
1761379476700317000,1.24131689453125,0.031592585146427155,-0.013052603229880333,0.008639729581773281
1761379476710399000,1.25139892578125,0.036281879991292953,-0.0064903078600764275,0.004112888593226671
1761379476720481800,1.261481689453125,0.031268686056137085,0.0006243707612156868,0.0002526764292269945
1761379476730563800,1.271563720703125,0.020795803517103195,0.017387904226779938,0.008056803606450558
1761379476740646000,1.28164599609375,0.01716965064406395,0.02055433765053749,0.01571572571992874
1761379476750728000,1.29172802734375,0.009235826320946217,0.01615452952682972,0.02562827803194523
1761379476760810000,1.30181005859375,0.0007668929174542427,0.006347101181745529,0.027934236451983452
1761379476770892000,1.31189208984375,-0.008512891829013824,0.010108815506100655,0.014846664853394032
1761379476780973800,1.321973876953125,-0.012594249099493027,0.012335256673395634,0.0075262077152729034
1761379476791056000,1.332055908203125,-0.010885031893849373,0.018456798046827316,0.0008872135076671839
1761379476801139000,1.342138916015625,-0.010252712294459343,0.02277202159166336,0.0028987815603613853
1761379476811221000,1.352220947265625,-0.013789123855531216,0.02391904592514038,0.009541237726807594
1761379476821302800,1.362302734375,-0.011393891647458076,0.020158972591161728,0.017699100077152252
1761379476831384800,1.372384765625,-0.007640166208148003,0.010814206674695015,0.017527591437101364
1761379476841467000,1.382466796875,-0.005835187621414661,-0.002841194160282612,0.007558535784482956
1761379476851549000,1.392548828125,-0.006628010421991348,-0.007692408747971058,-0.0028163406532257795
1761379476861631000,1.402630859375,-0.006127804517745972,-0.00814493652433157,-0.0021290327422320843
1761379476871713000,1.412713134765625,-0.0009735226631164551,-0.008916453458368778,0.0020119166001677513
1761379476881795800,1.4227958984375,-0.0004214150831103325,-0.011883238330483437,0.012183032929897308
1761379476891878000,1.4328779296875,0.0027717147022485733,-0.00859556533396244,0.008818129077553749
1761379476901960000,1.4429599609375,-0.0023988550528883934,0.003928848542273045,0.008560174144804478
1761379476912042000,1.4530419921875,-0.010135870426893234,0.017683807760477066,0.007980669848620892
1761379476922124000,1.4631240234375,-0.02271328493952751,0.022538896650075912,0.020145602524280548
1761379476932205800,1.473205810546875,-0.02908330038189888,0.021825967356562614,0.027096718549728394
1761379476942288000,1.483287841796875,-0.03713618218898773,0.01399561669677496,0.027105646207928658
1761379476952371000,1.493370849609375,-0.039195336401462555,-0.0032994840294122696,0.01736593432724476
1761379476962453000,1.503452880859375,-0.041952021420001984,-0.0195249542593956,0.000477867666631937
1761379476972534800,1.51353466796875,-0.04017435759305954,-0.012055055238306522,-0.017136279493570328
1761379476982616800,1.523616943359375,-0.042060572654008865,-0.004718903452157974,-0.016156040132045746
1761379476992699000,1.533698974609375,-0.04540763422846794,0.013214822858572006,-0.006893298588693142
1761379477002781000,1.543781005859375,-0.04851636290550232,0.02831108123064041,0.013003852218389511
1761379477012863000,1.553863037109375,-0.038452278822660446,0.03133536875247955,0.03527826443314552
1761379477022943700,1.56394384765625,-0.03931170329451561,0.03456759452819824,0.038366951048374176
1761379477033026800,1.57402685546875,-0.04004646837711334,0.04172457382082939,0.025411469861865044
1761379477043108600,1.584108642578125,-0.035306792706251144,0.03197750821709633,0.010103186592459679
1761379477053190700,1.594190673828125,-0.025858430191874504,0.0111300153657794,0.006825900636613369
1761379477063272700,1.604272705078125,-0.02256324514746666,0.002950669266283512,-0.00021361024118959904
1761379477073354800,1.614354736328125,-0.020326189696788788,-0.003368479199707508,-0.007844897918403149
1761379477083436800,1.624436767578125,-0.02238914743065834,-0.002467680722475052,-0.0062364982441067696
1761379477093518800,1.634518798828125,-0.01672913134098053,-0.006734064780175686,0.004067804664373398
1761379477103600600,1.6446005859375,-0.011339182034134865,-0.019055496901273727,0.015080724842846394
1761379477113683700,1.65468359375,-0.014236435294151306,-0.034981731325387955,0.01337497029453516
1761379477123765800,1.664765869140625,-0.01509909052401781,-0.03125785291194916,0.0028128507547080517
1761379477133847800,1.674847900390625,-0.020137257874011993,-0.020966336131095886,-0.007529801223427057
1761379477143929600,1.6849296875,-0.025419598445296288,-0.017080336809158325,-0.0013777239946648479
1761379477154011600,1.69501171875,-0.028063317760825157,-0.027735378593206406,0.0036157029680907726
1761379477164093700,1.70509375,-0.03373659402132034,-0.03981012850999832,0.0034657898359000683
1761379477174175700,1.71517578125,-0.03502316772937775,-0.04474150389432907,-0.011557633988559246
1761379477184258800,1.7252587890625,-0.03431617096066475,-0.05740232765674591,-0.036433037370443344
1761379477194340600,1.735340576171875,-0.027387157082557678,-0.0738726481795311,-0.048903822898864746
1761379477204422700,1.745422607421875,-0.019602157175540924,-0.07709842920303345,-0.05706524848937988
1761379477214504700,1.755504638671875,-0.015627656131982803,-0.06487292051315308,-0.03964151814579964
1761379477224586800,1.765586669921875,-0.020220115780830383,-0.051038987934589386,0.0032648167107254267
1761379477234668800,1.775668701171875,-0.029522273689508438,-0.03883585333824158,0.04890953376889229
1761379477244750800,1.785750732421875,-0.032567597925662994,-0.0381290540099144,0.07149633765220642
1761379477254832600,1.79583251953125,-0.03164960443973541,-0.04224336892366409,0.0733935683965683
1761379477264915700,1.805915771484375,-0.01923789270222187,-0.05862516909837723,0.05592386797070503
1761379477274997800,1.815997802734375,-0.011962137185037136,-0.06569639593362808,0.02227376028895378
1761379477285079800,1.826079833984375,-0.009592883288860321,-0.05900374799966812,-0.011115234345197678
1761379477295161600,1.83616162109375,-0.0030540237203240395,-0.050310924649238586,-0.01876330003142357
1761379477305243600,1.84624365234375,0.005752939730882645,-0.05151630565524101,-0.0051942747086286545
1761379477315325700,1.85632568359375,0.005644282326102257,-0.03785562142729759,0.017959248274564743
1761379477325407700,1.86640771484375,0.008266499266028404,-0.03330628573894501,0.03110634535551071
1761379477335490800,1.87649072265625,0.006726926192641258,-0.044418059289455414,0.03134496510028839
1761379477345572600,1.886572509765625,0.009031996130943298,-0.046717576682567596,0.01139241922646761
1761379477355654700,1.896654541015625,0.011180901899933815,-0.04505762830376625,-0.0017745159566402435
1761379477365736700,1.90673681640625,0.009391969069838524,-0.04972001910209656,-0.008925631642341614
1761379477375818800,1.91681884765625,0.011281214654445648,-0.05457203462719917,-0.010356016457080841
1761379477385900800,1.92690087890625,0.015444694086909294,-0.058198846876621246,-0.013204921036958694
1761379477395982800,1.93698291015625,0.018221041187644005,-0.04043902829289436,-0.01139876525849104
1761379477406064400,1.947064453125,0.023858949542045593,-0.019298503175377846,0.0019860914908349514
1761379477416147700,1.957147705078125,0.023701287806034088,0.0036480920389294624,0.01956242136657238
1761379477426229800,1.967229736328125,0.0239870585501194,0.013845705427229404,0.03307301923632622
1761379477436311800,1.977311767578125,0.03404954448342323,0.015409514307975769,0.03712448477745056
1761379477446393900,1.987393798828125,0.044411931186914444,0.01758509874343872,0.020912008360028267
1761379477456475600,1.9974755859375,0.048931580036878586,0.018683653324842453,0.004219315946102142
1761379477466557700,2.0075576171875,0.0513993464410305,0.024484891444444656,-0.0029650211799889803
1761379477476639500,2.017639404296875,0.04430362209677696,0.03294255584478378,0.0012763291597366333
1761379477486721500,2.027721435546875,0.0388016551733017,0.044758640229701996,0.013377904891967773
1761379477496804600,2.0378046875,0.034343257546424866,0.049260981380939484,0.02784818969666958
1761379477506886700,2.04788671875,0.02816370502114296,0.046074964106082916,0.032767485827207565
1761379477516968700,2.05796875,0.01920962706208229,0.0457945354282856,0.03027956187725067
1761379477527050800,2.06805078125,0.012857038527727127,0.028614968061447144,0.02231721580028534
1761379477537132800,2.0781328125,0.010005859658122063,0.015682391822338104,0.014949847012758255
1761379477547214600,2.088214599609375,0.007560172118246555,0.008388404734432697,0.007368503604084253
1761379477557296600,2.098296630859375,0.009768732823431492,0.0005206279456615448,0.00674479128792882
1761379477567379700,2.108379638671875,0.012119634076952934,-0.0029812557622790337,0.010202545672655106
1761379477577461800,2.118461669921875,0.012883694842457771,0.0021487916819751263,0.01059136725962162
1761379477587543800,2.128543701171875,0.009900180622935295,0.01287818606942892,0.011658811010420322
1761379477597625900,2.1386259765625,0.006401052698493004,0.01970120519399643,0.013850592076778412
1761379477607707600,2.148707763671875,0.007536567747592926,0.03379010409116745,0.010304836556315422
1761379477617789700,2.158789794921875,0.004536516964435577,0.046214550733566284,0.012982378713786602
1761379477627871500,2.16887158203125,0.00040505826473236084,0.05573807656764984,0.008306203410029411
1761379477637953500,2.17895361328125,-0.0037502720952033997,0.06708021461963654,0.009237511083483696
1761379477648036600,2.18903662109375,-0.007264270447194576,0.06282307207584381,0.010220658034086227
1761379477658118700,2.19911865234375,-0.012705108150839806,0.04913308843970299,0.015904642641544342
1761379477668200700,2.20920068359375,-0.013233013451099396,0.03360342979431152,0.01106039434671402
1761379477678282800,2.21928271484375,-0.011325923725962639,0.03292752057313919,0.008115737698972225
1761379477688364800,2.22936474609375,-0.00849370937794447,0.03955397754907608,0.014724615029990673
1761379477698446600,2.239446533203125,-0.002443806268274784,0.04906465485692024,0.029033511877059937
1761379477708528600,2.249528564453125,0.0028202710673213005,0.05274875834584236,0.03666015714406967
1761379477718610400,2.2596103515625,0.0053950147703289986,0.05534267798066139,0.03537331894040108
1761379477728693800,2.26969384765625,0.005719711072742939,0.04739982262253761,0.019665483385324478
1761379477738775800,2.27977587890625,0.008860110305249691,0.030491678044199944,0.011232051067054272
1761379477748857900,2.28985791015625,0.00825097318738699,0.0024756058119237423,0.005524215288460255
1761379477758939600,2.299939697265625,0.008772154338657856,-0.02219298854470253,0.00008364347741007805
1761379477769021400,2.310021484375,0.008750871755182743,-0.03174809366464615,0.00005759415216743946
1761379477779103500,2.320103515625,-0.0019150879234075546,-0.02471042424440384,0.0014879780355840921
1761379477789185500,2.330185546875,-0.02058815397322178,-0.004609782248735428,0.012838004156947136
1761379477799268600,2.3402685546875,-0.03334016725420952,0.02419017255306244,0.024989476427435875
1761379477809350700,2.3503505859375,-0.04136785864830017,0.03943715989589691,0.031569983810186386
1761379477819432700,2.3604326171875,-0.041328445076942444,0.035358794033527374,0.04303489252924919
1761379477829514800,2.3705146484375,-0.04269779846072197,0.023554669693112373,0.04683637619018555
1761379477839596500,2.380596435546875,-0.04151109606027603,0.015102595090866089,0.03484736382961273
1761379477849678600,2.3906787109375,-0.042683668434619904,-0.0046520717442035675,0.0230542104691267
1761379477859760600,2.4007607421875,-0.03590965270996094,-0.02266542799770832,0.025706186890602112
1761379477869842400,2.410842529296875,-0.02922743558883667,-0.04446093365550041,0.025597335770726204
1761379477879925800,2.42092578125,-0.02671234682202339,-0.04710491746664047,0.031571872532367706
1761379477890007800,2.4310078125,-0.033710382878780365,-0.05052158981561661,0.042272619903087616
1761379477900089900,2.44108984375,-0.04190652817487717,-0.044365957379341125,0.04143372178077698
1761379477910171400,2.45117138671875,-0.04325871914625168,-0.04015934839844704,0.038117967545986176
1761379477920253400,2.46125341796875,-0.0406046137213707,-0.04209200665354729,0.031608134508132935
1761379477930335500,2.47133544921875,-0.042141951620578766,-0.05545429512858391,0.028307002037763596
1761379477940417500,2.48141748046875,-0.04252810776233673,-0.07041274011135101,0.02334606647491455
1761379477950500600,2.49150048828125,-0.03992963954806328,-0.07287158817052841,0.02281241863965988
1761379477960582700,2.501582763671875,-0.035453666001558304,-0.07285800576210022,0.022050222381949425
1761379477970664700,2.511664794921875,-0.03015238419175148,-0.06587475538253784,0.02816019579768181
1761379477980746500,2.52174658203125,-0.021712295711040497,-0.0413835272192955,0.024593956768512726
1761379477990828500,2.53182861328125,-0.015341993421316147,-0.013851217925548553,0.026439834386110306
1761379478000910600,2.54191064453125,-0.004960991442203522,0.005865495186299086,0.023538319393992424
1761379478010992600,2.55199267578125,0.005247123539447784,0.009120314382016659,0.029230192303657532
1761379478021074400,2.562074462890625,0.01238546147942543,0.011218884959816933,0.01663983426988125
1761379478031158500,2.572158447265625,0.01811392605304718,0.01276398729532957,0.015735093504190445
1761379478041240600,2.582240478515625,0.024116158485412598,0.0032298709265887737,0.013880203478038311
1761379478051322400,2.592322265625,0.0240460354834795,0.004286807496100664,0.007697335444390774
1761379478061404400,2.602404296875,0.020222270861268044,0.009019777178764343,0.010150905698537827
1761379478071486500,2.612486572265625,0.01144747156649828,0.01191473938524723,0.019579660147428513
1761379478081568500,2.622568603515625,0.008519059978425503,0.005840601399540901,0.025385616347193718
1761379478091650600,2.632650634765625,0.010140299797058105,0.0019145505502820015,0.0212947279214859
1761379478101732600,2.642732666015625,0.008275555446743965,-0.007640605792403221,0.009776823222637177
1761379478111815400,2.6528154296875,0.0019245687872171402,-0.013075598515570164,0.0034872170072048903
1761379478121897500,2.6628974609375,-0.009548062458634377,-0.016228780150413513,0.0008935644291341305
1761379478131979500,2.6729794921875,-0.021163683384656906,-0.01060511078685522,-0.004776448477059603
1761379478142061600,2.6830615234375,-0.030071957036852837,-0.01300621684640646,-0.005104017443954945
1761379478152143400,2.693143310546875,-0.03306851163506508,-0.02008235454559326,-0.002597284270450473
1761379478162225400,2.703225341796875,-0.027925416827201843,-0.018711358308792114,-0.01206162665039301
1761379478172307500,2.713307373046875,-0.02278188243508339,-0.010481060482561588,-0.01746298186480999
1761379478182390500,2.723390625,-0.018380742520093918,0.005088577512651682,-0.015816349536180496
1761379478192472600,2.73347265625,-0.01211265567690134,0.015266796573996544,-0.0005440363893285394
1761379478202554400,2.743554443359375,-0.016143349930644035,0.020820019766688347,0.0098361661657691
1761379478212636400,2.753636474609375,-0.011117850430309772,0.025716818869113922,0.004665152169764042
1761379478222718500,2.763718505859375,-0.0006159413605928421,0.015576033852994442,-0.005624503828585148
1761379478232800500,2.773800537109375,0.00912316795438528,-0.0005422467365860939,-0.010656078346073627
1761379478242882600,2.783882568359375,0.028607118874788284,-0.01538510899990797,-0.022451484575867653
1761379478252964600,2.793964599609375,0.04860800504684448,-0.021845396608114243,-0.027401193976402283
1761379478263047400,2.80404736328125,0.05654209479689598,-0.02556689828634262,-0.03473393991589546
1761379478273129500,2.81412939453125,0.058168668299913406,-0.016008537262678146,-0.035419438034296036
1761379478283211500,2.82421142578125,0.053217846900224686,0.008771110326051712,-0.034443389624357224
1761379478293293600,2.83429345703125,0.04396791756153107,0.030717473477125168,-0.028016064316034317
1761379478303375400,2.844375244140625,0.037153419107198715,0.04136612266302109,-0.017947185784578323
1761379478313457400,2.85445751953125,0.031130202114582062,0.05163988471031189,-0.005915737245231867
1761379478323539500,2.86453955078125,0.025137025862932205,0.055820249021053314,-0.0041745626367628574
1761379478333621500,2.87462158203125,0.021537339314818382,0.04503503441810608,-0.014181597158312798
1761379478343704600,2.88470458984375,0.02308437041938305,0.028005452826619148,-0.021438978612422943
1761379478353786400,2.894786376953125,0.021053466945886612,-0.0037004919722676277,-0.028537051752209663
1761379478363868400,2.904868408203125,0.014365737326443195,-0.030006930232048035,-0.03569083660840988
1761379478373950500,2.914950439453125,0.005924910306930542,-0.0350630022585392,-0.04190670698881149
1761379478384032500,2.925032470703125,-0.0023969346657395363,-0.03364726901054382,-0.04846527427434921
1761379478394114600,2.935114501953125,-0.013831490650773048,-0.022919442504644394,-0.041673868894577026
1761379478404196600,2.945196533203125,-0.024990668520331383,0.010408421978354454,-0.03581065312027931
1761379478414279400,2.955279541015625,-0.031083092093467712,0.03250386193394661,-0.01908946968615055
1761379478424361500,2.965361572265625,-0.03334491699934006,0.032407455146312714,0.0004267084877938032
1761379478434443500,2.975443603515625,-0.033967893570661545,0.025927778333425522,0.0025615510530769825
1761379478444525600,2.985525634765625,-0.03230075538158417,0.025467585772275925,-0.012188632041215897
1761379478454607400,2.995607421875,-0.025941867381334305,0.02669691853225231,-0.024169106036424637
1761379478464689400,3.005689453125,-0.01264390628784895,0.006422007456421852,-0.023273218423128128
1761379478474771500,3.015771484375,0.002001115120947361,-0.011413211934268475,-0.011122572235763073
1761379478484853500,3.025853515625,0.010867576114833355,-0.022937245666980743,-0.012014998123049736
1761379478494936600,3.0359365234375,0.013410386629402637,-0.014667810872197151,-0.020678479224443436
1761379478505018400,3.046018310546875,0.01535369548946619,-0.010399563238024712,-0.022242020815610886
1761379478515100400,3.056100341796875,0.014284135773777962,-0.0071639688685536385,-0.0166586022824049
1761379478525182500,3.066182373046875,0.010018816217780113,0.00880061648786068,-0.01666845567524433
1761379478535264500,3.076264404296875,0.004230409860610962,0.02408124879002571,-0.015490854158997536
1761379478545346600,3.0863466796875,0.0015491396188735962,0.02491828054189682,-0.005962596274912357
1761379478555428600,3.0964287109375,0.0006966739892959595,0.012260375544428825,0.0041868253611028194
1761379478565510400,3.106510498046875,-0.0025105709210038185,-0.00293668732047081,0.005593507084995508
1761379478575593500,3.116593505859375,-0.0031448062509298325,-0.01990590989589691,-0.008477931842207909
1761379478585675500,3.126675537109375,0.0004917401820421219,-0.04547145590186119,-0.023312006145715714
1761379478595757600,3.136757568359375,0.006305145099759102,-0.06621411442756653,-0.0356241799890995
1761379478605839600,3.146839599609375,0.0036049652844667435,-0.0796167328953743,-0.03935127705335617
1761379478615921400,3.15692138671875,0.00016819778829813004,-0.06594879925251007,-0.03826914355158806
1761379478626003500,3.16700341796875,-0.006120590493083,-0.03939548134803772,-0.028616249561309814
1761379478636085500,3.17708544921875,-0.012159346602857113,-0.011152016930282116,-0.01413014903664589
1761379478646168600,3.18716845703125,-0.015303208492696285,0.02669656276702881,0.00569095928221941
1761379478656250400,3.19725048828125,-0.02204127237200737,0.05343390256166458,0.025655079632997513
1761379478666332400,3.20733251953125,-0.029006503522396088,0.07458871603012085,0.03302431106567383
1761379478676414500,3.21741455078125,-0.02757497876882553,0.07828518003225327,0.0335952490568161
1761379478686496500,3.22749658203125,-0.02840694785118103,0.06910578906536102,0.023204391822218895
1761379478696578600,3.23757861328125,-0.02527259662747383,0.06012769043445587,0.014794916845858097
1761379478706660600,3.24766064453125,-0.026424415409564972,0.040351856499910355,0.005627783946692944
1761379478716742400,3.257742431640625,-0.01880645379424095,0.019520152360200882,-0.0020636136177927256
1761379478726825500,3.267825439453125,-0.013013279065489769,-0.002406451851129532,-0.01788012683391571
1761379478736907500,3.277907470703125,-0.008627052418887615,-0.011715798638761044,-0.022289257496595383
1761379478746989600,3.287989501953125,-0.008094154298305511,-0.019946563988924026,-0.01847667619585991
1761379478757071600,3.298071533203125,-0.01403660885989666,-0.014675379730761051,-0.010904794558882713
1761379478767153400,3.3081533203125,-0.01349332369863987,-0.00852640625089407,-0.007611529901623726
1761379478777235500,3.3182353515625,-0.016622822731733322,-0.005593790672719479,-0.000655418261885643
1761379478787317500,3.3283173828125,-0.01176468376070261,-0.009353375993669033,0.0056429579854011536
1761379478797399600,3.338399658203125,-0.0113398851826787,-0.01330792810767889,0.006835244596004486
1761379478807482400,3.348482421875,-0.0111633175984025,-0.0000328700989484787,-0.0005291949491947889
1761379478817564400,3.358564453125,-0.016623442992568016,0.008020222187042236,-0.0030629723332822323
1761379478827646500,3.368646484375,-0.01827007532119751,0.01423604041337967,0.0005490730982273817
1761379478837728500,3.378728515625,-0.019721675664186478,0.022596491500735283,0.002033515367656946
1761379478847810600,3.388810546875,-0.016285398975014687,0.014293819665908813,0.002890254370868206
1761379478857892600,3.398892578125,-0.012459776364266872,0.003832206130027771,0.0008876330684870481
1761379478867974400,3.408974365234375,-0.0013091210275888443,-0.008888382464647293,-0.0017507607117295265
1761379478878056400,3.419056396484375,0.0077792080119252205,-0.028862569481134415,-0.00652469415217638
1761379478888139500,3.429139404296875,0.019946925342082977,-0.04604475200176239,-0.007108459249138832
1761379478898221600,3.4392216796875,0.024937637150287628,-0.051393214613199234,-0.010410548187792301
1761379478908303600,3.4493037109375,0.03347306698560715,-0.04820328205823898,-0.011292054317891598
1761379478918385400,3.459385498046875,0.03799211233854294,-0.03288499638438225,-0.010199304670095444
1761379478928467500,3.469467529296875,0.03649834543466568,0.007747914642095566,-0.005350220948457718
1761379478938549500,3.479549560546875,0.03310329094529152,0.03709246590733528,0.0021484193857759237
1761379478948631600,3.489631591796875,0.03165240213274956,0.0497901514172554,0.021223843097686768
1761379478958714400,3.49971435546875,0.02194807678461075,0.05814265459775925,0.021578336134552956
1761379478968796400,3.50979638671875,0.015007082372903824,0.0666823461651802,0.012768866494297981
1761379478978878500,3.51987841796875,0.009256462566554546,0.056407053023576736,0.00369758321903646
1761379478988960500,3.52996044921875,0.005426038987934589,0.037404865026474,-0.0008577536791563034
1761379478999042600,3.54004248046875,0.006124994717538357,0.022552426904439926,-0.0038695030380040407
1761379479009124600,3.55012451171875,0.005078905262053013,0.004676224663853645,-0.0002468051388859749
1761379479019206400,3.560206298828125,0.0035502268001437187,-0.004327971488237381,-0.0030500981956720352
1761379479029288000,3.570287841796875,-0.00041468720883131027,0.006373408250510693,-0.005114314146339893
1761379479039370800,3.580370849609375,-0.003860526718199253,0.01637442596256733,-0.0033334088511765003
1761379479049452800,3.590452880859375,-0.010847330093383789,0.024469904601573944,0.008979983627796173
1761379479059534800,3.600534912109375,-0.016616124659776688,0.03290533274412155,0.00963841937482357
1761379479069617000,3.610616943359375,-0.016774049028754234,0.03662284091114998,0.0047776177525520325
1761379479079698700,3.62069873046875,-0.009408481419086456,0.025005709379911423,0.0039359331130981445
1761379479089780700,3.63078076171875,0.0012082094326615334,0.01329019758850336,0.0060968222096562386
1761379479099862800,3.64086279296875,0.0054860226809978485,0.01951368898153305,0.001984585542231798
1761379479109944800,3.65094482421875,0.010839242488145828,0.02896471507847309,0.003097520675510168
1761379479120028000,3.66102783203125,0.018225740641355515,0.026169363409280777,0.009500725194811821
1761379479130109700,3.671109619140625,0.021191436797380447,0.023858536034822464,0.015647567808628082
1761379479140191700,3.681191650390625,0.027208838611841202,0.02715108171105385,0.014393295161426067
1761379479150273800,3.691273681640625,0.03195618838071823,0.03239457681775093,0.005027490667998791
1761379479160355800,3.70135595703125,0.038583915680646896,0.0304714385420084,0.0036295251920819283
1761379479170438000,3.71143798828125,0.04210488125681877,0.021538130939006805,0.004530738573521376
1761379479180520000,3.72152001953125,0.03773130103945732,0.021188631653785706,0.005863022990524769
1761379479190602800,3.731602783203125,0.03253600746393204,0.011057700030505657,0.007870780304074287
1761379479200684800,3.741684814453125,0.02953813225030899,-0.005416986532509327,0.0011147696059197187
1761379479210766800,3.751766845703125,0.024825934320688248,-0.012124691158533096,-0.006756735499948263
1761379479220849000,3.761848876953125,0.014896826818585396,-0.010758648626506329,-0.016136551275849342
1761379479230930700,3.7719306640625,0.003946706652641296,-0.002712440676987171,-0.01816960982978344
1761379479241012700,3.7820126953125,-0.007676095701754093,0.01872730627655983,-0.01101185753941536
1761379479251094800,3.7920947265625,-0.018292520195245743,0.04537409543991089,0.0009302895050495863
1761379479261176800,3.8021767578125,-0.02427210472524166,0.05657261610031128,0.013978105038404465
1761379479271260000,3.812260009765625,-0.02987033501267433,0.05776730924844742,0.026751955971121788
1761379479281341700,3.822341796875,-0.030482295900583267,0.0475279837846756,0.018455661833286285
1761379479291423700,3.832423828125,-0.024194572120904922,0.03202412649989128,0.003952085971832275
1761379479301505800,3.842505859375,-0.018130183219909668,0.0069601768627762794,-0.0056444937363266945
1761379479311587800,3.852587890625,-0.003567485138773918,0.02305286005139351,-0.02735990844666958
1761379479321670000,3.862669921875,-0.005046699196100235,-0.010537083260715008,-0.017661215737462044
1761379479331752000,3.872751953125,0.008531960658729076,-0.006531954742968082,-0.007865842431783676
1761379479341833700,3.882833740234375,0.019324619323015213,-0.009140104986727238,-0.014838136732578278
1761379479351916800,3.892916748046875,0.020827442407608032,-0.005947774276137352,-0.015126025304198265
1761379479361998800,3.902998779296875,0.021712474524974823,0.0006465958431363106,-0.007898332551121712
1761379479372081000,3.913080810546875,0.02078276500105858,0.01590437814593315,-0.0030327378772199154
1761379479382162700,3.92316259765625,0.011774512007832527,0.03190620616078377,0.0023958042729645967
1761379479392244700,3.93324462890625,0.004889708012342453,0.044450223445892334,-0.0019962810911238194
1761379479402326800,3.943326904296875,-0.002735195681452751,0.05574433505535126,0.0050045195966959
1761379479412408800,3.953408935546875,-0.012271975167095661,0.05745621770620346,0.00855664350092411
1761379479422492000,3.963491943359375,-0.02127056196331978,0.04598882421851158,0.017228635028004646
1761379479432573700,3.97357373046875,-0.02832900360226631,0.04339277371764183,0.020488876849412918
1761379479442655700,3.98365576171875,-0.026322433724999428,0.04439761862158775,0.012767607346177101
1761379479452737800,3.99373779296875,-0.019982779398560524,0.041286781430244446,0.00106328004039824
1761379479462819800,4.00381982421875,-0.01692991703748703,0.03632325306534767,-0.0034413845278322697
1761379479472902000,4.01390185546875,-0.013545039109885693,0.020498748868703842,0.0025773593224585056
1761379479482984000,4.02398388671875,-0.01085147075355053,0.004189478699117899,0.003028139239177108
1761379479493065700,4.034065673828125,-0.01067623496055603,-0.012231305241584778,-0.004361334256827831
1761379479503148800,4.044148681640625,-0.012039558961987495,-0.020896010100841522,-0.0142540093511343
1761379479513230800,4.05423095703125,-0.019907068461179733,-0.022671274840831757,-0.020066626369953156
1761379479523313000,4.06431298828125,-0.02643393911421299,-0.014628344215452671,-0.020206516608595848
1761379479533394700,4.074394775390625,-0.03592917323112488,0.00790945440530777,-0.020357783883810043
1761379479543476700,4.084476806640625,-0.047259122133255005,0.02733142301440239,-0.004103128798305988
1761379479553558800,4.094558837890625,-0.05829685926437378,0.03203882649540901,0.016156602650880814
1761379479563640800,4.104640869140625,-0.05817077308893204,0.02817719802260399,0.019507896155118942
1761379479573723000,4.114722900390625,-0.058459725230932236,0.018290476873517036,0.006026176735758781
1761379479583805700,4.1248056640625,-0.05672508105635643,0.006849444936960936,-0.014129787683486938
1761379479593887700,4.1348876953125,-0.053689874708652496,0.008732565678656101,-0.022606363520026207
1761379479603969800,4.1449697265625,-0.0502588115632534,0.01324879564344883,-0.020785780623555183
1761379479614051800,4.1550517578125,-0.047394849359989166,0.008725150488317013,-0.016952425241470337
1761379479624134000,4.1651337890625,-0.036336712539196014,0.004174485336989164,-0.011607050895690918
1761379479634216000,4.1752158203125,-0.023516252636909485,-0.004269067198038101,-0.017804227769374847
1761379479644297700,4.185297607421875,-0.011367687955498695,-0.008888003416359425,-0.02763097546994686
1761379479654379800,4.1953798828125,-0.008832357823848724,-0.006149474531412125,-0.02847146801650524
1761379479664462800,4.205462890625,-0.004827020689845085,-0.010412418283522129,-0.021690817549824715
1761379479674545000,4.215544921875,-0.002949492074549198,-0.007462966255843639,-0.015904834493994713
1761379479684627000,4.225626953125,-0.007150869816541672,-0.007563849911093712,-0.0034598326310515404
1761379479694708700,4.235708740234375,-0.0182045865803957,-0.0030487263575196266,-0.004755194298923016
1761379479704790800,4.245790771484375,-0.01954835280776024,0.00001651514321565628,-0.013230491429567337
1761379479714872800,4.255872802734375,-0.019221849739551544,-0.0015488909557461739,-0.023862896487116814
1761379479724955000,4.265954833984375,-0.01577618531882763,-0.0076148053631186485,-0.028678731992840767
1761379479735037000,4.276036865234375,-0.011523117311298847,-0.016291119158267975,-0.02431114763021469
1761379479745119700,4.28611962890625,-0.013560138642787933,-0.023035606369376183,-0.018847698345780373
1761379479755201800,4.296201904296875,-0.01661824621260166,-0.021500559523701668,-0.014760811813175678
1761379479765283800,4.306283935546875,-0.01756148785352707,-0.014114179648458958,-0.00811799056828022
1761379479775366000,4.316365966796875,-0.02461726777255535,-0.0013991836458444595,-0.012686377391219139
1761379479785448000,4.326447998046875,-0.0234439205378294,0.012769983150064945,-0.016160380095243454
1761379479795529700,4.33652978515625,-0.020114436745643616,0.003180472645908594,-0.015433602966368198
1761379479805611800,4.34661181640625,-0.016311369836330414,0.0023321397602558136,-0.015514947474002838
1761379479815694800,4.35669482421875,-0.01767757162451744,0.00893464870750904,-0.01822817511856556
1761379479825777000,4.36677685546875,-0.018169691786170006,0.02023254707455635,-0.014858238399028778
1761379479835859000,4.37685888671875,-0.023158058524131775,0.026506423950195312,-0.011808119714260101
1761379479845940700,4.386940673828125,-0.022875497117638588,0.02371463179588318,-0.003242328530177474
1761379479856022800,4.397022705078125,-0.01987890899181366,0.01241244189441204,0.0005694539286196232
1761379479866104800,4.407104736328125,-0.024247966706752777,0.010820127092301846,-0.01404253114014864
1761379479876187000,4.417186767578125,-0.01908409781754017,0.01568412408232689,-0.023007797077298164
1761379479886269000,4.42726904296875,-0.020818745717406273,0.012376569211483002,-0.014363080263137817
1761379479896351700,4.437351806640625,-0.018044263124465942,0.0034243534319102764,-0.005488894879817963
1761379479906433800,4.447433837890625,-0.017675941810011864,-0.0065268948674201965,-0.005268727894872427
1761379479916515800,4.457515869140625,-0.015146736986935139,-0.008783125318586826,-0.008802476339042187
1761379479926598000,4.467597900390625,-0.013423914089798927,-0.005084742791950703,-0.01859273947775364
1761379479936680000,4.477679931640625,-0.008359912782907486,0.0001742010936141014,-0.018385544419288635
1761379479946761700,4.48776171875,-0.00791099201887846,0.0013308227062225342,-0.00847725197672844
1761379479956843800,4.49784375,-0.0076260338537395,0.003964955452829599,0.0036633010022342205
1761379479966925800,4.50792578125,-0.0019100112840533257,0.0021892311051487923,0.0049536749720573425
1761379479977009000,4.5180087890625,0.005734327249228954,-0.010194733738899231,-0.0030179647728800774
1761379479987091000,4.528091064453125,0.01596168801188469,-0.019636385142803192,-0.014884695410728455
1761379479997172700,4.5381728515625,0.025762654840946198,-0.026954222470521927,-0.019265329465270042
1761379480007254800,4.5482548828125,0.02658005617558956,-0.03373686224222183,-0.011549738235771656
1761379480017336800,4.5583369140625,0.023663626983761787,-0.023669583722949028,-0.004962143488228321
1761379480027419600,4.568419677734375,0.020208552479743958,-0.016841379925608635,-0.005140986293554306
1761379480037501700,4.578501708984375,0.02419210970401764,0.006041565909981728,-0.0016320054419338703
1761379480047583500,4.58858349609375,0.021644379943609238,0.016360649839043617,0.0004105356056243181
1761379480057666600,4.59866650390625,0.01811462827026844,0.023510439321398735,0.0070167724043130875
1761379480067748600,4.60874853515625,0.013010170310735703,0.009228488430380821,0.01130744069814682
1761379480077830700,4.61883056640625,0.013943875208497047,-0.005023684352636337,0.008996617048978806
1761379480087912400,4.628912353515625,0.018271129578351974,-0.0162493959069252,0.00010328530333936214
1761379480097994500,4.638994384765625,0.0254582017660141,-0.023750722408294678,-0.00722600007429719
1761379480108076500,4.64907666015625,0.030826129019260406,-0.021724654361605644,-0.009193062782287598
1761379480118158600,4.65915869140625,0.036843542009592056,-0.015724286437034607,-0.010226636193692684
1761379480128241700,4.66924169921875,0.04210642725229263,-0.01699863001704216,-0.006521935109049082
1761379480138323500,4.679323486328125,0.04095487296581268,-0.011355923488736153,-0.0074292742647230625
1761379480148405500,4.689405517578125,0.03737373650074005,-0.004611889831721783,-0.00564244668930769
1761379480158487600,4.699487548828125,0.026828953996300697,0.0001421188935637474,0.0006082586478441954
1761379480168569600,4.709569580078125,0.0137161985039711,0.013458438217639923,0.00027667754329741
1761379480178651600,4.719651611328125,0.0072465818375349045,0.015345287509262562,-0.0007331930100917816
1761379480188733700,4.729733642578125,-0.0014197519049048424,0.010367034003138542,0.001851650420576334
1761379480198815500,4.7398154296875,-0.0038104718551039696,-0.005159460939466953,0.0017142314463853836
1761379480208898600,4.749898681640625,-0.003880241885781288,-0.020989110693335533,-0.0026630149222910404
1761379480218980600,4.759980712890625,-0.0039521474391222,-0.02693009003996849,-0.01119125634431839
1761379480229062700,4.770062744140625,-0.0010680733248591423,-0.03572988137602806,-0.01267107855528593
1761379480239144400,4.78014453125,-0.001636924222111702,-0.03245339170098305,-0.008437451906502247
1761379480249226500,4.7902265625,0.0014257552102208138,-0.01997416466474533,-0.0062689329497516155
1761379480259308500,4.80030859375,0.005348058417439461,-0.0094735873863101,-0.0007673746440559626
1761379480269390600,4.810390625,0.008085502311587334,-0.002211284823715687,0.001825621584430337
1761379480279472600,4.82047265625,0.011870918795466423,0.007783559150993824,0.0027995395939797163
1761379480289555500,4.830555419921875,0.009818397462368011,0.015864336863160133,-0.003245619125664234
1761379480299637500,4.840637451171875,0.012542011216282845,0.01957358792424202,0.0010476626921445131
1761379480309719600,4.850719482421875,0.017856977880001068,0.01610538549721241,-0.0016636971849948168
1761379480319801600,4.860801513671875,0.023058399558067322,0.00942777469754219,0.0005123717710375786
1761379480329883600,4.870883544921875,0.029117923229932785,0.0007548006251454353,-0.002122925827279687
1761379480339965700,4.880965576171875,0.03689515218138695,-0.0014646779745817184,-0.00608784006908536
1761379480350047500,4.891047607421875,0.04351404309272766,0.00971216894686222,-0.009906983934342861
1761379480360129500,4.901129638671875,0.04843609780073166,0.022070035338401794,-0.007003073580563068
1761379480370212600,4.911212646484375,0.04221441224217415,0.020634673535823822,0.00039393198676407337
1761379480380294700,4.921294677734375,0.0359509252011776,0.018023978918790817,-0.0009909117361530662
1761379480390376400,4.93137646484375,0.027681395411491394,0.018815431743860245,-0.00843873806297779
1761379480400458500,4.94145849609375,0.017875369638204575,0.01921597123146057,-0.012335741892457008
1761379480410540500,4.95154052734375,0.0023957332596182823,0.005068888422101736,-0.008032720535993576
1761379480420622600,4.96162255859375,-0.006004142574965954,-0.0033333851024508476,-0.008913960307836533
1761379480430704600,4.97170458984375,-0.007257265970110893,-0.013637545518577099,-0.009440322406589985
1761379480440786700,4.98178662109375,-0.010026954114437103,-0.028797589242458344,-0.006798733025789261
1761379480450869500,4.991869384765625,-0.00943669117987156,-0.03796593099832535,-0.006164513062685728
1761379480460951600,5.00195166015625,-0.010829790495336056,-0.02599208988249302,-0.014466650784015656
1761379480471033600,5.01203369140625,-0.012701503932476044,-0.013037329539656639,-0.021022729575634003
1761379480481115600,5.02211572265625,-0.010864455252885818,-0.004701103083789349,-0.01540612243115902
1761379480491197700,5.03219775390625,-0.016012994572520256,0.0037960209883749485,-0.005324697121977806
1761379480501279500,5.042279541015625,-0.009439514949917793,0.006559050641953945,0.00035289605148136616
1761379480511361500,5.052361572265625,-0.006983842700719833,0.005529244430363178,-0.000002610962837934494
1761379480521444600,5.062444580078125,-0.004237591288983822,-0.0009350469335913658,-0.0007317843846976757
1761379480531526700,5.072526611328125,-0.002195475623011589,-0.014034160412847996,-0.0030687821563333273
1761379480541608400,5.0826083984375,0.0010146982967853546,-0.017605461180210114,-0.011799689382314682
1761379480551690500,5.0926904296875,0.0015259580686688423,-0.024437500163912773,-0.021468520164489746
1761379480561772500,5.1027724609375,0.00704988744109869,-0.03959621489048004,-0.021698616445064545
1761379480571854600,5.1128544921875,0.004405645653605461,-0.03554080054163933,-0.01733509451150894
1761379480581936600,5.1229365234375,-0.001785404048860073,-0.011043715290725231,-0.021757271140813828
1761379480592018700,5.133018798828125,-0.008935859426856041,0.006754369009286165,-0.013791320845484734
1761379480602101500,5.1431015625,-0.015453679487109184,0.014694584533572197,0.0035112362820655107
1761379480612183600,5.15318359375,-0.018977701663970947,0.023828694596886635,0.009480467066168785
1761379480622265600,5.163265625,-0.02278788760304451,0.025798635557293892,0.005435125436633825
1761379480632347600,5.17334765625,-0.018585409969091415,0.01831001043319702,-0.002769617596641183
1761379480642429700,5.1834296875,-0.01470518484711647,0.0010692393407225609,-0.006018141284584999
1761379480652511500,5.193511474609375,-0.006960954982787371,-0.018614131957292557,-0.008621597662568092
1761379480662593500,5.203593505859375,0.0011299951002001762,-0.03625145182013512,-0.0077837673015892506
1761379480672675600,5.213675537109375,0.004761630669236183,-0.04772084206342697,-0.011014685966074467
1761379480682758700,5.223758544921875,0.004252966493368149,-0.04089143127202988,-0.017008662223815918
1761379480692840700,5.2338408203125,0.0046035656705498695,-0.02297193929553032,-0.018020503222942352
1761379480702922500,5.243922607421875,-0.0016593905165791512,0.007718594279140234,-0.01228698343038559
1761379480713004500,5.254004638671875,-0.0011171232908964157,0.01980997622013092,0.007431693375110626
1761379480723086600,5.264086669921875,-0.000307522714138031,0.0223357193171978,0.022832486778497696
1761379480733168600,5.274168701171875,-0.0009498046711087227,0.022024281322956085,0.018431229516863823
1761379480743250700,5.284250732421875,0.001545577310025692,0.025149766355752945,0.0058957310393452644
1761379480753332700,5.294332763671875,0.004530514590442181,0.014474429190158844,-0.000820815796032548
1761379480763415600,5.30441552734375,0.01144967321306467,0.0053744083270430565,-0.0011374657042324543
1761379480773497600,5.31449755859375,0.015304927714169025,-0.005969095975160599,-0.0026682917959988117
1761379480783579600,5.32457958984375,0.022028345614671707,-0.01982339285314083,0.002007952891290188
1761379480793661700,5.33466162109375,0.026502057909965515,-0.02806978113949299,0.0029990102630108595
1761379480803743500,5.344743408203125,0.026681024581193924,-0.02644605003297329,-0.0059417542070150375
1761379480813825500,5.354825439453125,0.024160470813512802,-0.01397961936891079,-0.013165140524506569
1761379480823907600,5.364907470703125,0.018963847309350967,0.006234306842088699,-0.013026656582951546
1761379480833989600,5.37498974609375,0.011727647855877876,0.009623724967241287,-0.0028038276359438896
1761379480844072700,5.38507275390625,0.008637849241495132,0.01577216386795044,0.002249254146590829
1761379480854154500,5.395154541015625,0.011618969030678272,0.008193823508918285,-0.0000035639386624097824
1761379480864236500,5.405236572265625,0.012441619299352169,-0.013104806654155254,0.0017139087431132793
1761379480874318600,5.415318603515625,0.02077258750796318,-0.03036540560424328,0.0004695625975728035
1761379480884400600,5.425400634765625,0.019069496542215347,-0.0381932333111763,-0.0029278318397700787
1761379480894482700,5.435482666015625,0.018149420619010925,-0.03688942641019821,-0.0021532110404223204
1761379480904564700,5.445564697265625,0.019054897129535675,-0.03212902694940567,0.0012084972113370895
1761379480914646300,5.455646240234375,0.02048848196864128,-0.02145276591181755,-0.002176721580326557
1761379480924729600,5.4657294921875,0.020397935062646866,-0.008121781051158905,-0.0006834871601313353
1761379480934811600,5.475811767578125,0.014614192768931389,-0.0012300116941332817,0.0006366875022649765
1761379480944893700,5.485893798828125,0.0170307457447052,0.0026925578713417053,-0.0019393882248550653
1761379480954975500,5.4959755859375,0.023104852065443993,0.003640939947217703,-0.002754821674898267
1761379480965057500,5.5060576171875,0.022330136969685555,0.01266506128013134,-0.0007878110045567155
1761379480975139600,5.5161396484375,0.024262577295303345,0.010354340076446533,0.001824049511924386
1761379480985221400,5.526221435546875,0.027269817888736725,0.00799025222659111,0.007190319709479809
1761379480995303400,5.536303466796875,0.03237445652484894,0.0019789296202361584,0.015366974286735058
1761379481005386500,5.546386474609375,0.04009655863046646,-0.00807689968496561,0.009930398315191269
1761379481015468500,5.556468505859375,0.03510180488228798,-0.019019383937120438,0.005009867716580629
1761379481025550600,5.566550537109375,0.032364606857299805,-0.004248428158462048,-0.009256686083972454
1761379481035632600,5.576632568359375,0.023987870663404465,-0.01677856594324112,-0.012890810146927834
1761379481045714700,5.586714599609375,0.021870922297239304,-0.014943915419280529,0.0011935834772884846
1761379481055796700,5.596796630859375,0.023541584610939026,-0.002463875338435173,0.007616809569299221
1761379481065878500,5.60687841796875,0.01354967150837183,0.006584480870515108,0.01564783975481987
1761379481075960600,5.616960693359375,0.0011590924113988876,0.01825357787311077,0.021221742033958435
1761379481086043600,5.627043701171875,-0.0008811550214886665,0.020278379321098328,0.018621165305376053
1761379481096125700,5.637125732421875,0.001972181722521782,0.013080175966024399,0.01523527130484581
1761379481106207500,5.64720751953125,0.00033327285200357437,0.006687523797154427,0.008553133346140385
1761379481116289500,5.65728955078125,0.0011497261002659798,0.00107573252171278,0.002860404085367918
1761379481126371600,5.66737158203125,0.005671774037182331,-0.011941533535718918,0.002265187446027994
1761379481136453600,5.67745361328125,0.007469085045158863,-0.019993355497717857,0.0017003081738948822
1761379481146535700,5.68753564453125,0.01226490642875433,-0.030101381242275238,-0.0031884564086794853
1761379481156618500,5.697618408203125,0.016394484788179398,-0.030515965074300766,-0.00705609330907464
1761379481166700500,5.707700439453125,0.02223985828459263,-0.039716653525829315,-0.006760482210665941
1761379481176782600,5.717782470703125,0.028384778648614883,-0.04579667001962662,-0.0021324637345969677
1761379481186864600,5.72786474609375,0.027656137943267822,-0.04454951360821724,-0.008504343219101429
1761379481196946700,5.73794677734375,0.02050286903977394,-0.03313027322292328,-0.01017347164452076
1761379481207028700,5.74802880859375,0.012018038891255856,-0.02014070749282837,-0.00801205076277256
1761379481217110500,5.758110595703125,0.0023300042375922203,-0.011913982219994068,0.004859473556280136
1761379481227192600,5.768192626953125,-0.0035939309746026993,-0.006865695118904114,0.0128526845946908
1761379481237275600,5.778275634765625,-0.00865276250988245,0.004071943461894989,0.013044213876128197
1761379481247357700,5.788357666015625,-0.010287943296134472,0.006501012481749058,0.01415049098432064
1761379481257439500,5.798439453125,-0.0044475458562374115,-0.0016994047909975052,0.015119612216949463
1761379481267521500,5.808521484375,0.0017712023109197617,-0.002196616493165493,0.007530667819082737
1761379481277603600,5.818603515625,0.00819347333163023,-0.008827866055071354,0.0020797322504222393
1761379481287685600,5.828685546875,0.011246253736317158,-0.016337715089321136,0.0027953237295150757
1761379481297767700,5.838767578125,0.022475700825452805,-0.02858121506869793,0.0022574677132070065
1761379481307849700,5.848849609375,0.020116940140724182,-0.033959999680519104,0.0019940808415412903
1761379481317932500,5.8589326171875,0.01685302145779133,-0.026063892990350723,-0.0012721886159852147
1761379481328014600,5.8690146484375,0.011426297947764397,-0.016123909503221512,-0.006757501512765884
1761379481338096600,5.8790966796875,0.003449386917054653,0.001633268315345049,-0.001165105844847858
1761379481348178700,5.8891787109375,-0.0013514943420886993,0.013806577771902084,0.0057756248861551285
1761379481358260700,5.8992607421875,-0.006261503789573908,0.016896579414606094,0.01309260819107294
1761379481368342500,5.909342529296875,-0.0068703023716807365,0.014370569959282875,0.015280927531421185
1761379481378424600,5.919424560546875,-0.010456601157784462,0.006434629205614328,0.012927761301398277
1761379481388506600,5.929506591796875,-0.008058425039052963,0.005091597326099873,0.007744716480374336
1761379481398589700,5.939589599609375,-0.007379187736660242,-0.0011924877762794495,0.004711812827736139
1761379481408671700,5.949671630859375,0.004486525431275368,-0.010202494449913502,0.003259324934333563
1761379481418753500,5.95975341796875,0.01385793462395668,-0.013674091547727585,0.002288718242198229
1761379481428835600,5.969835693359375,0.017937099561095238,-0.016755368560552597,-0.00014221505261957645
1761379481438917600,5.979917724609375,0.019088461995124817,-0.008674467913806438,0.0004970158915966749
1761379481448999700,5.989999755859375,0.012569579295814037,-0.0027784956619143486,0.0010136691853404045
1761379481459081700,6.000081787109375,0.006252206861972809,-0.00024608708918094635,0.007324832491576672
1761379481469163800,6.010163818359375,-0.00592829380184412,-0.000875924713909626,0.007966121658682823
1761379481479246600,6.02024658203125,-0.007613410707563162,-0.002049136906862259,0.007611292414367199
1761379481489328600,6.03032861328125,-0.010458732023835182,-0.0162523090839386,0.0038732795510441065
1761379481499410700,6.04041064453125,-0.013163029216229916,-0.018431030213832855,-0.0015915072290226817
1761379481509492700,6.05049267578125,-0.015907417982816696,-0.02351474016904831,-0.000777378911152482
1761379481519574500,6.060574462890625,-0.017438920214772224,-0.03994850069284439,0.0009167299140244722
1761379481529656600,6.070656494140625,-0.018229613080620766,-0.039848100394010544,-0.0019919744227081537
1761379481539738600,6.080738525390625,-0.01593056321144104,-0.04431850463151932,-0.002548331394791603
1761379481549820700,6.090820556640625,-0.01857215166091919,-0.054940253496170044,-0.0059241545386612415
1761379481559903700,6.10090380859375,-0.011240052059292793,-0.05908834561705589,-0.011248317547142506
1761379481569985500,6.110985595703125,-0.006810949184000492,-0.07367634773254395,-0.014383124187588692
1761379481580067600,6.121067626953125,-0.0029619596898555756,-0.09292183816432953,-0.02135675773024559
1761379481590149600,6.131149658203125,0.006469358690083027,-0.11259221285581589,-0.03283684700727463
1761379481600231700,6.141231689453125,0.011566770263016224,-0.11730045825242996,-0.0413411483168602
1761379481610313700,6.151313720703125,0.01142775360494852,-0.11013282090425491,-0.05814675986766815
1761379481620395800,6.161395751953125,0.005527324043214321,-0.08308427780866623,-0.04952702671289444
1761379481630477600,6.1714775390625,-0.00215216726064682,-0.032387807965278625,-0.030411921441555023
1761379481640560600,6.181560546875,-0.011313633061945438,-0.018573304638266563,-0.0050584785640239716
1761379481650642700,6.191642578125,-0.010827340185642242,-0.006887353956699371,0.024577178061008453
1761379481660724700,6.201724853515625,-0.00656109256669879,0.009860202670097351,0.020977361127734184
1761379481670806500,6.211806640625,-0.011565704829990864,0.00975980143994093,0.01056599896401167
1761379481680888600,6.221888671875,-0.007717688102275133,0.006589584983885288,0.004955025389790535
1761379481690970600,6.231970703125,-0.0031575579196214676,0.0022353166714310646,-0.004760185722261667
1761379481701052700,6.242052734375,-0.00101468525826931,0.013134324923157692,-0.006415866781026125
1761379481711134700,6.252134765625,-0.014602665789425373,0.031979117542505264,0.011944498866796494
1761379481721217500,6.262217529296875,-0.008432921022176743,0.04976291209459305,0.02456841617822647
1761379481731299600,6.272299560546875,-0.01055492740124464,0.052272405475378036,0.026020102202892303
1761379481741381600,6.282381591796875,-0.009786384180188179,0.05310845375061035,0.019836869090795517
1761379481751463700,6.292463623046875,-0.009847637265920639,0.039764679968357086,0.009404467418789864
1761379481761545700,6.302545654296875,-0.00873433519154787,0.023365940898656845,-0.00034436839632689953
1761379481771627800,6.312627685546875,-0.010282430797815323,0.007577924057841301,-0.004891715943813324
1761379481781709600,6.32270947265625,-0.009929741732776165,-0.0035162847489118576,-0.00401900103315711
1761379481791791600,6.33279150390625,-0.009172072634100914,-0.0024851085618138313,-0.006744214333593845
1761379481801874700,6.342874755859375,-0.01380179263651371,0.005879275966435671,-0.0026691171806305647
1761379481811956700,6.352956787109375,-0.019112668931484222,0.0014451127499341965,0.009686618112027645
1761379481822038500,6.36303857421875,-0.021627701818943024,-0.0037035560235381126,0.0064511667005717754
1761379481832120600,6.37312060546875,-0.025143872946500778,-0.00588415190577507,0.002352029550820589
1761379481842202600,6.38320263671875,-0.02321458049118519,-0.012426535598933697,-0.00510755367577076
1761379481852284700,6.39328466796875,-0.024227380752563477,-0.012494179420173168,-0.005433790851384401
1761379481862366700,6.40336669921875,-0.02149985171854496,-0.01527166087180376,-0.0020652308594435453
1761379481872448800,6.41344873046875,-0.023015456274151802,-0.01951833814382553,0.0007249629124999046
1761379481882531600,6.423531494140625,-0.02218327298760414,-0.009865195490419865,-0.0015957389259710908
1761379481892613600,6.433613525390625,-0.027451537549495697,0.0043555512093007565,-0.0013685713056474924
1761379481902695700,6.44369580078125,-0.026693524792790413,0.014972672797739506,0.0064032115042209625
1761379481912777700,6.45377783203125,-0.02119329944252968,0.015227537602186203,0.013769514858722687
1761379481922859800,6.46385986328125,-0.016196753829717636,0.01931578293442726,0.017840689048171043
1761379481932941600,6.473941650390625,-0.01640954054892063,0.014348987489938736,0.011898111552000046
1761379481943023600,6.484023681640625,-0.012131830677390099,0.0005981046706438065,0.005214517004787922
1761379481953105700,6.494105712890625,-0.006835069507360458,-0.008506709709763527,-0.002629025373607874
1761379481963188700,6.504188720703125,-0.0056480406783521175,-0.018236014991998672,-0.0037797545082867146
1761379481973270500,6.5142705078125,-0.007915455847978592,-0.01216960046440363,-0.001493164338171482
1761379481983352600,6.5243525390625,-0.002122187986969948,-0.0032032448798418045,0.005865155719220638
1761379481993434600,6.5344345703125,-0.0035214126110076904,0.015991754829883575,0.0055112214758992195
1761379482003516700,6.5445166015625,-0.004631790332496166,0.024892713874578476,0.006756394170224667
1761379482013598700,6.5545986328125,-0.0022189663723111153,0.02328789234161377,0.008213143795728683
1761379482023680800,6.5646806640625,-0.003510192036628723,0.021601052954792976,0.006011795252561569
1761379482033762600,6.574762451171875,-0.0010366477072238922,0.01619776524603367,0.007930070161819458
1761379482043845400,6.584845458984375,-0.001515354961156845,0.011836746707558632,0.0037743779830634594
1761379482053927400,6.594927490234375,-0.001780073158442974,0.008503533899784088,0.0022095046006143093
1761379482064009500,6.605009521484375,-0.0018684091046452522,0.009157411754131317,0.004947838839143515
1761379482074091500,6.615091552734375,-0.0010548131540417671,0.012533767148852348,0.010665113106369972
1761379482084173600,6.625173583984375,-0.0033876933157444,0.011006282642483711,0.008804194629192352
1761379482094255400,6.63525537109375,-0.006209578365087509,0.010958611965179443,0.0047982679679989815
1761379482104337400,6.64533740234375,-0.009511013515293598,0.01565375365316868,0.0011156455148011446
1761379482114419500,6.65541943359375,-0.014635201543569565,0.018864993005990982,0.0038642941508442163
1761379482124502500,6.66550244140625,-0.013397290371358395,0.02586153708398342,0.006580067332834005
1761379482134584300,6.675584228515625,-0.01664128713309765,0.021015916019678116,0.018937401473522186
1761379482144666400,6.685666259765625,-0.01586148701608181,0.009205648675560951,0.02731255814433098
1761379482154748400,6.69574853515625,-0.011902431957423687,-0.0018941406160593033,0.024459514766931534
1761379482164830500,6.70583056640625,-0.009764246642589569,-0.01833273656666279,0.013901987113058567
1761379482174912500,6.71591259765625,-0.00850457139313221,-0.015793945640325546,-0.0063135358504951
1761379482184994600,6.72599462890625,-0.007561745587736368,-0.01595110446214676,-0.009387398138642311
1761379482195076400,6.736076416015625,-0.005195260979235172,-0.02119060605764389,-0.0008652827236801386
1761379482205159400,6.746159423828125,-0.0024994229897856712,-0.014317059889435768,0.0066796462051570415
1761379482215241500,6.756241455078125,0.0009222067892551422,-0.006289493292570114,0.005984827410429716
1761379482225323500,6.766323486328125,-0.0038771852850914,0.012939028441905975,0.006682529114186764
1761379482235405600,6.776405517578125,-0.003658273257315159,0.03600892797112465,0.003957848995923996
1761379482245487400,6.7864873046875,0.0013557737693190575,0.04772598668932915,0.01362562831491232
1761379482255569400,6.7965693359375,0.011133570224046707,0.0592271126806736,0.01980176568031311
1761379482265651500,6.8066513671875,0.021628975868225098,0.0745631530880928,0.018976937979459763
1761379482275733500,6.8167333984375,0.04290550574660301,0.08133850246667862,-0.0000023462343961000443
1761379482285816300,6.82681640625,0.0738215520977974,0.05834963917732239,-0.012740195728838444
1761379482295898400,6.8368984375,0.09642460197210312,0.04371822997927666,-0.026779314503073692
1761379482305980400,6.84698046875,0.1099746823310852,0.025554688647389412,-0.04891146719455719
1761379482316062500,6.8570625,0.10977787524461746,0.006682464852929115,-0.06113244965672493
1761379482326144500,6.86714453125,0.1243436336517334,0.012851409614086151,-0.08003772050142288
1761379482336226600,6.8772265625,0.12826700508594513,0.015043457970023155,-0.09953365474939346
1761379482346308400,6.887308349609375,0.1305682361125946,0.011709712445735931,-0.10563069581985474
1761379482356390400,6.897390380859375,0.12576895952224731,0.038394853472709656,-0.11441247165203094
1761379482366473500,6.907473388671875,0.10700443387031555,0.06495911628007889,-0.1237928718328476
1761379482376555500,6.917555419921875,0.10045359283685684,0.06488534808158875,-0.11336766183376312
1761379482386637600,6.927637451171875,0.08226223289966583,0.04808725789189339,-0.08465077728033066
1761379482396719400,6.93771923828125,0.05491102859377861,0.027209673076868057,-0.0416409894824028
1761379482406801400,6.947801513671875,0.03427685797214508,0.014543582685291767,-0.009280459024012089
1761379482416883500,6.957883544921875,0.0012478018179535866,0.007983684539794922,0.008509190753102303
1761379482426965500,6.967965576171875,-0.025935083627700806,0.003986812196671963,0.0149306058883667
1761379482437047600,6.978047607421875,-0.03804953396320343,-0.001944313757121563,0.010314015671610832
1761379482447130400,6.98813037109375,-0.034836817532777786,0.002938245888799429,0.0005811718292534351
1761379482457212400,6.99821240234375,-0.03846963495016098,-0.024507492780685425,0.0075983344577252865
1761379482467294500,7.00829443359375,-0.04172072559595108,-0.056440457701683044,0.012651348486542702
1761379482477376500,7.01837646484375,-0.03129338473081589,-0.06300807744264603,-0.010293115861713886
1761379482487458600,7.02845849609375,-0.029850322753190994,-0.06637976318597794,-0.01677643693983555
1761379482497540400,7.038540283203125,-0.021021679043769836,-0.0818316861987114,-0.004709920380264521
1761379482507622400,7.048622314453125,-0.008396139368414879,-0.08610973507165909,-0.009210347197949886
1761379482517704400,7.058704345703125,0.00991282518953085,-0.0739995464682579,-0.031851742416620255
1761379482527787500,7.06878759765625,0.018772069364786148,-0.07574041932821274,-0.04615795239806175
1761379482537869600,7.07886962890625,0.016601592302322388,-0.08767563849687576,-0.06501632928848267
1761379482547951400,7.088951416015625,0.01375680323690176,-0.08324964344501495,-0.0724579319357872
1761379482558033400,7.099033447265625,0.011311753652989864,-0.08785397559404373,-0.07997576892375946
1761379482568115500,7.109115478515625,0.010364529676735401,-0.07823745906352997,-0.08129707723855972
1761379482578197500,7.119197509765625,0.014774990268051624,-0.07955679297447205,-0.051784731447696686
1761379482588279600,7.129279541015625,0.015058368444442749,-0.10023041814565659,0.0026755123399198055
1761379482598361600,7.139361572265625,0.02276981808245182,-0.10149941593408585,0.01974211446940899
1761379482608444400,7.1494443359375,0.027953699231147766,-0.11524739116430283,0.018258558586239815
1761379482618526500,7.1595263671875,0.019828662276268005,-0.13364878296852112,0.008365446701645851
1761379482628608500,7.1696083984375,0.021654432639479637,-0.13073064386844635,-0.016928913071751595
1761379482638690600,7.179690673828125,0.019196337088942528,-0.1265321671962738,-0.03748878091573715
1761379482648772400,7.1897724609375,0.013632352463901043,-0.13263696432113647,-0.013820518739521503
1761379482658854400,7.1998544921875,0.026735905557870865,-0.08207312226295471,0.09243641793727875
1761379482668936400,7.2099365234375,0.011600441299378872,-0.008500837720930576,0.07774168998003006
1761379482679018500,7.2200185546875,0.0093058617785573,0.08174490928649902,0.02816615253686905
1761379482689100500,7.2301005859375,0.0020524775609374046,0.09927799552679062,0.026680033653974533
1761379482699183400,7.240183349609375,-0.011869729496538639,0.10446237772703171,0.011556741781532764
1761379482709265400,7.250265380859375,-0.010809415951371193,0.11442263424396515,-0.01121536921709776
1761379482719347500,7.260347412109375,-0.004357907921075821,0.1036544069647789,-0.022513296455144882
1761379482729429500,7.270429443359375,0.012562411837279797,0.0880659744143486,-0.05350571870803833
1761379482739511600,7.280511474609375,0.03702274709939957,0.04922083765268326,-0.08512195944786072
1761379482749593600,7.290593505859375,0.07268970459699631,-0.00966306310147047,-0.10063710063695908
1761379482759675400,7.30067529296875,0.08787505328655243,-0.08559750765562057,-0.1235637217760086
