time,seconds_elapsed,z,y,x
1761380419942739700,0.06873974609375,-1.0017852783203125,-0.03955078125,0.0179443359375
1761380419952821800,0.07882177734375,-0.9996337890625,-0.038055419921875,0.015289306640625
1761380419962904600,0.088904541015625,-0.9861602783203125,-0.0347442626953125,0.0092315673828125
1761380419972986600,0.098986572265625,-0.9934844970703125,-0.0366973876953125,0.0128173828125
1761380419983069700,0.109069580078125,-1.00146484375,-0.0400238037109375,0.0174407958984375
1761380419993152500,0.119152587890625,-0.991668701171875,-0.0367584228515625,0.013153076171875
1761380420003234600,0.129234619140625,-0.988067626953125,-0.036163330078125,0.0117645263671875
1761380420013316600,0.139316650390625,-0.9980316162109375,-0.03851318359375,0.0158538818359375
1761380420023399700,0.149399658203125,-0.996612548828125,-0.0388641357421875,0.01531982421875
1761380420033481500,0.1594814453125,-0.990264892578125,-0.036163330078125,0.011260986328125
1761380420043563500,0.1695634765625,-0.9933319091796875,-0.037200927734375,0.0133209228515625
1761380420053646600,0.179646484375,-0.998382568359375,-0.0381622314453125,0.0159912109375
1761380420063728600,0.189728759765625,-0.9928131103515625,-0.0368804931640625,0.0134429931640625
1761380420073810700,0.199810791015625,-0.9911346435546875,-0.0364532470703125,0.0136566162109375
1761380420083893500,0.2098935546875,-0.996368408203125,-0.0381622314453125,0.0155792236328125
1761380420093975600,0.2199755859375,-0.9962921142578125,-0.037750244140625,0.014984130859375
1761380420104058600,0.23005859375,-0.9922637939453125,-0.0360260009765625,0.0123748779296875
1761380420114140400,0.240140380859375,-0.995513916015625,-0.0370941162109375,0.013336181640625
1761380420124222500,0.250222412109375,-0.996063232421875,-0.0385589599609375,0.0151824951171875
1761380420134305500,0.260305419921875,-0.992645263671875,-0.036956787109375,0.01324462890625
1761380420144387600,0.2703876953125,-0.9923553466796875,-0.0361175537109375,0.01287841796875
1761380420154469400,0.280469482421875,-0.9963836669921875,-0.0380859375,0.014251708984375
1761380420164552700,0.290552734375,-0.995574951171875,-0.037139892578125,0.01348876953125
1761380420174634800,0.300634765625,-0.992340087890625,-0.0362396240234375,0.0127105712890625
1761380420184716800,0.310716796875,-0.9938507080078125,-0.03765869140625,0.0137176513671875
1761380420194799600,0.320799560546875,-0.99615478515625,-0.03717041015625,0.014312744140625
1761380420204881700,0.330881591796875,-0.9936370849609375,-0.0373382568359375,0.0135650634765625
1761380420214963700,0.340963623046875,-0.994415283203125,-0.037841796875,0.012542724609375
1761380420225046500,0.351046630859375,-0.9954376220703125,-0.0373992919921875,0.013916015625
1761380420235128600,0.361128662109375,-0.9950103759765625,-0.037078857421875,0.0146331787109375
1761380420245210600,0.371210693359375,-0.9923248291015625,-0.037109375,0.0133819580078125
1761380420255293700,0.381293701171875,-0.9939727783203125,-0.0379638671875,0.0135955810546875
1761380420265375500,0.39137548828125,-0.994964599609375,-0.0375213623046875,0.01458740234375
1761380420275457500,0.40145751953125,-0.993438720703125,-0.0364837646484375,0.0132293701171875
1761380420285540600,0.41154052734375,-0.9930419921875,-0.03631591796875,0.0130767822265625
1761380420295622700,0.42162255859375,-0.994354248046875,-0.037872314453125,0.01446533203125
1761380420305704700,0.43170458984375,-0.9940948486328125,-0.0369873046875,0.0138092041015625
1761380420315787500,0.44178759765625,-0.9931488037109375,-0.0371246337890625,0.013427734375
1761380420325869600,0.45186962890625,-0.9945068359375,-0.03765869140625,0.0137481689453125
1761380420335951600,0.46195166015625,-0.994781494140625,-0.037445068359375,0.0135040283203125
1761380420346034400,0.472034423828125,-0.99346923828125,-0.036895751953125,0.013885498046875
1761380420356116500,0.482116455078125,-0.9946746826171875,-0.0373382568359375,0.0133514404296875
1761380420366198500,0.492198486328125,-0.994903564453125,-0.0372772216796875,0.013397216796875
1761380420376281600,0.502281494140625,-0.9937896728515625,-0.03692626953125,0.0135955810546875
1761380420386363400,0.51236328125,-0.993438720703125,-0.0367584228515625,0.013671875
1761380420396445400,0.522445556640625,-0.994171142578125,-0.0372772216796875,0.0136260986328125
1761380420406528500,0.532528564453125,-0.9954376220703125,-0.0369720458984375,0.013763427734375
1761380420416610600,0.542610595703125,-0.993988037109375,-0.0367431640625,0.013214111328125
1761380420426692600,0.552692626953125,-0.993988037109375,-0.0371856689453125,0.014556884765625
1761380420436775700,0.562775634765625,-0.9943389892578125,-0.0377655029296875,0.0136566162109375
1761380420446857700,0.572857666015625,-0.99383544921875,-0.036956787109375,0.01361083984375
1761380420456939800,0.582939697265625,-0.9937286376953125,-0.037506103515625,0.01361083984375
1761380420467022600,0.593022705078125,-0.99481201171875,-0.0371551513671875,0.013519287109375
1761380420477104600,0.603104736328125,-0.994354248046875,-0.0372467041015625,0.0137176513671875
1761380420487186700,0.613186767578125,-0.993011474609375,-0.0378875732421875,0.01397705078125
1761380420497269500,0.62326953125,-0.9951171875,-0.0368499755859375,0.01385498046875
1761380420507351600,0.6333515625,-0.9953460693359375,-0.0378875732421875,0.014068603515625
1761380420517434600,0.6434345703125,-0.9937744140625,-0.0373077392578125,0.0138092041015625
1761380420527516700,0.6535166015625,-0.9934539794921875,-0.036956787109375,0.014434814453125
1761380420537598700,0.6635986328125,-0.9948272705078125,-0.036865234375,0.0134429931640625
1761380420547681500,0.673681640625,-0.9936065673828125,-0.0367431640625,0.0134124755859375
1761380420557763600,0.683763671875,-0.9946136474609375,-0.036834716796875,0.0137176513671875
1761380420567845600,0.693845703125,-0.9951171875,-0.03741455078125,0.0137786865234375
1761380420577928400,0.703928466796875,-0.995025634765625,-0.0368499755859375,0.013702392578125
1761380420588010500,0.714010498046875,-0.9936065673828125,-0.036834716796875,0.0133056640625
1761380420598092500,0.724092529296875,-0.9930877685546875,-0.03692626953125,0.0131988525390625
1761380420608175600,0.734175537109375,-0.9947509765625,-0.0369873046875,0.0140533447265625
1761380420618257400,0.74425732421875,-0.9939117431640625,-0.036834716796875,0.013397216796875
1761380420628339500,0.75433935546875,-0.993988037109375,-0.0373687744140625,0.0135345458984375
1761380420638422500,0.764422607421875,-0.994537353515625,-0.0371551513671875,0.01416015625
1761380420648504600,0.774504638671875,-0.993621826171875,-0.037322998046875,0.0141143798828125
1761380420658586600,0.784586669921875,-0.993865966796875,-0.0377349853515625,0.013458251953125
1761380420668669700,0.794669677734375,-0.9944915771484375,-0.0372467041015625,0.0132293701171875
1761380420678751700,0.804751708984375,-0.9944610595703125,-0.037200927734375,0.0137786865234375
1761380420688833500,0.81483349609375,-0.99359130859375,-0.0371856689453125,0.0135345458984375
1761380420698916600,0.82491650390625,-0.993896484375,-0.037261962890625,0.0146484375
1761380420708998700,0.83499853515625,-0.995086669921875,-0.0367889404296875,0.0141754150390625
1761380420719080700,0.845080810546875,-0.9943695068359375,-0.0367279052734375,0.0126953125
1761380420729163500,0.85516357421875,-0.9937896728515625,-0.037078857421875,0.0140228271484375
1761380420739245600,0.86524560546875,-0.9952850341796875,-0.037353515625,0.0139007568359375
1761380420749327600,0.87532763671875,-0.995208740234375,-0.037139892578125,0.0135955810546875
1761380420759410700,0.88541064453125,-0.994049072265625,-0.0370635986328125,0.0136566162109375
1761380420769492700,0.89549267578125,-0.99444580078125,-0.0383148193359375,0.014556884765625
1761380420779574500,0.905574462890625,-0.99456787109375,-0.0372467041015625,0.0137939453125
1761380420789657600,0.91565771484375,-0.99444580078125,-0.0374298095703125,0.013427734375
1761380420799739600,0.92573974609375,-0.99371337890625,-0.0374908447265625,0.0141754150390625
1761380420809821700,0.93582177734375,-0.994293212890625,-0.0367431640625,0.0140838623046875
1761380420819904500,0.945904541015625,-0.99371337890625,-0.0374755859375,0.0135040283203125
1761380420829986600,0.955986572265625,-0.993133544921875,-0.0375518798828125,0.0134429931640625
1761380420840069600,0.966069580078125,-0.9945068359375,-0.0372772216796875,0.0137481689453125
1761380420850151400,0.9761513671875,-0.9940643310546875,-0.037445068359375,0.01422119140625
1761380420860233500,0.9862333984375,-0.995086669921875,-0.03680419921875,0.0136260986328125
1761380420870316500,0.996316650390625,-0.994110107421875,-0.0374755859375,0.0140380859375
1761380420880398600,1.006398681640625,-0.9936981201171875,-0.037353515625,0.0138397216796875
1761380420890480600,1.016480712890625,-0.993560791015625,-0.037689208984375,0.0141448974609375
1761380420900563500,1.0265634765625,-0.994598388671875,-0.0367889404296875,0.013580322265625
1761380420910645500,1.0366455078125,-0.9944610595703125,-0.03656005859375,0.013946533203125
1761380420920727600,1.0467275390625,-0.993011474609375,-0.0366058349609375,0.013763427734375
1761380420930810600,1.056810546875,-0.9938201904296875,-0.0371856689453125,0.0140533447265625
1761380420940892700,1.066892578125,-0.9950103759765625,-0.0370635986328125,0.01361083984375
1761380420950974700,1.076974609375,-0.99456787109375,-0.036956787109375,0.013336181640625
1761380420961057500,1.0870576171875,-0.994384765625,-0.0369415283203125,0.0141754150390625
1761380420971139600,1.0971396484375,-0.9940185546875,-0.0367279052734375,0.0137176513671875
1761380420981221600,1.1072216796875,-0.992919921875,-0.03741455078125,0.01373291015625
1761380420991304200,1.11730419921875,-0.9932098388671875,-0.03729248046875,0.014892578125
1761380421001386200,1.12738623046875,-0.993865966796875,-0.0373687744140625,0.0136871337890625
1761380421011468300,1.13746826171875,-0.994781494140625,-0.0368499755859375,0.0125732421875
1761380421021551000,1.147551025390625,-0.99462890625,-0.03778076171875,0.01416015625
1761380421031633200,1.157633056640625,-0.9937896728515625,-0.037567138671875,0.014129638671875
1761380421041716200,1.16771630859375,-0.994598388671875,-0.037445068359375,0.0138092041015625
1761380421051798000,1.177798095703125,-0.993927001953125,-0.0373992919921875,0.01312255859375
1761380421061880000,1.187880126953125,-0.9938812255859375,-0.0372467041015625,0.0136871337890625
1761380421071963100,1.197963134765625,-0.9948577880859375,-0.0378265380859375,0.01422119140625
1761380421082045200,1.208045166015625,-0.99346923828125,-0.0367431640625,0.013916015625
1761380421092127000,1.218126953125,-0.9945831298828125,-0.036865234375,0.013458251953125
1761380421102210300,1.228210205078125,-0.9945831298828125,-0.0369110107421875,0.0140228271484375
1761380421112292400,1.238292236328125,-0.9939422607421875,-0.0368804931640625,0.0133209228515625
1761380421122374100,1.2483740234375,-0.9936676025390625,-0.0369873046875,0.0137176513671875
1761380421132457200,1.258457275390625,-0.993316650390625,-0.037628173828125,0.0141754150390625
1761380421142539300,1.268539306640625,-0.994537353515625,-0.0373382568359375,0.0140533447265625
1761380421152621300,1.278621337890625,-0.9923858642578125,-0.0383758544921875,0.01397705078125
1761380421162704100,1.2887041015625,-0.9935150146484375,-0.0367889404296875,0.0137939453125
1761380421172786200,1.2987861328125,-0.9941864013671875,-0.036895751953125,0.0139923095703125
1761380421182868200,1.3088681640625,-0.993316650390625,-0.0372772216796875,0.0131683349609375
1761380421192951300,1.318951416015625,-0.9945526123046875,-0.0372161865234375,0.014129638671875
1761380421203033000,1.329033203125,-0.9931182861328125,-0.0377197265625,0.01300048828125
1761380421213115100,1.339115234375,-0.9941558837890625,-0.037445068359375,0.013641357421875
1761380421223198200,1.3491982421875,-0.9944000244140625,-0.0373077392578125,0.0136566162109375
1761380421233280300,1.3592802734375,-0.9938201904296875,-0.0372772216796875,0.013641357421875
1761380421243362300,1.3693623046875,-0.99359130859375,-0.037506103515625,0.014556884765625
1761380421253445000,1.379445068359375,-0.9936981201171875,-0.03717041015625,0.0140380859375
1761380421263527200,1.389527099609375,-0.99481201171875,-0.0370330810546875,0.0138092041015625
1761380421273609200,1.399609130859375,-0.9943695068359375,-0.0364837646484375,0.013427734375
1761380421283692000,1.409692138671875,-0.9942779541015625,-0.037445068359375,0.013427734375
1761380421293774000,1.419774169921875,-0.9943084716796875,-0.037689208984375,0.0134124755859375
1761380421303857200,1.429857177734375,-0.9933013916015625,-0.0377655029296875,0.0134124755859375
1761380421313939200,1.439939208984375,-0.994171142578125,-0.0367279052734375,0.013885498046875
1761380421324021000,1.45002099609375,-0.9947357177734375,-0.037261962890625,0.0148773193359375
1761380421334104000,1.46010400390625,-0.9941864013671875,-0.0374755859375,0.0136260986328125
1761380421344186000,1.47018603515625,-0.994598388671875,-0.0375518798828125,0.0137176513671875
1761380421354268200,1.48026806640625,-0.9934539794921875,-0.03692626953125,0.0137786865234375
1761380421364351200,1.490351318359375,-0.993377685546875,-0.0370941162109375,0.01422119140625
1761380421374433300,1.500433349609375,-0.9933013916015625,-0.037078857421875,0.0123291015625
1761380421384515300,1.510515380859375,-0.9942169189453125,-0.0377197265625,0.0133514404296875
1761380421394598100,1.52059814453125,-0.9933013916015625,-0.0376739501953125,0.01397705078125
1761380421404680200,1.53068017578125,-0.9935302734375,-0.037078857421875,0.0134429931640625
1761380421414762200,1.54076220703125,-0.993408203125,-0.0364837646484375,0.01348876953125
1761380421424845300,1.55084521484375,-0.9947357177734375,-0.0369720458984375,0.0139312744140625
1761380421434927000,1.560927001953125,-0.9938812255859375,-0.0374908447265625,0.01434326171875
1761380421445009200,1.571009033203125,-0.993865966796875,-0.0375213623046875,0.01336669921875
1761380421455092200,1.58109228515625,-0.994903564453125,-0.03741455078125,0.0134124755859375
1761380421465174300,1.59117431640625,-0.9939727783203125,-0.0367431640625,0.013519287109375
1761380421475256300,1.60125634765625,-0.9940032958984375,-0.0368194580078125,0.0135345458984375
1761380421485339100,1.611339111328125,-0.99267578125,-0.036773681640625,0.0142974853515625
1761380421495421200,1.621421142578125,-0.9941253662109375,-0.0374603271484375,0.0136260986328125
1761380421505503200,1.631503173828125,-0.993377685546875,-0.0373992919921875,0.0129241943359375
1761380421515586000,1.6415859375,-0.994476318359375,-0.0367431640625,0.013275146484375
1761380421525668000,1.651668212890625,-0.9942779541015625,-0.0374603271484375,0.0142669677734375
1761380421535751200,1.661751220703125,-0.993194580078125,-0.0372467041015625,0.0139617919921875
1761380421545833200,1.671833251953125,-0.9933319091796875,-0.037078857421875,0.0139007568359375
1761380421555915000,1.6819150390625,-0.993438720703125,-0.0375213623046875,0.01361083984375
1761380421565998000,1.691998046875,-0.9937896728515625,-0.0373992919921875,0.0144805908203125
1761380421576080100,1.702080078125,-0.99383544921875,-0.03717041015625,0.0133819580078125
1761380421586162200,1.712162109375,-0.995208740234375,-0.0372467041015625,0.0137176513671875
1761380421596245200,1.722245361328125,-0.9933624267578125,-0.0372772216796875,0.0137481689453125
1761380421606327000,1.7323271484375,-0.99395751953125,-0.0361480712890625,0.0131072998046875
1761380421616409000,1.7424091796875,-0.9945220947265625,-0.036376953125,0.013824462890625
1761380421626492200,1.7524921875,-0.9947357177734375,-0.0367431640625,0.0141143798828125
1761380421636574200,1.76257421875,-0.9937896728515625,-0.036773681640625,0.0138092041015625
1761380421646656300,1.77265625,-0.9931640625,-0.036956787109375,0.0137786865234375
1761380421656739300,1.7827392578125,-0.9943695068359375,-0.0373382568359375,0.014251708984375
1761380421666821000,1.792821044921875,-0.9935150146484375,-0.037384033203125,0.014312744140625
1761380421676903200,1.802903076171875,-0.99395751953125,-0.037261962890625,0.01422119140625
1761380421686986200,1.812986328125,-0.995269775390625,-0.0372161865234375,0.0135040283203125
1761380421697068300,1.823068359375,-0.9938201904296875,-0.0374298095703125,0.013702392578125
1761380421707150300,1.833150390625,-0.9940643310546875,-0.0370330810546875,0.013336181640625
1761380421717233200,1.843233154296875,-0.993896484375,-0.0373382568359375,0.0138397216796875
1761380421727315200,1.853315185546875,-0.9938201904296875,-0.0377655029296875,0.0146484375
1761380421737398300,1.863398193359375,-0.9940643310546875,-0.037506103515625,0.013702392578125
1761380421747480000,1.87347998046875,-0.9938507080078125,-0.0364990234375,0.0139923095703125
1761380421757562000,1.88356201171875,-0.9940338134765625,-0.035980224609375,0.013519287109375
1761380421767645200,1.893645263671875,-0.994537353515625,-0.036773681640625,0.0133209228515625
1761380421777727200,1.903727294921875,-0.995208740234375,-0.037109375,0.0134429931640625
1761380421787809000,1.91380908203125,-0.9937286376953125,-0.037353515625,0.012176513671875
1761380421797892000,1.92389208984375,-0.9938507080078125,-0.037322998046875,0.013641357421875
1761380421807974100,1.93397412109375,-0.994720458984375,-0.0375823974609375,0.0136566162109375
1761380421818056200,1.94405615234375,-0.99346923828125,-0.0373077392578125,0.014312744140625
1761380421828139000,1.954138916015625,-0.9938507080078125,-0.0370635986328125,0.01373291015625
1761380421838221000,1.964220947265625,-0.9940338134765625,-0.0371551513671875,0.0140380859375
1761380421848303000,1.97430322265625,-0.99468994140625,-0.0371551513671875,0.0145416259765625
1761380421858386200,1.98438623046875,-0.994415283203125,-0.03680419921875,0.0135345458984375
1761380421868468200,1.99446826171875,-0.99444580078125,-0.0368194580078125,0.0136260986328125
1761380421878550300,2.00455029296875,-0.9942474365234375,-0.037261962890625,0.014251708984375
1761380421888633300,2.01463330078125,-0.9945220947265625,-0.0367431640625,0.013397216796875
1761380421898715100,2.024715087890625,-0.9937286376953125,-0.0372314453125,0.0137786865234375
1761380421908797200,2.034797119140625,-0.995086669921875,-0.0372161865234375,0.0138702392578125
1761380421918880300,2.04488037109375,-0.994110107421875,-0.03729248046875,0.013824462890625
1761380421928962300,2.05496240234375,-0.993927001953125,-0.0366668701171875,0.013641357421875
1761380421939045000,2.065045166015625,-0.9934234619140625,-0.0368194580078125,0.0138397216796875
1761380421949127200,2.075127197265625,-0.9946746826171875,-0.03729248046875,0.0136566162109375
1761380421959209200,2.085209228515625,-0.9941253662109375,-0.0379638671875,0.01434326171875
1761380421969292300,2.095292236328125,-0.9933319091796875,-0.036712646484375,0.0142822265625
1761380421979374000,2.1053740234375,-0.994537353515625,-0.0372314453125,0.0136260986328125
1761380421989456600,2.11545654296875,-0.99468994140625,-0.03778076171875,0.01348876953125
1761380421999539700,2.125539794921875,-0.993438720703125,-0.0374603271484375,0.0131072998046875
1761380422009621500,2.13562158203125,-0.99432373046875,-0.0368194580078125,0.0138092041015625
1761380422019703600,2.14570361328125,-0.9942626953125,-0.037567138671875,0.0139312744140625
1761380422029786600,2.15578662109375,-0.9940032958984375,-0.037078857421875,0.0134735107421875
1761380422039868700,2.16586865234375,-0.994384765625,-0.0370941162109375,0.0129852294921875
1761380422049950700,2.17595068359375,-0.9940032958984375,-0.036834716796875,0.01422119140625
1761380422060033500,2.186033447265625,-0.9942779541015625,-0.0370330810546875,0.013580322265625
1761380422070115600,2.196115478515625,-0.994537353515625,-0.03704833984375,0.013336181640625
1761380422080197600,2.20619775390625,-0.993682861328125,-0.0376129150390625,0.0144805908203125
1761380422090280700,2.21628076171875,-0.993682861328125,-0.0375823974609375,0.014404296875
1761380422100362800,2.22636279296875,-0.995208740234375,-0.0372467041015625,0.0125732421875
1761380422110444800,2.23644482421875,-0.9949951171875,-0.0370635986328125,0.0131683349609375
1761380422120528000,2.24652783203125,-0.9942169189453125,-0.0378265380859375,0.0133819580078125
1761380422130609700,2.256609619140625,-0.9944000244140625,-0.037109375,0.012481689453125
1761380422140692700,2.266692626953125,-0.99407958984375,-0.0372772216796875,0.0136871337890625
1761380422150774800,2.27677490234375,-0.994171142578125,-0.03826904296875,0.01416015625
1761380422160856800,2.28685693359375,-0.9931793212890625,-0.0370025634765625,0.0140380859375
1761380422170939600,2.296939697265625,-0.9937744140625,-0.0363006591796875,0.0140838623046875
1761380422181021700,2.307021728515625,-0.992950439453125,-0.037353515625,0.014190673828125
1761380422191103700,2.317103759765625,-0.993896484375,-0.0374603271484375,0.0139617919921875
1761380422201186600,2.3271865234375,-0.993804931640625,-0.0373992919921875,0.0135650634765625
1761380422211268600,2.3372685546875,-0.993804931640625,-0.03717041015625,0.014373779296875
1761380422221350700,2.3473505859375,-0.9937744140625,-0.0372467041015625,0.0141143798828125
1761380422231433700,2.357433837890625,-0.994354248046875,-0.03759765625,0.012939453125
1761380422241515500,2.367515625,-0.9944915771484375,-0.0376434326171875,0.013946533203125
1761380422251597600,2.37759765625,-0.9932098388671875,-0.0377197265625,0.01385498046875
1761380422261680600,2.3876806640625,-0.9945526123046875,-0.0377044677734375,0.014190673828125
1761380422271762700,2.3977626953125,-0.99346923828125,-0.037353515625,0.01422119140625
1761380422281844700,2.4078447265625,-0.9939727783203125,-0.0374603271484375,0.013641357421875
1761380422291927600,2.417927490234375,-0.9935455322265625,-0.03741455078125,0.0143585205078125
1761380422302009600,2.428009521484375,-0.9945526123046875,-0.0377655029296875,0.013427734375
1761380422312091600,2.438091552734375,-0.994598388671875,-0.0369110107421875,0.014129638671875
1761380422322174700,2.4481748046875,-0.9946136474609375,-0.035980224609375,0.013702392578125
1761380422332256800,2.4582568359375,-0.9937286376953125,-0.037811279296875,0.0123291015625
1761380422342339800,2.46833984375,-0.994537353515625,-0.0373687744140625,0.0134429931640625
1761380422352422000,2.478421875,-0.993988037109375,-0.0366058349609375,0.0139007568359375
1761380422362503700,2.488503662109375,-0.993499755859375,-0.03729248046875,0.0133514404296875
1761380422372586800,2.498586669921875,-0.9939117431640625,-0.037384033203125,0.0134124755859375
1761380422382668800,2.508668701171875,-0.99481201171875,-0.0377349853515625,0.0138092041015625
1761380422392750800,2.518750732421875,-0.994384765625,-0.0373382568359375,0.013092041015625
1761380422402833700,2.528833740234375,-0.993927001953125,-0.03729248046875,0.013397216796875
1761380422412915700,2.538915771484375,-0.99432373046875,-0.037506103515625,0.0140380859375
1761380422422997800,2.548997802734375,-0.993621826171875,-0.0373687744140625,0.014190673828125
1761380422433080600,2.55908056640625,-0.99322509765625,-0.0374603271484375,0.013458251953125
1761380422443162600,2.56916259765625,-0.9938201904296875,-0.037750244140625,0.0139312744140625
1761380422453244700,2.57924462890625,-0.99407958984375,-0.0368804931640625,0.0144500732421875
1761380422463327700,2.58932763671875,-0.994476318359375,-0.0367889404296875,0.013671875
1761380422473409500,2.599409423828125,-0.993011474609375,-0.0366363525390625,0.01300048828125
1761380422483491600,2.60949169921875,-0.9937744140625,-0.03717041015625,0.0134735107421875
1761380422493574700,2.61957470703125,-0.9944915771484375,-0.0374298095703125,0.0136566162109375
1761380422503656700,2.62965673828125,-0.9930572509765625,-0.0373077392578125,0.0135040283203125
1761380422513738800,2.63973876953125,-0.9945831298828125,-0.0373382568359375,0.0143890380859375
1761380422523821600,2.649821533203125,-0.9948577880859375,-0.036773681640625,0.013763427734375
1761380422533903600,2.659903564453125,-0.994384765625,-0.036865234375,0.0128021240234375
1761380422543986400,2.669986328125,-0.9930419921875,-0.03656005859375,0.0136871337890625
1761380422554068500,2.680068359375,-0.994476318359375,-0.0370330810546875,0.0135345458984375
1761380422564150500,2.690150634765625,-0.9931488037109375,-0.0369720458984375,0.0130462646484375
1761380422574233900,2.70023388671875,-0.99334716796875,-0.0370330810546875,0.0133514404296875
1761380422584316000,2.71031591796875,-0.994384765625,-0.0371246337890625,0.0142822265625
1761380422594397700,2.720397705078125,-0.9940643310546875,-0.0366668701171875,0.014373779296875
1761380422604480800,2.730480712890625,-0.9936981201171875,-0.0367431640625,0.013885498046875
1761380422614562800,2.740562744140625,-0.9945220947265625,-0.037384033203125,0.013580322265625
1761380422624644900,2.750644775390625,-0.9940185546875,-0.0372467041015625,0.0130615234375
1761380422634727700,2.760727783203125,-0.9934844970703125,-0.0369415283203125,0.013671875
1761380422644809700,2.770809814453125,-0.993682861328125,-0.036407470703125,0.01312255859375
1761380422654891800,2.780891845703125,-0.9941253662109375,-0.0365447998046875,0.0139007568359375
1761380422664974600,2.790974609375,-0.99346923828125,-0.037353515625,0.01385498046875
1761380422675056600,2.801056640625,-0.9936370849609375,-0.0371246337890625,0.013671875
1761380422685138700,2.811138671875,-0.9936370849609375,-0.0373077392578125,0.0140533447265625
1761380422695221800,2.8212216796875,-0.9937286376953125,-0.037139892578125,0.0129852294921875
1761380422705303600,2.831303466796875,-0.99505615234375,-0.0377044677734375,0.013275146484375
1761380422715385600,2.841385498046875,-0.993927001953125,-0.0369873046875,0.013214111328125
1761380422725468700,2.85146875,-0.9944610595703125,-0.0377349853515625,0.0143585205078125
1761380422735550700,2.86155078125,-0.9932861328125,-0.0376739501953125,0.0140533447265625
1761380422745633500,2.871633544921875,-0.9944000244140625,-0.037445068359375,0.013916015625
1761380422755715600,2.881715576171875,-0.994354248046875,-0.037200927734375,0.01348876953125
1761380422765797600,2.891797607421875,-0.9934539794921875,-0.0373077392578125,0.0136871337890625
1761380422775880400,2.90188037109375,-0.9937591552734375,-0.0374298095703125,0.0135650634765625
1761380422785962500,2.91196240234375,-0.993072509765625,-0.0375518798828125,0.01409912109375
1761380422796044500,2.92204443359375,-0.9949493408203125,-0.037322998046875,0.0141754150390625
1761380422806127900,2.9321279296875,-0.9941558837890625,-0.0370025634765625,0.013885498046875
1761380422816210000,2.9422099609375,-0.9938812255859375,-0.03729248046875,0.0136871337890625
1761380422826291500,2.95229150390625,-0.9926605224609375,-0.036956787109375,0.014678955078125
1761380422836374800,2.962374755859375,-0.994415283203125,-0.0371551513671875,0.0142822265625
1761380422846456800,2.972456787109375,-0.99365234375,-0.036834716796875,0.0144805908203125
1761380422856539000,2.982538818359375,-0.9933929443359375,-0.0376739501953125,0.0142059326171875
1761380422866621700,2.99262158203125,-0.9936065673828125,-0.0369720458984375,0.013275146484375
1761380422876703700,3.002703857421875,-0.9942169189453125,-0.036956787109375,0.01373291015625
1761380422886785800,3.012785888671875,-0.9936981201171875,-0.0368499755859375,0.0135650634765625
1761380422896868600,3.02286865234375,-0.9940032958984375,-0.0364227294921875,0.0134429931640625
1761380422906950700,3.03295068359375,-0.9934234619140625,-0.0369720458984375,0.0136566162109375
1761380422917032700,3.04303271484375,-0.993499755859375,-0.0370025634765625,0.0137481689453125
1761380422927115800,3.05311572265625,-0.994720458984375,-0.036895751953125,0.014404296875
1761380422937197600,3.063197509765625,-0.9952392578125,-0.0367584228515625,0.0140533447265625
1761380422947279600,3.073279541015625,-0.9944915771484375,-0.036590576171875,0.013946533203125
1761380422957362700,3.08336279296875,-0.993194580078125,-0.03704833984375,0.0147247314453125
1761380422967444700,3.09344482421875,-0.9938812255859375,-0.0374603271484375,0.0138702392578125
1761380422977527600,3.103527587890625,-0.994171142578125,-0.0369720458984375,0.013946533203125
1761380422987612700,3.11361279296875,-0.9950408935546875,-0.0375213623046875,0.0145263671875
1761380422997694700,3.12369482421875,-0.9940643310546875,-0.0370025634765625,0.0128021240234375
1761380423007778000,3.133778076171875,-0.993560791015625,-0.0375518798828125,0.0131988525390625
1761380423017859800,3.14385986328125,-0.9944610595703125,-0.0375213623046875,0.0138092041015625
1761380423027942000,3.15394189453125,-0.9950408935546875,-0.0368499755859375,0.0131072998046875
1761380423038025000,3.16402490234375,-0.9948272705078125,-0.0375823974609375,0.0131988525390625
1761380423048107000,3.17410693359375,-0.9929046630859375,-0.037353515625,0.013702392578125
1761380423058188800,3.184188720703125,-0.9943389892578125,-0.0374755859375,0.0141448974609375
1761380423068271900,3.19427197265625,-0.993865966796875,-0.0372467041015625,0.0141754150390625
1761380423078354000,3.20435400390625,-0.99420166015625,-0.0373992919921875,0.0139923095703125
1761380423088436000,3.21443603515625,-0.994873046875,-0.0372772216796875,0.0141754150390625
1761380423098518800,3.224518798828125,-0.994110107421875,-0.0377044677734375,0.01434326171875
1761380423108600800,3.234600830078125,-0.9943389892578125,-0.0378265380859375,0.013275146484375
1761380423118683000,3.244682861328125,-0.994476318359375,-0.0368804931640625,0.0134429931640625
1761380423128765700,3.254765625,-0.994140625,-0.03814697265625,0.01416015625
1761380423138847700,3.26484765625,-0.9936676025390625,-0.03692626953125,0.01434326171875
1761380423148929800,3.2749296875,-0.993865966796875,-0.0366973876953125,0.013885498046875
1761380423159012900,3.285012939453125,-0.9944305419921875,-0.036773681640625,0.01422119140625
1761380423169095000,3.295094970703125,-0.9938507080078125,-0.03729248046875,0.014373779296875
1761380423179177700,3.305177734375,-0.9937744140625,-0.037353515625,0.0141143798828125
1761380423189259800,3.315259765625,-0.993865966796875,-0.0372467041015625,0.013214111328125
1761380423199341800,3.325341796875,-0.9940643310546875,-0.0369720458984375,0.014129638671875
1761380423209424600,3.335424560546875,-0.99407958984375,-0.037506103515625,0.0139617919921875
1761380423219506700,3.345506591796875,-0.9942626953125,-0.0372161865234375,0.014129638671875
1761380423229588700,3.355588623046875,-0.99407958984375,-0.03692626953125,0.0137176513671875
1761380423239672000,3.365672119140625,-0.9944915771484375,-0.0372314453125,0.0131072998046875
1761380423249753900,3.37575390625,-0.993377685546875,-0.0377197265625,0.013458251953125
1761380423259836000,3.3858359375,-0.9935455322265625,-0.036712646484375,0.01324462890625
1761380423269919000,3.3959189453125,-0.9942779541015625,-0.0370025634765625,0.0127716064453125
1761380423280001000,3.4060009765625,-0.9935455322265625,-0.03765869140625,0.0135498046875
1761380423290082800,3.416082763671875,-0.9940338134765625,-0.036895751953125,0.0139617919921875
1761380423300166000,3.426165771484375,-0.994110107421875,-0.0374908447265625,0.0137786865234375
1761380423310248000,3.436248046875,-0.9937591552734375,-0.0370635986328125,0.0135650634765625
1761380423320330000,3.446330078125,-0.9940338134765625,-0.0371856689453125,0.0136871337890625
1761380423330412800,3.456412841796875,-0.99383544921875,-0.0371246337890625,0.013824462890625
1761380423340494800,3.466494873046875,-0.9950103759765625,-0.037261962890625,0.014190673828125
1761380423350577000,3.476576904296875,-0.9939422607421875,-0.0368194580078125,0.01385498046875
1761380423360659700,3.48665966796875,-0.99395751953125,-0.037200927734375,0.0142059326171875
1761380423370741800,3.49674169921875,-0.99456787109375,-0.0367431640625,0.0134124755859375
1761380423380823800,3.50682373046875,-0.9937591552734375,-0.037109375,0.0131683349609375
1761380423390907000,3.516906982421875,-0.994293212890625,-0.0368499755859375,0.0144805908203125
1761380423400989000,3.526989013671875,-0.994415283203125,-0.0372314453125,0.01434326171875
1761380423411071700,3.53707177734375,-0.994842529296875,-0.0377349853515625,0.0133819580078125
1761380423421153800,3.54715380859375,-0.9945220947265625,-0.03662109375,0.013214111328125
1761380423431235800,3.55723583984375,-0.994171142578125,-0.037109375,0.0141143798828125
1761380423441318700,3.567318603515625,-0.9953765869140625,-0.03778076171875,0.0141754150390625
1761380423451400700,3.577400634765625,-0.9943084716796875,-0.037353515625,0.014129638671875
1761380423461482800,3.587482666015625,-0.99444580078125,-0.036651611328125,0.0142669677734375
1761380423471565800,3.59756591796875,-0.994384765625,-0.0373992919921875,0.0145416259765625
1761380423481647600,3.607647705078125,-0.9936065673828125,-0.0376739501953125,0.01312255859375
1761380423491729700,3.617729736328125,-0.99365234375,-0.0377960205078125,0.01446533203125
1761380423501813000,3.62781298828125,-0.9938812255859375,-0.03680419921875,0.01312255859375
1761380423511895000,3.63789501953125,-0.99359130859375,-0.0369415283203125,0.0129241943359375
1761380423521976800,3.647976806640625,-0.9945526123046875,-0.0369720458984375,0.0138702392578125
1761380423532060000,3.658059814453125,-0.994537353515625,-0.036590576171875,0.01275634765625
1761380423542142000,3.668141845703125,-0.994232177734375,-0.0374908447265625,0.0138397216796875
1761380423552224000,3.67822412109375,-0.9942779541015625,-0.03753662109375,0.0137786865234375
1761380423562306800,3.688306884765625,-0.99383544921875,-0.036865234375,0.013397216796875
1761380423572388900,3.698388916015625,-0.9944305419921875,-0.0369415283203125,0.0138702392578125
1761380423582471000,3.708470947265625,-0.993621826171875,-0.037078857421875,0.014007568359375
1761380423592553700,3.7185537109375,-0.9932861328125,-0.0364837646484375,0.012908935546875
1761380423602635800,3.7286357421875,-0.9949951171875,-0.03692626953125,0.014068603515625
1761380423612717800,3.7387177734375,-0.99493408203125,-0.036773681640625,0.01361083984375
1761380423622801000,3.74880078125,-0.99273681640625,-0.0373382568359375,0.0137939453125
1761380423632883000,3.758883056640625,-0.993743896484375,-0.0373382568359375,0.013275146484375
1761380423642964700,3.76896484375,-0.9945220947265625,-0.037628173828125,0.014251708984375
1761380423653047800,3.7790478515625,-0.9947662353515625,-0.0374298095703125,0.013519287109375
1761380423663129900,3.7891298828125,-0.9951934814453125,-0.0368804931640625,0.013427734375
1761380423673212000,3.7992119140625,-0.9936370849609375,-0.0376129150390625,0.0140380859375
1761380423683294700,3.809294677734375,-0.994415283203125,-0.0372314453125,0.0139617919921875
1761380423693376800,3.819376708984375,-0.9933013916015625,-0.037017822265625,0.014190673828125
1761380423703459800,3.8294599609375,-0.9938507080078125,-0.037384033203125,0.013458251953125
1761380423713541600,3.839541748046875,-0.9947967529296875,-0.0369415283203125,0.013885498046875
1761380423723623700,3.849623779296875,-0.994140625,-0.0373077392578125,0.014251708984375
1761380423733707000,3.85970703125,-0.9935760498046875,-0.037384033203125,0.0138092041015625
1761380423743789000,3.8697890625,-0.9943695068359375,-0.0376739501953125,0.014068603515625
1761380423753870800,3.879870849609375,-0.9948883056640625,-0.0379791259765625,0.014190673828125
1761380423763954000,3.889953857421875,-0.9943084716796875,-0.0376129150390625,0.0137481689453125
1761380423774036000,3.900035888671875,-0.9928131103515625,-0.0367431640625,0.0139312744140625
1761380423784118000,3.910117919921875,-0.994110107421875,-0.0374298095703125,0.0137786865234375
1761380423794200800,3.920200927734375,-0.995330810546875,-0.0375823974609375,0.0143280029296875
1761380423804283000,3.930282958984375,-0.9945831298828125,-0.0374755859375,0.0129241943359375
1761380423814365000,3.940364990234375,-0.9942169189453125,-0.0365753173828125,0.01422119140625
1761380423824447700,3.95044775390625,-0.99456787109375,-0.0370025634765625,0.0133514404296875
1761380423834529800,3.96052978515625,-0.9954376220703125,-0.0377349853515625,0.013092041015625
1761380423844611800,3.97061181640625,-0.99456787109375,-0.0372161865234375,0.013519287109375
1761380423854695000,3.98069482421875,-0.9935302734375,-0.0370635986328125,0.01324462890625
1761380423864777000,3.99077685546875,-0.9946136474609375,-0.03680419921875,0.0136260986328125
1761380423874858800,4.000858642578125,-0.9942626953125,-0.036956787109375,0.0142669677734375
1761380423884941800,4.01094189453125,-0.9940032958984375,-0.0374755859375,0.0135650634765625
1761380423895023900,4.02102392578125,-0.9947662353515625,-0.0377655029296875,0.0139617919921875
1761380423905106000,4.03110595703125,-0.993896484375,-0.0373992919921875,0.0131378173828125
1761380423915188700,4.041188720703125,-0.9940185546875,-0.0370941162109375,0.0138397216796875
1761380423925270800,4.051270751953125,-0.994110107421875,-0.0372161865234375,0.01397705078125
1761380423935352800,4.061352783203125,-0.994384765625,-0.036529541015625,0.0131683349609375
1761380423945435600,4.071435546875,-0.994140625,-0.0366973876953125,0.0139007568359375
1761380423955517700,4.081517578125,-0.9955291748046875,-0.0374908447265625,0.0135955810546875
1761380423965599700,4.091599853515625,-0.995025634765625,-0.0378875732421875,0.0128936767578125
1761380423975682800,4.101682861328125,-0.9941253662109375,-0.0384979248046875,0.0133819580078125
1761380423985764900,4.111764892578125,-0.9935150146484375,-0.037261962890625,0.0143890380859375
1761380423995843800,4.12184375,-0.992462158203125,-0.0366668701171875,0.013916015625
1761380424005926000,4.13192578125,-0.9942474365234375,-0.037017822265625,0.0142822265625
1761380424016008000,4.142008056640625,-0.9947357177734375,-0.0374755859375,0.0139617919921875
1761380424026090800,4.1520908203125,-0.9943084716796875,-0.036956787109375,0.01336669921875
1761380424036172800,4.1621728515625,-0.9953155517578125,-0.0370025634765625,0.013916015625
1761380424046254800,4.1722548828125,-0.994598388671875,-0.037109375,0.0136566162109375
1761380424056338000,4.182337890625,-0.993865966796875,-0.037353515625,0.013153076171875
1761380424066419700,4.192419677734375,-0.9942474365234375,-0.0369873046875,0.01397705078125
1761380424076501800,4.202501708984375,-0.994720458984375,-0.0380706787109375,0.0147857666015625
1761380424086584800,4.212584716796875,-0.9944915771484375,-0.0377044677734375,0.01336669921875
1761380424096667000,4.2226669921875,-0.9940338134765625,-0.0374755859375,0.012481689453125
1761380424106749000,4.2327490234375,-0.994537353515625,-0.0370025634765625,0.0142059326171875
1761380424116831700,4.242831787109375,-0.9940032958984375,-0.03759765625,0.0141143798828125
1761380424126913800,4.252913818359375,-0.99462890625,-0.037506103515625,0.0133209228515625
1761380424136995800,4.262995849609375,-0.9951629638671875,-0.0369110107421875,0.013336181640625
1761380424147078700,4.27307861328125,-0.9946746826171875,-0.03680419921875,0.0144500732421875
1761380424157160700,4.28316064453125,-0.9945068359375,-0.0374603271484375,0.013153076171875
1761380424167242800,4.29324267578125,-0.99462890625,-0.037445068359375,0.01416015625
1761380424177325800,4.303325927734375,-0.993560791015625,-0.037017822265625,0.0140533447265625
1761380424187407600,4.31340771484375,-0.994171142578125,-0.036956787109375,0.0139312744140625
1761380424197489700,4.32348974609375,-0.9941864013671875,-0.036773681640625,0.01348876953125
1761380424207572700,4.33357275390625,-0.994537353515625,-0.03753662109375,0.013519287109375
1761380424217654800,4.34365478515625,-0.9932708740234375,-0.0380859375,0.01409912109375
1761380424227736800,4.35373681640625,-0.9940338134765625,-0.0370941162109375,0.014068603515625
1761380424237820000,4.36381982421875,-0.994720458984375,-0.037261962890625,0.014251708984375
1761380424247902000,4.37390185546875,-0.9930419921875,-0.0367431640625,0.01397705078125
1761380424257983700,4.383983642578125,-0.9941864013671875,-0.037384033203125,0.01348876953125
1761380424268066800,4.39406689453125,-0.994415283203125,-0.038055419921875,0.01318359375
1761380424278148900,4.40414892578125,-0.9941864013671875,-0.037261962890625,0.013275146484375
1761380424288231000,4.41423095703125,-0.9940948486328125,-0.0371856689453125,0.0138397216796875
1761380424298314000,4.42431396484375,-0.9944305419921875,-0.0373687744140625,0.01336669921875
1761380424308395800,4.434395751953125,-0.9944305419921875,-0.0374298095703125,0.0131683349609375
1761380424318477800,4.444477783203125,-0.9937744140625,-0.03741455078125,0.0132904052734375
1761380424328561000,4.454560791015625,-0.994384765625,-0.037353515625,0.013519287109375
1761380424338643000,4.464642822265625,-0.99444580078125,-0.037261962890625,0.013580322265625
1761380424348724700,4.474724853515625,-0.9940032958984375,-0.0366973876953125,0.0132293701171875
1761380424358807800,4.484807861328125,-0.99383544921875,-0.03668212890625,0.0135650634765625
1761380424368889900,4.494889892578125,-0.9937591552734375,-0.0369415283203125,0.013946533203125
1761380424378972000,4.504971923828125,-0.994964599609375,-0.037445068359375,0.01416015625
1761380424389054700,4.5150546875,-0.993927001953125,-0.036956787109375,0.0140380859375
1761380424399136800,4.52513671875,-0.9933319091796875,-0.03717041015625,0.014312744140625
1761380424409219800,4.5352197265625,-0.993255615234375,-0.03729248046875,0.0140228271484375
1761380424419301600,4.545301513671875,-0.99591064453125,-0.0379638671875,0.01361083984375
1761380424429383700,4.5553837890625,-0.994781494140625,-0.037384033203125,0.0137786865234375
1761380424439466800,4.565466796875,-0.9935302734375,-0.0375518798828125,0.0135650634765625
1761380424449548800,4.575548828125,-0.993865966796875,-0.037109375,0.0139312744140625
1761380424459630800,4.585630859375,-0.99468994140625,-0.0373687744140625,0.0145721435546875
1761380424469713700,4.595713623046875,-0.9942169189453125,-0.037353515625,0.0144805908203125
1761380424479795700,4.605795654296875,-0.9921875,-0.0377655029296875,0.0132904052734375
1761380424489877800,4.615877685546875,-0.9941864013671875,-0.037445068359375,0.0135955810546875
1761380424499960800,4.6259609375,-0.994720458984375,-0.037139892578125,0.012359619140625
1761380424510043000,4.63604296875,-0.9935455322265625,-0.0372161865234375,0.0135650634765625
1761380424520125000,4.646125,-0.9935302734375,-0.03802490234375,0.0135345458984375
1761380424530208000,4.6562080078125,-0.9940948486328125,-0.037261962890625,0.0129852294921875
1761380424540289800,4.666289794921875,-0.9942626953125,-0.0364837646484375,0.0132904052734375
1761380424550371800,4.676371826171875,-0.993560791015625,-0.0372314453125,0.0142822265625
1761380424560455000,4.686454833984375,-0.99407958984375,-0.0374298095703125,0.014556884765625
1761380424570537000,4.696536865234375,-0.9935455322265625,-0.037017822265625,0.01385498046875
1761380424580618800,4.70661865234375,-0.9942626953125,-0.0367279052734375,0.014404296875
1761380424590701800,4.716701904296875,-0.9941253662109375,-0.037322998046875,0.0135345458984375
1761380424600784000,4.726783935546875,-0.994903564453125,-0.03765869140625,0.01336669921875
1761380424610866000,4.736865966796875,-0.994720458984375,-0.0370025634765625,0.0138092041015625
1761380424620948700,4.74694873046875,-0.9945220947265625,-0.037261962890625,0.0134429931640625
1761380424631030800,4.75703076171875,-0.9937591552734375,-0.0377349853515625,0.0133056640625
1761380424641112800,4.76711279296875,-0.9948577880859375,-0.0378570556640625,0.01348876953125
1761380424651195600,4.777195556640625,-0.9950408935546875,-0.0373077392578125,0.012786865234375
1761380424661277700,4.787277587890625,-0.9938507080078125,-0.0369415283203125,0.013671875
1761380424671359700,4.79735986328125,-0.9947357177734375,-0.0374603271484375,0.0140838623046875
1761380424681442800,4.80744287109375,-0.993621826171875,-0.036651611328125,0.0139923095703125
1761380424691524900,4.81752490234375,-0.994110107421875,-0.0370635986328125,0.0136260986328125
1761380424701606700,4.827606689453125,-0.994659423828125,-0.03717041015625,0.013092041015625
1761380424711689700,4.837689697265625,-0.9944610595703125,-0.0369415283203125,0.0145721435546875
1761380424721771800,4.847771728515625,-0.9953155517578125,-0.0372314453125,0.0134124755859375
1761380424731853800,4.857853759765625,-0.994781494140625,-0.0371551513671875,0.013427734375
1761380424741936600,4.8679365234375,-0.993316650390625,-0.0364990234375,0.0136566162109375
1761380424752018700,4.878018798828125,-0.994964599609375,-0.03741455078125,0.013946533203125
1761380424762100700,4.888100830078125,-0.9941558837890625,-0.03765869140625,0.013397216796875
1761380424772183800,4.898183837890625,-0.9936370849609375,-0.036865234375,0.0137939453125
1761380424782265900,4.908265869140625,-0.99420166015625,-0.037139892578125,0.013275146484375
1761380424792348000,4.918347900390625,-0.9945220947265625,-0.0369110107421875,0.0138702392578125
1761380424802431000,4.928430908203125,-0.9950103759765625,-0.03717041015625,0.013702392578125
1761380424812512800,4.9385126953125,-0.9944915771484375,-0.0370330810546875,0.013946533203125
1761380424822594800,4.9485947265625,-0.9954376220703125,-0.036834716796875,0.01409912109375
1761380424832678000,4.958677978515625,-0.995086669921875,-0.037506103515625,0.0133514404296875
1761380424842760000,4.968760009765625,-0.99420166015625,-0.037139892578125,0.0142974853515625
1761380424852841700,4.978841796875,-0.993896484375,-0.0380859375,0.01324462890625
1761380424862924800,4.9889248046875,-0.9947662353515625,-0.0374603271484375,0.0128936767578125
1761380424873006800,4.9990068359375,-0.9940185546875,-0.03778076171875,0.01385498046875
1761380424883089000,5.0090888671875,-0.994354248046875,-0.036773681640625,0.0141754150390625
1761380424893171700,5.019171630859375,-0.9945831298828125,-0.0367889404296875,0.0140380859375
1761380424903253800,5.029253662109375,-0.9943695068359375,-0.036773681640625,0.0145263671875
1761380424913335800,5.039335693359375,-0.9945831298828125,-0.03656005859375,0.0134735107421875
1761380424923419000,5.0494189453125,-0.993896484375,-0.03851318359375,0.01348876953125
1761380424933500700,5.059500732421875,-0.99322509765625,-0.0373687744140625,0.0135955810546875
1761380424943582700,5.069582763671875,-0.993988037109375,-0.037322998046875,0.01416015625
1761380424953665800,5.079665771484375,-0.99420166015625,-0.036773681640625,0.013275146484375
1761380424963747800,5.089747802734375,-0.9950714111328125,-0.03790283203125,0.013946533203125
1761380424973829600,5.09982958984375,-0.993682861328125,-0.036834716796875,0.014373779296875
1761380424983912700,5.10991259765625,-0.993316650390625,-0.037445068359375,0.013885498046875
1761380424993995000,5.1199951171875,-0.994384765625,-0.0370635986328125,0.0139617919921875
1761380425004077000,5.1300771484375,-0.9951019287109375,-0.0373382568359375,0.014190673828125
1761380425014160000,5.140159912109375,-0.9936370849609375,-0.0369873046875,0.01373291015625
1761380425024242000,5.150241943359375,-0.9949951171875,-0.03656005859375,0.0147552490234375
1761380425034325000,5.160324951171875,-0.9931640625,-0.03704833984375,0.013702392578125
1761380425044406800,5.17040673828125,-0.994049072265625,-0.036956787109375,0.012908935546875
1761380425054488800,5.18048876953125,-0.994140625,-0.0374603271484375,0.01409912109375
1761380425064572000,5.190572021484375,-0.9925384521484375,-0.037689208984375,0.01385498046875
1761380425074654000,5.200654052734375,-0.9947052001953125,-0.037384033203125,0.013671875
1761380425084735700,5.21073583984375,-0.9948577880859375,-0.03765869140625,0.0140838623046875
1761380425094819000,5.220819091796875,-0.9949493408203125,-0.03741455078125,0.013916015625
1761380425104901000,5.230901123046875,-0.9940643310546875,-0.0378875732421875,0.01416015625
1761380425114983200,5.240983154296875,-0.9955596923828125,-0.0371856689453125,0.0136260986328125
1761380425125066000,5.25106591796875,-0.99456787109375,-0.0376129150390625,0.0124969482421875
1761380425135148000,5.26114794921875,-0.99456787109375,-0.037567138671875,0.0139312744140625
1761380425145230000,5.27122998046875,-0.9944915771484375,-0.037261962890625,0.012908935546875
1761380425155313000,5.28131298828125,-0.9937591552734375,-0.0370330810546875,0.0134429931640625
1761380425165395000,5.29139501953125,-0.9942474365234375,-0.036651611328125,0.0136260986328125
1761380425175477000,5.30147705078125,-0.9944610595703125,-0.037811279296875,0.0139617919921875
1761380425185560000,5.31156005859375,-0.9942779541015625,-0.036651611328125,0.014373779296875
1761380425195642000,5.32164208984375,-0.9942474365234375,-0.0366363525390625,0.013702392578125
1761380425205724000,5.331723876953125,-0.994140625,-0.037384033203125,0.0137176513671875
1761380425215807000,5.341806884765625,-0.993682861328125,-0.0373382568359375,0.0140228271484375
1761380425225889000,5.351888916015625,-0.9942779541015625,-0.037567138671875,0.0144805908203125
1761380425235971000,5.36197119140625,-0.994140625,-0.0374298095703125,0.0140838623046875
1761380425246054000,5.372053955078125,-0.9950714111328125,-0.0373077392578125,0.013519287109375
1761380425256136000,5.382135986328125,-0.9945831298828125,-0.0374908447265625,0.0137786865234375
1761380425266218000,5.392218017578125,-0.9941253662109375,-0.037200927734375,0.01409912109375
1761380425276300800,5.40230078125,-0.9946136474609375,-0.0368499755859375,0.0142822265625
1761380425286382800,5.4123828125,-0.9941558837890625,-0.036956787109375,0.013458251953125
1761380425296465000,5.42246484375,-0.993804931640625,-0.037689208984375,0.0125885009765625
1761380425306548000,5.4325478515625,-0.9947662353515625,-0.037750244140625,0.013580322265625
1761380425316629800,5.442629638671875,-0.9948577880859375,-0.0368804931640625,0.013946533203125
1761380425326711800,5.4527119140625,-0.9947052001953125,-0.036956787109375,0.0136566162109375
1761380425336795000,5.462794921875,-0.994964599609375,-0.037353515625,0.0135955810546875
1761380425346877000,5.472876953125,-0.9941864013671875,-0.0370025634765625,0.013458251953125
1761380425356959000,5.482958984375,-0.9933624267578125,-0.0374603271484375,0.0137481689453125
1761380425367042000,5.4930419921875,-0.9947509765625,-0.037322998046875,0.01409912109375
1761380425377124000,5.5031240234375,-0.9941253662109375,-0.037933349609375,0.0137176513671875
1761380425387206100,5.5132060546875,-0.993408203125,-0.037200927734375,0.0128021240234375
1761380425397289000,5.5232890625,-0.9943389892578125,-0.0383148193359375,0.0133819580078125
1761380425407371000,5.53337109375,-0.9942474365234375,-0.037872314453125,0.01324462890625
1761380425417453000,5.543453125,-0.9941253662109375,-0.036895751953125,0.013153076171875
1761380425427536100,5.5535361328125,-0.9952392578125,-0.0370635986328125,0.014801025390625
1761380425437618000,5.563617919921875,-0.9954071044921875,-0.0367584228515625,0.014678955078125
1761380425447700000,5.573699951171875,-0.99346923828125,-0.037017822265625,0.013275146484375
1761380425457783000,5.583782958984375,-0.9938812255859375,-0.0378265380859375,0.013214111328125
1761380425467865000,5.593864990234375,-0.994781494140625,-0.0379638671875,0.0134124755859375
1761380425477947000,5.60394677734375,-0.9941558837890625,-0.037353515625,0.013397216796875
1761380425488030000,5.614030029296875,-0.9942779541015625,-0.0369720458984375,0.0137481689453125
1761380425498112000,5.624112060546875,-0.99444580078125,-0.0375823974609375,0.014556884765625
1761380425508194000,5.634194091796875,-0.9943084716796875,-0.037506103515625,0.0137939453125
1761380425518276900,5.64427685546875,-0.993560791015625,-0.0367889404296875,0.013702392578125
1761380425528359000,5.65435888671875,-0.9954681396484375,-0.0369720458984375,0.0133056640625
1761380425538441000,5.66444091796875,-0.994140625,-0.03765869140625,0.01397705078125
1761380425548523800,5.674523681640625,-0.9939422607421875,-0.0369873046875,0.0136260986328125
1761380425558605800,5.684605712890625,-0.994354248046875,-0.0372314453125,0.0139312744140625
1761380425568687900,5.69468798828125,-0.9936065673828125,-0.03729248046875,0.0150604248046875
1761380425578771000,5.70477099609375,-0.994140625,-0.0369110107421875,0.0134429931640625
1761380425588853000,5.71485302734375,-0.9944610595703125,-0.03680419921875,0.0135955810546875
1761380425598934800,5.724934814453125,-0.994415283203125,-0.036865234375,0.01416015625
1761380425609017900,5.735017822265625,-0.9934234619140625,-0.0369720458984375,0.013916015625
1761380425619100000,5.745099853515625,-0.9938507080078125,-0.0373687744140625,0.013336181640625
1761380425629182000,5.755181884765625,-0.9948577880859375,-0.0366058349609375,0.0137176513671875
1761380425639265000,5.76526513671875,-0.99505615234375,-0.0374755859375,0.013763427734375
1761380425649347000,5.77534716796875,-0.9949798583984375,-0.0369110107421875,0.01361083984375
1761380425659429000,5.78542919921875,-0.993804931640625,-0.0367584228515625,0.0143585205078125
1761380425669512000,5.795511962890625,-0.993927001953125,-0.0369873046875,0.013946533203125
1761380425679594000,5.805593994140625,-0.99468994140625,-0.0371246337890625,0.014617919921875
1761380425689676000,5.815676025390625,-0.9944915771484375,-0.0370635986328125,0.013671875
1761380425699759000,5.825759033203125,-0.9939422607421875,-0.037017822265625,0.0133514404296875
1761380425709841000,5.8358408203125,-0.9944610595703125,-0.0372161865234375,0.0143890380859375
1761380425719923000,5.8459228515625,-0.9939422607421875,-0.0373992919921875,0.0135040283203125
1761380425730006000,5.856006103515625,-0.9944915771484375,-0.037200927734375,0.0138092041015625
1761380425740088000,5.866088134765625,-0.99432373046875,-0.037017822265625,0.0131378173828125
1761380425750170000,5.876170166015625,-0.994537353515625,-0.037384033203125,0.0134124755859375
1761380425760253000,5.8862529296875,-0.994476318359375,-0.03631591796875,0.0139312744140625
1761380425770335000,5.8963349609375,-0.994415283203125,-0.0373992919921875,0.01361083984375
1761380425780417000,5.9064169921875,-0.993804931640625,-0.03729248046875,0.01416015625
1761380425790499800,5.916499755859375,-0.9949188232421875,-0.037506103515625,0.014495849609375
1761380425800582000,5.926581787109375,-0.9942169189453125,-0.03729248046875,0.0146942138671875
1761380425810664000,5.936663818359375,-0.9937286376953125,-0.037567138671875,0.0138702392578125
1761380425820747000,5.9467470703125,-0.994903564453125,-0.0375823974609375,0.0137786865234375
1761380425830828800,5.956828857421875,-0.9938507080078125,-0.0374755859375,0.0142974853515625
1761380425840910800,5.966910888671875,-0.9946136474609375,-0.0379486083984375,0.0133819580078125
1761380425850993000,5.976992919921875,-0.993377685546875,-0.037689208984375,0.0135955810546875
1761380425861076000,5.987075927734375,-0.9945068359375,-0.0375823974609375,0.0134735107421875
1761380425871157800,5.99715771484375,-0.9941864013671875,-0.0368804931640625,0.0147705078125
1761380425881239800,6.00723974609375,-0.994140625,-0.036834716796875,0.0135498046875
1761380425891323000,6.017322998046875,-0.9944305419921875,-0.036865234375,0.0138702392578125
1761380425901405000,6.027405029296875,-0.9953460693359375,-0.0369720458984375,0.01373291015625
1761380425911487000,6.037487060546875,-0.9942169189453125,-0.03790283203125,0.01397705078125
1761380425921570000,6.047570068359375,-0.9944915771484375,-0.03729248046875,0.0141754150390625
1761380425931652000,6.057652099609375,-0.994049072265625,-0.0364227294921875,0.0138702392578125
1761380425941734100,6.067734130859375,-0.994873046875,-0.0372467041015625,0.013397216796875
1761380425951817000,6.07781689453125,-0.9942474365234375,-0.0368804931640625,0.0136566162109375
1761380425961899000,6.08789892578125,-0.9942779541015625,-0.037261962890625,0.0142822265625
1761380425971981000,6.09798095703125,-0.994842529296875,-0.0373077392578125,0.0138397216796875
1761380425982064000,6.108064208984375,-0.9937744140625,-0.0372467041015625,0.0135345458984375
1761380425992145700,6.118145751953125,-0.9942474365234375,-0.037322998046875,0.0144805908203125
1761380426002227700,6.128227783203125,-0.9942626953125,-0.0366363525390625,0.0140533447265625
1761380426012310800,6.138310791015625,-0.99481201171875,-0.0379791259765625,0.01385498046875
1761380426022392800,6.148392822265625,-0.9947357177734375,-0.0373687744140625,0.0135040283203125
1761380426032475000,6.158474853515625,-0.993988037109375,-0.0370330810546875,0.0139312744140625
1761380426042558000,6.168557861328125,-0.994384765625,-0.0373382568359375,0.0135040283203125
1761380426052639700,6.1786396484375,-0.99395751953125,-0.03656005859375,0.013671875
1761380426062721800,6.1887216796875,-0.993377685546875,-0.0370941162109375,0.0135650634765625
1761380426072804900,6.198804931640625,-0.9947509765625,-0.03619384765625,0.0135345458984375
1761380426082887000,6.208886962890625,-0.9952392578125,-0.0367431640625,0.0139007568359375
1761380426092969000,6.218968994140625,-0.995025634765625,-0.0372467041015625,0.0136566162109375
1761380426103051800,6.2290517578125,-0.9946746826171875,-0.036834716796875,0.013824462890625
1761380426113133800,6.2391337890625,-0.9947662353515625,-0.036468505859375,0.0137939453125
1761380426123216000,6.2492158203125,-0.995819091796875,-0.0378875732421875,0.0135498046875
1761380426133299000,6.259298828125,-0.994354248046875,-0.0366973876953125,0.014129638671875
1761380426143381000,6.269381103515625,-0.994110107421875,-0.037689208984375,0.0136260986328125
1761380426153462800,6.279462890625,-0.9946746826171875,-0.0375823974609375,0.01373291015625
1761380426163545900,6.2895458984375,-0.99383544921875,-0.0364990234375,0.013671875
1761380426173628000,6.2996279296875,-0.9942169189453125,-0.03741455078125,0.013763427734375
1761380426183710000,6.3097099609375,-0.9947357177734375,-0.03778076171875,0.0135345458984375
1761380426193792800,6.319792724609375,-0.9942626953125,-0.0370941162109375,0.0140838623046875
1761380426203874800,6.329874755859375,-0.9944610595703125,-0.037933349609375,0.01373291015625
1761380426213956900,6.339956787109375,-0.994110107421875,-0.0371551513671875,0.0139312744140625
1761380426224039700,6.350039794921875,-0.9943084716796875,-0.037445068359375,0.01348876953125
1761380426234121700,6.360121826171875,-0.9952239990234375,-0.0379638671875,0.0130615234375
1761380426244203800,6.370203857421875,-0.9944610595703125,-0.0374603271484375,0.013946533203125
1761380426254286800,6.380286865234375,-0.993377685546875,-0.0371246337890625,0.014007568359375
1761380426264369000,6.390368896484375,-0.9934539794921875,-0.0375213623046875,0.0134124755859375
1761380426274450700,6.40045068359375,-0.994384765625,-0.03753662109375,0.01361083984375
1761380426284533800,6.41053369140625,-0.9938812255859375,-0.0375518798828125,0.0135955810546875
1761380426294615800,6.42061572265625,-0.994720458984375,-0.03729248046875,0.013885498046875
1761380426304697900,6.43069775390625,-0.9943084716796875,-0.0378570556640625,0.0135498046875
1761380426314781000,6.440781005859375,-0.994964599609375,-0.0372161865234375,0.0126953125
1761380426324863000,6.450863037109375,-0.993896484375,-0.0367889404296875,0.0135040283203125
1761380426334944800,6.46094482421875,-0.993927001953125,-0.0373687744140625,0.0137939453125
1761380426345027800,6.47102783203125,-0.9936676025390625,-0.0377197265625,0.01409912109375
1761380426355110000,6.48110986328125,-0.9941558837890625,-0.0373992919921875,0.0135345458984375
1761380426365192000,6.49119189453125,-0.9942474365234375,-0.0365753173828125,0.013458251953125
1761380426375275000,6.50127490234375,-0.9946136474609375,-0.0370635986328125,0.0144500732421875
1761380426385356800,6.511356689453125,-0.99407958984375,-0.03729248046875,0.0146942138671875
1761380426395438800,6.52143896484375,-0.9941558837890625,-0.036651611328125,0.0142669677734375
1761380426405522000,6.53152197265625,-0.9947052001953125,-0.037689208984375,0.0140228271484375
1761380426415604000,6.54160400390625,-0.9936065673828125,-0.0377655029296875,0.014312744140625
1761380426425685800,6.551685791015625,-0.99530029296875,-0.038238525390625,0.01416015625
1761380426435767800,6.561767822265625,-0.9954376220703125,-0.0372314453125,0.0138702392578125
1761380426445851000,6.571850830078125,-0.993988037109375,-0.0370330810546875,0.01226806640625
1761380426455933000,6.581932861328125,-0.9945831298828125,-0.0376739501953125,0.0138702392578125
1761380426466015000,6.592014892578125,-0.9945220947265625,-0.03729248046875,0.0138397216796875
1761380426476097800,6.602097900390625,-0.994598388671875,-0.0367584228515625,0.0140533447265625
1761380426486179800,6.612179931640625,-0.993988037109375,-0.0376434326171875,0.013214111328125
1761380426496262000,6.622261962890625,-0.99365234375,-0.0370941162109375,0.014007568359375
1761380426506344700,6.6323447265625,-0.9952545166015625,-0.03759765625,0.0134735107421875
1761380426516426800,6.6424267578125,-0.994476318359375,-0.0376129150390625,0.0132598876953125
1761380426526508800,6.6525087890625,-0.9937286376953125,-0.0372467041015625,0.0143890380859375
1761380426536592000,6.662591796875,-0.994140625,-0.03729248046875,0.0138702392578125
1761380426546673700,6.672673583984375,-0.994476318359375,-0.03753662109375,0.0141143798828125
1761380426556755700,6.682755615234375,-0.994476318359375,-0.03704833984375,0.013702392578125
1761380426566838800,6.6928388671875,-0.9937591552734375,-0.037078857421875,0.0136260986328125
1761380426576920800,6.7029208984375,-0.99493408203125,-0.0364990234375,0.014068603515625
1761380426587003000,6.7130029296875,-0.9942169189453125,-0.036773681640625,0.0142669677734375
1761380426597086000,6.7230859375,-0.9947967529296875,-0.037841796875,0.0135650634765625
1761380426607168000,6.73316796875,-0.9910736083984375,-0.0364837646484375,0.012451171875
1761380426617249800,6.743249755859375,-0.9802093505859375,-0.0329742431640625,0.0066680908203125
1761380426627332900,6.753332763671875,-0.9937286376953125,-0.0366363525390625,0.012115478515625
1761380426637415000,6.763414794921875,-1.002288818359375,-0.04132080078125,0.02020263671875
1761380426647497000,6.7734970703125,-1.0073699951171875,-0.044342041015625,0.024444580078125
1761380426657579800,6.783579833984375,-1.01483154296875,-0.0453338623046875,0.0266265869140625
1761380426667661800,6.793661865234375,-0.9953460693359375,-0.038299560546875,0.015625
1761380426677743900,6.803743896484375,-0.9612579345703125,-0.026153564453125,-0.0036773681640625
1761380426687827000,6.813826904296875,-0.98846435546875,-0.03607177734375,0.0107574462890625
1761380426697909000,6.823908935546875,-1.0184326171875,-0.045318603515625,0.0250244140625
