time,seconds_elapsed,z,y,x
1761380419954081800,0.080081787109375,-0.04368190533816814,-0.020006503783538937,0.03954031202141195
1761380419964164600,0.09016455078125,0.09498129994273186,0.01843505321573466,-0.03507703073592856
1761380419974246700,0.10024658203125,0.10512100116312503,0.023521124308370053,-0.0334562337342184
1761380419984329700,0.110329833984375,-0.016774024668335913,-0.02202065661754459,0.0297771707621403
1761380419994412500,0.12041259765625,0.030671617117524145,-0.005572904761508107,0.01437166710118763
1761380420004494600,0.13049462890625,0.11905951014459132,0.014821465828455983,-0.027051024600723755
1761380420014576600,0.14057666015625,0.0488905798971653,-0.001952668437734246,0.005787497360259295
1761380420024659700,0.15065966796875,0.002242225968837738,-0.019578012705780565,0.0258744642351754
1761380420034741800,0.16074169921875,0.07030161671638488,0.004189085720293224,-0.014327435233816504
1761380420044823600,0.170823486328125,0.08194353919327259,0.013708097759075461,-0.021896655778540296
1761380420054906600,0.18090673828125,0.014786650243401527,-0.008918233134038746,0.01892760423934087
1761380420064988700,0.19098876953125,0.04082768495082855,0.0011567322870716453,0.009549690304836258
1761380420075070700,0.20107080078125,0.08284545646905898,0.013604308591037988,-0.010823911491734907
1761380420085153500,0.211153564453125,0.05038344880342483,-0.0023466727240011097,0.012401097680581733
1761380420095235600,0.221235595703125,0.01898059480190277,-0.004401961285993457,0.01639567460892722
1761380420105318700,0.231318603515625,0.06176058286428451,0.0073789312701672315,-0.005785415001027285
1761380420115400400,0.241400390625,0.051422144201397894,0.013425737153738737,-0.014111244333023205
1761380420125482500,0.251482421875,0.029593758752942085,-0.005792319665849209,0.009922916664555668
1761380420135565600,0.261565673828125,0.0465028079777956,-0.004210457301884889,0.000010000804206356406
1761380420145647600,0.271647705078125,0.07611410238742827,0.012526632889546453,-0.01272284958139062
1761380420155729400,0.2817294921875,0.03885550809502601,0.0014466916769742964,-0.0029522465348709374
1761380420165812500,0.2918125,0.02853986578583717,-0.008549984343536198,0.0018950108332093803
1761380420175894500,0.30189453125,0.058302551364898675,0.01254807753637433,-0.01157672088672407
1761380420185976600,0.3119765625,0.06428571742773055,0.003433225851692259,-0.009311963425669818
1761380420196059600,0.3220595703125,0.03167173407077789,0.0006134922558441758,0.004940059351222589
1761380420206141700,0.3321416015625,0.04723287581801414,0.003567446690611541,-0.0009488434237428009
1761380420216223500,0.342223388671875,0.04916355161964893,-0.006620404520444572,-0.013338579460093751
1761380420226306600,0.352306640625,0.043187399819493294,-0.00011197247449308633,-0.008923448165273294
1761380420236388600,0.362388671875,0.034515433064103124,0.0020240531735122203,0.007874770229402929
1761380420246470700,0.372470703125,0.060546530899405475,0.006146430333144963,-0.003532996431738138
1761380420256553700,0.3825537109375,0.06039572425186634,-0.0032837709110230206,-0.006029745150916278
1761380420266635800,0.3926357421875,0.041245033580064774,0.000721190414018929,0.005483655575476586
1761380420276717600,0.402717529296875,0.050370004799962044,0.0037799203975126144,-0.004010642147157341
1761380420286800600,0.412800537109375,0.06129179630875587,0.014397760523669421,-0.011925771786412223
1761380420296882700,0.422882568359375,0.049477439874410625,-0.002285663251765072,0.0010957319479901343
1761380420306964700,0.43296484375,0.05037877262830734,0.0021280980698764325,0.0009963540935888887
1761380420317047600,0.443047607421875,0.0575567014336586,0.006366648955084383,-0.005777670085988939
1761380420327129600,0.453129638671875,0.05320961214005947,-0.003784486974775791,-0.004358487470448017
1761380420337211600,0.463211669921875,0.038406595283746715,-0.0029666677858680487,-0.0025233992640860377
1761380420347294500,0.47329443359375,0.05651040725111961,0.006058569386601448,-0.0058694034900516265
1761380420357376500,0.48337646484375,0.04827040217220783,-0.0010089213142171502,-0.002901877187658101
1761380420367458600,0.49345849609375,0.042289574196934694,0.005653787977993488,-0.008880851132562383
1761380420377541600,0.503541748046875,0.04708499177992344,-0.0001603781934827566,-0.002864193792082369
1761380420387623400,0.51362353515625,0.05755962404310703,0.009425780797377228,-0.0016607454196084289
1761380420397705500,0.52370556640625,0.05531447546482086,0.003091207480989396,-0.0026480668233707545
1761380420407788500,0.53378857421875,0.038565585237741465,0.00421849447786808,0.0023290640020743013
1761380420417870600,0.54387060546875,0.04620177920460701,0.006032412032037973,-0.009505878562573343
1761380420427952600,0.55395263671875,0.05083937587738037,0.00271689427588135,0.0030695162389893084
1761380420438035500,0.564035400390625,0.04800210662484169,-0.0015720350896939635,0.004569947397196665
1761380420448117500,0.574117431640625,0.051449616730213164,-0.001242912733182311,-0.004750674258964136
1761380420458199600,0.584199462890625,0.05040916776657104,0.0032529373813420534,-0.00017962175006978212
1761380420468282600,0.59428271484375,0.048911038163304325,0.0019216157123446464,-0.004435553028341382
1761380420478364700,0.60436474609375,0.03888298062384128,0.004551197030954063,0.0013105072098318488
1761380420488446500,0.614446533203125,0.059981298232078546,-0.006521437657997012,-0.0023227529922965912
1761380420498529800,0.62452978515625,0.04995967043340206,0.0017887465802952647,0.0019918679369613527
1761380420508611600,0.634611572265625,0.03410159156620502,-0.0030539442105218767,0.0022200050038751213
1761380420518694700,0.644694580078125,0.05130757791101932,-0.002867737456038594,-0.0023225063971243796
1761380420528776700,0.654776611328125,0.055799044111371036,0.00350121305398643,0.0053084816716611385
1761380420538858800,0.664858642578125,0.04816927988529205,0.007062704927846789,-0.0010919416888616979
1761380420548941600,0.674941650390625,0.04711889404952526,0.0060777124784886834,-0.005913297430705278
1761380420559023600,0.685023681640625,0.049958501389622684,0.007646898023970425,-0.002693084142031148
1761380420569105700,0.695105712890625,0.04307400257289409,-0.0015874883871525526,-0.0013173844751901923
1761380420579188500,0.7051884765625,0.03828443020880222,0.002737644802965224,-0.000979485157178715
1761380420589270500,0.7152705078125,0.04935059862434864,0.005349361671321094,-0.005704440452996641
1761380420599352600,0.7253525390625,0.058330608415603634,0.0053092853892594575,-0.008678716156585142
1761380420609435600,0.735435546875,0.04875730890631676,0.0017435191990807651,-0.00037862405404448507
1761380420619517400,0.745517333984375,0.04710720361173153,0.004945457045547664,-0.0023079481488093734
1761380420629599500,0.755599609375,0.05309446132779121,0.001156549623981118,-0.007688737004855647
1761380420639682600,0.7656826171875,0.04830255087614059,0.002121595263853669,0.003467128121294081
1761380420649764600,0.7757646484375,0.04949380648732185,0.0021262349063530563,-0.000870060832798481
1761380420659846700,0.7858466796875,0.05577683227956295,-0.00027392157055437566,0.00016128237578086555
1761380420669929500,0.795929443359375,0.048147652575373644,-0.002247230937518179,-0.008839852401893585
1761380420680011500,0.806011474609375,0.04471066386401653,0.0022603826800361273,-0.004230468043452128
1761380420690093600,0.816093505859375,0.05053951614797115,0.0036590704968199133,-0.0009158453364390879
1761380420700176400,0.82617626953125,0.05546995828747749,-0.00005556611213833093,0.0009514098401647061
1761380420710258400,0.836258544921875,0.04529635479748249,0.006944887234456837,0.004728544625546783
1761380420720340500,0.846340576171875,0.04245148676037788,0.008782952849194408,-0.009491868303529917
1761380420730423800,0.856423828125,0.055178281864523886,0.0036357626864686604,-0.0011126465501729399
1761380420740505600,0.866505615234375,0.04545125309824943,-0.0004070098983123898,-0.0005644380828831345
1761380420750587600,0.876587646484375,0.033927988564968106,0.0015611118368804454,-0.0011843326800502836
1761380420760670700,0.886670654296875,0.04679389987885952,0.0027942703610286117,-0.0033970311603043228
1761380420770752800,0.896752685546875,0.052929626154899594,-0.005178169822879135,0.0046349206584971395
1761380420780834600,0.90683447265625,0.043649172112345695,-0.0028600656062364575,-0.000046789150638505815
1761380420790917600,0.916917724609375,0.04887888945937156,0.002410093349032104,-0.003831230459641665
1761380420800999700,0.926999755859375,0.04948036248385906,-0.0009358926106244325,-0.0025719145809300244
1761380420811081700,0.937081787109375,0.04858195233941078,0.003189151430130005,0.0025464330798015
1761380420821164500,0.94716455078125,0.052766544547677034,0.004094904630817473,-0.000978480510180816
1761380420831246600,0.95724658203125,0.05965104336440563,-0.0019810177493840456,-0.00465014562709257
1761380420841329700,0.96732958984375,0.047532151025533674,0.001684920879639685,-0.006230437088478356
1761380420851411500,0.977411376953125,0.048584290426969524,-0.00008007949888706206,0.004431899766530841
1761380420861493500,0.987493408203125,0.04424187730848789,0.009150251791626214,-0.0001383398916106671
1761380420871576600,0.99757666015625,0.047238136515021324,-0.00029207828175276514,-0.0009671736648771912
1761380420881658600,1.00765869140625,0.04963000008761882,0.0044117154950276015,-0.001412360149109736
1761380420891740700,1.01774072265625,0.05650806916356087,-0.004331745593994856,0.005328044888656586
1761380420901823500,1.027823486328125,0.04738426698744297,0.0064743105806410305,-0.002928609930956736
1761380420911905500,1.037905517578125,0.04574409856498241,0.009627952305972576,0.0011627419027499853
1761380420921987600,1.047987548828125,0.05232347695529461,0.01094129992686212,-0.0023050894714426247
1761380420932070400,1.0580703125,0.060711366072297095,0.0049985389396548265,0.002362345217168331
1761380420942152400,1.06815234375,0.04320551999807357,0.0019152225041761993,-0.0023853607665747403
1761380420952234500,1.078234375,0.04365735541880131,0.005310198704712093,-0.007368893933342769
1761380420962317800,1.08831787109375,0.048452188479900356,0.0034897783445194362,-0.0021422087936196475
1761380420972399400,1.0983994140625,0.044860885989665984,0.006659969345852733,0.0024237474150490016
1761380420982481400,1.1084814453125,0.060274143698811525,0.004620974331535399,-0.002627709021931514
1761380420992564200,1.118564208984375,0.05683949307501316,0.00039502719957381483,0.004999927179142833
1761380421002646300,1.128646240234375,0.05804243912398815,0.0004051467347890138,0.004281759839272126
1761380421012728300,1.138728271484375,0.042484804508090016,0.005701901436038315,-0.013113328470010309
1761380421022811100,1.14881103515625,0.04517418972253799,0.0016364786280319093,-0.0006506641947664321
1761380421032893200,1.15889306640625,0.048612931999564166,-0.0009329334685578941,0.003662687226012349
1761380421042976300,1.168976318359375,0.04905950672328472,-0.0037067455634474753,-0.00006184972245246172
1761380421053058000,1.17905810546875,0.045021044987440105,0.00024239392112940548,-0.004965960977459326
1761380421063140000,1.18914013671875,0.055494508206844324,0.0021920301515609025,-0.003867726545128971
1761380421073223200,1.19922314453125,0.044269934359192846,-0.001796162701770663,0.004083698250213637
1761380421083305200,1.20930517578125,0.054447044980525966,0.0037088279226794836,-0.0004993917563464492
1761380421093387000,1.219386962890625,0.050564650589227676,0.0076962535910308355,-0.003154527641320601
1761380421103470000,1.229469970703125,0.04457856191694736,0.0052147024409845465,0.00009766082135029137
1761380421113552100,1.23955224609375,0.051313423129916186,0.0020431597327813505,-0.0028850447838660326
1761380421123634200,1.24963427734375,0.052507016828656196,0.00544493100028485,-0.0026912940437439827
1761380421133717000,1.259717041015625,0.06238777485191822,-0.0006868497529998422,0.003980767598701641
1761380421143799000,1.269799072265625,0.04503156638145447,0.00016841536946594714,0.00040480880807153876
1761380421153881000,1.279881103515625,0.06194061560630798,-0.006969437153823674,0.0020142258992418647
1761380421163964200,1.289964111328125,0.06284253288209438,-0.002833652523346245,0.00022520532431080935
1761380421174046200,1.300046142578125,0.04503682707846164,0.006717763947695493,0.0003875928117893636
1761380421184128300,1.310128173828125,0.05700374372601509,0.0005528481097891926,-0.004514728344930336
1761380421194211300,1.32021142578125,0.05102408479452133,0.003131831752322614,-0.00019190584290772674
1761380421204293400,1.33029345703125,0.05162614234089851,-0.0036803324805572625,-0.0040320502613671125
1761380421214375200,1.340375244140625,0.05746025532186031,-0.003530402615852654,-0.0031251645495183763
1761380421224458200,1.350458251953125,0.04519055633544922,0.000224419873021543,-0.0005116393165662884
1761380421234540300,1.360540283203125,0.05356733953654766,-0.0016724632568657397,-0.0023683091670740394
1761380421244622300,1.370622314453125,0.05626081640422344,0.0016485343920066952,0.0029543197609484192
1761380421254705200,1.380705078125,0.05506605366170406,0.000991933646798134,0.006979684553202241
1761380421264787200,1.390787109375,0.04878185882568359,0.0017727818261831997,-0.0010968461928423494
1761380421274869200,1.400869140625,0.04489537278115749,0.009166545339301228,0.0008781710740178823
1761380421284952000,1.4109521484375,0.0493827473282814,0.000649111558496952,-0.005950423703854903
1761380421295034000,1.4210341796875,0.04459668209552765,0.0002933203907683492,-0.0017432178049813956
1761380421305117200,1.4311171875,0.05776479122638702,-0.006771430363692343,-0.004529889381444082
1761380421315199200,1.44119921875,0.04938859254717826,0.0005874444991350174,-0.0023466179250739515
1761380421325281000,1.451281005859375,0.04908464116454124,0.003238251268863678,0.008687602715939283
1761380421335364000,1.461364013671875,0.044586160701513285,0.00029087270535528656,0.0017773392702918498
1761380421345446100,1.471446044921875,0.04997311443686485,-0.0016889760002493858,-0.0011272869968786835
1761380421355528200,1.481528076171875,0.05087152458131313,-0.0005036386732012033,-0.0023313290243968366
1761380421365611000,1.491611083984375,0.05880640923380851,0.00524875084105879,0.006700283089932054
1761380421375693000,1.501693115234375,0.054770285585522646,0.0024265695597976444,-0.010384743756335229
1761380421385775000,1.511775146484375,0.051477089259028434,0.0009227774007245897,-0.011397647125925867
1761380421395858200,1.521858154296875,0.054016252347826955,-0.003166647337377071,0.0005115023192483932
1761380421405940000,1.53193994140625,0.056557753524184226,0.0009491904836148023,-0.003811119253374636
1761380421416022000,1.54202197265625,0.05610533358156681,0.007462992824427783,-0.0011179894455708563
1761380421426105300,1.552105224609375,0.04773088846802711,0.006629610740207135,-0.004745623624511063
1761380421436187400,1.5621875,0.05147065951824188,0.0005008621942251921,0.007634431268041953
1761380421446269200,1.572269287109375,0.05476619393229484,-0.0019977131558582186,-0.0022601817506365477
1761380421456352300,1.582352294921875,0.04533668680787086,-0.0003125365478917956,-0.0029591968654654917
1761380421466434300,1.592434326171875,0.04578209248781204,0.00515018583741039,-0.00465332396486774
1761380421476516400,1.602516357421875,0.05011807586550712,0.006905103213340044,-0.0035464404352009296
1761380421486599200,1.61259912109375,0.0601402881860733,0.005919343579001725,0.003082320921635255
1761380421496681200,1.62268115234375,0.053855508828163146,0.0024743907568976283,0.0002466591042932123
1761380421506763300,1.63276318359375,0.05834755955040455,-0.005975019288994372,-0.005735575376776978
1761380421516846000,1.64284619140625,0.051312254086136815,0.0067908657165244215,-0.008749260642146692
1761380421526928100,1.65292822265625,0.04756780686080456,-0.000826477419398725,0.0013695073880720882
1761380421537011200,1.66301123046875,0.05475041184127331,0.0039335765892639755,0.004273092475626617
1761380421547093200,1.67309326171875,0.062085577034950254,-0.0007782908961176872,0.0007061937742866575
1761380421557175000,1.683175048828125,0.05310498272180557,0.00037113486733287573,-0.0033693394357804207
1761380421567258000,1.693258056640625,0.0537093783557415,-0.00048785658217966553,0.006313594460440799
1761380421577340200,1.703340087890625,0.055803135764598846,0.002509827396459877,-0.0031796986151952293
1761380421587422200,1.713422119140625,0.04263210402429104,0.0020895561577752232,-0.0040633861145470285
1761380421597505000,1.723505126953125,0.05070668940842151,0.0010308774176985024,-0.0012742759858258067
1761380421607587000,1.733587158203125,0.053394905579090116,0.00833356511387974,-0.005820486314408481
1761380421617669000,1.743669189453125,0.04875906247198582,0.011300232899747789,-0.003290054521337151
1761380421627752200,1.753752197265625,0.043970659151673315,0.005448474664241075,0.0020502835933119056
1761380421637834000,1.763833984375,0.051743046718835825,0.006838431185297668,0.00044535088101401924
1761380421647916000,1.773916015625,0.058328854849934574,0.0033332360759377477,-0.0004956288966815918
1761380421657999400,1.783999267578125,0.05189736049771308,0.0010377820825204253,0.0027123459649272263
1761380421668081400,1.794081298828125,0.05279460159838199,-0.0005980389583855867,0.0013821020081639288
1761380421678163200,1.8041630859375,0.05654080238938331,0.003014635113440454,0.00890021342015825
1761380421688246300,1.814246337890625,0.03798632404506206,-0.0007124225856736302,-0.0016607271532993763
1761380421698328300,1.824328369140625,0.045614919227361675,0.0023431655926629898,-0.0024457948500756174
1761380421708410400,1.834410400390625,0.0520493361890316,-0.0002278539391234517,-0.0035547059400472788
1761380421718493200,1.8444931640625,0.0504109213322401,0.0033661519648507236,-0.0029853085542563347
1761380421728575200,1.8545751953125,0.05505962392091751,-0.0042164121186360716,0.007395170018915087
1761380421738658300,1.864658203125,0.050860418665409086,-0.002812427072227001,0.0008404237463604658
1761380421748740000,1.874739990234375,0.05399813216924667,0.004927519530057906,-0.0005559899149462581
1761380421758822100,1.884822265625,0.04651683650314808,0.01354863288104534,-0.00037378348214551805
1761380421768905200,1.8949052734375,0.05250993943810463,0.006018346974067389,-0.008581639857124537
1761380421778987300,1.9049873046875,0.04069207587242126,0.007419592074118554,-0.003342506227781996
1761380421789069000,1.915069091796875,0.04892682025432586,-0.0036515813101083037,-0.013276894134422764
1761380421799152000,1.925152099609375,0.05387012187540531,0.0027845892172306775,-0.010164433802850543
1761380421809234200,1.935234130859375,0.049822892311215394,-0.0022669585512951015,0.0004750701658427715
1761380421819316200,1.945316162109375,0.047424014475941655,-0.00037950083687901493,0.0018559939970728009
1761380421829399000,1.95539892578125,0.05774433296024799,0.005362805674783885,-0.0004187186024151742
1761380421839481000,1.965481201171875,0.048020811325311656,0.0007889584206044674,0.0015271091025788337
1761380421849563100,1.975563232421875,0.0472737923502922,0.002551949505135417,0.0042140100989956405
1761380421859646200,1.985646240234375,0.04472995308637619,0.004032653049565851,0.0025229608726687726
1761380421869728000,1.99572802734375,0.04623042077720165,0.005185403281264007,-0.005703344474453479
1761380421879810000,2.00581005859375,0.0492214192867279,0.0030818916633725164,0.004036379376612604
1761380421889893400,2.015893310546875,0.04638122742474079,0.0031769495356827973,-0.004112001896090805
1761380421899975200,2.02597509765625,0.05461246467530727,0.0038786315316334365,-0.003708782256906852
1761380421910057000,2.036056884765625,0.045185295638442036,0.0012812354495748877,0.000043939606426283715
1761380421920140300,2.046140380859375,0.0456400536686182,0.0008209975266829133,0.0007756605476140976
1761380421930222300,2.056222412109375,0.052669513913989066,0.0033387159686535596,-0.004858883873792365
1761380421940305200,2.06630517578125,0.056715574434399604,0.0057113633841276166,-0.0005351937220897526
1761380421950387200,2.07638720703125,0.04714636657834053,0.0010563771851360797,-0.0008704535584431141
1761380421960469200,2.08646923828125,0.04848842883706093,-0.005731127530522644,-0.003831951978849247
1761380421970552300,2.09655224609375,0.05252805961668491,0.0010103095537051558,0.009032150970445945
1761380421980634000,2.106634033203125,0.055527241432666775,0.0051680502876639365,-0.005047666177852079
1761380421990716700,2.116716552734375,0.040566988188028334,-0.00399349008295685,-0.0013132471561897545
1761380422000799700,2.1267998046875,0.0546329229414463,-0.00398950802758336,-0.0071447389218024905
1761380422010881500,2.136881591796875,0.05448270081579685,0.0021493235209956766,-0.005058890824764966
1761380422020963600,2.146963623046875,0.04640168569087982,0.0008494929688051343,0.0020373875791206953
1761380422031046700,2.157046630859375,0.05254033457636833,-0.004318228525295853,-0.00389104348863475
1761380422041128700,2.167128662109375,0.049101007777452466,0.007249130878038704,-0.007743198005296289
1761380422051210800,2.177210693359375,0.04939969846308231,-0.0018670359808951615,0.0009108221014495939
1761380422061293600,2.18729345703125,0.051342649224400516,0.004822305589914321,-0.0017901713524013756
1761380422071375600,2.197375732421875,0.044759763702750206,0.0007924655519425868,-0.005439980830531567
1761380422081457700,2.207457763671875,0.053142976644635194,0.0011910364154726267,-0.00037510778955183923
1761380422091540500,2.21754052734375,0.05164776965081692,-0.006314115050248801,0.010124978575296699
1761380422101622500,2.22762255859375,0.04985504101514816,-0.004732764142937958,-0.009916660453705116
1761380422111704600,2.23770458984375,0.03488718898594379,0.0017708090648055075,-0.010890236459905282
1761380422121788000,2.247787841796875,0.05104921923577785,-0.00560202125813812,-0.006874251417350024
1761380422131869700,2.25786962890625,0.04700900393426418,-0.002456891632825136,-0.011063318871334195
1761380422141952800,2.267952880859375,0.04580781145095825,0.003884805544093251,-0.0071835639616940165
1761380422152034800,2.278034912109375,0.05329202972650528,-0.009847988264821469,0.001347733947681263
1761380422162116900,2.288116943359375,0.05464227529168129,-0.0029373686261475085,-0.001267371321003884
1761380422172199700,2.29819970703125,0.056585226052999496,0.006492430759221315,0.0024816516147460788
1761380422182281700,2.30828173828125,0.055980830419063564,0.006221541395969688,0.0007114818707574159
1761380422192363800,2.31836376953125,0.0589724134504795,-0.0027218261793255805,0.004048416874278336
1761380422202446600,2.328446533203125,0.04894610947668552,0.0015473025072366,-0.0076311341992579395
1761380422212528600,2.338528564453125,0.0562754294514656,-0.00032912235651165245,0.0034149869421031325
1761380422222610700,2.348610595703125,0.047447979873418804,0.0007185235328972339,0.0060553727825172245
1761380422232693800,2.35869384765625,0.053882981356978416,-0.0030941666230559347,-0.0063829151032958175
1761380422242775600,2.368775634765625,0.04101239386796951,-0.004607639925926924,-0.00443543429733254
1761380422252857600,2.378857666015625,0.05776479122638702,-0.000861987124197185,-0.0006220682879444212
1761380422262940700,2.388940673828125,0.04968728323280811,-0.005404598989896476,-0.0007037552220281213
1761380422273022700,2.399022705078125,0.05327975476682186,-0.0010674465684220194,0.0032310817425604908
1761380422283104800,2.409104736328125,0.05252981318235397,0.0011892463171854614,-0.0004344824271276593
1761380422293187600,2.4191875,0.05267886626422405,-0.0018334259722381828,-0.0008402867490425706
1761380422303269600,2.42926953125,0.04773556464314461,-0.0039054099407047032,-0.0006457322913222015
1761380422313351700,2.4393515625,0.04608487482666969,0.0008161386884748935,-0.0031535686600953337
1761380422323434500,2.4494345703125,0.04278700232505798,0.009507358133606612,0.0037444289590232074
1761380422333516500,2.4595166015625,0.05400806904137134,0.005671542830392718,-0.013863662780122831
1761380422343599600,2.469599609375,0.04682780214846134,-0.00697272508945316,-0.011058359568426384
1761380422353681700,2.479681640625,0.047424598997831344,0.0060428238281980155,-0.0012981591849122196
1761380422363763500,2.489763427734375,0.05206628732383251,0.00296323371976614,-0.005662838934129104
1761380422373846800,2.4998466796875,0.057601125097274775,0.001627820397540927,-0.008012187672406435
1761380422383928800,2.5099287109375,0.04473287569582462,-0.0060145475817844265,0.0006804565448313951
1761380422394011000,2.520010986328125,0.04682780214846134,-0.0008972776332870125,-0.010762737622717395
1761380422404093700,2.53009375,0.050720717933773994,0.0018746712980791925,-0.002574681926751509
1761380422414175700,2.54017578125,0.051315761217474935,-0.00029072657488286494,-0.005734534197160974
1761380422424257800,2.5502578125,0.0489122072070837,-0.004013108098879456,0.004523468773812055
1761380422434340600,2.560340576171875,0.061627896395325656,0.0016125497631728648,-0.006715170131810009
1761380422444422700,2.570422607421875,0.052795770642161365,-0.002931559939868748,0.0006001395839266479
1761380422454504700,2.580504638671875,0.0487596469938755,0.0019175240591168402,0.0006673687343951314
1761380422464587800,2.590587890625,0.04695931957364082,0.00814852740317583,0.002820455115055665
1761380422474669600,2.600669677734375,0.05279518612027168,0.005034450503252446,-0.009206630754517392
1761380422484751600,2.610751708984375,0.062218263503909105,0.006186908474005759,-0.011630067642312496
1761380422494834700,2.620834716796875,0.04170914396047592,-0.001568527958355844,-0.00011973565584048628
1761380422504916700,2.630916748046875,0.05921323646903038,0.0011858853163197636,-0.00542660075915046
1761380422514998800,2.640998779296875,0.05338087705373764,0.0006742094671353697,-0.0020739932624623176
1761380422525081600,2.65108154296875,0.04261456836760044,0.0062809434330090876,0.0029711247652769086
1761380422535163600,2.66116357421875,0.0447077412545681,0.0042285409478470684,-0.012313903454318641
1761380422545246700,2.671246826171875,0.05742401496469974,0.007134235794097185,-0.007251542030833661
1761380422555328500,2.68132861328125,0.05338029253184795,0.004209105595014989,-0.0011868716970086096
1761380422565410600,2.69141064453125,0.05308160184621811,0.0013601459046825766,-0.00894934979151003
1761380422575493600,2.70149365234375,0.059818216624855994,0.00235916687939316,-0.009766913252091034
1761380422585575700,2.71157568359375,0.05038637141287326,0.0038306276714429256,-0.0030275402607861904
1761380422595657500,2.721657470703125,0.04589432069063187,0.004496544234268367,0.0041261400192975995
1761380422605740800,2.73174072265625,0.05113631299734115,0.009525697507895529,-0.0005077577258925885
1761380422615822800,2.74182275390625,0.050829439005255696,0.00014952800590544937,-0.0030370113420300185
1761380422625904600,2.751904541015625,0.04574176047742366,0.0044427316877990956,-0.010818806058354676
1761380422635987700,2.76198779296875,0.05456628744602203,-0.0002514540104195475,-0.005305257668113335
1761380422646069800,2.77206982421875,0.05800210711359977,0.009330613327212632,-0.005919845902500674
1761380422656151800,2.78215185546875,0.04692658634781837,0.009385521852225064,-0.003970748528186231
1761380422666234600,2.792234619140625,0.05440320583879947,0.002632211667113006,0.0013836181118153034
1761380422676316700,2.802316650390625,0.05470014295876026,0.0010692366667091845,-0.006809278156049549
1761380422686398700,2.812398681640625,0.054397945141792296,0.004558540087193251,-0.0006157298787031323
1761380422696481800,2.822481689453125,0.05589315213561058,0.003229191179573536,-0.006638780427351594
1761380422706563600,2.8325634765625,0.044812955194711686,-0.001693359914422035,-0.008924882070533931
1761380422716645600,2.842645751953125,0.04720364972352981,0.001967025756649673,-0.00974588873037137
1761380422726728700,2.852728759765625,0.04750350945293903,-0.0005449570642784237,0.00025927199069410563
1761380422736810800,2.862810791015625,0.05947510227560997,-0.003700608083605766,0.000561734669143334
1761380422746893600,2.8728935546875,0.04929857617616653,0.0015410919621586798,-0.001605206706933677
1761380422756975600,2.8829755859375,0.046152679365873334,0.0025149054303765296,-0.0005794712552335113
1761380422767057700,2.8930576171875,0.051390580019354815,0.0024045403910800812,-0.006286879983451217
1761380422777140700,2.903140625,0.055582771012187,0.002639372060261667,-0.0031410105726215986
1761380422787222500,2.913222412109375,0.06083236210346222,-0.002269296638853848,-0.0038979664197657253
1761380422797304600,2.9233046875,0.04617079954445362,0.002154438087530434,0.004530108577152714
1761380422807387600,2.9333876953125,0.04617372215390205,0.0023791502214968205,-0.0027869455710984765
1761380422817469700,2.9434697265625,0.04782207388281822,0.003079517043195665,-0.0021808511704206465
1761380422827551500,2.953551513671875,0.06278583425879478,0.005608341401070356,0.003336030821222812
1761380422837634600,2.963634521484375,0.05141279185116291,-0.0005126987624913454,0.004369776049442589
1761380422847716600,2.973716552734375,0.0538093315988779,0.00726301327291876,0.0036130850637797265
1761380422857798700,2.983798583984375,0.05575462044775486,-0.0008163944168016314,0.003930042058462277
1761380422867881700,2.9938818359375,0.05380699351131916,0.0008863543804734945,-0.00641223252932541
1761380422877963800,3.0039638671875,0.04916705875098705,0.00821954681277275,-0.004692295135231689
1761380422888045800,3.0140458984375,0.05051905788183212,0.0019852920657023785,-0.0018930106723681092
1761380422898128600,3.024128662109375,0.05500526338517665,0.00850632786490023,-0.005618534001521766
1761380422908210700,3.034210693359375,0.05156359849870205,0.007027962408028543,-0.0028681027822196484
1761380422918292700,3.044292724609375,0.05963818388283253,0.00357581266015768,-0.0057391647065058345
1761380422928375800,3.054375732421875,0.05080138195455074,0.006056487027369439,0.0013280154670588672
1761380422938457600,3.06445751953125,0.03852992940247059,0.00773523389454931,0.003591074161371216
1761380422948539600,3.07453955078125,0.04481587780416012,0.010926942607946693,-0.0029536530406679955
1761380422958622700,3.084622802734375,0.05349193621277809,0.004697912025265395,0.005232658222783356
1761380422968704800,3.094704833984375,0.059919923433661454,0.0005701280381530523,0.005193065997911617
1761380422978787600,3.10478759765625,0.05034487035870552,0.0036454072976484894,-0.004150342878792435
1761380422988872700,3.114872802734375,0.040619595158100125,0.0028821678401902318,0.005025956669542938
1761380422998954800,3.124954833984375,0.04795300678610801,0.0034634748594835397,-0.005869357824278995
1761380423009037800,3.135037841796875,0.053933250239491456,0.004003500020317733,-0.01121468264129944
1761380423019119600,3.14511962890625,0.05243395159244537,-0.0016189064387232065,-0.002451740533672273
1761380423029201700,3.15520166015625,0.04555003729760647,0.002300824288278818,-0.008389469152735547
1761380423039285000,3.165284912109375,0.03852408418357372,0.0036130393980070945,-0.0061444393054582176
1761380423049367000,3.175366943359375,0.059627077966928475,-0.0020322364799678326,-0.009294893559860065
1761380423059448800,3.18544873046875,0.05214812038838863,-0.0012300167189911008,0.0035557562528178094
1761380423069532000,3.195531982421875,0.04661211357116699,0.001462729496322572,0.001935196713125333
1761380423079614000,3.205614013671875,0.05214812038838863,0.000561579405516386,0.0004041055551730096
1761380423089696000,3.215696044921875,0.041970425245165824,0.002565649236924946,0.003527945797285065
1761380423099778800,3.22577880859375,0.048104982477426526,-0.0015794877437874675,0.0023809403197839855
1761380423109860900,3.23586083984375,0.04855623337626457,-0.006400478159449994,-0.003822097305115312
1761380423119943000,3.24594287109375,0.04690437451601028,0.005683817790076136,-0.006895823928341269
1761380423130026000,3.25602587890625,0.0485462965041399,-0.0033431729480624195,-0.0003306841259356588
1761380423140107800,3.266107666015625,0.053038931748270984,0.003237301420792937,0.0031732323417905718
1761380423150189800,3.27618994140625,0.051392918106913564,0.007017039155215025,0.0019589885806664824
1761380423160273000,3.28627294921875,0.04914250883162021,0.006418525272794067,0.003291625423915684
1761380423170355000,3.29635498046875,0.050340778705477714,0.006661869041994214,-0.0003836838216520846
1761380423180437800,3.306437744140625,0.053631052422523494,0.0008471914138644933,0.004038123809127137
1761380423190519800,3.316519775390625,0.05543254888653755,0.0013062968255952,-0.008052263954468071
1761380423200601900,3.326601806640625,0.04825111294984817,0.004999050396308303,-0.0016538498879410325
1761380423210684700,3.3366845703125,0.05019289466738701,0.003319244083203375,-0.0023346078268717974
1761380423220766700,3.3467666015625,0.05049275439679622,-0.00039027795922011134,0.0003394519542809576
1761380423230848800,3.356848876953125,0.04943827690780162,0.005562785226292908,0.000610030790278688
1761380423240931800,3.366931884765625,0.04704465976953506,0.005030578045733273,-0.008310695694945752
1761380423251013600,3.377013671875,0.05331774868965149,-0.004054097696393728,-0.005471435414720326
1761380423261095700,3.387095703125,0.05705635069608688,0.0030027985451743003,-0.0058956978419329965
1761380423271179000,3.397178955078125,0.05092179346382618,0.009403422835096716,-0.0102974673316814
1761380423281260800,3.4072607421875,0.051228082934021944,-0.003173734665289521,-0.0073777439600788055
1761380423291342800,3.4173427734375,0.05691664996445179,0.005281520599499345,-0.0019871826286893338
1761380423301426000,3.427426025390625,0.04778758709132671,0.0036843510685488578,-0.0016666819700505583
1761380423311508000,3.437508056640625,0.05437339522242546,0.0006670856066048145,-0.003379669033549726
1761380423321590000,3.447590087890625,0.05048457109034061,0.0033485067103058096,-0.003611030104011297
1761380423331672800,3.4576728515625,0.05392565145492553,0.0025892127756029365,-0.0020138788393698633
1761380423341755000,3.4677548828125,0.04210428075790405,0.005790383437089622,0.0018562131927814334
1761380423351837000,3.4778369140625,0.048690088889002794,0.00297653159275651,-0.000905415273969993
1761380423361920000,3.487919921875,0.05437631783187389,0.005697444456629455,0.003783628458250314
1761380423372001800,3.498001708984375,0.044648704543709755,0.005255947766825557,-0.003890057107945904
1761380423382083800,3.508083740234375,0.05168342548608779,0.006855528450571,-0.01034104161192663
1761380423392167000,3.5181669921875,0.049582069292664524,0.00699844405259937,0.0020068189109209923
1761380423402249000,3.5282490234375,0.04734042784571647,0.005247435666806996,0.005093943871837109
1761380423412331800,3.538331787109375,0.04194704436957836,-0.0007932327369228005,-0.003506930408719927
1761380423422413800,3.548413818359375,0.044188101294636725,0.004798157529346645,-0.008846747933560982
1761380423432495900,3.558495849609375,0.05122106867134571,0.011078991364501417,-0.005115625980682671
1761380423442578700,3.56857861328125,0.04119067304432392,-0.003328486835584044,0.004276124682929367
1761380423452660700,3.57866064453125,0.042836102163791655,0.0025363135445863006,0.0002602035724557936
1761380423462742800,3.58874267578125,0.04837678515613079,0.008475859661400317,-0.0015322784680407494
1761380423472825900,3.598825927734375,0.046588732695579525,0.004084712030366063,0.009423333111964166
1761380423482907600,3.60890771484375,0.05062660990953445,0.0014621449744328856,-0.007934172266442328
1761380423492989700,3.61898974609375,0.05286474422514438,-0.003770531514659524,0.0017726996277924625
1761380423503072800,3.62907275390625,0.05316109682321548,0.00526873418316245,-0.002306989167584106
1761380423513154800,3.63915478515625,0.05556289726793766,0.009021182051859795,-0.010397338376427069
1761380423523236900,3.64923681640625,0.047923196169734,0.004891681031696498,-0.0012600191316101698
1761380423533320000,3.65931982421875,0.04327916975617409,0.008484335228800773,-0.007388237954629584
1761380423543402000,3.669402099609375,0.047319385057687756,0.006076214641146362,-0.005158971932064741
1761380423553483800,3.67948388671875,0.04537117359936237,-0.000680529610067606,-0.0037181163408327843
1761380423563566800,3.68956689453125,0.05345101968050003,0.003362462170422077,-0.005674255377287045
1761380423573649000,3.69964892578125,0.047619244787096976,0.009387165820039808,-0.0039030627199914303
1761380423583731000,3.70973095703125,0.05375380201935768,0.0030049905022606254,-0.0011058058174327015
1761380423593814000,3.71981396484375,0.059437692874670024,0.008494418231397866,-0.007435319366212934
1761380423603895800,3.729895751953125,0.046864627027511596,0.009493950662761926,-0.0033432734127622097
1761380423613977900,3.739977783203125,0.03938683849275112,0.006918876010365784,0.000586348520591855
1761380423624061000,3.75006103515625,0.05375146393179893,0.0034525150740519163,-0.004612809291388839
1761380423634143000,3.76014306640625,0.061978609529137606,0.0021775997674092647,-0.003264947479544207
1761380423644224800,3.770224853515625,0.04641863682568073,0.0023133549762889742,0.000020266469893977046
1761380423654307800,3.780307861328125,0.043729836133122445,0.00014919921234250069,0.0003032937955111265
1761380423664390000,3.790389892578125,0.04103519022166729,0.009283230521529913,-0.004573600659007206
1761380423674472000,3.800471923828125,0.0488163456171751,0.0015956351609900594,-0.0012532514641061426
1761380423684554800,3.8105546875,0.0483674328058958,0.00026164661087095737,-0.001985666525037959
1761380423694636800,3.82063671875,0.05495616354644298,0.007622275039367377,0.005374861438758671
1761380423704720000,3.830719970703125,0.05585866534411907,0.004496142375469208,-0.003809794945968315
1761380423714801700,3.8408017578125,0.04673486316800117,0.006491298248060047,-0.0019832371059339492
1761380423724883700,3.8508837890625,0.042839609295129776,0.0038798736406490206,0.0016644352140370755
1761380423734966800,3.860966796875,0.05541033705472946,0.0029032106282189485,0.0009137355777435004
1761380423745048800,3.871048828125,0.050474049696326254,0.0026632278598845,-0.002021231028763577
1761380423755131000,3.881130859375,0.04703238480985164,-0.0039166619870811695,0.0036772272080183026
1761380423765213700,3.891213623046875,0.03955108914375305,-0.0028721213702112437,-0.00005917370817624032
1761380423775295700,3.901295654296875,0.0625976182103157,0.0100898707292974,-0.0007686736844014376
1761380423785377800,3.911377685546875,0.057059857827425,0.0023274930994957683,-0.0030391667664982375
1761380423795460900,3.9214609375,0.03954992009997368,0.0010381839413195848,0.0046977110958658155
1761380423805543000,3.93154296875,0.04119651826322079,-0.00034841157887130974,-0.006879886573692783
1761380423815625000,3.941625,0.04808393968939781,0.006686053635179996,-0.00008629917711950839
1761380423825708000,3.9517080078125,0.04838438394069671,0.005297266157902777,-0.0001209138327743858
1761380423835789800,3.961789794921875,0.03955693436264991,0.0010286854606121778,-0.009666832144791259
1761380423845871900,3.971871826171875,0.04060907376408577,-0.0011919131983071565,-0.0026484321495518085
1761380423855955000,3.981954833984375,0.05303016391992569,0.004259776336327195,-0.007727863438846543
1761380423866037000,3.992037109375,0.04884440266788006,0.006825169844925403,-0.005227306194230914
1761380423876118800,4.002118896484375,0.04510053996443748,0.007926701346039771,0.002316277585737407
1761380423886201900,4.012201904296875,0.05542027392685413,0.002503762981854379,-0.002999309680145234
1761380423896284000,4.022283935546875,0.04239245004951954,-0.002442863107472658,-0.0005577069479972123
1761380423906366000,4.032365966796875,0.04882394440174102,0.0018071955524384974,-0.007051471147779375
1761380423916448800,4.04244873046875,0.051666474351286885,0.0022586291143670677,-0.0063480173198506235
1761380423926530800,4.05253076171875,0.04762918165922165,0.0033475933948531743,0.00016812310852110384
1761380423936612900,4.06261279296875,0.04942950907945633,0.005298544799536466,-0.006915597207890823
1761380423946695700,4.07269580078125,0.046288872966170305,0.010747603985667228,-0.0056661816686857484
1761380423956777700,4.08277783203125,0.0447948350161314,0.001970679018460214,-0.005187677436741069
1761380423966859800,4.09285986328125,0.03387655063867569,-0.0029122707175090906,-0.008669309007422998
1761380423976942800,4.10294287109375,0.047042321681976314,-0.008613879892602563,-0.011840632519917562
1761380423987025000,4.11302490234375,0.048991117662191386,-0.0014996274406090379,0.003186320152226835
1761380423997103600,4.123103515625,0.0682967066347599,0.005485482206381857,-0.0024571838937699794
1761380424007185700,4.133185546875,0.048999300968647,0.006783011203631758,0.0004915281102992594
1761380424017267700,4.143267822265625,0.047508185628056525,-0.0009859788300469517,0.0018617570175789295
1761380424027350800,4.153350830078125,0.04422258808612823,0.0021313860055059194,-0.006066113372240215
1761380424037432800,4.163432861328125,0.04212415450215339,0.006219678232446312,-0.0020129563907627015
1761380424047515000,4.173514892578125,0.03868307413756847,0.004129026096127927,-0.001340381758287549
1761380424057598000,4.183597900390625,0.05065525148212909,-0.0031899186151102183,-0.011124483607197179
1761380424067680000,4.193679931640625,0.049455812564492226,0.008277962469123304,-0.005021536222752183
1761380424077761800,4.20376171875,0.048259296256303784,-0.0007090615848079323,0.00801665378496982
1761380424087844900,4.213844970703125,0.0454179353505373,-0.006449431867711246,-0.0032650296779349443
1761380424097927000,4.223927001953125,0.049157706400752066,0.001050970357656479,-0.013304467127937822
1761380424108009000,4.234009033203125,0.046318683582544325,0.002027523772232234,-0.0045168655030895025
1761380424118091800,4.244091796875,0.04856733929216862,0.0006957637118175625,0.002428186128148809
1761380424128173800,4.254173828125,0.05081307239234447,-0.0012348024919629096,-0.005517612644005567
1761380424138256000,4.264255859375,0.03450082001686096,0.003210669142194092,-0.011000409702956676
1761380424148338700,4.274338623046875,0.0437707526654005,0.006654270257428288,0.005641156825283542
1761380424158420700,4.284420654296875,0.04541559726297855,0.0026517931504175065,-0.006617143984278664
1761380424168502800,4.294502685546875,0.04436871855854988,-0.0006198854640126228,-0.004151767650898546
1761380424178585900,4.3045859375,0.05154781640768051,-0.0014232012035325168,0.003645188101939857
1761380424188667600,4.314667724609375,0.053041269835829734,0.0061071577686816455,-0.0037419995399191972
1761380424198749700,4.324749755859375,0.050045595151185986,0.005874408458732068,0.00011287665679119526
1761380424208832800,4.334832763671875,0.04390986887514591,0.0015434300497174263,-0.0069489880208391695
1761380424218914800,4.344914794921875,0.05318681578636169,-0.005490925566479564,-0.0039939193412195885
1761380424228996900,4.354996826171875,0.05543488697409629,0.002932071396522224,0.00029851715569384393
1761380424239079700,4.36507958984375,0.04151566721498966,0.0021142522076144812,0.00030962307159788905
1761380424249161700,4.37516162109375,0.05677461114525795,0.008831139372475445,0.003813082881597802
1761380424259243800,4.385243896484375,0.05348199934065342,0.006932393079064786,-0.009892503259982912
1761380424269326600,4.39532666015625,0.04884615623354911,-0.0061781406456604595,-0.0063193574809469275
1761380424279408600,4.40540869140625,0.04495850114524364,0.002551438048481941,-0.00892616071216762
1761380424289490700,4.41549072265625,0.052446226552128786,0.002562069040350616,-0.0042485334231052545
1761380424299574000,4.425573974609375,0.04451777164041996,0.0012033844403922557,-0.005159364657709374
1761380424309655800,4.43565576171875,0.04840191959738731,-0.0010523585971444845,-0.008391633710358292
1761380424319737900,4.44573779296875,0.05139350262880325,0.003912022344581783,-0.008979370470438152
1761380424329821000,4.455821044921875,0.04854863459169864,-0.0011306479977443813,-0.004958891915855929
1761380424339903000,4.465903076171875,0.045562312257289884,0.003122479402087629,-0.004573609792161732
1761380424349984800,4.47598486328125,0.04960194303691387,0.004495777049288154,-0.0060467784841079265
1761380424360067800,4.48606787109375,0.05169979209899902,0.008213628528639674,-0.007383844907302409
1761380424370150000,4.49614990234375,0.05589256761372089,0.005712386297434568,-0.0023878541177604347
1761380424380232000,4.50623193359375,0.043481414330005644,0.003979132764041424,0.0013366736975498497
1761380424390314800,4.516314697265625,0.04647358188331127,-0.000054214405268430705,0.00041838067569769917
1761380424400396800,4.526396728515625,0.055901919963955875,0.004463737943209707,0.0020827336913440374
1761380424410479900,4.53647998046875,0.05829144544899463,0.002443812955543399,0.0018143376792781054
1761380424420561700,4.546561767578125,0.04108604362607002,-0.0039028526574373243,-0.0057733592370525
1761380424430643700,4.556643798828125,0.03210661835670471,-0.00041873686872422695,-0.0023141860933508724
1761380424440726800,4.566726806640625,0.05559913762509822,0.0007796426029875874,-0.004462760695675388
1761380424450808800,4.576808837890625,0.053802317336201666,-0.00172397424839437,-0.003542284849891439
1761380424460891000,4.586890869140625,0.04871288524270057,0.0026258549915626644,0.0031271190445870158
1761380424470973700,4.5969736328125,0.043775428840517994,0.0018407690284773705,0.007385242279944941
1761380424481055700,4.6070556640625,0.06547288138568401,-0.0019045915123075245,-0.0038594793065916747
1761380424491137800,4.6171376953125,0.05664660085141658,-0.0022690043779090047,-0.006108454676624387
1761380424501220600,4.627220703125,0.04108838171362877,0.001852422933652997,-0.011373937456775457
1761380424511302700,4.637302734375,0.05380640898942947,0.0031835619395598766,-0.010592249027173966
1761380424521384700,4.647384765625,0.053204351443052286,-0.004095050761289894,-0.003207874396909028
1761380424531468000,4.657468017578125,0.05334522121846676,-0.003742328333482146,-0.007944163937494158
1761380424541549600,4.667549560546875,0.05004851776063442,0.005839556341059505,-0.01264869749979116
1761380424551631600,4.677631591796875,0.051992637565732,0.006963153543509543,-0.00027566600306890905
1761380424561715000,4.68771484375,0.05483925916850566,-0.00046575434822589156,0.006028101183101535
1761380424571797000,4.697796875,0.05259118798077106,0.0027292057681828734,0.00020655542276799678
1761380424581878800,4.707878662109375,0.05573825383484363,0.006215184720419347,0.0022307821262162178
1761380424591961900,4.7179619140625,0.04317454033792019,0.005319733718037605,-0.003469612339325249
1761380424602044000,4.7280439453125,0.05065349791646003,-0.0030103242645040155,-0.008450049366708845
1761380424612126000,4.7381259765625,0.04286766634583473,0.0023159487921744584,-0.004952736169705167
1761380424622208800,4.748208740234375,0.044217327389121056,0.0018244024155661463,-0.005940906956838444
1761380424632290800,4.758290771484375,0.05275134697854519,0.0000491363713517785,-0.008467767686489968
1761380424642372900,4.768372802734375,0.045268297746777535,-0.006254895676299929,-0.003984448259975761
1761380424652455700,4.77845556640625,0.04227729923725128,0.00012632979340851307,-0.00967449486143887
1761380424662537700,4.788537841796875,0.0479576829612255,0.003909136267751455,-0.010191358342394232
1761380424672619800,4.798619873046875,0.04705518116354942,0.0007313830144703388,0.000118822340387851
1761380424682702800,4.808702880859375,0.050939329120516776,0.0034092969868332146,-0.0008849387415219098
1761380424692785000,4.818784912109375,0.05019347918927669,0.009770466049201785,-0.0009251611540559678
1761380424702866700,4.82886669921875,0.045108723270893096,0.003237484083883464,-0.011150147771416232
1761380424712949800,4.83894970703125,0.049148938572406764,0.0050683893054723735,0.001380138379940763
1761380424723031800,4.84903173828125,0.03837386205792427,0.005388378507457673,-0.001050458901003003
1761380424733113900,4.85911376953125,0.03987432974874973,0.001271846566721797,-0.008580142019782215
1761380424743196700,4.86919677734375,0.055582186490297315,0.008560432672314345,-0.0048385352055076505
1761380424753278700,4.87927880859375,0.049148938572406764,0.0022384631091728804,-0.0030869331646710633
1761380424763360800,4.88936083984375,0.04331190298199653,-0.0009889745047315954,-0.003132681135693565
1761380424773443600,4.899443603515625,0.05348842908143997,0.004614654188603163,-0.003468351964000612
1761380424783525600,4.909525634765625,0.051988545912504194,0.0029650603506714106,-0.005901004204712808
1761380424793607700,4.919607666015625,0.047796939441561694,0.003295059490017593,-0.0038437885471154
1761380424803691000,4.92969091796875,0.04360825558006763,0.004244980625994503,-0.002675822479976341
1761380424813772800,4.939772705078125,0.04630173244774341,0.0026208134902641175,-0.0016934695122763513
1761380424823854600,4.9498544921875,0.04271919778585434,0.00632726679276675,0.0009803528068587184
1761380424833938000,4.95993798828125,0.035832360881567,0.0015321049381047487,-0.003095463530998677
1761380424844020000,4.97002001953125,0.04465396524071693,0.004748801962286234,-0.003429883117135614
1761380424854102000,4.98010205078125,0.051533203360438345,-0.004415295691601932,0.0000030230741482228037
1761380424864184800,4.990184814453125,0.04869301149845123,-0.0004787964928895235,-0.01277007712344639
1761380424874267000,5.000266845703125,0.04600128819644451,-0.003071443334594369,-0.004247355246171355
1761380424884349000,5.010348876953125,0.05049158535301685,0.0033118279617279766,-0.0005450849284417927
1761380424894431700,5.020431640625,0.04600479532778263,0.00790427031852305,-0.0005357417113613337
1761380424904513800,5.030513671875,0.04630348601341247,0.0066974883446469895,0.005098894041590392
1761380424914595800,5.040595947265625,0.04600304176211357,0.011778079544566571,-0.002489780122274533
1761380424924679000,5.050678955078125,0.047348611152172086,-0.0028356618173420427,-0.006032366366265341
1761380424934760700,5.0607607421875,0.06036825172305107,-0.006239953835494816,-0.004051695676753298
1761380424944842800,5.0708427734375,0.05333586886823177,0.0018594006637111305,-0.0016901724434923379
1761380424954925800,5.08092578125,0.052445642030239104,0.005891359593532979,-0.0008556761144194752
1761380424965008000,5.0910078125,0.042268531408905984,-0.000681954382173717,-0.0061883606455754485
1761380424975089700,5.101089599609375,0.0473567944586277,0.00046012832503765816,0.002544241122715175
1761380424985172700,5.1111728515625,0.057230538219213485,0.004549772258847951,0.003568798397481441
1761380424995255000,5.121255126953125,0.05154080214500427,0.002675064428150654,-0.004861861282167956
1761380425005337000,5.131337158203125,0.03896247560083866,0.0037978579130023716,0.0040696605917066335
1761380425015420000,5.141419921875,0.05227788424789905,0.0012633709993213414,-0.007413335863268002
1761380425025502000,5.151501953125,0.04583937563300133,0.011692374022491276,0.005558090784866363
1761380425035585000,5.1615849609375,0.05167699574530124,0.005344758561439812,0.0038852622018195684
1761380425045666800,5.171666748046875,0.054074704536795616,0.004224887686036527,-0.01208199439458549
1761380425055748900,5.181748779296875,0.04838789107203483,0.0042834494728595015,-0.004036425042385235
1761380425065832000,5.19183203125,0.06051204410791397,-0.0029836189206689594,-0.000723418903723359
1761380425075914000,5.2019140625,0.054522448304295534,-0.00047715252507477994,-0.004574751436477527
1761380425085996000,5.21199609375,0.03806289641261101,0.0023828765485435725,-0.00225516764880158
1761380425096078800,5.222078857421875,0.042399464312195774,-0.00025178280398249623,-0.0012774725899100303
1761380425106161000,5.232160888671875,0.05092471607327461,-0.0011760580420494078,-0.0010632727168034763
1761380425116243000,5.242242919921875,0.04090075018703937,-0.0013621551986783742,0.0029982228347565977
1761380425126326000,5.252325927734375,0.03835632640123367,0.005698102043755352,-0.01419567121346481
1761380425136407800,5.26240771484375,0.0467336941242218,-0.0005612871445715427,-0.0033591468353290107
1761380425146489900,5.27248974609375,0.04568564637601375,-0.00031856442987918853,-0.006285409545572474
1761380425156573200,5.2825732421875,0.05122457580268383,0.003969743881188333,-0.008792095136875287
1761380425166655000,5.292655029296875,0.05092705416083335,0.010695545004867017,-0.005405393574340269
1761380425176737000,5.302737060546875,0.04838789107203483,0.001311009533330798,-0.0020685681686736642
1761380425186820000,5.312820068359375,0.0482411760777235,0.00397255689278245,0.0035942798986099657
1761380425196902100,5.322902099609375,0.049288639304041856,0.010462430368736385,0.0010240914838854224
1761380425206984000,5.33298388671875,0.04749240353703499,0.0020828341560438276,-0.0016986480108927935
1761380425217067000,5.34306689453125,0.052724458971619606,0.0006700812812894582,0.0007100388323422521
1761380425227149000,5.353149169921875,0.049287470260262485,0.0005181786552071571,0.0037612522296607493
1761380425237231000,5.363231201171875,0.051831309524178505,-0.0017633198780938981,0.004276261680247262
1761380425247314000,5.37331396484375,0.043452772757411,0.004823365035839379,0.0012318433498963713
1761380425257396000,5.38339599609375,0.04091010253727436,0.00044967999625951046,-0.00807568136267364
1761380425267478000,5.39347802734375,0.05168401000797748,0.001326353232935071,0.002627508092531934
1761380425277560800,5.403560791015625,0.04509878639876842,0.0032968130556866523,0.001569048548163846
1761380425287643000,5.413642822265625,0.05092763868272304,0.006146759126707911,0.0003109656453132629
1761380425297725000,5.423724853515625,0.0524240147203207,0.0007977993141859769,-0.01143745854650624
1761380425307808000,5.43380810546875,0.05107727628648281,-0.0032523528594523665,-0.008142536053806543
1761380425317890000,5.44389013671875,0.040596214282512665,0.0045341362982988355,0.00047208362431265413
1761380425327971800,5.453971923828125,0.04509001857042312,0.010818806058354676,-0.003941924292501062
1761380425338055000,5.464054931640625,0.04209902006089687,-0.00016118191108107567,-0.000662336366251111
1761380425348137000,5.474136962890625,0.04195230506658554,0.005171082494966685,-0.006572994315298274
1761380425358219000,5.484218994140625,0.0593126051902771,0.00017546616476029155,-0.0025305596572346985
1761380425368301800,5.4943017578125,0.04629530270695686,0.002198131098784506,-0.0021787505448795856
1761380425378384000,5.5043837890625,0.04524959304630756,-0.002175736603885889,0.0006730860891286283
1761380425388466000,5.5144658203125,0.056771688535809516,0.001493709156475961,-0.010259738270333036
1761380425398549000,5.524549072265625,0.04898877957463264,-0.0038820655977353452,-0.009486881601158528
1761380425408630800,5.534630859375,0.04914133978784084,-0.007724310641735792,-0.00443435658509843
1761380425418712800,5.544712890625,0.04749532614648342,0.004077843898162245,-0.012724630546523258
1761380425428796200,5.554796142578125,0.04883914197087288,0.002963087589293718,0.001927661860641092
1761380425438878000,5.5648779296875,0.03282558028101921,0.007287563192285597,0.007228946606535464
1761380425448960000,5.5749599609375,0.05033142635524273,0.004332037854939699,-0.002991272504162043
1761380425459043000,5.58504296875,0.05721417160630226,-0.0015436492454260586,-0.010466138429474085
1761380425469125000,5.595125,0.04509644831120967,-0.004002404041774571,-0.008476462449599056
1761380425479207000,5.60520703125,0.045697336813807485,-0.0022824118487536904,-0.006846303964499384
1761380425489290000,5.6152900390625,0.05303250200748443,0.007971672998927534,-0.0028081710222177206
1761380425499372000,5.6253720703125,0.04539630804061889,0.001989383718930185,0.0001258731356821954
1761380425509454000,5.6354541015625,0.04673661673367023,0.00033825551103800535,0.0033466070141643283
1761380425519537000,5.645536865234375,0.05481412472724914,0.007267287589237094,-0.006607864699279889
1761380425529619000,5.655618896484375,0.03940203606188297,0.006938238297961652,-0.004109892137395218
1761380425539701000,5.665700927734375,0.0435877973139286,0.00223353120572865,-0.0023775975852273405
1761380425549784000,5.6757841796875,0.05196750312447548,0.0013000497478991746,-0.0033929029744584113
1761380425559865900,5.685865966796875,0.04657704225778579,0.00569349893387407,-0.004259109616046771
1761380425569948000,5.695947998046875,0.05390402414500713,0.005694046923145651,0.0074420413679443295
1761380425580031000,5.706031005859375,0.05375555558502674,0.002217566451616585,-0.001088863815786317
1761380425590113000,5.716113037109375,0.04746902266144752,0.00761453012432903,-0.007011413132026791
1761380425600194800,5.72619482421875,0.044620647493004796,0.00981963895317167,-0.001266494538169354
1761380425610278000,5.73627783203125,0.05404430939853191,0.005154021762311459,0.001066916845459491
1761380425620360000,5.74635986328125,0.05165127678215503,0.004055449403263628,-0.007687540561612695
1761380425630442000,5.75644189453125,0.049556934851408004,0.007209237259067595,-0.0035637112304102627
1761380425640524800,5.76652490234375,0.037435119903087614,0.006186689278297126,-0.0026860333467368033
1761380425650606800,5.77660693359375,0.04282032007277012,0.002205656818114221,-0.007297399599710479
1761380425660689000,5.78668896484375,0.0489472785204649,0.009549480242282152,0.0008064849441405385
1761380425670772000,5.79677197265625,0.05223755223751068,0.0030357144340872762,-0.001247104851109907
1761380425680854000,5.80685400390625,0.04714519753456115,0.007964110746979712,0.0009069131113123148
1761380425690935800,5.816935791015625,0.04220715661048889,0.00396506770607084,0.00041254458995535967
1761380425701019100,5.82701904296875,0.05103343714475631,0.008124635070934891,-0.007044137224694713
1761380425711101000,5.837100830078125,0.04354921886920929,0.0036766061535105105,-0.0005195029626134783
1761380425721183000,5.847182861328125,0.05148118091225624,0.007080752041190862,0.00005889058038592338
1761380425731266000,5.85726611328125,0.047290158963203426,0.0006721636405214667,-0.005785296270018443
1761380425741348000,5.86734814453125,0.0483370376676321,0.006256283915787935,-0.003004360314598307
1761380425751430100,5.87743017578125,0.04639116429686546,0.0035830095859244464,-0.011972213877178728
1761380425761513000,5.887512939453125,0.0477402408182621,0.01201415332276374,-0.001893631726875901
1761380425771595000,5.897594970703125,0.04609013552367687,0.007295052378997207,-0.004546137263346463
1761380425781677000,5.907677001953125,0.054770870107412335,0.003171871501766145,-0.000015772957867011427
1761380425791760000,5.917759765625,0.04354980339109897,0.0006933890916407107,-0.0002582856100052595
1761380425801842000,5.927842041015625,0.045049686560034746,0.0018121639885008334,0.007532532662991434
1761380425811924000,5.937924072265625,0.05448094725012779,-0.0005317322565242648,0.0002572809630073607
1761380425822007000,5.948007080078125,0.044458150407671926,0.0009991305725648998,-0.0022409473272040487
1761380425832088800,5.9580888671875,0.04834755906164646,0.0019547507969662546,-0.0009662238168064504
1761380425842171000,5.9681708984375,0.04565525123775005,-0.0007078194757923484,-0.0034988658332731574
1761380425852253000,5.9782529296875,0.05462766224443912,-0.004406856656819582,-0.0058153260821010916
1761380425862336000,5.9883359375,0.05013794960975647,0.0012804317319765686,-0.005998144436255097
1761380425872418000,5.99841796875,0.046243280258774756,0.004771379120275378,0.00014769224184565244
1761380425882499800,6.008499755859375,0.05581716428995132,0.007993811765499412,0.0008683164002839475
1761380425892583000,6.0185830078125,0.042944823235273356,0.0050813583848997946,-0.006630405324650928
1761380425902665000,6.0286650390625,0.041896775487065316,0.008264153139479457,-0.00357378509985283
1761380425912747000,6.0387470703125,0.04368599699139595,-0.001773512478545308,-0.0035117435811553147
1761380425922829800,6.048829833984375,0.04606909273564815,0.0032878260316327214,-0.0010278817430138588
1761380425932911900,6.058911865234375,0.04891805242598057,0.008259623094834388,0.00116871498581022
1761380425942994000,6.068993896484375,0.04651917459070682,0.008978731149621307,-0.007641390731791034
1761380425953077000,6.079076904296875,0.04532558089196682,0.007534267962351441,-0.003186731144180521
1761380425963159000,6.089158935546875,0.04832300914227962,0.004706424125283957,-0.0024663444477599113
1761380425973240800,6.09924072265625,0.04502396759688854,0.00369739321321249,-0.0017054796104785054
1761380425983324200,6.10932421875,0.04771043020188808,0.004929053900018334,-0.00155408844104968
1761380425993405700,6.11940576171875,0.053394905579090116,0.0007869856592267751,-0.00231231379667297
1761380426003487700,6.12948779296875,0.047862405893206596,0.012487981379590929,0.0032063034943304956
1761380426013570800,6.13957080078125,0.043673137509822844,0.0025174992462620137,-0.0026899149374105037
1761380426023652900,6.14965283203125,0.0445727166980505,0.0011276523230597376,-0.0051021089119836684
1761380426033735000,6.15973486328125,0.046965749314427374,0.006181940037943422,-0.0034739688540343194
1761380426043817700,6.169817626953125,0.05459668258428573,0.003498290444537997,-0.003323226138576865
1761380426053899800,6.179899658203125,0.038432898768782614,0.00740194681957364,-0.008304247687850147
1761380426063981800,6.18998193359375,0.06581599573493004,0.00889894391167909,-0.004300820732768625
1761380426074064600,6.200064697265625,0.04306815735399723,0.01013484238218516,-0.006648973027803004
1761380426084146700,6.210146728515625,0.04365852446258068,0.014026479525864123,-0.0020221443442162124
1761380426094228700,6.220228759765625,0.03722761463224888,0.001082753735408187,-0.00408246527435258
1761380426104312000,6.23031201171875,0.04187222556769848,0.008764540409669279,-0.0028696554184891284
1761380426114393900,6.240393798828125,0.045609658530354494,0.011250731202214955,-0.00512514272769913
1761380426124476000,6.250475830078125,0.03513151913583278,0.0002836757795885205,-0.0035948735536541787
1761380426134559000,6.26055908203125,0.04111702328622341,0.003767024383321404,-0.004671635939693078
1761380426144641000,6.27064111328125,0.048749710121750826,0.003320303529128432,0.000055036389175802464
1761380426154722800,6.280722900390625,0.04740764786303043,-0.0007279489483684301,-0.0036509511224459856
1761380426164806000,6.290805908203125,0.04905249246060848,0.011104637262411414,-0.007294595721270889
1761380426174888000,6.300887939453125,0.051591655549407,0.008659107273817062,-0.0034456560750026253
1761380426184970000,6.310969970703125,0.04141746753752231,-0.0005790054643526673,-0.008213701593875885
1761380426195052800,6.321052734375,0.04695347435474395,0.002582783034816384,-0.0013228004358243196
1761380426205134800,6.331134765625,0.048750294643640515,0.004357354959286749,-0.0035174700690433383
1761380426215217000,6.341216796875,0.046055064210295676,0.00008954144697636365,-0.00196690702564083
1761380426225299700,6.3512998046875,0.05188625458180904,0.006763758513890206,-0.002666360531887039
1761380426235381800,6.3613818359375,0.04006488388478756,-0.001902947544492781,-0.012646962200431152
1761380426245463800,6.3714638671875,0.04575871161222458,-0.0010427139859646559,-0.0018545144260395318
1761380426255547000,6.381546875,0.05383212795257568,0.005373838525451719,-0.003910844167647883
1761380426265629000,6.39162890625,0.05682780263721943,0.0033757235107943415,-0.0031077110912185162
1761380426275710700,6.401710693359375,0.050393385675549504,0.0033879254052415486,-0.009677892394922673
1761380426285793800,6.411793701171875,0.05158347224295139,0.002661583892069757,-0.0031077202243730423
1761380426295875800,6.421875732421875,0.045749943783879275,0.0028148016924038526,-0.004726626663096249
1761380426305958000,6.4319580078125,0.04695230531096458,0.00029624300021678207,-0.0018618666154332458
1761380426316040700,6.442040771484375,0.0414092842310667,0.002814728627167642,-0.013949907158315181
1761380426326122800,6.452122802734375,0.047991000708937644,0.009589666122198104,-0.008748849650193005
1761380426336204800,6.462204833984375,0.053228901362419125,0.004067797428183258,-0.003593302651075646
1761380426346287600,6.47228759765625,0.05442307958304882,0.0020320172842592,-0.004526208720169961
1761380426356369700,6.48236962890625,0.052175008395314214,-0.0001175619650632143,-0.002427327611623332
1761380426366451700,6.49245166015625,0.047537411722540855,0.011208864821866154,-0.011313357242802158
1761380426376535000,6.50253515625,0.04378887284398079,0.009632665013708174,0.0014393303544260562
1761380426386616800,6.512616943359375,0.04857143094539642,0.006305968276411294,0.004657196422386914
1761380426396699000,6.522698974609375,0.050959202864766115,0.007118782496638595,0.0047753977082669735
1761380426406782000,6.532781982421875,0.043776597884297365,0.006392769777029753,-0.001481982186064124
1761380426416864000,6.542864013671875,0.04827449382543564,0.0009720599025487899,0.0032891777385026214
1761380426426946000,6.552946044921875,0.04603168333470821,-0.0042960166934877635,-0.0014529844204429537
1761380426437027800,6.56302783203125,0.034957331612706186,-0.0018664149263873694,0.003958729296829552
1761380426447111000,6.57311083984375,0.046779286831617355,0.011153517905436455,-0.020231416846904902
1761380426457193000,6.58319287109375,0.044833997982740396,0.0017369798604398965,-0.006727536423038691
1761380426467275000,6.59327490234375,0.04468552942276001,0.0019683774635195733,-0.0008712116102688014
1761380426477357800,6.60335791015625,0.04573065456151962,0.011573058491759002,0.0010062726994045077
1761380426487440000,6.61343994140625,0.045125674405694004,0.0019775471506640312,-0.0070426941862795495
1761380426497522000,6.62352197265625,0.05754442647397518,0.00348966874666512,-0.005120092093246057
1761380426507604700,6.633604736328125,0.04258066609799862,0.0024296017671003936,-0.002617406823625788
1761380426517686800,6.643686767578125,0.04123158957660198,0.0014609759306535124,-0.011265983570273965
1761380426527768800,6.653768798828125,0.05424538492858409,0.003796213945187628,-0.00012084076753817497
1761380426537852000,6.663851806640625,0.05230068060159683,0.006949599942192435,-0.002282064788881689
1761380426547933700,6.67393359375,0.04317103320658207,0.004021912459842861,-0.0010580759518779813
1761380426558015700,6.684015625,0.0494569816082716,0.00589008095189929,-0.0008578498051967471
1761380426568098800,6.694098876953125,0.049450551867485044,0.007992131265066564,-0.004196520108077675
1761380426578180900,6.704180908203125,0.04690437451601028,0.012284713892452418,-0.0006674326664768159
1761380426588263000,6.714262939453125,0.046156771019101143,0.011718421779200435,0.0011115049058571457
1761380426598345700,6.724345703125,0.04436170429587364,0.0006716521838679909,-0.0032337120910640805
1761380426608427800,6.734427734375,0.0537006105273962,0.006773037798888981,-0.010782976693147792
1761380426618509800,6.744509765625,0.15928104589581488,0.04923815122582018,-0.06639026109208353
1761380426628592600,6.754592529296875,0.11503507693409919,0.04422956581618637,-0.0744983925527893
1761380426638674700,6.7646748046875,-0.011782207730412483,-0.002122654709778726,0.010799809096939861
1761380426648756700,6.7747568359375,-0.059203299596905706,-0.036708851455152035,0.0651802003157325
1761380426658840000,6.784840087890625,-0.13088380345106124,-0.07173457212895154,0.11334830202409066
1761380426668921900,6.794921875,-0.08389175065159797,-0.04382303084190935,0.0865453521666117
1761380426679004000,6.80500390625,0.28316110806465145,0.08001775876246392,-0.1286321429335978
1761380426689087000,6.8150869140625,0.2782107921808958,0.082540482173115,-0.12574887911486438
1761380426699169000,6.8251689453125,-0.1513420695900917,-0.06589687895141541,0.08887108256728388
