time,seconds_elapsed,z,y,x
1761380419942739700,0.06873974609375,0.013531787320971489,-0.03604641929268837,-0.01600613072514534
1761380419952821800,0.07882177734375,0.013254286721348763,-0.01726420782506466,-0.0026370619889348745
1761380419962904600,0.088904541015625,0.015246597118675709,0.01332805585116148,0.01751374639570713
1761380419972986600,0.098986572265625,0.014004765078425407,-0.011275025084614754,0.000313986703986302
1761380419983069700,0.109069580078125,0.011530688032507896,-0.0299680195748806,-0.009313340298831463
1761380419993152500,0.119152587890625,0.013698767870664597,0.001019990653730929,0.00794127956032753
1761380420003234600,0.129234619140625,0.010884072631597519,0.0032615733798593283,0.008982043713331223
1761380420013316600,0.139316650390625,0.013227388262748718,-0.021992916241288185,-0.0034013893455266953
1761380420023399700,0.149399658203125,0.015535816550254822,-0.016760338097810745,-0.0007222492713481188
1761380420033481500,0.1594814453125,0.014904114417731762,0.007113569416105747,0.010182330384850502
1761380420043563500,0.1695634765625,0.014371216297149658,-0.007686415687203407,0.004744421225041151
1761380420053646600,0.179646484375,0.012504073791205883,-0.019938554614782333,-0.004053597338497639
1761380420063728600,0.189728759765625,0.015083079226315022,-0.003215234261006117,0.006449110805988312
1761380420073810700,0.199810791015625,0.01275813952088356,0.00040000680019147694,0.0067750816233456135
1761380420083893500,0.2098935546875,0.013128851540386677,-0.014279336668550968,-0.005108209326863289
1761380420093975600,0.2199755859375,0.01152562815696001,-0.010307498276233673,0.0007355650886893272
1761380420104058600,0.23005859375,0.010611365549266338,-0.0009456885163672268,0.005102616734802723
1761380420114140400,0.240140380859375,0.011593539267778397,-0.00974450632929802,0.002438656520098448
1761380420124222500,0.250222412109375,0.010439325124025345,-0.015169898048043251,-0.0029148298781365156
1761380420134305500,0.260305419921875,0.012483567930758,-0.0028328043408691883,0.006022206041961908
1761380420144387600,0.2703876953125,0.013675065711140633,-0.0073042516596615314,0.003916178364306688
1761380420154469400,0.280469482421875,0.011774900369346142,-0.012310994789004326,0.0004588626616168767
1761380420164552700,0.290552734375,0.013611149974167347,-0.010745055973529816,0.0031380027066916227
1761380420174634800,0.300634765625,0.013039369136095047,-0.0022447784431278706,0.007661381736397743
1761380420184716800,0.310716796875,0.0139581598341465,-0.011196195147931576,0.0005169195355847478
1761380420194799600,0.320799560546875,0.014671620912849903,-0.008655273355543613,0.0023787354584783316
1761380420204881700,0.330881591796875,0.012624981813132763,-0.006703709252178669,0.005152151454240084
1761380420214963700,0.340963623046875,0.01269768550992012,-0.009851032868027687,0.0034975295420736074
1761380420225046500,0.351046630859375,0.012145878747105598,-0.010654508136212826,-0.0013885721564292908
1761380420235128600,0.361128662109375,0.015180816873908043,-0.008991630747914314,0.0021702100057154894
1761380420245210600,0.371210693359375,0.015117167495191097,-0.006453105714172125,0.003733485471457243
1761380420255293700,0.381293701171875,0.013292103074491024,-0.008465123362839222,0.0028628981672227383
1761380420265375500,0.39137548828125,0.01401861384510994,-0.01016954705119133,0.002176867797970772
1761380420275457500,0.40145751953125,0.01387054193764925,-0.004796086810529232,0.0033135050907731056
1761380420285540600,0.41154052734375,0.013861753046512604,-0.009738381020724773,-0.0003539340978022665
1761380420295622700,0.42162255859375,0.012529374100267887,-0.009357549250125885,-0.00003834952076431364
1761380420305704700,0.43170458984375,0.012060923501849174,-0.007505853194743395,0.0013164004776626825
1761380420315787500,0.44178759765625,0.012530705891549587,-0.00324825756251812,0.004849882796406746
1761380420325869600,0.45186962890625,0.013155749067664146,-0.010296845808625221,0.002323608146980405
1761380420335951600,0.46195166015625,0.014582138508558273,-0.010009224526584148,-0.0008498146780766547
1761380420346034400,0.472034423828125,0.012806875631213188,-0.0060048955492675304,0.0043958136811852455
1761380420356116500,0.482116455078125,0.013426858931779861,-0.008810003288090229,0.005627259146422148
1761380420366198500,0.492198486328125,0.012781575322151184,-0.01170219574123621,0.0004159857635386288
1761380420376281600,0.502281494140625,0.013967746868729591,-0.011068363673985004,0.002013882389292121
1761380420386363400,0.51236328125,0.012280634604394436,-0.005794771946966648,0.002499376656487584
1761380420396445400,0.522445556640625,0.013049488887190819,-0.009256082586944103,0.001353152096271515
1761380420406528500,0.532528564453125,0.012649215757846832,-0.009178850799798965,-0.0035020567011088133
1761380420416610600,0.542610595703125,0.013972806744277477,-0.010644921101629734,0.0034115093294531107
1761380420426692600,0.552692626953125,0.012327772565186024,-0.0059811933897435665,0.0005792375304736197
1761380420436775700,0.562775634765625,0.012321114540100098,-0.010762366466224194,0.0021640846971422434
1761380420446857700,0.572857666015625,0.015482020564377308,-0.007795871235430241,0.0035979305393993855
1761380420456939800,0.582939697265625,0.012565593235194683,-0.009887784719467163,0.0022948458790779114
1761380420467022600,0.593022705078125,0.014647386036813259,-0.00743288267403841,-0.00003328951424919069
1761380420477104600,0.603104736328125,0.011816978454589844,-0.0073135728016495705,0.0034551850985735655
1761380420487186700,0.613186767578125,0.015691079199314117,-0.008079231716692448,0.004658135119825602
1761380420497269500,0.62326953125,0.014374145306646824,-0.009680057875812054,0.002880475018173456
1761380420507351600,0.6333515625,0.01444045826792717,-0.008901349268853664,0.005717007908970118
1761380420517434600,0.6434345703125,0.012369850650429726,-0.009184976108372211,0.0026008430868387222
1761380420527516700,0.6535166015625,0.017411215230822563,-0.007814513519406319,-0.0003051982494071126
1761380420537598700,0.6635986328125,0.011924570426344872,-0.011089934967458248,0.002380599733442068
1761380420547681500,0.673681640625,0.011738414876163006,-0.00595429539680481,0.003040264593437314
1761380420557763600,0.683763671875,0.011520035564899445,-0.011711517348885536,0.00392816262319684
1761380420567845600,0.693845703125,0.014146445319056511,-0.00606375141069293,0.001606152392923832
1761380420577928400,0.703928466796875,0.012479838915169239,-0.008883772417902946,-0.0009017463307827711
1761380420588010500,0.714010498046875,0.01372113823890686,-0.008629441261291504,0.005212338641285896
1761380420598092500,0.724092529296875,0.012472914531826973,-0.00854555144906044,0.00044128578156232834
1761380420608175600,0.734175537109375,0.0136612169444561,-0.009348760358989239,0.001458080718293786
1761380420618257400,0.74425732421875,0.013253487646579742,-0.007404386531561613,0.0006119944155216217
1761380420628339500,0.75433935546875,0.01130831427872181,-0.008114918135106564,0.0015419702976942062
1761380420638422500,0.764422607421875,0.011699533089995384,-0.0089404983446002,0.0046935551799833775
1761380420648504600,0.774504638671875,0.013711284846067429,-0.009953830391168594,0.0033683660440146923
1761380420658586600,0.784586669921875,0.01053360104560852,-0.006068544927984476,0.003070358419790864
1761380420668669700,0.794669677734375,0.014575746841728687,-0.009363674558699131,0.0033952640369534492
1761380420678751700,0.804751708984375,0.013796239160001278,-0.008143680170178413,0.002275937469676137
1761380420688833500,0.81483349609375,0.015262309461832047,-0.008840097114443779,0.001532116555608809
1761380420698916600,0.82491650390625,0.015030082315206528,-0.009855560027062893,0.0023060310631990433
1761380420708998700,0.83499853515625,0.012691027484834194,-0.0052200620993971825,0.0032866070978343487
1761380420719080700,0.845080810546875,0.01257890835404396,-0.009645170532166958,0.0040852888487279415
1761380420729163500,0.85516357421875,0.012884905561804771,-0.006463491823524237,0.0016215987270697951
1761380420739245600,0.86524560546875,0.013817811384797096,-0.00950668565928936,0.003719637170433998
1761380420749327600,0.87532763671875,0.013098491355776787,-0.00640836451202631,0.0022626216523349285
1761380420759410700,0.88541064453125,0.012693957425653934,-0.007996940053999424,0.0015326491557061672
1761380420769492700,0.89549267578125,0.012360263615846634,-0.00691942498087883,0.002591255819424987
1761380420779574500,0.905574462890625,0.01248143706470728,-0.008799617178738117,0.004948153160512447
1761380420789657600,0.91565771484375,0.01381088700145483,-0.009880327619612217,0.0022040321491658688
1761380420799739600,0.92573974609375,0.013412478379905224,-0.0062882560305297375,0.002541188383474946
1761380420809821700,0.93582177734375,0.01480557769536972,-0.009820672683417797,0.004043211229145527
1761380420819904500,0.945904541015625,0.013713682070374489,-0.009667008183896542,0.004170776344835758
1761380420829986600,0.955986572265625,0.01360262744128704,-0.010381534695625305,0.0029952572658658028
1761380420840069600,0.966069580078125,0.013412744738161564,-0.007129015866667032,-0.0004649879119824618
1761380420850151400,0.9761513671875,0.016891632229089737,-0.010397779755294323,0.0008325041271746159
1761380420860233500,0.9862333984375,0.014158962294459343,-0.008596151135861874,0.001116130850277841
1761380420870316500,0.996316650390625,0.014251373708248138,-0.010209227912127972,0.001528920722194016
1761380420880398600,1.006398681640625,0.013206882402300835,-0.008290953002870083,0.002910036128014326
1761380420890480600,1.016480712890625,0.012777314521372318,-0.009159409441053867,0.0030093719251453876
1761380420900563500,1.0265634765625,0.013583986088633537,-0.008439291268587112,0.003964381758123636
1761380420910645500,1.0366455078125,0.012434032745659351,-0.010024936869740486,0.001791242160834372
1761380420920727600,1.0467275390625,0.012470518238842487,-0.005764412228018045,0.00043223105603829026
1761380420930810600,1.056810546875,0.013921141624450684,-0.00887871254235506,0.00316037330776453
1761380420940892700,1.066892578125,0.014514760114252567,-0.007960188202559948,0.0026136261876672506
1761380420950974700,1.076974609375,0.014227405190467834,-0.009434248320758343,0.0017920411191880703
1761380420961057500,1.0870576171875,0.014887602999806404,-0.008774849586188793,0.0018397116800770164
1761380420971139600,1.0971396484375,0.013630591332912445,-0.008255532942712307,0.0019153454340994358
1761380420981221600,1.1072216796875,0.016094546765089035,-0.0062818643637001514,0.0019949739798903465
1761380420991304200,1.11730419921875,0.011867311783134937,-0.009192699566483498,0.0006700513185933232
1761380421001386200,1.12738623046875,0.01372433453798294,-0.007726096548140049,-0.0024881914723664522
1761380421011468300,1.13746826171875,0.012488095089793205,-0.006745520513504744,0.00361683894880116
1761380421021551000,1.147551025390625,0.013487312942743301,-0.011473696678876877,0.0049247173592448235
1761380421031633200,1.157633056640625,0.0141754737123847,-0.009740778245031834,0.004391818773001432
1761380421041716200,1.16771630859375,0.012859872542321682,-0.009496565908193588,0.002557966159656644
1761380421051798000,1.177798095703125,0.013260412029922009,-0.00851732213050127,-0.0014439659425988793
1761380421061880000,1.187880126953125,0.013166934251785278,-0.009667540900409222,0.004058923572301865
1761380421071963100,1.197963134765625,0.013380520045757294,-0.009147691540420055,0.0029947245493531227
1761380421082045200,1.208045166015625,0.014735803008079529,-0.007789480034261942,0.0015366439474746585
1761380421092127000,1.218126953125,0.0136652123183012,-0.010815896093845367,0.003230947069823742
1761380421102210300,1.228210205078125,0.012010590173304081,-0.00926460511982441,0.0028101676143705845
1761380421112292400,1.238292236328125,0.014308365061879158,-0.005930859595537186,0.0015579492319375277
1761380421122374100,1.2483740234375,0.01549187395721674,-0.007071491796523333,-0.0012221246724948287
1761380421132457200,1.258457275390625,0.016030631959438324,-0.007097057998180389,0.0003123887872789055
1761380421142539300,1.268539306640625,0.01332672405987978,-0.01155705377459526,0.0005672533297911286
1761380421152621300,1.278621337890625,0.013737117871642113,-0.009665676392614841,0.0032509206794202328
1761380421162704100,1.2887041015625,0.014691594056785107,-0.010814297944307327,0.002674346324056387
1761380421172786200,1.2987861328125,0.015232481993734837,-0.00759906368330121,0.001216265605762601
1761380421182868200,1.3088681640625,0.013803163543343544,-0.006927148438990116,0.005403553601354361
1761380421192951300,1.318951416015625,0.013773069716989994,-0.00935275573283434,0.000693220819812268
1761380421203033000,1.329033203125,0.013817278668284416,-0.01107582077383995,0.0036815537605434656
1761380421213115100,1.339115234375,0.012754145078361034,-0.008296012878417969,0.00047857005847617984
1761380421223198200,1.3491982421875,0.01233336515724659,-0.00939137116074562,0.003862382611259818
1761380421233280300,1.3592802734375,0.014214888215065002,-0.00780545873567462,0.0033361418172717094
1761380421243362300,1.3693623046875,0.011710718274116516,-0.009689911268651485,0.0018578211311250925
1761380421253445000,1.379445068359375,0.012614328414201736,-0.007831291295588017,0.003497795667499304
1761380421263527200,1.389527099609375,0.014003966003656387,-0.010776481591165066,0.003037601476535201
1761380421273609200,1.399609130859375,0.011607387103140354,-0.0070192934945225716,0.001731587341055274
1761380421283692000,1.409692138671875,0.014573615975677967,-0.010549846105277538,0.0023702133912593126
1761380421293774000,1.419774169921875,0.013712350279092789,-0.008774849586188793,0.002124403603374958
1761380421303857200,1.429857177734375,0.014456969685852528,-0.008841427974402905,0.0020594224333763123
1761380421313939200,1.439939208984375,0.013459349982440472,-0.006462426856160164,0.0020301276817917824
1761380421324021000,1.45002099609375,0.014664696529507637,-0.01088700257241726,0.0025742114521563053
1761380421334104000,1.46010400390625,0.014415690675377846,-0.009005745872855186,0.0018748653819784522
1761380421344186000,1.47018603515625,0.012783972546458244,-0.008474711328744888,0.00036432043998502195
1761380421354268200,1.48026806640625,0.015051387250423431,-0.00669305631890893,0.00044128578156232834
1761380421364351200,1.490351318359375,0.014700116589665413,-0.006283195689320564,0.001333178486675024
1761380421374433300,1.500433349609375,0.01136850193142891,-0.00686243362724781,0.001847967505455017
1761380421384515300,1.510515380859375,0.011092332191765308,-0.007078149355947971,0.0015931029338389635
1761380421394598100,1.52059814453125,0.014244715683162212,-0.00857484620064497,0.0004756405542138964
1761380421404680200,1.53068017578125,0.013010074384510517,-0.009843575768172741,0.002436526119709015
1761380421414762200,1.54076220703125,0.01386894378811121,-0.009248891845345497,0.0014618091518059373
1761380421424845300,1.55084521484375,0.012407933361828327,-0.006788930390030146,0.0012282498646527529
1761380421434927000,1.560927001953125,0.013461213558912277,-0.008192948997020721,0.002153431996703148
1761380421445009200,1.571009033203125,0.01245081052184105,-0.007388940546661615,0.0003251719754189253
1761380421455092200,1.58109228515625,0.01432301290333271,-0.010494452901184559,0.005314071662724018
1761380421465174300,1.59117431640625,0.011999937705695629,-0.008978581055998802,0.0007379619055427611
1761380421475256300,1.60125634765625,0.012346148490905762,-0.008854477666318417,0.0016713999211788177
1761380421485339100,1.611339111328125,0.014100372791290283,-0.0070312777534127235,0.00261841993778944
1761380421495421200,1.621421142578125,0.013674266636371613,-0.010063553228974342,0.0006317017832770944
1761380421505503200,1.631503173828125,0.013654559850692749,-0.005862948950380087,0.0012463594321161509
1761380421515586000,1.6415859375,0.013631124049425125,-0.011795938946306705,0.0017979000695049763
1761380421525668000,1.651668212890625,0.0138431116938591,-0.005881591234356165,0.0037979339249432087
1761380421535751200,1.661751220703125,0.015035408549010754,-0.009768474847078323,0.0022205437999218702
1761380421545833200,1.671833251953125,0.01386974286288023,-0.010433732531964779,0.0024913870729506016
1761380421555915000,1.6819150390625,0.013368802145123482,-0.009091499261558056,0.004628307651728392
1761380421565998000,1.691998046875,0.012986105866730213,-0.006841128226369619,0.001773398951627314
1761380421576080100,1.702080078125,0.01357359904795885,-0.008943693712353706,0.00039175100391730666
1761380421586162200,1.712162109375,0.013116867281496525,-0.009224124252796173,0.002788063371554017
1761380421596245200,1.722245361328125,0.01290248241275549,-0.00812290795147419,0.003719104453921318
1761380421606327000,1.7323271484375,0.014912104234099388,-0.007439540233463049,0.0028706213925033808
1761380421616409000,1.7424091796875,0.014705709181725979,-0.00996315199881792,0.0038543930277228355
1761380421626492200,1.7524921875,0.013034575618803501,-0.00726483715698123,0.0021108214277774096
1761380421636574200,1.76257421875,0.012746421620249748,-0.008112520910799503,0.0017480988753959537
1761380421646656300,1.77265625,0.011983958072960377,-0.007227553054690361,0.0023315974976867437
1761380421656739300,1.7827392578125,0.013613014481961727,-0.008024636656045914,0.0027209515683352947
1761380421666821000,1.792821044921875,0.015296398662030697,-0.009923471137881279,0.0020722055342048407
1761380421676903200,1.802903076171875,0.012691560201346874,-0.010612696409225464,0.003163036424666643
1761380421686986200,1.812986328125,0.010478739626705647,-0.01010962575674057,0.0014447649009525776
1761380421697068300,1.823068359375,0.010928015224635601,-0.006961236707866192,0.003973968792706728
1761380421707150300,1.833150390625,0.0112784868106246,-0.008345015347003937,0.002270611235871911
1761380421717233200,1.843233154296875,0.014963769353926182,-0.007822236977517605,0.0005912217311561108
1761380421727315200,1.853315185546875,0.012620720081031322,-0.009195095859467983,-0.0002846919232979417
1761380421737398300,1.863398193359375,0.013909690082073212,-0.0075663067400455475,0.004129763692617416
1761380421747480000,1.87347998046875,0.013785853050649166,-0.005949501879513264,0.004453604109585285
1761380421757562000,1.88356201171875,0.012835371308028698,-0.00703820213675499,0.0041398839093744755
1761380421767645200,1.893645263671875,0.01366308145225048,-0.008249940350651741,-0.0013020194601267576
1761380421777727200,1.903727294921875,0.014039386063814163,-0.007130879908800125,0.001823732745833695
1761380421787809000,1.91380908203125,0.01642557792365551,-0.008025968447327614,0.0030101709999144077
1761380421797892000,1.92389208984375,0.013611416332423687,-0.00782383419573307,0.0005973470397293568
1761380421807974100,1.93397412109375,0.014001303352415562,-0.008823585696518421,0.002566754585132003
1761380421818056200,1.94405615234375,0.013627395033836365,-0.008509598672389984,0.0015209312550723553
1761380421828139000,1.954138916015625,0.013568539172410965,-0.010481136851012707,0.0044469465501606464
1761380421838221000,1.964220947265625,0.011683819815516472,-0.008468319661915302,0.001543834456242621
1761380421848303000,1.97430322265625,0.013439109548926353,-0.009815346449613571,0.00221921200864017
1761380421858386200,1.98438623046875,0.011682222597301006,-0.007589210290461779,0.004443218000233173
1761380421868468200,1.99446826171875,0.013043363578617573,-0.011659585870802402,0.0006588660762645304
1761380421878550300,2.00455029296875,0.013526194728910923,-0.005209941882640123,0.0004471447318792343
1761380421888633300,2.01463330078125,0.014577344991266727,-0.010837201029062271,0.001187237212434411
1761380421898715100,2.024715087890625,0.012908607721328735,-0.00812344066798687,0.0019683423452079296
1761380421908797200,2.034797119140625,0.013283581472933292,-0.009134909138083458,0.001618136651813984
1761380421918880300,2.04488037109375,0.012635900638997555,-0.008860070258378983,0.0017907095607370138
1761380421928962300,2.05496240234375,0.013777597807347775,-0.009796171449124813,0.0033305492252111435
1761380421939045000,2.065045166015625,0.01341647282242775,-0.010659302584826946,0.0004588626616168767
1761380421949127200,2.075127197265625,0.01506869774311781,-0.009967146441340446,0.00398621940985322
1761380421959209200,2.085209228515625,0.013399162329733372,-0.009966347366571426,0.004849616438150406
1761380421969292300,2.095292236328125,0.013135509565472603,-0.007902930490672588,0.0004956142511218786
1761380421979374000,2.1053740234375,0.015094797126948833,-0.008679508231580257,0.002291117561981082
1761380421989456600,2.11545654296875,0.014725683256983757,-0.00788721814751625,0.001784850494004786
1761380421999539700,2.125539794921875,0.012745888903737068,-0.00836791843175888,-0.0014271880500018597
1761380422009621500,2.13562158203125,0.012741628102958202,-0.008313856087625027,0.003489539958536625
1761380422019703600,2.14570361328125,0.014374411664903164,-0.009588711895048618,0.003590740030631423
1761380422029786600,2.15578662109375,0.012340023182332516,-0.008219313807785511,0.0013704627053812146
1761380422039868700,2.16586865234375,0.011296862736344337,-0.009948504157364368,0.0015049523208290339
1761380422049950700,2.17595068359375,0.013453491032123566,-0.007157245185226202,0.0010351707460358739
1761380422060033500,2.186033447265625,0.011808189563453197,-0.00833915639668703,0.0007816377910785377
1761380422070115600,2.196115478515625,0.013551495037972927,-0.009587380103766918,0.001130778226070106
1761380422080197600,2.20619775390625,0.013773069716989994,-0.008256332017481327,0.0011233213590458035
1761380422090280700,2.21628076171875,0.011682488955557346,-0.007017163094133139,0.0019765980541706085
1761380422100362800,2.22636279296875,0.012495285831391811,-0.007133543025702238,0.003329750383272767
1761380422110444800,2.23644482421875,0.012032427825033665,-0.007903463207185268,0.001597630325704813
1761380422120528000,2.24652783203125,0.012683837674558163,-0.010128268040716648,0.0009060074225999415
1761380422130609700,2.256609619140625,0.012842029333114624,-0.00857378076761961,0.002579271560534835
1761380422140692700,2.266692626953125,0.012367986142635345,-0.00800146721303463,0.0010812433902174234
1761380422150774800,2.27677490234375,0.014523549005389214,-0.007597732357680798,0.0010223875287920237
1761380422160856800,2.28685693359375,0.013010607101023197,-0.009183910675346851,0.0018937737913802266
1761380422170939600,2.296939697265625,0.01266679260879755,-0.006621417589485645,0.0017267935909330845
1761380422181021700,2.307021728515625,0.014270815066993237,-0.010378338396549225,0.004261590540409088
1761380422191103700,2.317103759765625,0.013483851216733456,-0.009942911565303802,0.0017419736832380295
1761380422201186600,2.3271865234375,0.012884106487035751,-0.007482417393475771,0.0035689021460711956
1761380422211268600,2.3372685546875,0.015482286922633648,-0.009154083207249641,0.003123621689155698
1761380422221350700,2.3473505859375,0.01411448698490858,-0.00746164470911026,0.0010546117555350065
1761380422231433700,2.357433837890625,0.013936322182416916,-0.007101318798959255,-0.0002697782183531672
1761380422241515500,2.367515625,0.011726430617272854,-0.008615059778094292,0.0030242856591939926
1761380422251597600,2.37759765625,0.011636416427791119,-0.008579906076192856,0.002603506203740835
1761380422261680600,2.3876806640625,0.01631452515721321,-0.012239888310432434,0.003911917097866535
1761380422271762700,2.3977626953125,0.012705941684544086,-0.007847802713513374,0.0009781790431588888
1761380422281844700,2.4078447265625,0.013108078390359879,-0.008057926781475544,0.0026165556628257036
1761380422291927600,2.417927490234375,0.013406353071331978,-0.008914931677281857,0.003357979701831937
1761380422302009600,2.428009521484375,0.01299462839961052,-0.007396929897367954,0.002802444389089942
1761380422312091600,2.438091552734375,0.012884639203548431,-0.008468053303658962,0.0029204224701970816
1761380422322174700,2.4481748046875,0.013402624055743217,-0.009433981962502003,0.00401604687795043
1761380422332256800,2.4582568359375,0.014225807040929794,-0.007286142557859421,0.003849332919344306
1761380422342339800,2.46833984375,0.01248196978121996,-0.010272877290844917,0.0024405207950621843
1761380422352422000,2.478421875,0.011938684619963169,-0.006157760974019766,0.004719387739896774
1761380422362503700,2.488503662109375,0.011984490789473057,-0.009305085055530071,0.002055960241705179
1761380422372586800,2.498586669921875,0.01745009608566761,-0.005851231049746275,0.0032743564806878567
1761380422382668800,2.508668701171875,0.011824967339634895,-0.00805979035794735,0.0030921963043510914
1761380422392750800,2.518750732421875,0.010187123902142048,-0.0073266224935650826,0.0027861990965902805
1761380422402833700,2.528833740234375,0.014389858581125736,-0.006166815757751465,0.0008173241512849927
1761380422412915700,2.538915771484375,0.013465475291013718,-0.00564164062961936,0.003242398612201214
1761380422422997800,2.548997802734375,0.014608769677579403,-0.006804110016673803,0.0028091021813452244
1761380422433080600,2.55908056640625,0.011554124765098095,-0.006958839949220419,0.005660815164446831
1761380422443162600,2.56916259765625,0.013954431749880314,-0.009183111600577831,0.0023931164760142565
1761380422453244700,2.57924462890625,0.013158412650227547,-0.009484048932790756,0.0019856528379023075
1761380422463327700,2.58932763671875,0.013624199666082859,-0.006742058787494898,0.0030360035598278046
1761380422473409500,2.599409423828125,0.012043613009154797,-0.01095544546842575,-0.00016431703988928348
1761380422483491600,2.60949169921875,0.013910755515098572,-0.007172425277531147,0.004310592543333769
1761380422493574700,2.61957470703125,0.012990633025765419,-0.00993412360548973,0.005121258553117514
1761380422503656700,2.62965673828125,0.01438213512301445,-0.008522648364305496,0.0026937874499708414
1761380422513738800,2.63973876953125,0.01318371295928955,-0.008822786621749401,0.004258394706994295
1761380422523821600,2.649821533203125,0.01372380182147026,-0.006363623309880495,0.0022058964241296053
1761380422533903600,2.659903564453125,0.012473713606595993,-0.010726680047810078,0.0017113472567871213
1761380422543986400,2.669986328125,0.01618482917547226,-0.005818474106490612,0.005539374891668558
1761380422554068500,2.680068359375,0.01315175462514162,-0.009383381344377995,0.0027134947013109922
1761380422564150500,2.690150634765625,0.01284442562609911,-0.008617723360657692,0.004093811381608248
1761380422574233900,2.70023388671875,0.013481453992426395,-0.009823602624237537,0.0038285604678094387
1761380422584316000,2.71031591796875,0.013232714496552944,-0.008241684176027775,0.0025718146935105324
1761380422594397700,2.720397705078125,0.014134993776679039,-0.009843575768172741,0.0021137509029358625
1761380422604480800,2.730480712890625,0.013859889470040798,-0.009042230434715748,0.001210406655445695
1761380422614562800,2.740562744140625,0.012061988934874535,-0.008501875214278698,0.0009384979493916035
1761380422624644900,2.750644775390625,0.012367453426122665,-0.006085855886340141,0.0015403723809868097
1761380422634727700,2.760727783203125,0.013786652125418186,-0.01088780164718628,0.0018285263795405626
1761380422644809700,2.770809814453125,0.014422615058720112,-0.0051713259890675545,0.001880191732198
1761380422654891800,2.780891845703125,0.009378321468830109,-0.008988169021904469,0.004258128348737955
1761380422664974600,2.790974609375,0.013650298118591309,-0.007443002425134182,0.0014444985426962376
1761380422675056600,2.801056640625,0.012851083651185036,-0.008580172434449196,0.00433056615293026
1761380422685138700,2.811138671875,0.013675065711140633,-0.006039782892912626,0.002516687149181962
1761380422695221800,2.8212216796875,0.013343768194317818,-0.008057127706706524,0.0040852888487279415
1761380422705303600,2.831303466796875,0.014244715683162212,-0.007349259220063686,0.0034261567052453756
1761380422715385600,2.841385498046875,0.01435497123748064,-0.009677927009761333,0.0014298511669039726
1761380422725468700,2.85146875,0.010998056270182133,-0.006922887172549963,0.0024647556710988283
1761380422735550700,2.86155078125,0.014985074289143085,-0.007692008279263973,0.0026578346733003855
1761380422745633500,2.871633544921875,0.009786318056285381,-0.011034009046852589,0.001044491771608591
1761380422755715600,2.881715576171875,0.01377999410033226,-0.009207346476614475,0.002578738844022155
1761380422765797600,2.891797607421875,0.01239088922739029,-0.007816910743713379,0.0012777847005054355
1761380422775880400,2.90188037109375,0.01278983149677515,-0.007018494885414839,0.0001525991247035563
1761380422785962500,2.91196240234375,0.014117683283984661,-0.012013785541057587,0.00008894957863958552
1761380422796044500,2.92204443359375,0.013698501512408257,-0.007245129905641079,0.0024559672456234694
1761380422806127900,2.9321279296875,0.013399428687989712,-0.007595069240778685,0.0017920411191880703
1761380422816210000,2.9422099609375,0.01333045307546854,-0.008244347758591175,0.0005845638806931674
1761380422826291500,2.95229150390625,0.010790063068270683,-0.009100288152694702,0.002600576728582382
1761380422836374800,2.962374755859375,0.01333045307546854,-0.007017429452389479,0.0034053840208798647
1761380422846456800,2.972456787109375,0.014435664750635624,-0.009981527924537659,0.003762513864785433
1761380422856539000,2.982538818359375,0.01570146530866623,-0.007910920307040215,0.0022658174857497215
1761380422866621700,2.99262158203125,0.013199691660702229,-0.009550361894071102,0.002412823960185051
1761380422876703700,3.002703857421875,0.013280917890369892,-0.008922655135393143,0.0017449031583964825
1761380422886785800,3.012785888671875,0.014400511048734188,-0.008729043416678905,0.0007922904333099723
1761380422896868600,3.02286865234375,0.0128172617405653,-0.009613478556275368,0.004481034819036722
1761380422906950700,3.03295068359375,0.013874802738428116,-0.008539692498743534,0.002931075170636177
1761380422917032700,3.04303271484375,0.013375193811953068,-0.006750847212970257,0.005615807604044676
1761380422927115800,3.05311572265625,0.013520069420337677,-0.00811891257762909,0.0031670311000198126
1761380422937197600,3.063197509765625,0.012922989204525948,-0.008462993428111076,0.0037947380915284157
1761380422947279600,3.073279541015625,0.01350728701800108,-0.007121825125068426,0.002138518262654543
1761380422957362700,3.08336279296875,0.014043115079402924,-0.007386809680610895,0.00469515286386013
1761380422967444700,3.09344482421875,0.016148343682289124,-0.006173740141093731,0.006713296286761761
1761380422977527600,3.103527587890625,0.013935523107647896,-0.006929545197635889,0.001336107961833477
1761380422987612700,3.11361279296875,0.01401781477034092,-0.010627344250679016,0.003599528456106782
1761380422997694700,3.12369482421875,0.013712350279092789,-0.006624080706387758,0.002638926263898611
1761380423007778000,3.133778076171875,0.014280934818089008,-0.008267783559858799,0.0032237565610557795
1761380423017859800,3.14385986328125,0.012444152496755123,-0.006038983818143606,0.0005275722360238433
1761380423027942000,3.15394189453125,0.012863866984844208,-0.008291485719382763,0.004293015692383051
1761380423038025000,3.16402490234375,0.013277988880872726,-0.009581521153450012,0.0017576862592250109
1761380423048107000,3.17410693359375,0.015046327374875546,-0.007586014457046986,-0.00020746025256812572
1761380423058188800,3.184188720703125,0.013484117574989796,-0.006907174363732338,-0.0005502090789377689
1761380423068271900,3.19427197265625,0.015510516241192818,-0.008529838174581528,0.002671683207154274
1761380423078354000,3.20435400390625,0.01414458081126213,-0.00954050850123167,-0.000028495824153651483
1761380423088436000,3.21443603515625,0.013502492569386959,-0.009349293075501919,0.0033896714448928833
1761380423098518800,3.224518798828125,0.015195464715361595,-0.006844057701528072,0.0019528960110619664
1761380423108600800,3.234600830078125,0.01582024246454239,-0.009886719286441803,0.0016977651976048946
1761380423118683000,3.244682861328125,0.010464891791343689,-0.010057161562144756,0.006469084415584803
1761380423128765700,3.254765625,0.014595987275242805,-0.008556470274925232,0.00307595101185143
1761380423138847700,3.26484765625,0.014883608557283878,-0.011663313955068588,0.0014152037911117077
1761380423148929800,3.2749296875,0.014734737575054169,-0.007366036996245384,0.004674113821238279
1761380423159012900,3.285012939453125,0.014487862586975098,-0.0098038949072361,0.0030312100425362587
1761380423169095000,3.295094970703125,0.014142184518277645,-0.00824780948460102,0.0024197481106966734
1761380423179177700,3.305177734375,0.015299327671527863,-0.00872211903333664,0.0007374293054454029
1761380423189259800,3.315259765625,0.01187902968376875,-0.006687463726848364,0.002091913018375635
1761380423199341800,3.325341796875,0.01116104144603014,-0.008106928318738937,0.002028529765084386
1761380423209424600,3.335424560546875,0.013004215434193611,-0.009047556668519974,0.0019345202017575502
1761380423219506700,3.345506591796875,0.014240454882383347,-0.012133894488215446,0.003930559381842613
1761380423229588700,3.355588623046875,0.013462811708450317,-0.00700864102691412,0.0020064255222678185
1761380423239672000,3.365672119140625,0.015094797126948833,-0.00905448105186224,0.00589597225189209
1761380423249753900,3.37575390625,0.012232431210577488,-0.00794314406812191,0.006703442893922329
1761380423259836000,3.3858359375,0.014867362566292286,-0.009645703248679638,0.004125769250094891
1761380423269919000,3.3959189453125,0.015300659462809563,-0.008767925202846527,0.0007507451227866113
1761380423280001000,3.4060009765625,0.013125388883054256,-0.009493903256952763,0.001383778522722423
1761380423290082800,3.416082763671875,0.011344533413648605,-0.009303753264248371,0.0033185649663209915
1761380423300166000,3.426165771484375,0.012689430266618729,-0.009513876400887966,0.0035803536884486675
1761380423310248000,3.436248046875,0.013874270021915436,-0.008014250546693802,0.003163036424666643
1761380423320330000,3.446330078125,0.013047625310719013,-0.006514358334243298,0.0028732845094054937
1761380423330412800,3.456412841796875,0.012928848154842854,-0.007268299348652363,0.0028541097417473793
1761380423340494800,3.466494873046875,0.011566907167434692,-0.011002583429217339,0.0025923210196197033
1761380423350577000,3.476576904296875,0.014901984483003616,-0.010570885613560677,0.004058391321450472
1761380423360659700,3.48665966796875,0.012916064821183681,-0.009727994911372662,0.0022570290602743626
1761380423370741800,3.49674169921875,0.012842295691370964,-0.009741310961544514,0.0041033984161913395
1761380423380823800,3.50682373046875,0.012523248791694641,-0.008322911337018013,0.0026072347536683083
1761380423390907000,3.516906982421875,0.013374128378927708,-0.007123955991119146,0.003328684950247407
1761380423400989000,3.526989013671875,0.01267158705741167,-0.007497863844037056,0.0005089300684630871
1761380423411071700,3.53707177734375,0.013490241952240467,-0.005046690348535776,0.003276220755651593
1761380423421153800,3.54715380859375,0.012949620373547077,-0.008364190347492695,0.0029254823457449675
1761380423431235800,3.55723583984375,0.01281406544148922,-0.008490157313644886,0.001984853995963931
1761380423441318700,3.567318603515625,0.013156814500689507,-0.006533266510814428,0.0017808558186516166
1761380423451400700,3.577400634765625,0.01309183333069086,-0.00993199273943901,0.0024668860714882612
1761380423461482800,3.587482666015625,0.014250308275222778,-0.008249940350651741,0.0004713795206043869
1761380423471565800,3.59756591796875,0.013728328980505466,-0.01044385228306055,0.003939347807317972
1761380423481647600,3.607647705078125,0.012409265153110027,-0.007427822332829237,0.003320961957797408
1761380423491729700,3.617729736328125,0.013576795347034931,-0.007203850895166397,0.003153448924422264
1761380423501813000,3.62781298828125,0.013413543812930584,-0.009410812519490719,0.0036477316170930862
1761380423511895000,3.63789501953125,0.014563229866325855,-0.008932242169976234,0.0010239854454994202
1761380423521976800,3.647976806640625,0.012321114540100098,-0.007197192870080471,0.003980893176048994
1761380423532060000,3.658059814453125,0.016335297375917435,-0.006903712637722492,0.003052781568840146
1761380423542142000,3.668141845703125,0.013704626820981503,-0.010808971710503101,0.00196354859508574
1761380423552224000,3.67822412109375,0.01739550195634365,-0.00977566558867693,0.0008815063047222793
1761380423562306800,3.688306884765625,0.014883874915540218,-0.005269330460578203,0.002621349412947893
1761380423572388900,3.698388916015625,0.012801016680896282,-0.008026501163840294,0.001781921018846333
1761380423582471000,3.708470947265625,0.014104100875556469,-0.007411843631416559,0.0017369136912748218
1761380423592553700,3.7185537109375,0.013427658006548882,-0.008504805155098438,0.0037982002831995487
1761380423602635800,3.7286357421875,0.011493670754134655,-0.009722668677568436,0.001957423286512494
1761380423612717800,3.7387177734375,0.013084642589092255,-0.007503190077841282,0.002416019793599844
1761380423622801000,3.74880078125,0.012838300317525864,-0.006020075641572475,0.0028013791888952255
1761380423632883000,3.758883056640625,0.012884372845292091,-0.011782091110944748,0.005513009615242481
1761380423642964700,3.76896484375,0.013118998147547245,-0.008872320875525475,0.002688727341592312
1761380423653047800,3.7790478515625,0.012682772241532803,-0.007531419396400452,0.0016929714474827051
1761380423663129900,3.7891298828125,0.01534779742360115,-0.007644603960216045,0.0017917747609317303
1761380423673212000,3.7992119140625,0.014222078956663609,-0.008213454857468605,0.004323375876992941
1761380423683294700,3.809294677734375,0.014223677106201649,-0.010147974826395512,0.003004844533279538
1761380423693376800,3.819376708984375,0.014274276793003082,-0.00752156600356102,0.0034011229872703552
1761380423703459800,3.8294599609375,0.012869459576904774,-0.006416087504476309,-0.0010982876410707831
1761380423713541600,3.839541748046875,0.012746954336762428,-0.008185491897165775,0.0016713999211788177
1761380423723623700,3.849623779296875,0.014251640066504478,-0.0068057081662118435,0.001734516816213727
1761380423733707000,3.85970703125,0.013365074060857296,-0.007546066772192717,0.004446680191904306
1761380423743789000,3.8697890625,0.015469503588974476,-0.009274724870920181,0.0006601976347155869
1761380423753870800,3.879870849609375,0.01353524997830391,-0.0071007865481078625,0.0011355718597769737
1761380423763954000,3.889953857421875,0.014423414133489132,-0.009350358508527279,-0.0006609965930692852
1761380423774036000,3.900035888671875,0.01565166376531124,-0.00923264678567648,0.0019915117882192135
1761380423784118000,3.910117919921875,0.013398096896708012,-0.0072869411669671535,0.0032354744616895914
1761380423794200800,3.920200927734375,0.014049505814909935,-0.00811944529414177,0.0027321369852870703
1761380423804283000,3.930282958984375,0.014004498720169067,-0.00896686315536499,0.0017560884589329362
1761380423814365000,3.940364990234375,0.011561847291886806,-0.008595618419349194,0.000107858024421148
1761380423824447700,3.95044775390625,0.012813267298042774,-0.007690143771469593,0.003963582683354616
1761380423834529800,3.96052978515625,0.012987704016268253,-0.004722849931567907,-0.001478320686146617
1761380423844611800,3.97061181640625,0.010384730063378811,-0.009383914060890675,0.0018109495285898447
1761380423854695000,3.98069482421875,0.013252155855298042,-0.00863503385335207,0.002912432886660099
1761380423864777000,3.99077685546875,0.01374910119920969,-0.007254716940224171,0.005390238016843796
1761380423874858800,4.000858642578125,0.011877964250743389,-0.009256881661713123,0.0009901633020490408
1761380423884941800,4.01094189453125,0.012810337357223034,-0.009129316546022892,0.0004442152567207813
1761380423895023900,4.02102392578125,0.0138993039727211,-0.0073295519687235355,0.0028575719334185123
1761380423905106000,4.03110595703125,0.011770905926823616,-0.009526393376290798,0.007866178639233112
1761380423915188700,4.041188720703125,0.012020177207887173,-0.0073324814438819885,0.002153964713215828
1761380423925270800,4.051270751953125,0.013572268187999725,-0.007162039168179035,0.00350472005084157
1761380423935352800,4.061352783203125,0.015365107916295528,-0.006771353539079428,0.0004551342281047255
1761380423945435600,4.071435546875,0.011721637099981308,-0.0073684342205524445,0.0018825886072590947
1761380423955517700,4.081517578125,0.012795955874025822,-0.008048871532082558,-0.00042637207661755383
1761380423965599700,4.091599853515625,0.01242417935281992,-0.010010289959609509,0.0035398737527430058
1761380423975682800,4.101682861328125,0.013088904321193695,-0.007848335430026054,0.0007086671539582312
1761380423985764900,4.111764892578125,0.012583436444401741,-0.00977326836436987,0.001743038883432746
1761380423995843800,4.12184375,0.013006879016757011,-0.008528240956366062,0.001811482128687203
1761380424005926000,4.13192578125,0.013980530202388763,-0.012920325621962547,0.0025867284275591373
1761380424016008000,4.142008056640625,0.015054050832986832,-0.009730124846100807,-0.0006996124284341931
1761380424026090800,4.1520908203125,0.013732323423027992,-0.008072840049862862,0.0043649207800626755
1761380424036172800,4.1621728515625,0.012982644140720367,-0.006147108506411314,0.001933987601660192
1761380424046254800,4.1722548828125,0.016466325148940086,-0.009671801701188087,0.0037832865491509438
1761380424056338000,4.182337890625,0.013646570034325123,-0.006953247357159853,0.0023315974976867437
1761380424066419700,4.192419677734375,0.013014601543545723,-0.009939183481037617,0.002891660202294588
1761380424076501800,4.202501708984375,0.013825533911585808,-0.009379919618368149,0.0021022993605583906
1761380424086584800,4.212584716796875,0.011838816106319427,-0.009892045520246029,0.00015712650201749057
1761380424096667000,4.2226669921875,0.012469719164073467,-0.007636880502104759,0.002089516259729862
1761380424106749000,4.2327490234375,0.014127270318567753,-0.00954050850123167,0.0010338390711694956
1761380424116831700,4.242831787109375,0.014096643775701523,-0.009185508824884892,0.0002532666258048266
1761380424126913800,4.252913818359375,0.013390639796853065,-0.012532036751508713,0.004326837603002787
1761380424136995800,4.262995849609375,0.012677179649472237,-0.008581237867474556,0.00475374236702919
1761380424147078700,4.27307861328125,0.012796488590538502,-0.00749173853546381,0.00392709719017148
1761380424157160700,4.28316064453125,0.014050304889678955,-0.007821970619261265,0.002017610939219594
1761380424167242800,4.29324267578125,0.013626862317323685,-0.009070727042853832,0.0032325449865311384
1761380424177325800,4.303325927734375,0.013472133316099644,-0.0067844027653336525,-0.000678307143971324
1761380424187407600,4.31340771484375,0.012596751563251019,-0.006887733470648527,0.000621848099399358
1761380424197489700,4.32348974609375,0.013568805530667305,-0.009435313753783703,0.0032988577149808407
1761380424207572700,4.33357275390625,0.013365606777369976,-0.00827683787792921,0.0027305390685796738
1761380424217654800,4.34365478515625,0.013526727445423603,-0.007090932689607143,0.0024533038958907127
1761380424227736800,4.35373681640625,0.013495835475623608,-0.007888549007475376,0.0026724820490926504
1761380424237820000,4.36381982421875,0.01546178013086319,-0.0078544607385993,0.003180080559104681
1761380424247902000,4.37390185546875,0.014349112287163734,-0.010237457230687141,0.00347435986623168
1761380424257983700,4.383983642578125,0.013924870640039444,-0.009338640607893467,0.0018868496408686042
1761380424268066800,4.39406689453125,0.01341540738940239,-0.0070579093880951405,0.003400590270757675
1761380424278148900,4.40414892578125,0.011747203767299652,-0.010318949818611145,0.0031308121979236603
1761380424288231000,4.41423095703125,0.014730743132531643,-0.009440107271075249,0.0015970977256074548
1761380424298314000,4.42431396484375,0.012865198776125908,-0.009631321765482426,0.0020037624053657055
1761380424308395800,4.434395751953125,0.013046027161180973,-0.005888249259442091,-0.000015180017726379447
1761380424318477800,4.444477783203125,0.012381035834550858,-0.008745554834604263,0.003909520339220762
1761380424328561000,4.454560791015625,0.013013802468776703,-0.007107444107532501,0.0027622305788099766
1761380424338643000,4.464642822265625,0.014276940375566483,-0.009126652963459492,0.004203000571578741
1761380424348724700,4.474724853515625,0.014210361056029797,-0.00917139369994402,0.004426706116646528
1761380424358807800,4.484807861328125,0.012881710194051266,-0.011787683703005314,0.0017904432024806738
1761380424368889900,4.494889892578125,0.01513048354536295,-0.0067971860989928246,0.001243696198798716
1761380424378972000,4.504971923828125,0.014692925848066807,-0.007198524195700884,0.0012277172645553946
1761380424389054700,4.5150546875,0.01272964384406805,-0.005636047571897507,0.004093012306839228
1761380424399136800,4.52513671875,0.01239248737692833,-0.007696002721786499,0.0021606225054711103
1761380424409219800,4.5352197265625,0.012865997850894928,-0.007667240686714649,0.0015723302494734526
1761380424419301600,4.545301513671875,0.011363974772393703,-0.010152769275009632,0.0008870989549905062
1761380424429383700,4.5553837890625,0.012880112044513226,-0.010863566771149635,-0.00040080572944134474
1761380424439466800,4.565466796875,0.01258024014532566,-0.00980282947421074,0.002644518855959177
1761380424449548800,4.575548828125,0.012369584292173386,-0.008795621804893017,0.0031643679831176996
1761380424459630800,4.585630859375,0.015390141867101192,-0.007446464616805315,0.00041305628838017583
1761380424469713700,4.595713623046875,0.01528840884566307,-0.008898952975869179,0.0022975089959800243
1761380424479795700,4.605795654296875,0.01236558984965086,-0.009400691837072372,0.002679672557860613
1761380424489877800,4.615877685546875,0.012830311432480812,-0.0070307450369000435,0.0008700547041371465
1761380424499960800,4.6259609375,0.012983443215489388,-0.010548247955739498,0.0023278691805899143
1761380424510043000,4.63604296875,0.014041783288121223,-0.007195861078798771,-0.00022157499915920198
1761380424520125000,4.646125,0.014495319686830044,-0.006929811555892229,0.004008856136351824
1761380424530208000,4.6562080078125,0.014583736658096313,-0.009690976701676846,0.0031153657473623753
1761380424540289800,4.666289794921875,0.013143232092261314,-0.008808138780295849,0.0023997745011001825
1761380424550371800,4.676371826171875,0.013098491355776787,-0.008498946204781532,0.0029467877466231585
1761380424560455000,4.686454833984375,0.014509966596961021,-0.00694925244897604,0.002758235903456807
1761380424570537000,4.696536865234375,0.012628443539142609,-0.006588927004486322,0.001520132296718657
1761380424580618800,4.70661865234375,0.014275342226028442,-0.008468852378427982,0.0016655409708619118
1761380424590701800,4.716701904296875,0.012542955577373505,-0.006131928414106369,0.0012841762509196997
1761380424600784000,4.726783935546875,0.012613795697689056,-0.008014250546693802,0.0014919028617441654
1761380424610866000,4.736865966796875,0.012295814231038094,-0.007141532842069864,0.0019265307346358895
1761380424620948700,4.74694873046875,0.016100673004984856,-0.00780679052695632,0.0033771544694900513
1761380424631030800,4.75703076171875,0.013713682070374489,-0.008224640041589737,0.002919090911746025
1761380424641112800,4.76711279296875,0.014028467237949371,-0.007767109200358391,0.004608067683875561
1761380424651195600,4.777195556640625,0.014949122443795204,-0.010662764310836792,0.0018346516881138086
1761380424661277700,4.787277587890625,0.013965350575745106,-0.008640360087156296,0.0043713124468922615
1761380424671359700,4.79735986328125,0.012770656496286392,-0.008265386335551739,0.001528920722194016
1761380424681442800,4.80744287109375,0.013983460143208504,-0.006503173150122166,0.002269279444590211
1761380424691524900,4.81752490234375,0.017413344234228134,-0.009778594598174095,0.001982190879061818
1761380424701606700,4.827606689453125,0.012575979344546795,-0.006645918358117342,0.0024117587599903345
1761380424711689700,4.837689697265625,0.012153069488704205,-0.009763148613274097,0.002630137838423252
1761380424721771800,4.847771728515625,0.014035125263035297,-0.006682403851300478,0.00045912896166555583
1761380424731853800,4.857853759765625,0.01116237323731184,-0.007489075418561697,0.002900448627769947
1761380424741936600,4.8679365234375,0.013064935803413391,-0.00917272549122572,0.005531119182705879
1761380424752018700,4.878018798828125,0.012991698458790779,-0.007126352749764919,0.002472212305292487
1761380424762100700,4.888100830078125,0.014034858904778957,-0.0073378076776862144,0.002579005202278495
1761380424772183800,4.898183837890625,0.01344630029052496,-0.01113068126142025,0.0029047098942101
1761380424782265900,4.908265869140625,0.013323262333869934,-0.006509298458695412,0.002785400254651904
1761380424792348000,4.918347900390625,0.014297179877758026,-0.007978830486536026,0.0005001416429877281
1761380424802431000,4.928430908203125,0.013876134529709816,-0.005917544011026621,0.0034264230635017157
1761380424812512800,4.9385126953125,0.01540585421025753,-0.013115002773702145,0.0007161240209825337
1761380424822594800,4.9485947265625,0.012678510509431362,-0.010361294262111187,-0.0012072109384462237
1761380424832678000,4.958677978515625,0.013983193784952164,-0.009630522690713406,0.0015962987672537565
1761380424842760000,4.968760009765625,0.012892362661659718,-0.010071275755763054,0.000660463934764266
1761380424852841700,4.978841796875,0.012085691094398499,-0.00888004433363676,0.002144909929484129
1761380424862924800,4.9889248046875,0.012826316058635712,-0.008715993724763393,0.0039009982720017433
1761380424873006800,4.9990068359375,0.011802330613136292,-0.007785751484334469,0.0025449167005717754
1761380424883089000,5.0090888671875,0.012999421916902065,-0.009771403856575489,0.000556600687559694
1761380424893171700,5.019171630859375,0.013398096896708012,-0.006971622817218304,0.002116147894412279
1761380424903253800,5.029253662109375,0.014599715359508991,-0.008699482306838036,0.0031827439088374376
1761380424913335800,5.039335693359375,0.013317669741809368,-0.008642490021884441,0.0029878003988415003
1761380424923419000,5.0494189453125,0.012325375340878963,-0.008331699296832085,-0.0015744607662782073
1761380424933500700,5.059500732421875,0.01266865711659193,-0.009440373629331589,0.004454403184354305
1761380424943582700,5.069582763671875,0.015906793996691704,-0.011491806246340275,0.003949734382331371
1761380424953665800,5.079665771484375,0.015991749241948128,-0.009832656942307949,0.001290834159590304
1761380424963747800,5.089747802734375,0.012656672857701778,-0.009301622398197651,0.002299106912687421
1761380424973829600,5.09982958984375,0.012289423495531082,-0.007613711059093475,0.003212837502360344
1761380424983912700,5.10991259765625,0.012516857124865055,-0.008831041865050793,0.004868790972977877
1761380424993995000,5.1199951171875,0.012046010233461857,-0.009666209109127522,0.0016234630020335317
1761380425004077000,5.1300771484375,0.013346698135137558,-0.008436894044280052,0.004685831721872091
1761380425014160000,5.140159912109375,0.012211658991873264,-0.009503223933279514,0.001743571599945426
1761380425024242000,5.150241943359375,0.013878530822694302,-0.008986570872366428,0.0026913906913250685
1761380425034325000,5.160324951171875,0.015202654525637627,-0.007705323863774538,0.0021789984311908484
1761380425044406800,5.17040673828125,0.011494203470647335,-0.011804994195699692,0.0019497001776471734
1761380425054488800,5.18048876953125,0.011804994195699692,-0.0057798586785793304,0.002528138691559434
1761380425064572000,5.190572021484375,0.012050537392497063,-0.007500260602682829,0.003212304785847664
1761380425074654000,5.200654052734375,0.01233389787375927,-0.008866461925208569,0.0035353463608771563
1761380425084735700,5.21073583984375,0.01332539226859808,-0.011727762408554554,0.004854409955441952
1761380425094819000,5.220819091796875,0.012832974083721638,-0.006111688446253538,0.005878661759197712
1761380425104901000,5.230901123046875,0.014552044682204723,-0.008162855170667171,0.00560994865372777
1761380425114983200,5.240983154296875,0.012855344451963902,-0.007986820302903652,0.0004623247659765184
1761380425125066000,5.25106591796875,0.011660117655992508,-0.009702428244054317,0.0021015002857893705
1761380425135148000,5.26114794921875,0.013451093807816505,-0.008292018435895443,0.0017694041598588228
1761380425145230000,5.27122998046875,0.01278823334723711,-0.01134027261286974,0.0022485069930553436
1761380425155313000,5.28131298828125,0.011597000993788242,-0.006499710958451033,0.002406432293355465
1761380425165395000,5.29139501953125,0.011551993899047375,-0.008718390017747879,0.0032490564044564962
1761380425175477000,5.30147705078125,0.013246563263237476,-0.00577959232032299,0.0029795446898788214
1761380425185560000,5.31156005859375,0.012532303109765053,-0.009638246148824692,0.0021222729701548815
1761380425195642000,5.32164208984375,0.012532835826277733,-0.009439308196306229,0.00040666470886208117
1761380425205724000,5.331723876953125,0.012385296635329723,-0.0072717610746622086,0.0008514125947840512
1761380425215807000,5.341806884765625,0.011641209945082664,-0.006872287020087242,0.0037830201908946037
1761380425225889000,5.351888916015625,0.01347346417605877,-0.009255549870431423,0.002794188680127263
1761380425235971000,5.36197119140625,0.014334464445710182,-0.00869069341570139,-0.0004548678989522159
1761380425246054000,5.372053955078125,0.012891563586890697,-0.00965369213372469,0.0014950985787436366
1761380425256136000,5.382135986328125,0.013650830835103989,-0.008621984161436558,0.002912965603172779
1761380425266218000,5.392218017578125,0.013938185758888721,-0.010643056593835354,0.001270327833481133
1761380425276300800,5.40230078125,0.013801832683384418,-0.006244313903152943,0.006040315609425306
1761380425286382800,5.4123828125,0.012463593855500221,-0.008734369650483131,0.0023726101499050856
1761380425296465000,5.42246484375,0.014624482952058315,-0.007200921420007944,0.001535312389023602
1761380425306548000,5.4325478515625,0.011000187136232853,-0.009485114365816116,0.0006530070677399635
1761380425316629800,5.442629638671875,0.011373295448720455,-0.008587895892560482,0.00010359696898376569
1761380425326711800,5.4527119140625,0.013744041323661804,-0.008504272438585758,0.000565122754778713
1761380425336795000,5.462794921875,0.01332832220941782,-0.01184973493218422,0.000978711643256247
1761380425346877000,5.472876953125,0.015499064698815346,-0.008378038182854652,0.002552639925852418
1761380425356959000,5.482958984375,0.013657488860189915,-0.009705358184874058,0.003157177474349737
1761380425367042000,5.4930419921875,0.012926983647048473,-0.0070768180303275585,0.0022295983508229256
1761380425377124000,5.5031240234375,0.012960007414221764,-0.007284278050065041,0.0008562062866985798
1761380425387206100,5.5132060546875,0.013977601192891598,-0.007587079424411058,0.000362988852430135
1761380425397289000,5.5232890625,0.014373612590134144,-0.0110443951562047,0.0032019184436649084
1761380425407371000,5.53337109375,0.013515542261302471,-0.008669921196997166,0.0017840516520664096
1761380425417453000,5.543453125,0.01366174966096878,-0.008409730158746243,0.003602990647777915
1761380425427536100,5.5535361328125,0.015092133544385433,-0.007536213379353285,0.0027627632953226566
1761380425437618000,5.563617919921875,0.012766394764184952,-0.011061972007155418,0.003224289044737816
1761380425447700000,5.573699951171875,0.01407640427350998,-0.005899967160075903,0.0019518306944519281
1761380425457783000,5.583782958984375,0.013405820354819298,-0.008255532942712307,0.00008069378236541525
1761380425467865000,5.593864990234375,0.012513660825788975,-0.008321579545736313,0.00318940170109272
1761380425477947000,5.60394677734375,0.011051319539546967,-0.010366354137659073,0.0034991272259503603
1761380425488030000,5.614030029296875,0.013194099068641663,-0.008176703006029129,0.0030897995457053185
1761380425498112000,5.624112060546875,0.013044162653386593,-0.008901349268853664,0.002945722546428442
1761380425508194000,5.634194091796875,0.013274259865283966,-0.007928763516247272,0.004737230949103832
1761380425518276900,5.64427685546875,0.012649215757846832,-0.006175337824970484,0.0008282430935651064
1761380425528359000,5.65435888671875,0.014342454262077808,-0.011066499166190624,0.0044317664578557014
1761380425538441000,5.66444091796875,0.014367753639817238,-0.008073106408119202,0.001555552356876433
1761380425548523800,5.674523681640625,0.0137802604585886,-0.007257380057126284,0.0015305186389014125
1761380425558605800,5.684605712890625,0.013604491949081421,-0.008657670579850674,0.000441818410763517
1761380425568687900,5.69468798828125,0.013275325298309326,-0.010849718004465103,0.0026908579748123884
1761380425578771000,5.70477099609375,0.014132063835859299,-0.007330084685236216,0.0030162963084876537
1761380425588853000,5.71485302734375,0.013434848748147488,-0.007002249360084534,0.003328418591991067
1761380425598934800,5.724934814453125,0.012528308667242527,-0.007448595017194748,0.0034940673504024744
1761380425609017900,5.735017822265625,0.013436979614198208,-0.008828112855553627,0.00034221619716845453
1761380425619100000,5.745099853515625,0.013420733623206615,-0.00968565046787262,0.0019313243683427572
1761380425629182000,5.755181884765625,0.012349077500402927,-0.008451808243989944,0.004309260752052069
1761380425639265000,5.76526513671875,0.011928032152354717,-0.007223558146506548,-0.00013448962999973446
1761380425649347000,5.77534716796875,0.012691293843090534,-0.009357282891869545,0.0021022993605583906
1761380425659429000,5.78542919921875,0.01242311391979456,-0.008681106381118298,0.0029521139804273844
1761380425669512000,5.795511962890625,0.014750449918210506,-0.008920790627598763,0.00443975580856204
1761380425679594000,5.805593994140625,0.014064420014619827,-0.008047539740800858,0.0057553574442863464
1761380425689676000,5.815676025390625,0.014433267526328564,-0.009617207571864128,0.002926813904196024
1761380425699759000,5.825759033203125,0.014621020294725895,-0.008730640634894371,0.005504753906279802
1761380425709841000,5.8358408203125,0.014125672169029713,-0.008461128920316696,0.0028812738601118326
1761380425719923000,5.8459228515625,0.013668141327798367,-0.009162339381873608,-0.0003379551344551146
1761380425730006000,5.856006103515625,0.014092915691435337,-0.010435064323246479,0.0019182749092578888
1761380425740088000,5.866088134765625,0.015920909121632576,-0.007573497481644154,0.0033015208318829536
1761380425750170000,5.876170166015625,0.01239461824297905,-0.012112589552998543,-0.00000958738019107841
1761380425760253000,5.8862529296875,0.012437494471669197,-0.007140733767300844,0.0010295780375599861
1761380425770335000,5.8963349609375,0.01739683374762535,-0.007737281732261181,0.0027688886038959026
1761380425780417000,5.9064169921875,0.013233513571321964,-0.006853112485259771,0.0012479572324082255
1761380425790499800,5.916499755859375,0.011385812424123287,-0.00914369709789753,0.0007608651067130268
1761380425800582000,5.926581787109375,0.013000220991671085,-0.007753527257591486,0.0005054679932072759
1761380425810664000,5.936663818359375,0.01278583612293005,-0.009043029509484768,0.0018548916559666395
1761380425820747000,5.9467470703125,0.01101696491241455,-0.007487210910767317,0.002526274649426341
1761380425830828800,5.956828857421875,0.011438276618719101,-0.009699232876300812,0.0029726203065365553
1761380425840910800,5.966910888671875,0.012441223487257957,-0.007993211969733238,0.002986468840390444
1761380425850993000,5.976992919921875,0.01245214231312275,-0.010456369258463383,0.0012812467757612467
1761380425861076000,5.987075927734375,0.01375123206526041,-0.008230498991906643,0.00046631949953734875
1761380425871157800,5.99715771484375,0.012296346947550774,-0.007678425870835781,0.0022442457266151905
1761380425881239800,6.00723974609375,0.013786918483674526,-0.011269965209066868,0.004535629414021969
1761380425891323000,6.017322998046875,0.013758422806859016,-0.009957293048501015,0.002415220718830824
1761380425901405000,6.027405029296875,0.011453457176685333,-0.00640729907900095,0.000857005245052278
1761380425911487000,6.037487060546875,0.012345349416136742,-0.00954024214297533,0.0014631407102569938
1761380425921570000,6.047570068359375,0.013188240118324757,-0.012060657143592834,0.002439189236611128
1761380425931652000,6.057652099609375,0.012685168534517288,-0.008712797425687313,0.002083124592900276
1761380425941734100,6.067734130859375,0.012051070109009743,-0.0070701600052416325,0.001714010490104556
1761380425951817000,6.07781689453125,0.014399978332221508,-0.00797057431191206,0.0011163970921188593
1761380425961899000,6.08789892578125,0.012983176857233047,-0.009399360977113247,0.001377653214149177
1761380425971981000,6.09798095703125,0.012867595069110394,-0.006043245084583759,0.004454935900866985
1761380425982064000,6.108064208984375,0.011538944207131863,-0.012545352801680565,0.0017499631503596902
1761380425992145700,6.118145751953125,0.01360262744128704,-0.008094144985079765,0.0007608651067130268
1761380426002227700,6.128227783203125,0.013763482682406902,-0.0076059880666434765,0.0008428904693573713
1761380426012310800,6.138310791015625,0.013354687951505184,-0.005315669346600771,0.001612011343240738
1761380426022392800,6.148392822265625,0.013338175602257252,-0.008707737550139427,0.0025859293527901173
1761380426032475000,6.158474853515625,0.013046293519437313,-0.011195928789675236,0.003370496677234769
1761380426042558000,6.168557861328125,0.01393019687384367,-0.009925068356096745,0.004869590047746897
1761380426052639700,6.1786396484375,0.014454839751124382,-0.006142580881714821,0.004239752423018217
1761380426062721800,6.1887216796875,0.013166136108338833,-0.01104279700666666,0.0033430662006139755
1761380426072804900,6.198804931640625,0.013484915718436241,-0.0060416474007070065,0.002668753731995821
1761380426082887000,6.208886962890625,0.01420396938920021,-0.0076150428503751755,0.005286108236759901
1761380426092969000,6.218968994140625,0.0160700473934412,-0.007367102429270744,0.000928377965465188
1761380426103051800,6.2290517578125,0.013908624649047852,-0.011652927845716476,0.003940146882086992
1761380426113133800,6.2391337890625,0.014001036994159222,-0.009386844001710415,0.002537193475291133
1761380426123216000,6.2492158203125,0.014546718448400497,-0.008234760724008083,0.003567570587620139
1761380426133299000,6.259298828125,0.011905928142368793,-0.010661432519555092,0.0032796829473227262
1761380426143381000,6.269381103515625,0.013521933928132057,-0.009623332880437374,0.0005888249143026769
1761380426153462800,6.279462890625,0.013854829594492912,-0.006177202332764864,-0.0008468852029182017
1761380426163545900,6.2895458984375,0.013111274689435959,-0.009611348621547222,0.0032615733798593283
1761380426173628000,6.2996279296875,0.011826299130916595,-0.009922405704855919,0.0041097900830209255
1761380426183710000,6.3097099609375,0.011031345464289188,-0.010000436566770077,0.0026754115242511034
1761380426193792800,6.319792724609375,0.015137674286961555,-0.008695753291249275,0.003459712490439415
1761380426203874800,6.329874755859375,0.014300376176834106,-0.009386044926941395,-0.001156877144239843
1761380426213956900,6.339956787109375,0.013382917270064354,-0.005877596326172352,0.0034527883399277925
1761380426224039700,6.350039794921875,0.01398958545178175,-0.00908377580344677,0.004800347611308098
1761380426234121700,6.360121826171875,0.015154185704886913,-0.00751890242099762,0.0033838124945759773
1761380426244203800,6.370203857421875,0.012194881215691566,-0.009951700456440449,0.0038213697262108326
1761380426254286800,6.380286865234375,0.011710451915860176,-0.006733536254614592,0.0028503811918199062
1761380426264369000,6.390368896484375,0.013785320334136486,-0.009867544285953045,0.0008008125587366521
1761380426274450700,6.40045068359375,0.012371182441711426,-0.007797735743224621,0.0021470405627042055
1761380426284533800,6.41053369140625,0.0154929393902421,-0.009008674882352352,0.001484445994719863
1761380426294615800,6.42061572265625,0.012582371011376381,-0.010088853538036346,0.0037950044497847557
1761380426304697900,6.43069775390625,0.012658803723752499,-0.008841162547469139,0.0016530241118744016
1761380426314781000,6.440781005859375,0.011925102211534977,-0.006530869752168655,0.0037404096219688654
1761380426324863000,6.450863037109375,0.013538178987801075,-0.007571100722998381,0.0038397456519305706
1761380426334944800,6.46094482421875,0.013161075301468372,-0.009464608505368233,-0.0022098910994827747
1761380426345027800,6.47102783203125,0.013314473442733288,-0.006594785954803228,0.005997971165925264
1761380426355110000,6.48110986328125,0.014135526493191719,-0.007894407957792282,0.002597647253423929
1761380426365192000,6.49119189453125,0.01248303521424532,-0.005090898834168911,0.0020327907986938953
1761380426375275000,6.50127490234375,0.013442572206258774,-0.006853378843516111,0.0032141690608114004
1761380426385356800,6.511356689453125,0.013513944111764431,-0.008328503929078579,0.0023228090722113848
1761380426395438800,6.52143896484375,0.01447081845253706,-0.010342651978135109,0.003453853540122509
1761380426405522000,6.53152197265625,0.01423725951462984,-0.007842476479709148,0.0019947076216340065
1761380426415604000,6.54160400390625,0.013608486391603947,-0.010511230677366257,0.00341577036306262
1761380426425685800,6.551685791015625,0.013953099958598614,-0.006517820525914431,0.001234907773323357
1761380426435767800,6.561767822265625,0.012705941684544086,-0.010411894880235195,0.002540922025218606
1761380426445851000,6.571850830078125,0.01347639411687851,-0.009696036577224731,0.002020274056121707
1761380426455933000,6.581932861328125,0.014815963804721832,-0.008259527385234833,0.00210735946893692
1761380426466015000,6.592014892578125,0.01540345698595047,-0.007330084685236216,0.003442135639488697
1761380426476097800,6.602097900390625,0.014211160130798817,-0.010449178516864777,0.0008426241693086922
1761380426486179800,6.612179931640625,0.010328537784516811,-0.009268333204090595,0.004208593629300594
1761380426496262000,6.622261962890625,0.013137905858457088,-0.00920441746711731,0.0010543455136939883
1761380426506344700,6.6323447265625,0.014315555803477764,-0.00621129060164094,0.0007952199084684253
1761380426516426800,6.6424267578125,0.013666544109582901,-0.00999111495912075,0.0014562164433300495
1761380426526508800,6.6525087890625,0.012719523161649704,-0.007788148242980242,0.0038344194181263447
1761380426536592000,6.662591796875,0.011353322304785252,-0.010231065563857555,0.0029699571896344423
1761380426546673700,6.672673583984375,0.012123242020606995,-0.006788930390030146,0.0031193606555461884
1761380426556755700,6.682755615234375,0.013352290727198124,-0.008593488484621048,0.0017675400013104081
1761380426566838800,6.6928388671875,0.01501223910599947,-0.008011587895452976,0.0020865867845714092
1761380426576920800,6.7029208984375,0.011607653461396694,-0.007935420610010624,0.004490089602768421
1761380426587003000,6.7130029296875,0.012900352478027344,-0.00860334187746048,0.004596349783241749
1761380426597086000,6.7230859375,0.012853214517235756,-0.008360994048416615,0.0009896307019516826
1761380426607168000,6.73316796875,0.015565111301839352,0.04186888784170151,0.03768426179885864
1761380426617249800,6.743249755859375,0.013370400294661522,0.0963001698255539,0.07196100801229477
1761380426627332900,6.753332763671875,0.01335788331925869,0.08040482550859451,0.06087320297956467
1761380426637415000,6.763414794921875,0.012804212048649788,0.017490843310952187,0.02062991075217724
1761380426647497000,6.7734970703125,0.012838033959269524,-0.08865024149417877,-0.05187278613448143
1761380426657579800,6.783579833984375,0.011804195120930672,-0.18850946426391602,-0.11361497640609741
1761380426667661800,6.793661865234375,0.01278823334723711,-0.06682004034519196,-0.039197470992803574
1761380426677743900,6.803743896484375,0.014696122147142887,0.07901998609304428,0.05661774054169655
1761380426687827000,6.813826904296875,0.01552036963403225,-0.009945308789610863,0.0036429380998015404
1761380426697909000,6.823908935546875,0.011639345437288284,-0.07994303852319717,-0.044610876590013504
