time,seconds_elapsed,z,y,x
1761380411811233000,0.07223291015625,0.011754659935832024,-0.04040015488862991,-0.018797123804688454
1761380411821316000,0.082316162109375,0.013831659220159054,-0.006343649700284004,0.0030075078830122948
1761380411831398000,0.09239794921875,0.013003682717680931,0.01444205641746521,0.01906983181834221
1761380411841480000,0.10247998046875,0.013193832710385323,-0.01763811521232128,-0.0060264673084020615
1761380411851563000,0.11256298828125,0.01435257401317358,-0.025606825947761536,-0.005470931995660067
1761380411861645000,0.12264501953125,0.01378345675766468,0.005287706386297941,0.010543188080191612
1761380411871727000,0.13272705078125,0.0160607248544693,0.0003408846096135676,0.006328469607979059
1761380411881810000,0.142809814453125,0.013931527733802795,-0.023139141499996185,-0.005742307752370834
1761380411891892000,0.15289208984375,0.012647085823118687,-0.009004680439829826,0.0023928501177579165
1761380411901975000,0.16297509765625,0.010974087752401829,0.0025355955585837364,0.01306120678782463
1761380411912056800,0.173056884765625,0.013819143176078796,-0.013561614789068699,-0.0014612764352932572
1761380411922139000,0.183138916015625,0.013291836716234684,-0.01690920814871788,-0.0020248014479875565
1761380411932222000,0.193221923828125,0.013785853050649166,-0.0030210898257791996,0.002853044541552663
1761380411942304000,0.203303955078125,0.012569854035973549,-0.004239486064761877,0.006426474079489708
1761380411952385800,0.2133857421875,0.012202337384223938,-0.015719573944807053,-0.0022828616201877594
1761380411962468900,0.22346875,0.014188257046043873,-0.008594552986323833,0.002740392694249749
1761380411972551000,0.233551025390625,0.013672136701643467,-0.0026487798895686865,0.00740225613117218
1761380411982632200,0.243632080078125,0.012770123779773712,-0.009081113152205944,0.0016178702935576439
1761380411992715000,0.253715087890625,0.013164537958800793,-0.01350702065974474,-0.00030067088664509356
1761380412002797000,0.263797119140625,0.012918994762003422,-0.0031936627347022295,0.006878412328660488
1761380412012879000,0.273879150390625,0.013890781439840794,-0.0037023264449089766,0.001868473831564188
1761380412022962200,0.283962158203125,0.01139779668301344,-0.015489211305975914,-0.002286856295540929
1761380412033044200,0.294044189453125,0.012441223487257957,-0.008905078284442425,0.001175519311800599
1761380412043126000,0.3041259765625,0.0145874647423625,-0.004829908721148968,0.007936752401292324
1761380412053209300,0.314209228515625,0.013935256749391556,-0.012199408374726772,0.0003603257064241916
1761380412063291400,0.32429150390625,0.013096626847982407,-0.013919809833168983,0.0024058998096734285
1761380412073373400,0.33437353515625,0.011590875685214996,-0.0033459956757724285,0.0038629150949418545
1761380412083456300,0.344456298828125,0.015415441244840622,-0.009210809133946896,0.006563093978911638
1761380412093538300,0.354538330078125,0.012597550638020039,-0.009496299549937248,0.0029430591966956854
1761380412103620400,0.364620361328125,0.012899020686745644,-0.010850783437490463,0.0011326423846185207
1761380412113703200,0.374703125,0.012456669472157955,-0.007866711355745792,0.0037230991292744875
1761380412123785200,0.38478515625,0.012673450633883476,-0.011920575052499771,-0.0006791060441173613
1761380412133868300,0.394868408203125,0.012850817292928696,-0.007726362906396389,0.004262122791260481
1761380412143950300,0.404950439453125,0.012546151876449585,-0.008884571492671967,0.0036791570018976927
1761380412154032000,0.4150322265625,0.014031130820512772,-0.008541289716959,0.00199337606318295
1761380412164115200,0.425115234375,0.013846839778125286,-0.013933125883340836,-0.0003246393462177366
1761380412174197200,0.435197265625,0.01506843138486147,-0.0070368703454732895,0.0007696535321883857
1761380412184279300,0.445279296875,0.014960840344429016,-0.006056028418242931,0.0032509206794202328
1761380412194362000,0.455362060546875,0.01275760680437088,-0.00833782460540533,0.0052197957411408424
1761380412204444200,0.465444091796875,0.015124624595046043,-0.014135260134935379,-0.0007536745979450643
1761380412214526200,0.475526123046875,0.012502475641667843,-0.006739395204931498,0.00043755737715400755
1761380412224609000,0.485609130859375,0.014083062298595905,-0.0075937374494969845,0.0009129316313192248
1761380412234691000,0.495691162109375,0.014306767843663692,-0.009727994911372662,-0.0009046758059412241
1761380412244773000,0.505773193359375,0.013587714172899723,-0.009956227615475655,0.0011238539591431618
1761380412254856200,0.515856201171875,0.011567173525691032,-0.008010256104171276,0.0029382656794041395
1761380412264938200,0.525938232421875,0.014860705472528934,-0.009339972399175167,0.0014919028617441654
1761380412275020000,0.53602001953125,0.015241537243127823,-0.011682488955557346,0.00046924897469580173
1761380412285103000,0.54610302734375,0.012659602798521519,-0.007723966147750616,0.004267981741577387
1761380412295185200,0.55618505859375,0.01519706193357706,-0.009435313753783703,0.0016596820205450058
1761380412305267200,0.56626708984375,0.012915265746414661,-0.009863017126917839,0.0036967338528484106
1761380412315350300,0.576350341796875,0.014553642831742764,-0.006136189214885235,0.006632070057094097
1761380412325432300,0.586432373046875,0.012356534600257874,-0.006126868538558483,0.0032687638886272907
1761380412335515100,0.59651513671875,0.01398479100316763,-0.009859554469585419,0.001356614287942648
1761380412345597200,0.60659716796875,0.01404497865587473,-0.009576194919645786,0.0016753945965319872
1761380412355679200,0.61667919921875,0.0112798186019063,-0.008694421499967575,0.004137753508985043
1761380412365762300,0.62676220703125,0.013056679628789425,-0.006836866959929466,0.0028210864402353764
1761380412375844400,0.63684423828125,0.012969061732292175,-0.0070917317643761635,0.0027121631428599358
1761380412385926100,0.646926025390625,0.010971956886351109,-0.009700563736259937,0.0016620787791907787
1761380412396009200,0.65700927734375,0.015387211926281452,-0.010758904740214348,0.0041617220267653465
1761380412406091300,0.66709130859375,0.010565558448433876,-0.010804710909724236,0.0007150587625801563
1761380412416173300,0.67717333984375,0.013154418207705021,-0.009103749878704548,-0.0024445154704153538
1761380412426256100,0.687256103515625,0.014885205775499344,-0.008253934793174267,0.0020956413354724646
1761380412436338200,0.697338134765625,0.015297463163733482,-0.011201521381735802,0.0010937602492049336
1761380412446420200,0.707420166015625,0.012744290754199028,-0.0075575183145701885,0.0010130665032193065
1761380412456503000,0.7175029296875,0.014288391917943954,-0.009725597687065601,0.004084490239620209
1761380412466585000,0.727585205078125,0.012088887393474579,-0.006633135490119457,0.0002748382103163749
1761380412476667100,0.737667236328125,0.013345366343855858,-0.006985471583902836,0.0015552861150354147
1761380412486750200,0.747750244140625,0.015222095884382725,-0.005793440621346235,0.003822967642918229
1761380412496832300,0.757832275390625,0.013217534869909286,-0.008070975542068481,0.0006860303110443056
1761380412506914000,0.7679140625,0.013256949372589588,-0.005938050337135792,0.004050934221595526
1761380412516997000,0.7779970703125,0.011611648835241795,-0.008344216272234917,0.0032384039368480444
1761380412527079200,0.7880791015625,0.013292369432747364,-0.008655273355543613,0.00101173494476825
1761380412537162200,0.798162353515625,0.013942980207502842,-0.009197493083775043,0.0033633061684668064
1761380412547244300,0.808244384765625,0.014039652422070503,-0.008469651453197002,0.0012639362830668688
1761380412557326300,0.818326416015625,0.013969611376523972,-0.00830666534602642,0.0027305390685796738
1761380412567409200,0.8284091796875,0.013351225294172764,-0.005393433850258589,0.0005400890368036926
1761380412577491200,0.8384912109375,0.014800517819821835,-0.009319731965661049,0.0035428032279014587
1761380412587573200,0.8485732421875,0.01372193731367588,-0.007655522786080837,0.00041518680518493056
1761380412597656300,0.85865625,0.010485930368304253,-0.008860336616635323,0.002570749493315816
1761380412607738400,0.86873828125,0.013470268808305264,-0.00866086594760418,0.002412557601928711
1761380412617820200,0.878820068359375,0.012015117332339287,-0.010811901651322842,-0.000511593243572861
1761380412627903200,0.8889033203125,0.014908109791576862,-0.006617689039558172,0.003013899317011237
1761380412637985300,0.8989853515625,0.014191718772053719,-0.009384713135659695,0.000278300343779847
1761380412648067300,0.9090673828125,0.012783173471689224,-0.008901615627110004,0.0020485036075115204
1761380412658150100,0.919150146484375,0.012316321022808552,-0.006730074528604746,0.0008647284121252596
1761380412668232200,0.929232177734375,0.013246829621493816,-0.007049920037388802,0.001558748190291226
1761380412678315300,0.939315185546875,0.013440174981951714,-0.006374542135745287,0.0033044503070414066
1761380412688397000,0.94939697265625,0.01410676445811987,-0.00851652305573225,0.0021145499777048826
1761380412698479000,0.95947900390625,0.0143547048792243,-0.0068027786910533905,0.00019414443522691727
1761380412708562200,0.969562255859375,0.01369131077080965,-0.008557535707950592,0.000699079770129174
1761380412718644200,0.979644287109375,0.012565060518682003,-0.008815595880150795,0.0032674323301762342
1761380412728726300,0.989726318359375,0.014576545916497707,-0.01061988715082407,0.0007957525085657835
1761380412738809000,0.99980908203125,0.01455630548298359,-0.008310660719871521,0.0020418455824255943
1761380412748891100,1.00989111328125,0.013578127138316631,-0.0062666842713952065,0.004799549002200365
1761380412758973200,1.01997314453125,0.0154340835288167,-0.006112753413617611,0.002394980750977993
1761380412769056000,1.030055908203125,0.016336362808942795,-0.0075609805062413216,-0.00022610237647313625
1761380412779138000,1.040137939453125,0.01296293642371893,-0.00999138131737709,0.005546831991523504
1761380412789220000,1.05022021484375,0.013018330559134483,-0.009038235992193222,0.005194229539483786
1761380412799303200,1.06030322265625,0.012343218550086021,-0.007601194549351931,0.0022501046769320965
1761380412809385200,1.07038525390625,0.01296320278197527,-0.007223291788250208,0.0033864756114780903
1761380412819468300,1.08046826171875,0.0118489358574152,-0.006730074528604746,0.0027957865968346596
1761380412829550300,1.09055029296875,0.012467055581510067,-0.008638229221105576,0.0009914948605000973
1761380412839632400,1.10063232421875,0.010404704138636589,-0.008421714417636395,0.0012740562669932842
1761380412849715200,1.110715087890625,0.014042316004633904,-0.011350658722221851,0.005561213009059429
1761380412859797200,1.12079736328125,0.014910239726305008,-0.009105081669986248,0.0030192257836461067
1761380412869879300,1.13087939453125,0.01321167591959238,-0.007941014133393764,0.000696150294970721
1761380412879962000,1.140962158203125,0.013096626847982407,-0.00851492490619421,0.004585430957376957
1761380412890044200,1.151044189453125,0.013553093187510967,-0.008256332017481327,0.0011017497163265944
1761380412900126200,1.161126220703125,0.013594105839729309,-0.011530688032507896,0.002501773415133357
1761380412910209300,1.171209228515625,0.01239328645169735,-0.0067572384141385555,0.0005379585199989378
1761380412920291000,1.181291015625,0.011228686198592186,-0.009730124846100807,0.003165965899825096
1761380412930373000,1.191373046875,0.013902232982218266,-0.009780725464224815,0.00523710623383522
1761380412940456200,1.201456298828125,0.013920342549681664,-0.00998978316783905,0.0010106696281582117
1761380412950538200,1.211538330078125,0.012724583968520164,-0.00872131995856762,0.003964648116379976
1761380412960621000,1.22162109375,0.012239355593919754,-0.00706829596310854,0.002737196860834956
1761380412970703000,1.231703125,0.015044729225337505,-0.009445433504879475,-0.000264718197286129
1761380412980786200,1.2417861328125,0.012848952785134315,-0.008231830783188343,0.002770486520603299
1761380412990869000,1.251868896484375,0.014060425572097301,-0.008414523676037788,0.005614742636680603
1761380413000951000,1.261950927734375,0.01387134101241827,-0.007136206608265638,-0.00005619269722956233
1761380413011033000,1.272033203125,0.014412228949368,-0.0076209018006920815,-0.0011124024167656898
1761380413021116000,1.282115966796875,0.011684885248541832,-0.011068630032241344,0.0019853864796459675
1761380413031198000,1.292197998046875,0.01458986196666956,-0.006358297076076269,0.0027659591287374496
1761380413041280000,1.302280029296875,0.012807408347725868,-0.008501342497766018,0.00321816373616457
1761380413051363000,1.312363037109375,0.01321034412831068,-0.007370830979198217,0.0025957829784601927
1761380413061445000,1.322445068359375,0.013364541344344616,-0.008916263468563557,0.0022357236593961716
1761380413071527000,1.33252685546875,0.013392770662903786,-0.007722101639956236,0.001683384063653648
1761380413081610000,1.34260986328125,0.01381355058401823,-0.00780572509393096,0.0006253102328628302
1761380413091692000,1.352692138671875,0.012479039840400219,-0.009575662203133106,0.0029198897536844015
1761380413101775000,1.362775146484375,0.014083861373364925,-0.00971334706991911,-0.0006388923502527177
1761380413111857200,1.372857177734375,0.014700116589665413,-0.006400641519576311,0.004062652122229338
1761380413121939200,1.382939208984375,0.015510516241192818,-0.009790845215320587,0.0052048820070922375
1761380413132022000,1.39302197265625,0.013630591332912445,-0.008623847737908363,0.004575044382363558
1761380413142104000,1.40310400390625,0.01344843115657568,-0.009225988760590553,0.0005065332516096532
1761380413152186000,1.41318603515625,0.01347479596734047,-0.0070078419521451,0.001945705502294004
1761380413162269200,1.423269287109375,0.013508884236216545,-0.009533850476145744,0.004267183132469654
1761380413172351200,1.433351318359375,0.014364025555551052,-0.006910370197147131,0.0023731428664177656
1761380413182433000,1.44343310546875,0.01290168333798647,-0.010330135934054852,0.0004620584368240088
1761380413192516000,1.45351611328125,0.014600248076021671,-0.00708667142316699,0.00352868833579123
1761380413202598100,1.46359814453125,0.01356640923768282,-0.007303719408810139,0.002886067610234022
1761380413212680200,1.47368017578125,0.012473180890083313,-0.00977673102170229,0.004310858901590109
1761380413222763000,1.483762939453125,0.01067767757922411,-0.010880877263844013,0.0009171926649287343
1761380413232845000,1.493844970703125,0.013437777757644653,-0.007487477269023657,0.0017710020765662193
1761380413242928000,1.50392822265625,0.01426175981760025,-0.010032393969595432,0.0005936186062172055
1761380413253010000,1.514010009765625,0.012880112044513226,-0.008081096224486828,0.002441585995256901
1761380413263092000,1.524092041015625,0.013462545350193977,-0.010540525428950787,0.0019230686593800783
1761380413273175000,1.534175048828125,0.011772236786782742,-0.006317550782114267,0.0021403825376182795
1761380413283257000,1.544257080078125,0.015329421497881413,-0.010941331274807453,0.004200337454676628
1761380413293339100,1.554339111328125,0.014472948387265205,-0.008756473660469055,0.002557966159656644
1761380413303422000,1.564421875,0.013371732085943222,-0.007270696107298136,-0.001317998394370079
1761380413313504000,1.57450390625,0.013426326215267181,-0.0075884112156927586,0.004308994393795729
1761380413323587000,1.584587158203125,0.015355786308646202,-0.009339439682662487,0.004430701024830341
1761380413333669000,1.594669189453125,0.012261725962162018,-0.008687498047947884,0.0027502465527504683
1761380413343751200,1.604751220703125,0.01047181524336338,-0.007895473390817642,0.004101534374058247
1761380413353834200,1.614834228515625,0.012773585505783558,-0.010319216176867485,0.0037952708080410957
1761380413363916000,1.624916015625,0.01510118879377842,-0.010220679454505444,0.0016903083305805922
1761380413373998000,1.634998046875,0.015978699550032616,-0.00884835235774517,0.002276203827932477
1761380413384081200,1.6450810546875,0.011365040205419064,-0.008188420906662941,0.0024288028944283724
1761380413394163200,1.6551630859375,0.014690263196825981,-0.01113494299352169,0.0021920478902757168
1761380413404245200,1.665245361328125,0.01446735579520464,-0.007386809680610895,0.0030956584960222244
1761380413414328000,1.675328125,0.014193316921591759,-0.007631554268300533,0.0022778017446398735
1761380413424410000,1.68541015625,0.013377058319747448,-0.008157528936862946,0.0015398397808894515
1761380413434492200,1.6954921875,0.014199974946677685,-0.007870174013078213,0.0035412053111940622
1761380413444575000,1.705574951171875,0.01440903265029192,-0.007749798707664013,0.0015068164793774486
1761380413454657000,1.715656982421875,0.012565326876938343,-0.006075202953070402,0.0057564228773117065
1761380413464740000,1.725739990234375,0.01258024014532566,-0.007715444080531597,0.002374208066612482
1761380413474822100,1.735822265625,0.013345632702112198,-0.009793508797883987,0.0018903117161244154
1761380413484904000,1.745904052734375,0.012458001263439655,-0.008852880448102951,0.0014972290955483913
1761380413494987000,1.755987060546875,0.011335479095578194,-0.008517853915691376,0.0026053704787045717
1761380413505069000,1.766069091796875,0.011893677525222301,-0.009445699863135815,0.003186738584190607
1761380413515151000,1.776151123046875,0.011245463974773884,-0.010222810320556164,0.0005568669876083732
1761380413525234000,1.78623388671875,0.011998339556157589,-0.008541024290025234,0.004174771253019571
1761380413535316000,1.79631591796875,0.011268367059528828,-0.010145844891667366,0.002814162289723754
1761380413545399300,1.8063994140625,0.011562113650143147,-0.0057652113027870655,0.002055427758023143
1761380413555480800,1.816480712890625,0.011447864584624767,-0.008980711922049522,0.0029529130551964045
1761380413565563000,1.82656298828125,0.013407418504357338,-0.010864365845918655,0.0000828243064461276
1761380413575646200,1.836646240234375,0.012544021010398865,-0.008053398691117764,0.0021078919526189566
1761380413585728300,1.846728271484375,0.013223127461969852,-0.008083226159214973,0.0026224146131426096
1761380413595810000,1.85681005859375,0.013426592573523521,-0.008361793123185635,0.005388906225562096
1761380413605893000,1.86689306640625,0.012617791071534157,-0.008914132602512836,0.0022623552940785885
1761380413615975200,1.87697509765625,0.012851350009441376,-0.007272560149431229,0.006854177452623844
1761380413626057200,1.88705712890625,0.01248276885598898,-0.00908271037042141,0.0027289411518722773
1761380413636140000,1.89714013671875,0.012956544756889343,-0.00845526996999979,0.0028461201582103968
1761380413646222000,1.90722216796875,0.013569604605436325,-0.007732488214969635,0.003742273896932602
1761380413656304000,1.91730419921875,0.014082795940339565,-0.008680307306349277,0.0023100259713828564
1761380413666387200,1.92738720703125,0.014012754894793034,-0.008054197765886784,0.0041641187854111195
1761380413676469000,1.937468994140625,0.014020211063325405,-0.008074970915913582,0.0032027175184339285
1761380413686552000,1.947552001953125,0.01230380404740572,-0.0075782909989356995,0.0016218650853261352
1761380413696634000,1.957634033203125,0.0148662980645895,-0.007390271872282028,0.0010301107540726662
1761380413706716200,1.967716064453125,0.013324061408638954,-0.010841462761163712,0.00216488353908062
1761380413716799000,1.977799072265625,0.01444312185049057,-0.00893863383680582,0.002685797866433859
1761380413726881000,1.987881103515625,0.014181865379214287,-0.00996421743184328,0.001454618526622653
1761380413736963000,1.997963134765625,0.013865748420357704,-0.007860586047172546,0.0031382690649479628
1761380413747046000,2.0080458984375,0.01404710952192545,-0.00945182517170906,0.0014879080699756742
1761380413757128000,2.0181279296875,0.01417520735412836,-0.008547415025532246,0.00401737866923213
1761380413767210000,2.0282099609375,0.012570386752486229,-0.008473379537463188,0.0019153454340994358
1761380413777293000,2.03829296875,0.013003682717680931,-0.009840380400419235,0.0004593952908180654
1761380413787374800,2.048374755859375,0.014376808889210224,-0.00836632028222084,0.002560895634815097
1761380413797458200,2.058458251953125,0.01197170838713646,-0.007163903210312128,0.004624579101800919
1761380413807540200,2.068540283203125,0.01426655426621437,-0.008216384798288345,0.0027952538803219795
1761380413817622300,2.078622314453125,0.012750948779284954,-0.009764214046299458,0.0008428904693573713
1761380413827705000,2.088705078125,0.01384151354432106,-0.007986021228134632,0.0024530377704650164
1761380413837787100,2.098787109375,0.014606107026338577,-0.008898420259356499,0.00024714134633541107
1761380413847869200,2.108869140625,0.012358931824564934,-0.010746654123067856,0.0016298545524477959
1761380413857952000,2.118951904296875,0.012952816672623158,-0.005503954831510782,0.0013528858544304967
1761380413868034000,2.129033935546875,0.01242284756153822,-0.010567156597971916,-0.00033662354690022767
1761380413878116000,2.1391162109375,0.016477243974804878,-0.009186307899653912,0.0012455604737624526
1761380413888199200,2.14919921875,0.014243650250136852,-0.01020017359405756,0.0007475492893718183
1761380413898281200,2.15928125,0.013311810791492462,-0.008465389721095562,0.007132478058338165
1761380413908364000,2.169364013671875,0.012510199099779129,-0.012093414552509785,0.0014596786350011826
1761380413918446000,2.179446044921875,0.01293550617992878,-0.010263290256261826,0.0015598133904859424
1761380413928528100,2.189528076171875,0.01407640427350998,-0.010182863101363182,0.0030575753189623356
1761380413938611000,2.19961083984375,0.013423130847513676,-0.00811944529414177,0.0024674187880009413
1761380413948693000,2.20969287109375,0.013644439168274403,-0.00908750481903553,0.004610464442521334
1761380413958775000,2.219775146484375,0.012832175008952618,-0.007311975117772818,0.0005158542771823704
1761380413968858000,2.229858154296875,0.013334447517991066,-0.008310128003358841,0.004372377879917622
1761380413978939600,2.239939697265625,0.014013021253049374,-0.007902397774159908,0.0006072007236070931
1761380413989022500,2.2500224609375,0.012228436768054962,-0.007632086984813213,0.0011997540714219213
1761380413999104500,2.2601044921875,0.010359164327383041,-0.008694687858223915,0.0017262609908357263
1761380414009186600,2.2701865234375,0.01197836548089981,-0.008156197145581245,0.0032474587205797434
1761380414019269400,2.280269287109375,0.012782640755176544,-0.005763346794992685,0.0025015072897076607
1761380414029351400,2.290351318359375,0.012782907113432884,-0.008014250546693802,0.004854676313698292
1761380414039433500,2.30043359375,0.010748784057796001,-0.008837699890136719,-0.0017638115677982569
1761380414049516500,2.3105166015625,0.0145312724635005,-0.009819873608648777,0.00041039311327040195
1761380414059598300,2.320598388671875,0.014276407659053802,-0.009439840912818909,0.00199284334667027
1761380414069680400,2.330680419921875,0.011567706242203712,-0.006427273154258728,0.0023369237314909697
1761380414079763500,2.340763427734375,0.014358432963490486,-0.008442486636340618,0.0035292210523039103
1761380414089845500,2.350845458984375,0.013116334564983845,-0.01061882171779871,0.0007850998663343489
1761380414099928300,2.36092822265625,0.011648932471871376,-0.00577719509601593,0.0004846953088417649
1761380414110010400,2.37101025390625,0.013677462935447693,-0.006932474672794342,0.00115421402733773
1761380414120092400,2.381092529296875,0.012198609299957752,-0.006902647204697132,-0.00009560748003423214
1761380414130175500,2.391175537109375,0.011884089559316635,-0.009984456934034824,0.0008367652189917862
1761380414140257500,2.401257568359375,0.01290514599531889,-0.008914931677281857,0.003531884169206023
1761380414150339600,2.411339599609375,0.011669439263641834,-0.008252337574958801,0.0038093857001513243
1761380414160422700,2.421422607421875,0.013048424385488033,-0.01110218558460474,0.0009012137306854129
1761380414170504400,2.43150439453125,0.011900069192051888,-0.005763879511505365,0.002724946476519108
1761380414180586500,2.44158642578125,0.014162424020469189,-0.01122442539781332,0.002517219865694642
1761380414190669600,2.451669677734375,0.011274758726358414,-0.008342618122696877,0.00043302998528815806
1761380414200751600,2.461751708984375,0.013056413270533085,-0.011536281555891037,0.002385659608989954
1761380414210834400,2.47183447265625,0.012662531808018684,-0.006859237793833017,-0.0003741741238627583
1761380414220916500,2.48191650390625,0.012629775330424309,-0.009758621454238892,0.003230680711567402
1761380414230998500,2.49199853515625,0.012382101267576218,-0.007677360903471708,0.0015305186389014125
1761380414241081600,2.50208154296875,0.015095063485205173,-0.010276339948177338,0.0035694348625838757
1761380414251163400,2.512163330078125,0.011412444524466991,-0.008373777382075787,0.004012318328022957
1761380414261245400,2.522245361328125,0.012764264829456806,-0.009430519305169582,0.003442668356001377
1761380414271328500,2.53232861328125,0.013656689785420895,-0.010604707524180412,0.003055444685742259
1761380414281410600,2.54241064453125,0.013666277751326561,-0.006626743823289871,0.00006578007742064074
1761380414291492400,2.552492431640625,0.013660418801009655,-0.007113835774362087,0.0020682108588516712
1761380414301575400,2.562575439453125,0.012750149704515934,-0.009159675799310207,0.00004740426811622456
1761380414311657500,2.572657470703125,0.014193050563335419,-0.007959655486047268,0.0019489012192934752
1761380414321740300,2.582740234375,0.012529906816780567,-0.008698150515556335,0.0018927085911855102
1761380414331822300,2.592822265625,0.014433533884584904,-0.010605240240693092,0.0007368966471403837
1761380414341904400,2.602904296875,0.014601047150790691,-0.009911753237247467,0.0019267969764769077
1761380414351987700,2.61298779296875,0.014238856732845306,-0.007474161684513092,0.003144660498946905
1761380414362069500,2.623069580078125,0.014473747462034225,-0.009976468048989773,0.0012112056137993932
1761380414372151300,2.6331513671875,0.012057728134095669,-0.006917294580489397,0.003147589974105358
1761380414382234600,2.643234619140625,0.014400777406990528,-0.004710066597908735,0.0025534387677907944
1761380414392316700,2.653316650390625,0.013803163543343544,-0.00791251752525568,-0.0005496764206327498
1761380414402398500,2.6633984375,0.01426548883318901,-0.0073194317519664764,0.002590989461168647
1761380414412481500,2.6734814453125,0.012537096627056599,-0.008231830783188343,0.0015611450653523207
1761380414422563600,2.6835634765625,0.01588761992752552,-0.0073593794368207455,0.003364105010405183
1761380414432646400,2.693646484375,0.012373578734695911,-0.009259012527763844,0.0004948153509758413
1761380414442728400,2.703728515625,0.012606605887413025,-0.008007592521607876,0.0034043188206851482
1761380414452810500,2.713810546875,0.014905712567269802,-0.009140501730144024,0.0007792409160174429
1761380414462893600,2.7238935546875,0.010993795469403267,-0.009092298336327076,0.0019925772212445736
1761380414472975600,2.7339755859375,0.013309679925441742,-0.007970308884978294,0.001743305241689086
1761380414483057400,2.744057373046875,0.01176264975219965,-0.00878949649631977,0.0009480853332206607
1761380414493140500,2.754140380859375,0.01278450433164835,-0.00866379588842392,0.0023039006628096104
1761380414503222500,2.764222412109375,0.014456436969339848,-0.006462426856160164,0.0030655646696686745
1761380414513305300,2.774305419921875,0.012010856531560421,-0.00977273564785719,-0.0011323761427775025
1761380414523387400,2.784387451171875,0.014103035442531109,-0.006223541218787432,0.002526541007682681
1761380414533469400,2.794469482421875,0.010500578209757805,-0.008213188499212265,0.003338272450491786
1761380414543552500,2.804552490234375,0.013807691633701324,-0.006911435630172491,0.0031382690649479628
1761380414553634300,2.81463427734375,0.012312326580286026,-0.009184976108372211,0.004856273997575045
1761380414563716400,2.82471630859375,0.013038570061326027,-0.007110107224434614,0.0020277309231460094
1761380414573799700,2.834799560546875,0.013802630826830864,-0.007005711551755667,0.003144926857203245
1761380414583881500,2.844881591796875,0.013714480213820934,-0.005930060520768166,0.0017246630741283298
1761380414593963300,2.85496337890625,0.01173282228410244,-0.009955428540706635,0.0010167949367314577
1761380414604046600,2.865046630859375,0.011386078782379627,-0.010950119234621525,0.0032519858796149492
1761380414614128600,2.875128662109375,0.014093182049691677,-0.007393734063953161,0.0023007048293948174
1761380414624211500,2.88521142578125,0.015368036925792694,-0.006431533955037594,-0.0004796353168785572
1761380414634293500,2.89529345703125,0.011472631245851517,-0.009769540280103683,0.000898550555575639
1761380414644375600,2.90537548828125,0.015023157931864262,-0.006160690449178219,0.004064782522618771
1761380414654458600,2.915458740234375,0.013931527733802795,-0.008708003908395767,0.0020426444243639708
1761380414664540400,2.92554052734375,0.015513978898525238,-0.008523979224264622,0.002674879040569067
1761380414674622500,2.93562255859375,0.014313159510493279,-0.00797563511878252,0.004236023873090744
1761380414684705500,2.94570556640625,0.014607438817620277,-0.008490423671901226,0.000054328484111465514
1761380414694787600,2.95578759765625,0.013831659220159054,-0.009893377311527729,0.00042211104300804436
1761380414704869600,2.96586962890625,0.013400227762758732,-0.007380152121186256,0.0029790119733661413
1761380414714952400,2.975952392578125,0.014462029561400414,-0.005007808096706867,0.0008543420699425042
1761380414725034500,2.986034423828125,0.012976252473890781,-0.007762315683066845,-0.00006924218905624002
1761380414735117300,2.996117431640625,0.01329609751701355,-0.007862983271479607,0.0022058964241296053
1761380414745199400,3.006199462890625,0.012715262360870838,-0.010697118937969208,0.0010183927370235324
1761380414755281400,3.016281494140625,0.0120689133182168,-0.008570052683353424,0.0032740901224315166
1761380414765364500,3.026364501953125,0.013016466051340103,-0.010308297351002693,0.0033481260761618614
1761380414775446500,3.036446533203125,0.010584467090666294,-0.009298427030444145,0.0024623586796224117
1761380414785528300,3.0465283203125,0.01239381916821003,-0.00945262424647808,-0.00034940673504024744
1761380414795611400,3.056611328125,0.013797570951282978,-0.00788641907274723,0.001205080421641469
1761380414805693400,3.066693359375,0.01264255866408348,-0.008893360383808613,0.0010130665032193065
1761380414815775500,3.076775390625,0.013499563559889793,-0.005981726106256247,0.0028605014085769653
1761380414825858600,3.086858642578125,0.013972008600831032,-0.008207862265408039,0.0015672702575102448
1761380414835940600,3.096940673828125,0.013539510779082775,-0.0073468624614179134,0.0036218990571796894
1761380414846023700,3.107023681640625,0.01384098082780838,-0.009666475467383862,0.0034727619495242834
1761380414856105500,3.11710546875,0.012370117008686066,-0.0042719766497612,0.0023616913240402937
1761380414866187500,3.1271875,0.01245267502963543,-0.009809221141040325,0.002388855442404747
1761380414876270600,3.1372705078125,0.011601261794567108,-0.008625712245702744,0.004463724326342344
1761380414886352600,3.1473525390625,0.012718991376459599,-0.009252620860934258,0.0034202977549284697
1761380414896434400,3.157434326171875,0.012955479323863983,-0.00837031565606594,0.002639725338667631
1761380414906517500,3.167517578125,0.013146162033081055,-0.008576976135373116,0.004248274490237236
1761380414916599600,3.177599609375,0.013191701844334602,-0.007690676487982273,0.004576642066240311
1761380414926681600,3.187681640625,0.012625247240066528,-0.00953704584389925,0.0014889733865857124
1761380414936764400,3.197764404296875,0.011937885545194149,-0.008329568430781364,0.005163869354873896
1761380414946846500,3.207846435546875,0.012357333675026894,-0.010423346422612667,0.001841575838625431
1761380414956929500,3.217929443359375,0.013080648146569729,-0.008466987870633602,0.0004410194815136492
1761380414967011300,3.22801123046875,0.012724051252007484,-0.007543403655290604,0.0019435749854892492
1761380414977093400,3.23809326171875,0.013860953971743584,-0.006754841655492783,-0.0006181196658872068
1761380414987180300,3.24818017578125,0.0143520412966609,-0.009611881338059902,0.0015494271647185087
1761380414997262300,3.258262451171875,0.013698235154151917,-0.008550877682864666,0.0007065366371534765
1761380415007344000,3.26834423828125,0.011742942035198212,-0.0076512619853019714,0.0009869674686342478
1761380415017427500,3.278427490234375,0.013874270021915436,-0.008654207922518253,0.004262921866029501
1761380415027509200,3.28850927734375,0.012200473807752132,-0.007478422485291958,0.0004324973560869694
1761380415037591300,3.29859130859375,0.0139019675552845,-0.005970274563878775,0.0036610474344342947
1761380415047674400,3.30867431640625,0.014797587879002094,-0.008392686024308205,0.004936435259878635
1761380415057756400,3.31875634765625,0.01312245987355709,-0.008550078608095646,0.0027198863681405783
1761380415067839500,3.328839599609375,0.014315555803477764,-0.004969991277903318,0.00751970149576664
1761380415077921300,3.33892138671875,0.014345116913318634,-0.0076033249497413635,0.0031784826423972845
1761380415088003300,3.34900341796875,0.015529691241681576,-0.00827018078416586,0.0016245282022282481
1761380415098086400,3.35908642578125,0.014503574930131435,-0.007870705798268318,0.0024045680183917284
1761380415108168400,3.36916845703125,0.015133412554860115,-0.009065666235983372,0.0018442390719428658
1761380415118250500,3.37925048828125,0.01281885989010334,-0.008896023035049438,0.002117745578289032
1761380415128333300,3.389333251953125,0.016510799527168274,-0.010919759050011635,-0.0005198490689508617
1761380415138415400,3.399415283203125,0.01389903761446476,-0.01095624454319477,0.004061853047460318
1761380415148497400,3.409497314453125,0.011713380925357342,-0.006199839059263468,0.002549177734181285
1761380415158580200,3.419580322265625,0.015532353892922401,-0.00817776843905449,0.0025443839840590954
1761380415168662300,3.429662353515625,0.01254269015043974,-0.0075729647651314735,0.0006857639527879655
1761380415178744300,3.439744384765625,0.011347729712724686,-0.006816360633820295,0.0021976404823362827
1761380415188827400,3.449827392578125,0.013138172216713428,-0.00863077212125063,0.002965962514281273
1761380415198909200,3.4599091796875,0.01577017456293106,-0.007831824012100697,0.0004982774262316525
1761380415208992300,3.4699921875,0.012682772241532803,-0.006616889964789152,0.0027925907634198666
1761380415219074300,3.48007421875,0.012318451888859272,-0.00863237027078867,0.004406466148793697
1761380415229156400,3.49015625,0.01329876109957695,-0.006374542135745287,0.0054458980448544025
1761380415239239200,3.5002392578125,0.01635793410241604,-0.009547432884573936,0.00002157160452043172
1761380415249321200,3.5103212890625,0.013873204588890076,-0.006189718842506409,0.0019438412273302674
1761380415259403300,3.5204033203125,0.01378265768289566,-0.00860254280269146,0.002112152986228466
1761380415269486300,3.530486328125,0.015237010084092617,-0.009647301398217678,0.004599545616656542
1761380415279568400,3.540568359375,0.013828996568918228,-0.00848802737891674,0.002558232517912984
1761380415289650400,3.550650390625,0.01369264256209135,-0.006697850301861763,0.0016173376934602857
1761380415299733500,3.5607333984375,0.013515542261302471,-0.00905607920140028,0.001543834456242621
1761380415309815300,3.570815185546875,0.014245514757931232,-0.009471265599131584,0.0011547466274350882
1761380415319898400,3.5808984375,0.01501223910599947,-0.0073804184794425964,0.00126713200006634
1761380415329980400,3.59098046875,0.011401258409023285,-0.00726403808221221,0.0022767363116145134
1761380415340062500,3.6010625,0.014348046854138374,-0.009119462221860886,0.0012650014832615852
1761380415350145300,3.611145263671875,0.013232980854809284,-0.008231830783188343,0.003451723139733076
1761380415360227300,3.621227294921875,0.01398505736142397,-0.007769239600747824,0.0031015174463391304
1761380415370309400,3.631309326171875,0.013247628696262836,-0.010322678834199905,0.0017062872648239136
1761380415380392200,3.64139208984375,0.012411396019160748,-0.009861685335636139,0.002298840554431081
1761380415390474200,3.65147412109375,0.013118465431034565,-0.008359662257134914,0.0021699436474591494
1761380415400556300,3.661556396484375,0.012345349416136742,-0.009958092123270035,0.00361817074008286
1761380415410639400,3.671639404296875,0.012628976255655289,-0.007719438523054123,0.0005904228310100734
1761380415420721400,3.681721435546875,0.014635135419666767,-0.009396164678037167,-0.0017686053179204464
1761380415430804200,3.69180419921875,0.013968013226985931,-0.007735417690128088,0.00043036683928221464
1761380415440886300,3.70188623046875,0.013194365426898003,-0.008157262578606606,0.0023521038237959146
1761380415450968300,3.71196826171875,0.013058544136583805,-0.010045443661510944,0.004724713973701
1761380415461051100,3.722051025390625,0.012326973490417004,-0.0073356772772967815,0.0018013621447607875
1761380415471133200,3.73213330078125,0.013334181159734726,-0.012619921006262302,-0.00012729909212794155
1761380415481215200,3.74221533203125,0.012525378726422787,-0.0099623529240489,0.004488757811486721
1761380415491298600,3.752298583984375,0.013861486688256264,-0.008139419369399548,0.004229099955409765
1761380415501380400,3.76238037109375,0.013711551204323769,-0.007412376347929239,0.002317216480150819
1761380415511462100,3.772462158203125,0.013628993183374405,-0.009943177923560143,0.004031759686768055
1761380415521545500,3.78254541015625,0.010556237772107124,-0.0072898706421256065,0.005512743256986141
1761380415531627500,3.79262744140625,0.01323857344686985,-0.009485380724072456,0.0027057717088609934
1761380415541709300,3.802709228515625,0.013027118518948555,-0.007397462613880634,-0.0005893575726076961
1761380415551792400,3.81279248046875,0.01410703081637621,-0.010340522043406963,0.005398493725806475
1761380415561874400,3.82287451171875,0.01455976814031601,-0.008894424885511398,0.0034879420418292284
1761380415571957200,3.832957275390625,0.015005048364400864,-0.00930082332342863,0.0016562198288738728
1761380415582039300,3.843039306640625,0.013484649360179901,-0.008958607912063599,-0.00007217166421469301
1761380415592121300,3.853121337890625,0.012347213923931122,-0.00809308048337698,0.004466121084988117
1761380415602204400,3.863204345703125,0.013047092594206333,-0.008098140358924866,0.002225337317213416
1761380415612286200,3.8732861328125,0.011818842962384224,-0.010290986858308315,0.0003757720405701548
1761380415622368300,3.8833681640625,0.01110618095844984,-0.009282714687287807,0.006140184123069048
1761380415632451300,3.893451416015625,0.013039102777838707,-0.009761550463736057,0.0014290522085502744
1761380415642533400,3.903533447265625,0.01630493812263012,-0.00842837244272232,0.0033188313245773315
1761380415652615400,3.913615478515625,0.015357917174696922,-0.009800433181226254,0.005449626594781876
1761380415662698200,3.9236982421875,0.012836968526244164,-0.009223858825862408,0.0030538467690348625
1761380415672780300,3.9337802734375,0.014250840991735458,-0.011635084636509418,0.0016365124611184
1761380415682862300,3.9438623046875,0.013228720054030418,-0.008074704557657242,0.0033276197500526905
1761380415692945200,3.953945068359375,0.01417520735412836,-0.007719438523054123,0.00440912926569581
1761380415703027200,3.964027099609375,0.013244432397186756,-0.007872303947806358,-0.00039228363311849535
1761380415713110300,3.9741103515625,0.012531237676739693,-0.007925833575427532,0.004203533288091421
1761380415723192300,3.9841923828125,0.015151522122323513,-0.008608668111264706,0.004436293616890907
1761380415733274000,3.994274169921875,0.012675847858190536,-0.00935941282659769,0.0038836877793073654
1761380415743357400,4.004357421875,0.01513128262013197,-0.009787649847567081,0.001460477476939559
1761380415753439500,4.014439453125,0.014070811681449413,-0.009158078581094742,0.0012221246724948287
1761380415763521500,4.024521484375,0.013522200286388397,-0.005130046978592873,0.002653573639690876
1761380415773604400,4.034604248046875,0.012106464244425297,-0.008530370891094208,0.0023329290561378
1761380415783686400,4.044686279296875,0.012802880257368088,-0.010210293345153332,0.0023875238839536905
1761380415793768400,4.0547685546875,0.014049772173166275,-0.008685899898409843,0.0016445019282400608
1761380415803851300,4.064851318359375,0.012350675649940968,-0.006488259416073561,0.0028445222415030003
1761380415813933300,4.074933349609375,0.013977334834635258,-0.0070669641718268394,0.0036546560004353523
1761380415824015400,4.085015380859375,0.014145912602543831,-0.010001767426729202,0.0009499495499767363
1761380415834098400,4.095098388671875,0.011719772592186928,-0.008538360707461834,0.0037955371662974358
1761380415844180200,4.10518017578125,0.012975719757378101,-0.011457717977464199,0.002915628720074892
1761380415854263300,4.11526318359375,0.012441489845514297,-0.009265935979783535,0.0033902039285749197
1761380415864345300,4.125345458984375,0.01480690948665142,-0.008988700807094574,0.0008602010202594101
1761380415874427400,4.135427490234375,0.01290541235357523,-0.009702694602310658,0.0004021373169962317
1761380415884510200,4.14551025390625,0.014508901163935661,-0.006393450777977705,0.0015046859625726938
1761380415894592300,4.15559228515625,0.011639079079031944,-0.006175604183226824,0.0033135050907731056
1761380415904674300,4.16567431640625,0.012181032449007034,-0.008673649281263351,0.0021640846971422434
1761380415914757400,4.17575732421875,0.012071310542523861,-0.004983040504157543,0.0060059609822928905
1761380415924839200,4.185839111328125,0.011457185260951519,-0.008904811926186085,0.003058640519157052
1761380415934921200,4.195921142578125,0.01631132885813713,-0.009156480431556702,0.003341468283906579
1761380415945004300,4.20600439453125,0.015297463163733482,-0.01013652328401804,0.0008178567513823509
1761380415955086300,4.21608642578125,0.013757357373833656,-0.005290103144943714,0.0012631373247131705
1761380415965168000,4.226168212890625,0.01290408056229353,-0.00905794370919466,0.004291417542845011
1761380415975251500,4.23625146484375,0.013597567565739155,-0.008591623976826668,0.001883121207356453
1761380415985333800,4.246333740234375,0.013317936100065708,-0.010030795820057392,0.0024762072134763002
1761380415995416600,4.25641650390625,0.011514709331095219,-0.00711862975731492,-0.0011203918838873506
1761380416005498600,4.26649853515625,0.014428474009037018,-0.009525061585009098,-0.00008548746700398624
1761380416015580700,4.27658056640625,0.011784221045672894,-0.006397179327905178,0.0021462414879351854
1761380416025663500,4.28666357421875,0.010322678834199905,-0.007299724500626326,0.005253351293504238
1761380416035745500,4.29674560546875,0.013598100282251835,-0.005961752496659756,0.0009363674325868487
1761380416045827600,4.30682763671875,0.014690794982016087,-0.010684069246053696,-0.0006418218254111707
1761380416055910700,4.31691064453125,0.013027384877204895,-0.008138353936374187,0.002921754028648138
1761380416065992700,4.32699267578125,0.012643090449273586,-0.007770571392029524,0.0013970943400636315
1761380416076074500,4.337074462890625,0.012369584292173386,-0.0057492321357131,-0.0009339706157334149
1761380416086157800,4.34715771484375,0.012953083030879498,-0.00800306536257267,0.0027395938523113728
1761380416096239900,4.357239990234375,0.011402057483792305,-0.008052067831158638,0.003742273896932602
1761380416106322000,4.367322021484375,0.011336011812090874,-0.008443818427622318,0.0024956483393907547
1761380416116404700,4.37740478515625,0.01375123206526041,-0.00947925541549921,0.0012237224727869034
1761380416126486800,4.38748681640625,0.013653228059411049,-0.007997206412255764,0.0018671422731131315
1761380416136568800,4.39756884765625,0.012621785514056683,-0.011213239282369614,0.002688993699848652
1761380416146651600,4.407651611328125,0.01380822341889143,-0.005272792652249336,0.004303668159991503
1761380416156733700,4.417733642578125,0.0138404481112957,-0.008797752670943737,0.002138784620910883
1761380416166816800,4.427816650390625,0.013156548142433167,-0.00959883164614439,0.00038216362008824944
1761380416176898800,4.43789892578125,0.013875069096684456,-0.008884571492671967,0.004719121381640434
1761380416186980600,4.447980712890625,0.01338691171258688,-0.009078183211386204,0.0014572817599400878
1761380416197063700,4.458063720703125,0.014050571247935295,-0.00959723349660635,0.003757187630981207
1761380416207145700,4.468145751953125,0.012449212372303009,-0.006595584563910961,0.0019981698133051395
1761380416217227800,4.478227783203125,0.011407383717596531,-0.008500277064740658,0.0022533005103468895
1761380416227310600,4.488310546875,0.012529374100267887,-0.008436361327767372,0.0017835189355537295
1761380416237392600,4.498392578125,0.015426626428961754,-0.009060073643922806,0.001561944023706019
1761380416247474700,4.508474609375,0.014399179257452488,-0.006250971462577581,0.002670884132385254
1761380416257557500,4.5185576171875,0.012198342941701412,-0.008822520263493061,0.0033044503070414066
1761380416267639600,4.5286396484375,0.012625247240066528,-0.0067782774567604065,0.002493784064427018
1761380416277721600,4.5387216796875,0.01167449913918972,-0.008008125238120556,0.002837598090991378
1761380416287804700,4.5488046875,0.015340340323746204,-0.0080898841843009,0.0012389025650918484
1761380416297886700,4.55888671875,0.012866264209151268,-0.007379353046417236,0.0022327941842377186
1761380416307968500,4.568968505859375,0.012801549397408962,-0.009221727959811687,0.0022056300658732653
1761380416318051800,4.5790517578125,0.014452975243330002,-0.009154349565505981,0.00233266269788146
1761380416328133600,4.589133544921875,0.013316870667040348,-0.0065561700612306595,0.005630188621580601
1761380416338216700,4.599216796875,0.014021542854607105,-0.010735735297203064,0.0029667613562196493
1761380416348298800,4.609298828125,0.012347480282187462,-0.007701328955590725,0.0043532028794288635
1761380416358380800,4.619380859375,0.011990882456302643,-0.009476592764258385,0.0012101404136046767
1761380416368464000,4.6294638671875,0.012684635818004608,-0.007354585453867912,0.0017715347930788994
1761380416378545700,4.639545654296875,0.015409848652780056,-0.01044491771608591,-0.0007123955874703825
1761380416388627700,4.649627685546875,0.015174957923591137,-0.007318633142858744,0.0031132353469729424
1761380416398710800,4.659710693359375,0.012146677821874619,-0.007486678194254637,0.004437359049916267
1761380416408792800,4.669792724609375,0.013187707401812077,-0.009197493083775043,0.002578738844022155
1761380416418874600,4.67987451171875,0.013263607397675514,-0.00749067310243845,0.00023941817926242948
1761380416428957700,4.689957763671875,0.0144095653668046,-0.006813164800405502,0.0010197244118899107
1761380416439039700,4.700039794921875,0.014640994369983673,-0.009558085352182388,0.0005406216951087117
1761380416449121800,4.710121826171875,0.012987437658011913,-0.010525344870984554,0.004539357963949442
1761380416459204600,4.72020458984375,0.013129384256899357,-0.008318649604916573,0.002567553659901023
1761380416469286700,4.73028662109375,0.013932593166828156,-0.008345015347003937,0.0034852789249271154
1761380416479368700,4.74036865234375,0.013991449028253555,-0.00827018078416586,0.00170815153978765
1761380416489451500,4.750451416015625,0.015455389395356178,-0.009950635023415089,0.0008221178431995213
1761380416499533600,4.760533447265625,0.013853764161467552,-0.008167382329702377,-0.0004897553008049726
1761380416509616600,4.77061669921875,0.011492605321109295,-0.010753578506410122,0.0025989788118749857
1761380416519698700,4.78069873046875,0.012522183358669281,-0.007134075742214918,0.0032767534721642733
1761380416529780700,4.79078076171875,0.014003699645400047,-0.007949535734951496,0.004197141621261835
1761380416539863600,4.800863525390625,0.012525911442935467,-0.008529040031135082,0.000550475378986448
1761380416549945600,4.810945556640625,0.014071344397962093,-0.009798568673431873,0.0014540859265252948
1761380416560027600,4.821027587890625,0.014286527410149574,-0.009747968055307865,0.0026399914640933275
1761380416570110700,4.83111083984375,0.015259913168847561,-0.008292018435895443,0.001757952617481351
1761380416580192800,4.84119287109375,0.01321167591959238,-0.01058926060795784,0.0023398532066494226
1761380416590274800,4.85127490234375,0.013563745655119419,-0.008900018408894539,0.004714327864348888
1761380416600358000,4.86135791015625,0.013542973436415195,-0.005465871654450893,0.0026322684716433287
1761380416610439700,4.871439697265625,0.011238805949687958,-0.008481635712087154,0.0030221552588045597
1761380416620521700,4.881521728515625,0.01350382436066866,-0.007303719408810139,0.003373692510649562
1761380416630604800,4.891604736328125,0.013332583010196686,-0.009882724843919277,0.0067846691235899925
1761380416640686800,4.901686767578125,0.016202671453356743,-0.006726612336933613,0.0013134710025042295
1761380416650768600,4.9117685546875,0.013282782398164272,-0.011299259960651398,0.001988049829378724
1761380416660851700,4.921851806640625,0.01565565913915634,-0.006201703101396561,0.0004442152567207813
1761380416670933800,4.931933837890625,0.014287859201431274,-0.009179649874567986,0.003923102747648954
1761380416681016600,4.9420166015625,0.014357101172208786,-0.006976949516683817,0.0019526296528056264
1761380416691098600,4.9520986328125,0.014130999334156513,-0.00615110294893384,0.0033571808598935604
1761380416701180700,4.9621806640625,0.013226056471467018,-0.007625695317983627,0.0011502192355692387
1761380416711263700,4.972263671875,0.013644172810018063,-0.009343167766928673,0.002406432293355465
1761380416721345500,4.982345458984375,0.014967231079936028,-0.009029979817569256,0.002356098499149084
1761380416731427600,4.992427490234375,0.013436446897685528,-0.009886186569929123,0.0015425028977915645
1761380416741510700,5.0025107421875,0.011991947889328003,-0.008261391893029213,0.004828044679015875
1761380416751592700,5.0125927734375,0.01363458577543497,-0.007151918951421976,0.00019734023953787982
1761380416761674800,5.0226748046875,0.014070012606680393,-0.008384429849684238,0.002433063928037882
1761380416771757600,5.032757568359375,0.012613529339432716,-0.008892561309039593,-0.001683916780166328
1761380416781839600,5.042839599609375,0.013512613251805305,-0.006934072356671095,0.0000351537273672875
1761380416791921700,5.052921630859375,0.014394652098417282,-0.007508782669901848,0.004002997186034918
1761380416802004700,5.063004638671875,0.013576528988778591,-0.010360761545598507,0.00558145297691226
1761380416812086500,5.07308642578125,0.013832991011440754,-0.010270214639604092,0.0022053637076169252
1761380416822168600,5.08316845703125,0.013730193488299847,-0.007706655655056238,0.0021345235873013735
1761380416832252000,5.093251953125,0.013711018487811089,-0.007660316303372383,0.0057561565190553665
1761380416842333700,5.103333740234375,0.01281912624835968,-0.008809204213321209,0.0025031049735844135
1761380416852415700,5.113415771484375,0.013623933307826519,-0.00854342058300972,0.0018335863715037704
1761380416862498800,5.123498779296875,0.015292136929929256,-0.008417719043791294,0.00586774293333292
1761380416872580900,5.133580810546875,0.012999954633414745,-0.010130131617188454,0.003245860803872347
1761380416882663700,5.14366357421875,0.013480388559401035,-0.009613478556275368,0.004194744862616062
1761380416892745700,5.153745849609375,0.014301441609859467,-0.009445167146623135,0.0031880701426416636
1761380416902827800,5.163827880859375,0.01404657680541277,-0.008800948038697243,0.00410499656572938
1761380416912910600,5.17391064453125,0.014240454882383347,-0.007995874620974064,0.0020967067684978247
1761380416922992600,5.18399267578125,0.013656956143677235,-0.008672317489981651,0.005167597904801369
1761380416933074700,5.19407470703125,0.014307300560176373,-0.006706372369080782,0.004063717555254698
1761380416943157800,5.20415771484375,0.012631372548639774,-0.008347944356501102,0.002042910782620311
1761380416953239600,5.214239501953125,0.012583702802658081,-0.006105563137680292,-0.0006234460161067545
1761380416963321600,5.224321533203125,0.012838033959269524,-0.010387926362454891,0.0038575888611376286
1761380416973404700,5.23440478515625,0.015736885368824005,-0.00947925541549921,0.0007275756215676665
1761380416983483100,5.244483154296875,0.012750948779284954,-0.008172974921762943,-0.0006852313526906073
1761380416993565200,5.254565185546875,0.014840731397271156,-0.00890774093568325,0.000940095866099
1761380417003648000,5.26464794921875,0.013424995355308056,-0.007558317389339209,0.0015310513554140925
1761380417013730000,5.27472998046875,0.014904380775988102,-0.008930377662181854,0.001621066126972437
1761380417023812000,5.28481201171875,0.01308357808738947,-0.009898437187075615,-0.0002516687090974301
1761380417033895000,5.29489501953125,0.014461763203144073,-0.011606588959693909,0.0015970977256074548
1761380417043977000,5.30497705078125,0.013403689488768578,-0.007241401355713606,0.002353968098759651
1761380417054059000,5.31505908203125,0.011289938353002071,-0.006187322083860636,0.005190767347812653
1761380417064142300,5.325142333984375,0.011897405609488487,-0.009372995235025883,0.0035486621782183647
1761380417074224000,5.33522412109375,0.010718956589698792,-0.009971939958631992,0.0023755396250635386
1761380417084307200,5.34530712890625,0.012679575942456722,-0.008886436000466347,0.003567037871107459
1761380417094389200,5.35538916015625,0.015060708858072758,-0.0063005066476762295,0.0018988338997587562
1761380417104471300,5.36547119140625,0.013650564476847649,-0.011519236490130424,0.0018940401496365666
1761380417114554000,5.37555419921875,0.013556022197008133,-0.008890164084732533,0.002353435382246971
1761380417124636200,5.38563623046875,0.012560267001390457,-0.006941263098269701,0.001981658162549138
1761380417134718200,5.39571826171875,0.01263749785721302,-0.006779609248042107,0.0011369034182280302
1761380417144801000,5.405801025390625,0.012416189536452293,-0.009192433208227158,0.002347842790186405
1761380417154883000,5.415883056640625,0.013432185165584087,-0.00974583812057972,0.0011805793037638068
1761380417164965000,5.425965087890625,0.01326973270624876,-0.007426224648952484,-0.00025832661776803434
1761380417175048200,5.436048095703125,0.013605291023850441,-0.01031575445085764,0.0023228090722113848
1761380417185130200,5.446130126953125,0.012942696921527386,-0.010387127287685871,0.0022711437195539474
1761380417195212000,5.4562119140625,0.011652128770947456,-0.006901049055159092,0.003674097126349807
1761380417205295000,5.466295166015625,0.012388226576149464,-0.006334328558295965,0.0037875475827604532
1761380417215377200,5.476377197265625,0.013155749067664146,-0.007902930490672588,0.001859419047832489
1761380417225459200,5.486459228515625,0.014564828015863895,-0.008404403924942017,0.0023102923296391964
1761380417235542000,5.4965419921875,0.01176291611045599,-0.006825149059295654,0.0022008363157510757
1761380417245624000,5.5066240234375,0.012655341066420078,-0.00836845114827156,0.00432976707816124
1761380417255706000,5.5167060546875,0.013010607101023197,-0.009392969310283661,0.0015614113071933389
1761380417265789000,5.526788818359375,0.013747770339250565,-0.00782623142004013,0.0009182579233311117
1761380417275871000,5.53687109375,0.015175490640103817,-0.007439540233463049,0.00443869037553668
1761380417285953000,5.546953125,0.013747237622737885,-0.009130647405982018,0.0015598133904859424
1761380417296036000,5.5570361328125,0.015250325202941895,-0.007960720919072628,0.003001648932695389
1761380417306118000,5.567117919921875,0.014225807040929794,-0.006383863277733326,0.0035830168053507805
1761380417316201200,5.577201171875,0.01306227222084999,-0.007577226031571627,0.0016319850692525506
1761380417326283300,5.587283203125,0.013046027161180973,-0.009445433504879475,0.0035928706638514996
1761380417336365300,5.597365234375,0.015381086617708206,-0.008114918135106564,0.00367143377661705
1761380417346448100,5.6074482421875,0.013592774048447609,-0.007476558443158865,0.0015880429418757558
1761380417356530200,5.6175302734375,0.011672368273139,-0.0073444657027721405,0.001457814360037446
1761380417366612200,5.6276123046875,0.013908891007304192,-0.007345264777541161,0.00008362325752386823
1761380417376695000,5.637695068359375,0.015365906991064548,-0.00768668157979846,-0.0013036173768341541
1761380417386777000,5.647777099609375,0.015284148044884205,-0.007592139765620232,0.005167331546545029
1761380417396859100,5.657859130859375,0.014742727391421795,-0.008894424885511398,0.002871153876185417
1761380417406942200,5.667942138671875,0.016279105097055435,-0.005191565956920385,0.0005083974683657289
1761380417417024300,5.678024169921875,0.015114770270884037,-0.010204434394836426,0.003210440743714571
1761380417427106000,5.68810595703125,0.013127519749104977,-0.007072823122143745,0.0023529028985649347
1761380417437189000,5.698189208984375,0.011392470449209213,-0.009388175792992115,0.003632019041106105
1761380417447271200,5.708271240234375,0.014732873067259789,-0.009594038128852844,0.0035454663448035717
1761380417457353200,5.718353271484375,0.01233602873980999,-0.008599347434937954,0.0007936219917610288
1761380417467436000,5.72843603515625,0.01281566359102726,-0.007900533266365528,0.003970772959291935
1761380417477518000,5.73851806640625,0.01245160959661007,-0.007423561532050371,0.004229366313666105
1761380417487600000,5.74860009765625,0.011091533116996288,-0.009398029185831547,0.0002324939559912309
1761380417497683000,5.758682861328125,0.014150972478091717,-0.009873669594526291,0.0029949909076094627
1761380417507765000,5.768764892578125,0.014598649926483631,-0.0073418025858700275,0.002722283359616995
1761380417517847000,5.778846923828125,0.014535000547766685,-0.00845793355256319,0.0014807175612077117
1761380417527930000,5.78893017578125,0.014718226157128811,-0.00806245394051075,0.0031886028591543436
1761380417538012000,5.799011962890625,0.014910506084561348,-0.00902811624109745,0.0027260116767138243
1761380417548094000,5.809093994140625,0.01350329164415598,-0.007585481740534306,0.0035859462805092335
1761380417558177300,5.81917724609375,0.013290238566696644,-0.008390821516513824,0.001740375766530633
1761380417568259000,5.829259033203125,0.011936288326978683,-0.009997772984206676,0.001948634977452457
1761380417578341000,5.839341064453125,0.013538178987801075,-0.008286692202091217,0.001044758129864931
1761380417588424200,5.849424072265625,0.012372513301670551,-0.006876281928271055,0.0032703618053346872
1761380417598506200,5.85950634765625,0.011963984929025173,-0.005799832288175821,0.0041398839093744755
1761380417608589000,5.869589111328125,0.013246563263237476,-0.00711729796603322,-0.0005696501466445625
1761380417618671000,5.879671142578125,0.014615960419178009,-0.005813946947455406,0.002910568844527006
1761380417628753200,5.889753173828125,0.011672368273139,-0.011039335280656815,0.0005526058957912028
1761380417638836200,5.899836181640625,0.015278555452823639,-0.009799634106457233,0.0010125337867066264
1761380417648918300,5.909918212890625,0.013836720027029514,-0.007840879261493683,0.0017654094845056534
1761380417659000000,5.92,0.0139019675552845,-0.007468569092452526,0.0037984666414558887
1761380417669083100,5.930083251953125,0.014368019998073578,-0.010044111870229244,0.004422445315867662
1761380417679165200,5.940165283203125,0.012351741082966328,-0.0062309978529810905,0.001719603082165122
1761380417689247200,5.950247314453125,0.013605291023850441,-0.010235327295958996,0.00407490273937583
1761380417699330000,5.960330078125,0.012926450930535793,-0.006985205225646496,0.0024948492646217346
1761380417709412000,5.970412109375,0.012468121014535427,-0.00803422462195158,0.0041492050513625145
1761380417719494100,5.980494140625,0.014088921248912811,-0.009459814056754112,0.0025864620693027973
1761380417729577000,5.990576904296875,0.013975470326840878,-0.010975153185427189,0.002549444092437625
1761380417739659000,6.000658935546875,0.015066035091876984,-0.008438492193818092,0.0041553303599357605
1761380417749741000,6.010740966796875,0.015205584466457367,-0.010093913413584232,-0.00020532972121145576
1761380417759824100,6.02082421875,0.012190353125333786,-0.00814900640398264,0.004761998075991869
1761380417769906000,6.030906005859375,0.013560550287365913,-0.009193498641252518,0.0029174929950386286
1761380417779988000,6.040988037109375,0.011678759939968586,-0.008255266584455967,-0.0004751079250127077
1761380417790071000,6.051071044921875,0.013463078066706657,-0.008945558220148087,0.003870904678478837
1761380417800153000,6.061153076171875,0.013165603391826153,-0.006067213602364063,0.0026612968649715185
1761380417810235100,6.071235107421875,0.014348845928907394,-0.008708802983164787,0.0002687129599507898
1761380417820318200,6.081318115234375,0.014420484192669392,-0.007682687137275934,0.00344479875639081
1761380417830400300,6.091400146484375,0.012736035510897636,-0.00788402184844017,0.004513791762292385
1761380417840482300,6.101482421875,0.013606622815132141,-0.00765791954472661,0.000782436749432236
1761380417850565000,6.111565185546875,0.013080914504826069,-0.011593006551265717,0.0034261567052453756
1761380417860647200,6.121647216796875,0.013525396585464478,-0.008618787862360477,0.0015129417879506946
1761380417870729200,6.131729248046875,0.011745871976017952,-0.009603891521692276,0.0018738001817837358
1761380417880812300,6.141812255859375,0.015054583549499512,-0.011570636183023453,0.0022447784431278706
1761380417890894000,6.15189404296875,0.012444951571524143,-0.008886968716979027,0.0017438378417864442
1761380417900977200,6.16197705078125,0.011995942331850529,-0.00953784491866827,-0.0020391824655234814
1761380417911059200,6.17205908203125,0.013078783638775349,-0.008726646192371845,0.0037175065372139215
1761380417921141200,6.182141357421875,0.01341460831463337,-0.008994027972221375,0.0038344194181263447
1761380417931224000,6.19222412109375,0.01369530614465475,-0.008719189092516899,0.0033816818613559008
1761380417941306000,6.20230615234375,0.015514245256781578,-0.00806325301527977,0.0029846045654267073
1761380417951388200,6.21238818359375,0.011726430617272854,-0.011023622937500477,0.0024857944808900356
1761380417961471000,6.222470947265625,0.013538445346057415,-0.009610815905034542,0.0031382690649479628
1761380417971553000,6.232552978515625,0.011844142340123653,-0.008955677971243858,-0.00042344260145910084
1761380417981634000,6.242634033203125,0.015023957006633282,-0.00812344066798687,0.002924683503806591
1761380417991717400,6.25271728515625,0.013285178691148758,-0.006797452457249165,0.0015840481501072645
1761380418001799400,6.26279931640625,0.011560515500605106,-0.009607619605958462,0.002984072081744671
1761380418011881500,6.272881591796875,0.014388260431587696,-0.007148989476263523,0.0036610474344342947
1761380418021964300,6.28296435546875,0.015016499906778336,-0.009770072996616364,-0.0003507383225951344
1761380418032046300,6.29304638671875,0.012754411436617374,-0.006878145970404148,0.0029142971616238356
1761380418042128400,6.30312841796875,0.012330702506005764,-0.007419300265610218,0.001865544356405735
1761380418052211200,6.313211181640625,0.014594921842217445,-0.005792907904833555,0.0034735610242933035
1761380418062293200,6.323293212890625,0.013705692254006863,-0.00914236530661583,0.0030189594253897667
1761380418072375300,6.333375244140625,0.014361095614731312,-0.008734636008739471,0.001955292886123061
1761380418082458400,6.343458251953125,0.012594355270266533,-0.007894674316048622,0.0020447750575840473
1761380418092540200,6.3535400390625,0.012749883346259594,-0.008952216245234013,0.0033076461404561996
1761380418102622200,6.363622314453125,0.01273017656058073,-0.009285110980272293,0.0024916534312069416
1761380418112705300,6.373705322265625,0.013366937637329102,-0.009618006646633148,0.0006556702428497374
1761380418122787300,6.383787353515625,0.018620023503899574,-0.008055529557168484,0.0033755565527826548
1761380418132869000,6.393869140625,0.01715555042028427,-0.009756490588188171,0.004436293616890907
1761380418142952200,6.4039521484375,0.013102485798299313,-0.009828129783272743,0.00044794369023293257
1761380418153034200,6.4140341796875,0.012575446628034115,-0.005795837379992008,0.004632302559912205
1761380418163116300,6.4241162109375,0.014036190696060658,-0.00817803479731083,0.0005036037764512002
1761380418173199000,6.43419921875,0.011491007171571255,-0.007959921844303608,0.0006950850365683436
1761380418183281200,6.44428125,0.012264389544725418,-0.00983425509184599,0.00088976213010028
1761380418193363200,6.45436328125,0.014960307627916336,-0.0062067629769444466,0.0013877731980755925
1761380418203446300,6.4644462890625,0.013307283632457256,-0.009106945246458054,0.003043993143364787
1761380418213528000,6.474528076171875,0.014485998079180717,-0.006469084415584803,-0.00096113485051319
1761380418223610000,6.484610107421875,0.013343768194317818,-0.005819273181259632,0.0023395870812237263
1761380418233693400,6.494693359375,0.011301656253635883,-0.007996673695743084,0.001261539408005774
1761380418243775200,6.504775146484375,0.01139859575778246,-0.009918676689267159,0.0044019389897584915
1761380418253857000,6.51485693359375,0.01188329141587019,-0.005206213798373938,0.002621349412947893
1761380418263940400,6.5249404296875,0.01471582893282175,0.0306889358907938,0.025911757722496986
1761380418274022400,6.5350224609375,0.01501090731471777,0.0552254393696785,0.044423658400774
1761380418284104400,6.5451044921875,0.013040434569120407,0.06844883412122726,0.05209276080131531
1761380418294187300,6.555187255859375,0.012227637693285942,0.09958650916814804,0.07153863459825516
1761380418304269300,6.565269287109375,0.0046578687615692616,0.05986493080854416,0.0501427948474884
1761380418314351400,6.575351318359375,0.020355338230729103,0.014972291886806488,0.013234579004347324
1761380418324434200,6.58543408203125,0.011260110884904861,-0.018550781533122063,-0.005533249583095312
1761380418334516200,6.59551611328125,0.01684822142124176,-0.11645018309354782,-0.06136881932616234
1761380418344599300,6.605599365234375,0.013071860186755657,-0.2716778516769409,-0.17152515053749084
1761380418354681300,6.615681396484375,0.014220747165381908,-0.12565059959888458,-0.07661115378141403
