time,seconds_elapsed,z,y,x
1761378929522346800,0.1193466796875,0.34000001661777496,0.1451426304280758,-0.4109542520239949
1761378929532402700,0.129402587890625,0.3999965124189853,0.08086918796002865,-0.3297977715551853
1761378929542457600,0.13945751953125,0.37769283760897815,-0.08323883970081805,-0.15736381409764288
1761378929552513500,0.149513427734375,0.308444017881155,-0.16026538075804708,-0.019767653526365756
1761378929562569700,0.15956982421875,0.2030816091775894,-0.15362053591609,0.04295505236834287
1761378929572625700,0.169625732421875,0.18547873246967791,-0.1254752224057913,0.04451952520608902
1761378929582680600,0.1796806640625,0.11624109172299503,-0.08638122937977313,-0.04364655089699663
1761378929592736800,0.18973681640625,0.04393091166317463,-0.10794015023708343,-0.09626958618760108
1761378929602792700,0.199792724609375,0.05781747126169502,-0.0651420419961214,-0.18824761266112328
1761378929612848600,0.2098486328125,0.038032574339583514,0.0496487047880888,-0.28462445861548186
1761378929622903600,0.219903564453125,0.13939276166446507,0.10035188706517219,-0.2998144289627671
1761378929632959500,0.22995947265625,0.2097183437783271,0.18399053973853588,-0.24730887343883512
1761378929643015700,0.240015625,0.23823826275467871,0.17994214113056659,-0.17215134112387895
1761378929653070600,0.250070556640625,0.24360366224534807,0.16323533647954463,-0.050857788316905496
1761378929663126800,0.260126708984375,0.2953991698037833,0.2602028418034315,-0.030222122067643794
1761378929673182700,0.2701826171875,0.35321313393414017,0.35637189022600646,-0.05227788424789905
1761378929683238700,0.28023876953125,0.33555947688706217,0.350830038189888,-0.12774258281588555
1761378929693293600,0.29029345703125,0.35340602615773675,0.2129027459681034,-0.18996201536357402
1761378929703349500,0.300349609375,0.25029680320844055,0.21116203978061676,-0.17265755534665658
1761378929713405700,0.31040576171875,0.1523485432188958,0.17179507503211497,-0.10393617529273033
1761378929723461600,0.320461669921875,0.1366629713743925,0.02332593052983284,0.04120090217739343
1761378929733516800,0.330516845703125,0.09279467661865055,-0.10625146649777889,0.16831600074470043
1761378929743572700,0.34057275390625,0.0883353591222316,-0.22015900070667266,0.27054624890238044
1761378929753628700,0.350628662109375,0.06177877610810101,-0.30973405769169327,0.33250147755593057
1761378929763683600,0.36068359375,-0.04695405887663364,-0.42412908315658565,0.354263519769907
1761378929773739500,0.370739501953125,-0.08994856647253036,-0.38683424850702286,0.3114171884730458
1761378929783795700,0.380795654296875,-0.11705050840973853,-0.21108137575984,0.19094371987730263
1761378929793851600,0.3908515625,-0.1489578048020601,-0.16585750167667865,0.12592735008746384
1761378929803906600,0.400906494140625,-0.12937566391043365,-0.07820376814305782,0.18814298324286938
1761378929813962800,0.410962646484375,-0.007977554750442505,0.010077157378196715,0.2653860896602273
1761378929824018700,0.421018798828125,0.09053834905922413,0.042572482791543007,0.34491263083964585
1761378929834074600,0.43107470703125,0.2529038439016789,0.07854980510175227,0.440421169526875
1761378929844126200,0.441126220703125,0.3671615067224949,0.13972294346690178,0.5171452205061913
1761378929854182100,0.45118212890625,0.4259030340265482,0.130641811388731,0.6138987908184528
1761378929864238300,0.46123828125,0.4794785568695515,0.1377916831433773,0.6692988987401127
1761378929874294300,0.471294189453125,0.6114491326440126,0.24560382308661935,0.6021364568322897
1761378929884349400,0.481349365234375,0.7781821019809693,0.3311883491307497,0.5009598093807697
1761378929894405400,0.4914052734375,0.8819266271591186,0.36058278591930865,0.38291415245383975
1761378929904461300,0.50146142578125,0.9910141208004206,0.3909066125124693,0.27920477165430785
1761378929914516200,0.51151611328125,1.0078134260404854,0.4607862044245004,0.20897417434751986
1761378929924572200,0.521572265625,0.9941958195764571,0.48986909104585646,0.217224700820446
1761378929934628400,0.53162841796875,1.0089210219562053,0.42642566966116424,0.2884106991559267
1761378929944684300,0.541684326171875,0.9208779968440532,0.4102034336566925,0.3531862459272146
1761378929954739500,0.551739501953125,0.8973212532330304,0.35986382399499417,0.36625644764155146
1761378929964795400,0.56179541015625,0.8753717986881733,0.25164719490408893,0.34696371815055604
1761378929974851300,0.571851318359375,0.7977839704863726,0.1843389147847891,0.31205607089847326
1761378929984907300,0.5819072265625,0.7539571037195623,0.09561375262737273,0.24155776256620884
1761378929994962200,0.591962158203125,0.7443757670342922,-0.005549450820684433,0.138771341830492
1761378930005018000,0.60201806640625,0.7597920204181223,-0.0622884061306715,0.11919073530882596
1761378930015074300,0.61207421875,0.812417695190385,-0.11524141316115856,0.12181757668107747
1761378930025130200,0.622130126953125,0.7918769383996724,-0.13128829259872435,0.09047083678096532
1761378930035185400,0.632185302734375,0.8526690415579825,-0.19498715004920958,0.074712126635015
1761378930045241300,0.642241455078125,0.8083331292904913,-0.22355624192953108,0.08098346198946237
1761378930055297300,0.65229736328125,0.6963878350652754,-0.18834347425103187,0.10475392141640186
1761378930065353500,0.662353515625,0.6915005014151334,-0.13424421979486942,0.07880465664565563
1761378930075408100,0.672408203125,0.6917215968199074,-0.09220131383538245,0.029839554774132554
1761378930085464300,0.68246435546875,0.6264315977204591,-0.06504910301566123,0.027069797799852677
1761378930095520300,0.692520263671875,0.6407360174048692,-0.056550739261507985,0.06514438465025742
1761378930105575400,0.702575439453125,0.7089443881690501,-0.057604632228612895,0.14561989255100488
1761378930115631400,0.71263134765625,0.6724620389461516,-0.1075099421262741,0.275644156563282
1761378930125687300,0.722687255859375,0.761451989519596,-0.1809048486828804,0.40644437338411804
1761378930135743500,0.732743408203125,0.8905718520380556,-0.13032558504641056,0.44517742414325473
1761378930145798100,0.742798095703125,1.0104526154376565,-0.11773030736744403,0.4428782072901726
1761378930155854300,0.752854248046875,1.1156623177975415,-0.15933949808478354,0.43087095863223074
1761378930165910300,0.76291015625,1.2122085289694369,-0.11549451113939285,0.355089741460979
1761378930175966200,0.77296630859375,1.2618886518090962,-0.04176175093054771,0.34271073688119646
1761378930186021400,0.783021484375,1.2517857754677533,-0.04784311667084694,0.38318770869821306
1761378930196077300,0.793077392578125,1.1596668792188167,-0.10874562140107154,0.4789133972674608
1761378930206133200,0.80313330078125,1.084986755157262,-0.13881635001599787,0.5994760054513811
1761378930216189400,0.813189453125,1.0805401510119437,-0.13838614190518855,0.6505258092090487
1761378930226244000,0.823244140625,1.182811023440957,-0.13014146065115928,0.6394809758424759
1761378930236300300,0.83330029296875,1.2361669121839105,-0.2072819834768772,0.544684384816885
1761378930246356200,0.843356201171875,1.2282821502834558,-0.2828764459043741,0.4891553898185491
1761378930256412200,0.853412109375,1.1544652189224958,-0.32906828823685647,0.4283768037289381
1761378930266467300,0.86346728515625,1.0497662425637244,-0.2867459808140993,0.3601657295510173
1761378930276523300,0.873523193359375,0.9685784901738166,-0.2389665770292282,0.3068243077248335
1761378930286579500,0.883579345703125,0.9669056615907698,-0.2112245836228132,0.24946137529760598
1761378930296635400,0.893635498046875,1.007390743649006,-0.1268774904191494,0.22407179023623466
1761378930306690300,0.903690185546875,0.9768957252074032,-0.1134527761787176,0.22055033811181782
1761378930316746200,0.913746337890625,0.9351515099335461,-0.3911369141370058,0.1775976238310337
1761378930326802200,0.92380224609375,0.9130290369093418,-0.5903799680650234,0.13269640583097933
1761378930336858400,0.9338583984375,0.8364986088059843,-0.6755003837287425,0.05195216855802573
1761378930346913300,0.943913330078125,0.779067141187191,-0.9153343912422657,-0.0869818256214261
1761378930356969500,0.953969482421875,0.5375146393179893,-1.2957330537438392,-0.21605419573634863
1761378930367025400,0.964025390625,0.20320435877442358,-1.6623901911407708,-0.2651290461592376
1761378930377080300,0.974080322265625,-0.16284209937825797,-1.8767770381867885,-0.2971361313979141
1761378930387136300,0.98413623046875,-0.5430648207910359,-1.9407500364035366,-0.3873097570642829
1761378930397192200,0.994192138671875,-0.9358582699634134,-1.9254484223753212,-0.4055715360723436
1761378930407248400,1.004248291015625,-1.2074375151753425,-1.9253619131356476,-0.42814913245290515
1761378930417303300,1.01430322265625,-1.4708423678904772,-1.7995394847273825,-0.4547228127323091
1761378930427359200,1.024359130859375,-1.5932102719306944,-1.5157114371865987,-0.44866979630365966
1761378930437415400,1.03441552734375,-1.5283508462682365,-1.0084902293235063,-0.44844314794093365
1761378930447471400,1.044471435546875,-1.3104051376968622,-0.3567617663264274,-0.4407346193902194
1761378930457526300,1.0545263671875,-1.0481388605576007,0.20434300741553305,-0.40729499886408443
1761378930467582200,1.064582275390625,-0.8031399445615708,0.6448533165305852,-0.3367106196835637
1761378930477638100,1.07463818359375,-0.5790355672299862,1.0995967336595058,-0.31373291806951165
1761378930487694300,1.0846943359375,-0.2778442969560623,1.4374129764974117,-0.37543431809246536
1761378930497749200,1.094749267578125,0.043336891292780635,1.623806485724449,-0.4265132018141448
1761378930507805400,1.104805419921875,0.27667591076381504,1.6581915704071521,-0.4281128920957446
1761378930517861400,1.114861328125,0.4627519515395164,1.6604636069923637,-0.4303790834620595
1761378930527917300,1.124917236328125,0.6342414677537977,1.6914648944556712,-0.47598406581729646
1761378930537972200,1.13497216796875,0.41046588398516176,1.468725814127922,-0.46222222857698797
1761378930548028200,1.145028076171875,-0.18507950401902198,0.9328905061990022,-0.18867694398909807
1761378930558084400,1.15508447265625,-0.6237968653026967,0.5601794755905867,0.09048250895245
1761378930568140300,1.165140380859375,-0.8142145885445177,0.4790092588573694,0.11409371356391347
1761378930578195500,1.175195556640625,-0.9408791668653488,0.37300796772837636,0.07356397951319814
1761378930588251400,1.18525146484375,-0.759210348072648,0.19586977810263634,0.07122910682484507
1761378930598307300,1.195307373046875,-0.6548555820416658,0.018981763845682145,-0.03972892992869019
1761378930608363300,1.20536328125,-0.6529904457569122,-0.19383739549219609,-0.280796278629452
1761378930618418200,1.215418212890625,-0.7259048753201961,-0.3725345049977302,-0.5916476499132811
1761378930628474000,1.22547412109375,-0.9445635544665157,-0.38938276394605636,-0.9139205789215862
1761378930638530300,1.2355302734375,-1.2537040301792324,-0.40098903058767316,-1.060322269500047
1761378930648586200,1.245586181640625,-1.4646195478528736,-0.4719610939115286,-1.0819846507318318
1761378930658641400,1.255641357421875,-1.4671762465983629,-0.3786357444822788,-1.0632143376797436
1761378930668697300,1.265697265625,-1.3602594480596482,-0.19857085375487804,-1.0189053864844142
1761378930678753300,1.275753173828125,-1.1468880616664885,-0.04522738121449947,-0.9468383675307035
1761378930688808200,1.28580810546875,-0.8691922332704066,0.12918342927396298,-0.8312342585369944
1761378930698864000,1.295864013671875,-0.6701175216466188,0.2523088736832142,-0.7052629231773316
1761378930708920300,1.30592041015625,-0.48831367829740047,0.40534605675339697,-0.5654580005154013
1761378930718976300,1.315976318359375,-0.30276889485418795,0.746549019420147,-0.4443868582874536
1761378930729031400,1.326031494140625,-0.13185001813471317,0.9836854584127664,-0.2645060919553041
1761378930739087400,1.33608740234375,0.0969536229290068,1.0604781907141207,-0.11707725028619169
1761378930749143300,1.346143310546875,0.3412924675811082,1.12027185741961,-0.06343932973146438
1761378930759199500,1.356199462890625,0.5625772574473172,1.172739711281657,-0.038219256018102166
1761378930769254100,1.366254150390625,0.689636461108923,1.2284919936418532,-0.06291618264019488
1761378930779310300,1.376310302734375,0.6742715725861489,1.327099082866311,-0.061778849173337216
1761378930789366300,1.3863662109375,0.5423644174367189,1.309405605265498,0.005071896436810493
1761378930799422200,1.396422119140625,0.5018921217948198,1.2100666946351528,0.09667232176959514
1761378930809477400,1.406477294921875,0.42217911813259124,1.0024339980244636,0.16830737904682755
1761378930819533300,1.416533203125,0.4565601111620664,0.7765180412262678,0.1994942522101104
1761378930829589200,1.42658935546875,0.5389776976078748,0.6595815145850181,0.12040201079472898
1761378930839645400,1.4366455078125,0.6137945997916162,0.6101455757647752,-0.00046775450906716285
1761378930849700600,1.44670068359375,0.6558990266799927,0.5229325717359781,-0.1480536955691874
1761378930859756800,1.4567568359375,0.6321933030523359,0.48461073212623595,-0.33107027570903297
1761378930869812700,1.466812744140625,0.5619875479258597,0.4897615390181541,-0.5099291516475379
1761378930879868700,1.47686865234375,0.43081382161751386,0.41550387815237044,-0.5686281549841166
1761378930889923600,1.486923583984375,0.2599935829669237,0.16894143916666507,-0.4983396900102496
1761378930899979500,1.4969794921875,0.18900632207393644,-0.16673136190176008,-0.38357977675572036
1761378930910035700,1.50703564453125,0.27196269157156344,-0.3118219698816538,-0.34533874729722736
1761378930920091600,1.517091552734375,0.3270880742050707,-0.37345278888642786,-0.3352826327070594
1761378930930146800,1.527146728515625,0.4247692807562649,-0.4880635029286146,-0.3096367347970605
1761378930940202800,1.53720263671875,0.468428974262625,-0.5275631541460752,-0.3111287269204855
1761378930950258700,1.5472587890625,0.47854792495593423,-0.48318157610595225,-0.35058483125716444
1761378930960314600,1.557314697265625,0.49682592444643375,-0.5021411281198263,-0.3092284462571144
1761378930970369500,1.56736962890625,0.5125789355039596,-0.5662772079437971,-0.2132274478778243
1761378930980425500,1.577425537109375,0.5561190942838787,-0.6206289758563042,-0.1519956015953794
1761378930990481700,1.587481689453125,0.6094347971469164,-0.6598860504895449,-0.17675269743949173
1761378931000537600,1.59753759765625,0.6032160687625407,-0.6930225964158773,-0.25355229787304995
1761378931010592800,1.6075927734375,0.5330032993733883,-0.6900134777277708,-0.24613281539678572
1761378931020648700,1.617648681640625,0.3628049920134246,-0.6868833630084991,-0.18182296817479654
1761378931030704600,1.62770458984375,0.1811404840696603,-0.8373188391476869,-0.16792775034578517
1761378931040760600,1.637760498046875,-0.012204743991419673,-1.040845269483328,-0.09457595227854326
1761378931050815500,1.6478154296875,-0.1741599775325507,-1.1088941388368605,-0.005913480093795806
1761378931060871700,1.65787158203125,-0.2617798818618059,-1.0676181255966424,0.02126739056482911
1761378931070927600,1.667927734375,-0.30347090564370155,-1.043297338810563,0.03577200899645686
1761378931080982800,1.677982666015625,-0.33015535282120106,-1.0575339539557695,0.05071616962281987
1761378931091038700,1.688038818359375,-0.37849429018497466,-0.9917980377197265,0.04078662228807807
1761378931101094700,1.6980947265625,-0.4469429725110531,-0.8155325392752886,0.0192211255595088
1761378931111150800,1.70815087890625,-0.4832592444520443,-0.5860422311216592,0.018939075481425968
1761378931121205500,1.71820556640625,-0.5221837991952896,-0.411549003046751,0.06362739964947105
1761378931131261700,1.72826171875,-0.5100029475361109,-0.29234920764863487,0.1318982411906123
1761378931141317600,1.738317626953125,-0.4664834662180394,-0.20138357308804988,0.20471795994145794
1761378931151373600,1.74837353515625,-0.4698625141970813,-0.18964754258692262,0.31911271141171454
1761378931161428700,1.7584287109375,-0.4718927048504352,-0.2901063971579075,0.39274493385553355
1761378931171484700,1.768484619140625,-0.5749690484434365,-0.35327976942956446,0.3951712842196226
1761378931181540600,1.77854052734375,-0.78167995403409,-0.3160655988007784,0.35485359461754556
1761378931191596800,1.7885966796875,-1.027516928289458,-0.3201215961933136,0.32993981037437914
1761378931201651500,1.7986513671875,-1.3136620936661958,-0.2933686138242483,0.3437053008764982
1761378931211707600,1.808707763671875,-1.5797078162789344,-0.20822072563171384,0.32833208291679616
1761378931221763600,1.818763671875,-1.6240741967499255,0.03429331474602222,0.2432107904702425
1761378931231819500,1.828819580078125,-1.5178490337371826,0.4317828127801418,0.14347293451703153
1761378931241874700,1.838874755859375,-1.28041974927783,0.7374199565470219,0.07070172194987535
1761378931251930600,1.8489306640625,-0.961976461560279,0.9349947850018739,0.07586539745652117
1761378931261986800,1.85898681640625,-0.6607143180072307,1.0481377645790577,0.048826867011189455
1761378931272042500,1.86904248046875,-0.4088987077336758,1.1093220088601112,0.004946219663950614
1761378931282097700,1.87909765625,-0.33885435371398925,1.0878250473231077,0.008394611118733882
1761378931292153600,1.889153564453125,-0.31834640321433544,1.0451303994566201,0.003063479223847389
1761378931302209500,1.89920947265625,-0.34106793811023234,1.0391600928753615,-0.041586394363641734
1761378931312265700,1.909265625,-0.49239999776296317,0.906021788495779,-0.01689005454672733
1761378931322320600,1.919320556640625,-0.6602431933641434,0.7408785725682974,0.07396101600676774
1761378931332376800,1.929376953125,-0.8253723807662725,0.6605120734333991,0.16978373520970344
1761378931342432800,1.939432861328125,-0.766213504832983,0.6335492477059363,0.20950901187658308
1761378931352488400,1.949488525390625,-0.5991260960351675,0.684619509729743,0.16457739873826502
1761378931362543600,1.959543701171875,-0.317488836536929,0.70021630731225,0.11409925738871098
1761378931372599600,1.969599609375,-0.05280380781814455,0.7108113510847092,0.038996966958907434
1761378931382655700,1.97965576171875,0.05487535339519381,0.6722615479379892,0.004911440611514262
1761378931392711700,1.989711669921875,0.025141309388726947,0.5690864201456308,0.08178454923927783
1761378931402766600,1.9997666015625,-0.16102116756141185,0.43361470438241956,0.16629413952827451
1761378931412822800,2.00982275390625,-0.42169747209548947,0.19646599043011664,0.23152736693918705
1761378931422878700,2.019878662109375,-0.6110819798320531,0.019962007054686544,0.33572920743077994
1761378931432934400,2.029934326171875,-0.6673416271924972,-0.017888123390078545,0.3193760385230183
1761378931442989600,2.039989501953125,-0.562505434320122,-0.0605588058590889,0.26406068627536294
1761378931453045500,2.05004541015625,-0.3999292924016714,-0.026170798566937443,0.2395356090888381
1761378931463101700,2.060101806640625,-0.13701777616143226,0.08688333368301392,0.1374278182670474
1761378931473157600,2.07015771484375,0.07905643944963812,0.15214461814463137,0.062478658872609956
1761378931483212800,2.080212890625,0.23429259386882184,0.22366730108857152,0.06176028147018514
1761378931493268700,2.090268798828125,0.30493462152071293,0.2671317642837763,0.10569470939785242
1761378931503324700,2.10032470703125,0.3346529565013945,0.19284955349862573,0.2323825224637985
1761378931513380600,2.110380615234375,0.3192547502309084,0.13222937284111977,0.40368572232574224
1761378931523435500,2.120435546875,0.3533990118950605,0.05183364761173725,0.5246767850548029
1761378931533491700,2.13049169921875,0.40869368668086825,-0.0004839841246604919,0.6128416829809546
1761378931543547600,2.140547607421875,0.4450165344931185,-0.037754853376746174,0.623976824979484
1761378931553603600,2.150603515625,0.4113562569536268,-0.10963467919528484,0.5893044477880001
1761378931563658800,2.16065869140625,0.40361894069984555,-0.15309738882482052,0.5492687899976968
1761378931573714700,2.170714599609375,0.3774550102651119,-0.0706926618605852,0.5633125129193067
1761378931583770600,2.1807705078125,0.3841777426488697,0.029773791494965552,0.6087175887882709
1761378931593826600,2.19082666015625,0.4257357877008617,0.1283230130523443,0.6547472262963652
1761378931603881500,2.200881591796875,0.5456155281871556,0.15967910530269144,0.629184038233757
1761378931613937700,2.210937744140625,0.6644688482351601,0.20743279012441634,0.5825739704892039
1761378931623993600,2.22099365234375,0.7577374990411102,0.27857904097139835,0.5641258751288056
1761378931634049500,2.231049560546875,0.8254946919716895,0.2668091082006693,0.49495910766124723
1761378931644104700,2.241104736328125,0.8637579332619905,0.22157003654837606,0.37146892159283157
1761378931654160600,2.25116064453125,0.7826561055898666,0.14990706835091114,0.31270079854279753
1761378931664216600,2.261216552734375,0.6801169376134872,0.07158931843936443,0.36059506087899207
1761378931674272500,2.2712724609375,0.5977874678425491,0.006648351973295211,0.3834849380791187
1761378931684327700,2.28132763671875,0.5904388586454093,-0.003325345030426979,0.41523207547366614
1761378931694383600,2.291383544921875,0.6310393107116222,0.07050327676832675,0.4319584616079926
1761378931704439600,2.301439453125,0.7028114383719861,0.18142156603336332,0.42977001165300605
1761378931714495700,2.311495849609375,0.7862180358551443,0.27380758878588674,0.4126034805357456
1761378931724550700,2.321550537109375,0.9440579430319368,0.30718203512132164,0.3654024611607194
1761378931734606800,2.33160693359375,1.0480823811300097,0.3190215259969234,0.26331951251924035
1761378931744662500,2.34166259765625,0.981698083987832,0.23827976380884647,0.28339900847375393
1761378931754718500,2.351718505859375,0.8298159161716699,0.08067220408320426,0.41534897985160346
1761378931764773600,2.361773681640625,0.694027535674721,-0.0892015474975109,0.49179158354103564
1761378931774829600,2.37182958984375,0.5732226431675255,-0.24523849690556523,0.536636979700625
1761378931784885800,2.3818857421875,0.4536084217496216,-0.3164133893251419,0.5061816356822848
1761378931794941700,2.391941650390625,0.4389436443202197,-0.3171206608116627,0.4400362618625164
1761378931804996600,2.40199658203125,0.4975263278007507,-0.2660211726933718,0.35187808593809605
1761378931815052800,2.412052734375,0.5495766869030893,-0.2965969282209873,0.2381502922102809
1761378931825108500,2.4221083984375,0.5565734139226377,-0.3339712578475475,0.17445961806625127
1761378931835164700,2.43216455078125,0.5693428791247308,-0.35819150686860085,0.20596330209374428
1761378931845219800,2.4422197265625,0.5632089064143597,-0.417653165140748,0.2492036011442542
1761378931855275800,2.45227587890625,0.5701954043008387,-0.48623921011090276,0.3436445105999708
1761378931865332000,2.46233203125,0.588784223306179,-0.46859015617370603,0.42510903410464523
1761378931875388000,2.472387939453125,0.5193447763770819,-0.4637620053648948,0.4313020435258746
1761378931885443000,2.482443115234375,0.4069755576513707,-0.6975462113201618,0.40820495331585405
1761378931895499000,2.4924990234375,0.24671149206757545,-0.9557412204325199,0.40676615268439054
1761378931905554700,2.5025546875,0.07734861261844635,-0.9930454074323177,0.2521788175627589
1761378931915611000,2.51261083984375,-0.031217706692963837,-0.9178770614624023,0.010519934992922935
1761378931925665800,2.522665771484375,-0.09649214289709925,-0.921701003664732,-0.1295677524164319
1761378931935722000,2.532721923828125,-0.12389014517143368,-0.9147206432580948,-0.23242139316946267
1761378931945778000,2.54277783203125,-0.12738149441853164,-0.8885621196508408,-0.2905807366713881
1761378931955833900,2.552833740234375,-0.1990140674777329,-0.9085855015039443,-0.3149515000790357
1761378931965889000,2.562888916015625,-0.3818573368772864,-0.9197405172467231,-0.3068742843464017
1761378931975945000,2.572945068359375,-0.5878828905522823,-0.9608943654119968,-0.264584710149467
1761378931986001000,2.5830009765625,-0.8567547765016555,-1.0117179591983556,-0.2046189017474651
1761378931996056800,2.593056884765625,-1.0882311439059673,-1.037629814568162,-0.09798545019477606
1761378932006111700,2.60311181640625,-1.2745019035361707,-0.8773165030151605,0.02649491138819139
1761378932016168000,2.61316796875,-1.250143268957734,-0.5380477232813835,-0.0019274609312415123
1761378932026223900,2.623223876953125,-1.2100853993356226,-0.10842238079607486,-0.048643034876883026
1761378932036279800,2.63327978515625,-1.1736387059479951,0.2679103474408388,-0.1052928505986929
1761378932046335000,2.6433349609375,-1.0824423313714564,0.5561591340333223,-0.13895634300857782
1761378932056391000,2.653390869140625,-0.9573683832429349,0.8987064970463514,-0.12497779427766799
1761378932066446800,2.66344677734375,-0.8436484805606305,1.1691098303467036,-0.06142915895283222
1761378932076502800,2.673502685546875,-0.7188174012772739,1.2262497676730155,0.0351847129110829
1761378932086558000,2.683557861328125,-0.5553859577037393,1.2373130134791135,0.08987082506120204
1761378932096614000,2.69361376953125,-0.4331897569686174,1.2639619509518145,0.09278934285640716
1761378932106669800,2.703669921875,-0.32212650627493855,1.250790334689617,0.05723609117716551
1761378932116726000,2.71372607421875,-0.30679449710845946,1.2010837622344492,-0.039977790123224256
1761378932126781000,2.723781005859375,-0.3594026362240314,0.9889800576895474,-0.10019903459101914
1761378932136836900,2.7338369140625,-0.46162733142375945,0.7150403669565916,-0.06269494110494851
1761378932146892800,2.743892822265625,-0.5661262551657855,0.4948299283236265,0.026263742113974874
1761378932156948700,2.75394873046875,-0.6000111352413893,0.33053660722374917,0.05958996082693338
1761378932167005000,2.7640048828125,-0.578687922836095,0.27751404208838937,-0.01331103386604227
1761378932177059800,2.774059814453125,-0.5163169529885053,0.23086101198494433,-0.16279051532149313
1761378932187116000,2.784115966796875,-0.41392976070344445,0.21007716715335845,-0.311036372461915
1761378932197172000,2.794171875,-0.5267138438403606,0.1881546736806631,-0.4063359445735812
1761378932207228000,2.804227783203125,-0.7710036617189645,-0.01903670890331268,-0.38370588735342026
1761378932217282800,2.81428271484375,-0.9181194919161498,-0.14739537779092787,-0.30987142033576964
1761378932227338800,2.8243388671875,-1.0404108235888183,-0.22342004832923412,-0.2509790863841772
1761378932237394700,2.834394775390625,-1.1052613352924585,-0.3497089252054691,-0.23056992008388041
1761378932247451000,2.844450927734375,-1.0656031325124204,-0.36600130383670326,-0.256139811881911
1761378932257505800,2.854505859375,-0.9581405366592108,-0.23691139806509018,-0.32837709110230207
1761378932267562000,2.86456201171875,-0.7994529266119003,-0.1047001454025507,-0.5196896442919969
1761378932277618000,2.874617919921875,-0.6990460944890976,0.00092412910759449,-0.6838578777074813
1761378932287673900,2.884673828125,-0.6081358433775603,0.1760246754258871,-0.6662856883987784
1761378932297728800,2.894728759765625,-0.49535892063379283,0.34233342800140376,-0.5465273823350668
1761378932307784700,2.90478466796875,-0.32562019360959527,0.3679530224263668,-0.36216128728240726
1761378932317841000,2.9148408203125,-0.020245061779767273,0.3897334770798683,-0.1973763832733035
1761378932327896800,2.924896728515625,0.10868600016832351,0.5236901121050119,-0.0832633896201849
1761378932337952000,2.934951904296875,0.26061434521377086,0.6270949570000172,0.03135463094562292
1761378932348008000,2.945008056640625,0.3801841429680586,0.7106710658311843,0.0783940300181508
1761378932358063900,2.95506396484375,0.4182395867265761,0.7662392237961292,0.025834999874467027
1761378932368120000,2.9651201171875,0.3849428818024695,0.7717325605154037,-0.04358720365888439
1761378932378174700,2.9751748046875,0.34820845751464363,0.7564654332786798,-0.056957566496729846
1761378932388231000,2.98523095703125,0.375644892103225,0.6026970133244991,-0.056050379390781745
1761378932398286800,2.995286865234375,0.373787281537801,0.45603637954890724,-0.0553007300672587
1761378932408342800,3.0053427734375,0.36900180082693695,0.3507435289502144,-0.05054973614788614
1761378932418398000,3.01539794921875,0.431531614498049,0.28798984339535233,0.005408001089957542
1761378932428454000,3.025453857421875,0.4774257890582084,0.25607319465279577,0.05661649797409773
1761378932438509800,3.035509765625,0.5063790579505264,0.26471593531370163,0.01636545300059952
1761378932448566000,3.04556591796875,0.5133752004481852,0.2685205882936716,-0.03687601558244787
1761378932458620700,3.05562060546875,0.4738970304101705,0.226674666211009,-0.07980272777229547
1761378932468676900,3.0656767578125,0.45015418964251874,0.2003939775288105,-0.10079496379070915
1761378932478732800,3.07573291015625,0.49173649235293265,0.12091010644733904,-0.06957886453294194
1761378932488788700,3.085788818359375,0.5156248790711164,0.015586276188492775,-0.05108078341782093
1761378932498845000,3.095844970703125,0.5424772301614285,-0.02220832467675209,-0.044077918918430804
1761378932508899800,3.10589990234375,0.5559194800585509,0.0252098445802927,-0.039462241816520686
1761378932518956000,3.1159560546875,0.5816549559481442,0.09263210646808147,-0.067014256475633
1761378932529012000,3.126011962890625,0.6478105589009822,0.12283259894251823,-0.11975566658205353
1761378932539068000,3.13606787109375,0.6925264834620058,0.11792846028804778,-0.23268207166595384
1761378932549122800,3.146122802734375,0.7692109330832958,0.1518909356445074,-0.2984802577495575
1761378932559178800,3.1561787109375,0.8357483749605715,0.2007949595451355,-0.31729221798628565
1761378932569235000,3.16623486328125,0.9280857362657785,0.22700082942545413,-0.30750176859498024
1761378932579291000,3.176290771484375,0.9618472822226584,0.24117665429413318,-0.30078500929428265
1761378932589346000,3.186345947265625,0.8292379701532423,0.17192483889162538,-0.2786079748049378
1761378932599402000,3.196402099609375,0.6608166093379259,0.033632220488786696,-0.18192600842416284
1761378932609458000,3.2064580078125,0.489592027670145,-0.08110533480346202,-0.07589373763501643
1761378932619514000,3.21651416015625,0.3913315599262714,-0.127609311825037,-0.009934826298058032
1761378932629568800,3.22656884765625,0.3762807057887316,-0.2179167747378349,0.030187925253808496
1761378932639625000,3.236625,0.46378085619583725,-0.2923281648606062,0.111400519824028
1761378932649681000,3.246680908203125,0.5471541359312833,-0.31395138312578197,0.12517594719827174
1761378932659736800,3.25673681640625,0.5501080173008144,-0.4273474606812,0.09301993674188852
1761378932669792000,3.2667919921875,0.6521573559336364,-0.5847235497385264,0.08548954123705625
1761378932679848000,3.276847900390625,0.667629211962223,-0.6576894172281026,0.08835749788880348
1761378932689903900,3.28690380859375,0.4124760547637939,-0.6689817956149577,0.05926496665626764
1761378932699960000,3.2969599609375,0.07986088770031928,-0.8661205707401036,0.06838146230876445
1761378932710014700,3.3070146484375,-0.26199776239618655,-1.2408248209923505,0.11740560545772313
1761378932720071000,3.31707080078125,-0.6126905840724707,-1.4300743041723967,0.19773469519168138
1761378932730126800,3.327126953125,-0.8820024688743054,-1.4585551332473754,0.1872480802297592
1761378932740182800,3.337182861328125,-0.922151231650263,-1.5033844550549984,0.09536680126213468
1761378932750238000,3.347238037109375,-0.9027281537778675,-1.5062433516174554,-0.026678446694975717
1761378932760294000,3.3572939453125,-0.8738296838127076,-1.5135551359355448,-0.0712365686120931
1761378932770350000,3.36735009765625,-0.8274958026610314,-1.4097089770138262,-0.058782160708541045
1761378932780406000,3.377406005859375,-0.8156504665665328,-1.1107792219311,-0.07875321871936321
1761378932790461000,3.3874609375,-0.8531833477556705,-0.8801403282642364,-0.15291764834374189
1761378932800516900,3.397516845703125,-0.9218858587123453,-0.8645183962404728,-0.237156020475924
1761378932810572800,3.40757275390625,-0.9984779538750648,-0.8066741100370883,-0.2992734539538622
1761378932820629000,3.41762890625,-1.0608489237226546,-0.6149462540447712,-0.3420695163682103
1761378932830685000,3.427684814453125,-0.9339525824725627,-0.3640191901087761,-0.4258259502023458
1761378932840739800,3.43773974609375,-0.7300520581275224,-0.09976210447847843,-0.5176955478653311
1761378932850796000,3.447796142578125,-0.544276826929301,0.09227321002781391,-0.4727133735835552
1761378932860852000,3.45785205078125,-0.3792629364699125,0.31047230883836746,-0.36333734532445666
1761378932870908000,3.467907958984375,-0.34268954796269535,0.545557075998187,-0.28314064979851244
1761378932880962800,3.477962890625,-0.36628128982186314,0.716345019814372,-0.25466478915959595
1761378932891018800,3.488018798828125,-0.43381402634680266,0.7942670484066009,-0.22241291711330413
1761378932901075000,3.498074951171875,-0.6647989569723606,0.7267980247676372,-0.18808628461956978
1761378932911131000,3.508130859375,-0.8388128770977258,0.6396598395407199,-0.14174889633655546
1761378932921186000,3.51818603515625,-0.9763274238001555,0.6795750858217477,-0.08360533492565154
1761378932931242000,3.528241943359375,-1.0521749842058867,0.6433405738800764,-0.06227145042929332
1761378932941298000,3.5382978515625,-1.0079635020356625,0.6193821906656026,-0.06623889275554101
1761378932951354000,3.54835400390625,-0.8883288954168558,0.5920113686591386,-0.1649491546601057
1761378932961408800,3.55840869140625,-0.8215542837828397,0.5489660076588392,-0.23596067321151493
1761378932971465000,3.56846484375,-0.7284335170149803,0.5925654954105615,-0.3102972445324063
1761378932981521000,3.57852099609375,-0.6737525902133434,0.6017419045567513,-0.3714543085455894
1761378932991576800,3.588576904296875,-0.6947358300745486,0.5627390969455242,-0.30171441736519333
1761378933001632000,3.598632080078125,-0.7958493491619825,0.5207961442291736,-0.17772826447337864
1761378933011688000,3.60868798828125,-0.9204518803864717,0.4890788174510002,-0.005197276382148266
1761378933021744000,3.618744140625,-1.093300994516164,0.4742980124264955,0.19305472068190574
1761378933031800000,3.628800048828125,-1.2360862481631338,0.4297685503482818,0.39996962441205974
1761378933041855700,3.638855712890625,-1.3634358861386775,0.422739090102911,0.5107976050451397
1761378933051911000,3.648910888671875,-1.3913666801154612,0.46878129483163355,0.5675292538315058
1761378933061966800,3.658966796875,-1.2338853771179914,0.6810878284722566,0.48886400565654037
1761378933072023000,3.66902294921875,-1.0111643439035862,0.9580915829509496,0.2442114919453859
1761378933082079000,3.679078857421875,-0.6860299610495567,1.0442068548709154,0.006904080300033092
1761378933092134000,3.6891337890625,-0.4668300876986235,1.1036281811326742,-0.2005547210484743
1761378933102190000,3.699190185546875,-0.4791179799288511,1.1011679284989833,-0.27534254326820373
1761378933112246000,3.70924609375,-0.5560556736588478,0.9561989010721444,-0.181289756347239
1761378933122301700,3.7193017578125,-0.6174964499842375,0.8265402555018663,-0.09472819283134304
1761378933132356900,3.72935693359375,-0.6660848320644348,0.6893523834705353,-0.01814413484460674
1761378933142412800,3.739412841796875,-0.7486797478385269,0.43764206020236013,0.1178834429693874
1761378933152469000,3.749468994140625,-0.8825859678506851,0.24985621983408926,0.24669366414994
1761378933162525000,3.75952490234375,-0.9910470732219516,0.3728419635117054,0.3349839420214295
1761378933172580000,3.769580078125,-0.870875656312704,0.4567214392036199,0.3679962770462036
1761378933182636000,3.779635986328125,-0.7621276968240738,0.46390872035920616,0.3635845980837941
1761378933192692000,3.78969189453125,-0.6728500884156674,0.4533025706708431,0.417457350307703
1761378933202748000,3.799747802734375,-0.6307848975591361,0.34341713158488274,0.5160302450016141
1761378933212803800,3.809803955078125,-0.7210936756461859,0.21632453711032867,0.58695466979146
1761378933222859000,3.81985888671875,-0.7807195115040987,0.21453414656221864,0.6014657179638743
1761378933232915000,3.8299150390625,-0.7226724692702293,0.37305823661088944,0.5651280379086733
1761378933242971000,3.839970947265625,-0.4897923725478351,0.5821861402153968,0.514046085447073
1761378933253027000,3.850027099609375,-0.13863807083964347,0.6630477293908595,0.48463762013316153
1761378933263082000,3.86008203125,0.16335457894504068,0.648259325581789,0.4344263130262494
1761378933273138000,3.870137939453125,0.5372387449860573,0.6570704085469246,0.36833354617655273
1761378933283193900,3.88019384765625,0.817832194519788,0.6433335596174001,0.2268488537341356
1761378933293249800,3.890249755859375,0.9533072712838649,0.5475070410221815,0.1337561440169811
1761378933303305000,3.900304931640625,0.9672389121331274,0.4352653941988945,0.09613894554525614
1761378933313361000,3.91036083984375,0.9347430021978914,0.376753583997488,0.08208820836097001
1761378933323416800,3.920416748046875,0.8838358217813074,0.3300806801497936,0.052091134070721454
1761378933333473000,3.93047314453125,0.844740367450565,0.20413725571036337,0.07361234413299243
1761378933343528000,3.94052783203125,0.8689619316458702,0.08481237262785435,0.14090572351068256
1761378933353583900,3.950583984375,0.9556186169661581,0.03942074076235294,0.17659838366061448
1761378933363639800,3.960639892578125,0.961320043478161,-0.05944938331246376,0.2807633992731571
1761378933373695700,3.97069580078125,1.0794542554713784,-0.16497545814514158,0.32721243123710153
1761378933383752000,3.980751953125,1.0980920281849802,-0.1821153935164213,0.2824120432630181
1761378933393806800,3.990806884765625,1.0916536657005549,-0.23069150063693522,0.3100856476083398
1761378933403863000,4.000863037109375,1.0187848288446664,-0.3145516871064901,0.3241796394124627
1761378933413919000,4.0109189453125,0.7828424219422042,-0.4436094441741705,0.348875396990776
1761378933423972900,4.020972900390625,0.7973897104717791,-0.44584582492411134,0.3441238185495138
1761378933434028000,4.031028076171875,0.4291594785392284,-0.6009884558409452,0.4293322047576308
1761378933444084000,4.041083984375,0.25417715177312494,-0.6601847411751747,0.43531653986424207
1761378933454140000,4.051139892578125,0.1481967573016882,-0.6051531743049621,0.37027240528464317
1761378933464195800,4.06119580078125,0.07423486451208591,-0.5859358481377362,0.35049247679859397
1761378933474251000,4.0712509765625,0.06847440128922462,-0.5614794522732496,0.4058203962668776
1761378933484306700,4.081306640625,0.07119827329516411,-0.6106389122396707,0.3698813601404428
1761378933494363000,4.09136279296875,0.04784779284596443,-0.6690975309491157,0.2813353539422154
1761378933504418800,4.101418701171875,0.012564882540702819,-0.7088502801448107,0.18125380825102327
1761378933514474000,4.111473876953125,-0.10451602100729941,-0.7545791811406612,0.11583967131525277
1761378933524530000,4.121530029296875,-0.1832189708441496,-0.7578419823288917,0.038265433247387404
1761378933534585900,4.1315859375,-0.18128595695495606,-0.7344681210041045,0.028667876079678533
1761378933544642000,4.14164208984375,-0.15174246708452702,-0.7786527151674032,0.11070552329719066
1761378933554698000,4.151697998046875,-0.04526347544118762,-0.8367728957027196,0.1680363070204854
1761378933564753000,4.1617529296875,0.14003288619890808,-0.920238529896736,0.18812106367200612
1761378933574808800,4.171808837890625,0.304637611335516,-1.0512380686819554,0.17254706244319676
1761378933584864800,4.18186474609375,0.3737861124940216,-1.1768372097283601,0.16956190915256739
1761378933594921000,4.1919208984375,0.3428518989175558,-1.2306225759297609,0.16316753194034098
1761378933604975900,4.201975830078125,0.3345117944650352,-1.1583452752262353,0.17435471465336158
1761378933615032000,4.212031982421875,0.28845103116631504,-0.9640642276197672,0.17305910361856222
1761378933625088000,4.222087890625,0.20433467797860502,-0.8516174136132001,0.12945495795803144
1761378933635144000,4.23214404296875,-0.01768456364199519,-0.7322317402541637,0.05939500451041385
1761378933645200100,4.2422001953125,-0.26324761632680893,-0.42189445597231384,0.001918108581006527
1761378933655254800,4.2522548828125,-0.4485903013266623,0.030880291432142257,-0.08185876525295897
1761378933665311000,4.26231103515625,-0.5550092333458364,0.4722054240614176,-0.17320377278625965
1761378933675367000,4.272366943359375,-0.6637916796259582,0.8547206403255462,-0.1925120103736408
1761378933685422800,4.2824228515625,-0.6151543438374996,1.1730880863279103,-0.2576213008776307
1761378933695478000,4.29247802734375,-0.5598534585066139,1.3270055593639611,-0.45778497678190466
1761378933705534000,4.302533935546875,-0.40982510186359283,1.4222551548540592,-0.5291378561168909
1761378933715590000,4.31258984375,-0.339523485147208,1.3190432021826506,-0.43894905114769933
1761378933725646000,4.32264599609375,-0.24585443684682248,1.0903297236204146,-0.3252279794216156
1761378933735700700,4.33270068359375,-0.05311141246259212,0.9517068503499031,-0.28792233111709353
1761378933745757000,4.3427568359375,0.22996610897183417,0.834200414866209,-0.31908640792667864
1761378933755812900,4.352812744140625,0.28241774235144257,0.6325497152745724,-0.39412937395125625
1761378933765868800,4.362868896484375,0.2898041993409395,0.4312772013455629,-0.3890004866302013
1761378933775925000,4.372925048828125,0.14476093763411044,0.262467864125967,-0.2852034275472164
1761378933785980000,4.38297998046875,-0.10315642309188842,0.08529694127440451,-0.1790221036761999
1761378933796036000,4.3930361328125,-0.228552735042572,-0.013441665375232696,-0.1672586006462574
1761378933806092000,4.403092041015625,-0.34310616593956944,-0.11156710856258868,-0.2536123574972153
1761378933816147700,4.413147705078125,-0.37580139783918853,-0.22036884406507015,-0.3063303867280483
1761378933826203000,4.423202880859375,-0.3872901755809784,-0.3171294286400079,-0.35276071399152276
1761378933836259800,4.433259765625,-0.4620727371037006,-0.521992660537362,-0.4727010986238718
1761378933846315500,4.4433154296875,-0.49242169813811776,-0.590429067903757,-0.5063660523384809
1761378933856371700,4.453371826171875,-0.5409155338026583,-0.6416431223124265,-0.5736103273108601
1761378933866426600,4.463426513671875,-0.493396680650115,-0.6135556764692067,-0.6861559255167842
1761378933876482800,4.47348291015625,-0.48759953867867584,-0.5283616110473871,-0.8018935977622866
1761378933886538800,4.483538818359375,-0.5169159417949617,-0.5085650236874818,-0.7804363837137818
1761378933896594400,4.493594482421875,-0.4967207105062902,-0.4109165503621101,-0.73390785677284
1761378933906650600,4.503650634765625,-0.46882338040769095,-0.2031336316257715,-0.7117582765460014
1761378933916705500,4.51370556640625,-0.38325361354127524,-0.0018985270977020263,-0.5913742397993803
1761378933926761700,4.52376171875,-0.309225523647666,0.20681845761835574,-0.46889323077350853
1761378933936817700,4.533817626953125,-0.14077727482542396,0.3451040617585182,-0.3143824680194259
1761378933946873600,4.54387353515625,-0.10954758543372153,0.485787374690175,-0.15667495505064724
1761378933956928800,4.5539287109375,-0.043186815297603605,0.645355420833826,-0.003146481332182884
1761378933966984700,4.563984619140625,0.17086992301121354,0.7045300788581371,0.041452228323649615
1761378933977040600,4.57404052734375,0.35072730846777556,0.8266711884051561,0.010509977571200578
1761378933987096600,4.5840966796875,0.6814625070035457,0.7992150262027978,-0.11401742432415485
1761378933997152500,4.594152587890625,0.8331248945891857,0.6407067182451486,-0.2639037421479821
1761378934007207700,4.604207763671875,0.8385435586370528,0.4849176061183214,-0.35004736337959763
1761378934017263600,4.614263671875,0.7935159377783536,0.38234219778478146,-0.407660471175611
1761378934027319600,4.624319580078125,0.7283008305460215,0.3019955723941326,-0.42938656529337166
1761378934037375700,4.634375732421875,0.5843069317616522,0.23636253201067448,-0.4351882373094558
1761378934047430400,4.644430419921875,0.4846254913039505,0.15732991182804107,-0.35920302199870346
1761378934057486600,4.654486572265625,0.44408115333914755,0.11307459051609038,-0.22008388964384792
1761378934067542500,4.66454248046875,0.34775881405100223,0.043400750309228894,-0.06745468458635732
1761378934077598500,4.674598388671875,0.2923275803387165,-0.039832244172692294,0.022198972326517102
1761378934087653600,4.684653564453125,0.3243884598575532,-0.08787760541737079,0.025155210049916058
1761378934097709600,4.69470947265625,0.388768869831413,-0.15313596726953982,0.03454526194678619
1761378934107765800,4.704765869140625,0.46871524385809893,-0.1557213075876236,-0.04023381071090698
1761378934117821700,4.71482177734375,0.5327466942638158,-0.09225041367411613,-0.18381810578107832
1761378934127877600,4.724877685546875,0.5543032770335674,-0.019334230545163155,-0.24196429754048585
1761378934137932500,4.7349326171875,0.4874187752842903,-0.029078794968128204,-0.2556397716715932
1761378934147988500,4.744988525390625,0.3848264158159494,-0.02376023029386997,-0.2490767598941922
1761378934158044700,4.755044677734375,0.28316227710843084,-0.02512450438439846,-0.23304390898197888
1761378934168100600,4.7651005859375,0.20073139278963206,-0.07423661807775497,-0.1904904231518507
1761378934178155800,4.77515576171875,0.21356866253092885,-0.02514145551919937,-0.18977584514170884
1761378934188211700,4.785211669921875,0.25659546496123076,0.014288637593388557,-0.22353960132198408
1761378934198267600,4.795267578125,0.3820664495833218,-0.0129752169072628,-0.26061025356054307
1761378934208323800,4.80532373046875,0.5235474887639284,-0.03394026352465153,-0.3062386167913675
1761378934218379800,4.8153798828125,0.5413192922979593,-0.04905249246060848,-0.2888552280530333
1761378934228434700,4.8254345703125,0.5614882201015949,-0.03274842339158058,-0.24578531713336704
1761378934238490600,4.83549072265625,0.6155940504290163,0.00023848493099212645,-0.2136661315560341
1761378934248546600,4.845546630859375,0.6547207766808569,-0.09400982456207276,-0.21003508157730102
1761378934258602500,4.8556025390625,0.6570107873141765,-0.29150632708370683,-0.23808336445391176
1761378934268657700,4.86565771484375,0.6465225649170577,-0.36651568309962745,-0.21806904269009827
1761378934278713600,4.875713623046875,0.5407051059223711,-0.3620540275156498,-0.18624241031855343
1761378934288769800,4.885769775390625,0.2970734596915543,-0.4694084868192672,-0.06611702907469588
1761378934298825700,4.89582568359375,0.10693301902115344,-0.6498574084281921,0.12103811674118041
1761378934308881400,4.90588134765625,-0.006571779605746269,-0.7033388232469558,0.17661562705636025
1761378934318936600,4.9159365234375,-0.1453350842602551,-0.666014177981019,0.16352087542265653
1761378934328992500,4.925992431640625,-0.18265242300257087,-0.6453636041402816,0.17037702492773532
1761378934339048700,4.936048583984375,-0.19936404995918272,-0.5700602336138486,0.11156798534542321
1761378934349104600,4.946104736328125,-0.22144377982020377,-0.5621089823484421,-0.030807226195931434
1761378934359159800,4.956159912109375,-0.3373182301878929,-0.5816974799156188,-0.11255962673127651
1761378934369215700,4.9662158203125,-0.4195185206212103,-0.6074836630791426,-0.16582944462597368
1761378934379271700,4.976271728515625,-0.49590194146931166,-0.6605418840497732,-0.25743805326521396
1761378934389327600,4.98632763671875,-0.6284165609925985,-0.7241723524391651,-0.43618806200176474
1761378934399383600,4.996383544921875,-0.6954507003456354,-0.5939928978651762,-0.5758364789277315
1761378934409438700,5.006438720703125,-0.7757540711164475,-0.3879951089799404,-0.6898255539402365
1761378934419494700,5.01649462890625,-0.9190390909790992,-0.24173662626445291,-0.6974120635464787
1761378934429550600,5.026550537109375,-1.0083283167600632,-0.16611059965491293,-0.6195259830504656
1761378934439606800,5.036606689453125,-1.0147041354022919,-0.15511223577857017,-0.5020633867084979
1761378934449661700,5.04666162109375,-1.0184972440749407,-0.18089432728886604,-0.3653223816618323
1761378934459717600,5.056717529296875,-1.0372441762514413,-0.14667173969149588,-0.1947454502478242
1761378934469773600,5.066773681640625,-1.1389498160131275,-0.06336801806092261,-0.12392829435789025
1761378934479829500,5.07682958984375,-1.194852612759918,-0.09398995081782341,-0.1542193785920739
1761378934489885700,5.0868857421875,-1.2602455607771872,-0.033279753789305686,-0.2365185993552208
1761378934499940600,5.096940673828125,-1.2964204514861106,0.17497370506823062,-0.3124284113422036
1761378934509996500,5.10699658203125,-1.2664385701984167,0.48471010084748267,-0.4638873853102326
1761378934520052700,5.117052734375,-1.290936467117071,0.827588887771964,-0.5657432471975684
1761378934530108700,5.127108642578125,-1.258326137021929,1.0505950946033,-0.5374848287016153
1761378934540163600,5.13716357421875,-1.17775140196383,1.107692361831665,-0.41925358607470986
1761378934550219500,5.147219482421875,-1.1364924859888852,1.0205261195540427,-0.24418520672665908
1761378934560275500,5.157275390625,-0.97855467139557,0.8788467813223599,0.027051070266496387
1761378934570331600,5.16733154296875,-0.7189685001857579,0.7917793232440948,0.18795007275296374
1761378934580386600,5.177386474609375,-0.47930137367174025,0.7804021891832351,0.21060995885580777
1761378934590442800,5.18744287109375,-0.38818858572542664,0.8249497714400291,0.24203940860331058
1761378934600498700,5.197498779296875,-0.3877234524317085,0.8576081784605979,0.26512011393411083
1761378934610554600,5.2075546875,-0.400963311624527,0.8498679395973682,0.2582470315605402
1761378934620610800,5.21761083984375,-0.49644846943616866,0.7201280454844236,0.26469927643984553
1761378934630665500,5.22766552734375,-0.49375835356935854,0.601180763542652,0.28712475099861623
1761378934640721700,5.2377216796875,-0.5583499220758676,0.5169184260129929,0.25250030460208656
1761378934650777600,5.247777587890625,-0.5344495526589453,0.48197453840374943,0.2666097679699771
1761378934660833500,5.25783349609375,-0.4964787184439599,0.4121019607543945,0.2508557522654533
1761378934670888700,5.267888671875,-0.496904688771069,0.279517783126235,0.18226709521310402
1761378934680944600,5.277944580078125,-0.5242091675430536,0.22746903145909309,0.1499398015767336
1761378934691000600,5.28800048828125,-0.5593985543459653,0.14883973138034343,0.12924801894277332
1761378934701056800,5.298056884765625,-0.5786918683588504,0.005716624081134796,0.14608283388763665
1761378934711112700,5.30811279296875,-0.6116309920169413,-0.06741583214700221,0.20452216337472198
1761378934721167600,5.318167724609375,-0.6258031636238098,-0.11857961767315864,0.31598025860488416
1761378934731223600,5.3282236328125,-0.5426983255662023,-0.18334698113799094,0.3865715059176087
1761378934741279500,5.338279541015625,-0.4614858771264553,-0.12932780618071554,0.35155542985498905
1761378934751335700,5.348335693359375,-0.3326822409503162,-0.01212824468910694,0.2735541985467076
1761378934761390600,5.358390625,-0.24930603860542178,0.11387187837362289,0.12207651987820863
1761378934771446800,5.36844677734375,-0.18078107617273925,0.2213771443247795,0.06018792672008275
1761378934781502700,5.378502685546875,-0.15993687945604323,0.3923065424382686,0.042490649726986886
1761378934791558700,5.38855859375,-0.043577129789441824,0.4791390227168798,0.1110062598094344
1761378934801614600,5.398614501953125,0.10026187069416045,0.48837972927093504,0.2354465862095356
1761378934811669500,5.40866943359375,0.21960955013036726,0.45048049898743625,0.3831678349539637
1761378934821725700,5.4187255859375,0.2681600844182074,0.34251462978720665,0.5300882887095213
1761378934831781600,5.42878173828125,0.3207749455355108,0.3081517569363117,0.6073705580934882
1761378934841837600,5.438837646484375,0.3510373973302543,0.317884630921483,0.5694561302408576
1761378934851892200,5.448892333984375,0.34563188502490516,0.2766261533379555,0.4817857378333807
1761378934861948200,5.4589482421875,0.23095088222548366,0.23330840513706205,0.39388358249664307
1761378934872004400,5.46900439453125,0.17112389777228235,0.2206798097103834,0.3393690252378583
1761378934882060300,5.479060302734375,0.18312208634093402,0.26687106752097606,0.30692513775080443
1761378934892116200,5.4891162109375,0.227033708781749,0.3336889337748289,0.33441461770087477
1761378934902171400,5.49917138671875,0.39893516679778696,0.30508827771246433,0.41091596584022044
1761378934912227300,5.509227294921875,0.5882791963934898,0.24471885694563386,0.4854582888662815
1761378934922283500,5.519283447265625,0.8174922950409352,0.190128019580245,0.47926060326993464
1761378934932339200,5.529339111328125,0.9448024777889251,0.15293430721759796,0.4431546861439943
1761378934942394400,5.539394287109375,0.9817296481698751,0.12471359038352965,0.40375674173533915
1761378934952450300,5.5494501953125,0.9385983624517917,0.09417582877874374,0.3346943114250898
1761378934962506200,5.55950634765625,0.8228593750320374,-0.030510873597860335,0.3563078850790858
1761378934972562400,5.5695625,0.7562840853624045,-0.11629238351881503,0.36390491607934233
1761378934982618400,5.579618408203125,0.6665588062517345,-0.18810849645137787,0.35820758122056723
1761378934992673300,5.58967333984375,0.6408323904514313,-0.2868102782219648,0.3903302739292383
1761378935002729500,5.5997294921875,0.6136145670495927,-0.35445173581838607,0.4092006863549352
1761378935012785200,5.60978515625,0.6591774638287723,-0.37395723127722735,0.4042430639475584
1761378935022841000,5.619841064453125,0.6584947422616183,-0.35953766078054905,0.4171244650915265
1761378935032897300,5.629897216796875,0.7962374716967344,-0.28316461519598957,0.4262064739525318
1761378935042952200,5.6399521484375,0.8666222366519272,-0.33263328724205493,0.40888621357828375
