time,seconds_elapsed,z,y,x
1761501945446651000,0.07165087890625,-0.2225341796875,-0.978729248046875,-0.0125732421875
1761501945456707000,0.08170703125,-0.2181396484375,-0.9824676513671875,-0.0095977783203125
1761501945466764000,0.091763916015625,-0.2149505615234375,-0.9829254150390625,-0.00750732421875
1761501945476820000,0.101820068359375,-0.2102508544921875,-0.9848175048828125,-0.007659912109375
1761501945486876000,0.1118759765625,-0.2114410400390625,-0.978515625,-0.0091552734375
1761501945496931800,0.121931884765625,-0.2225189208984375,-0.97357177734375,-0.0106964111328125
1761501945506987800,0.13198779296875,-0.2318572998046875,-0.9715728759765625,-0.0112762451171875
1761501945517043700,0.142043701171875,-0.2287139892578125,-0.9608917236328125,-0.01690673828125
1761501945527101000,0.152100830078125,-0.222930908203125,-0.952880859375,-0.0193939208984375
1761501945537156900,0.162156982421875,-0.2254180908203125,-0.9540252685546875,-0.0194549560546875
1761501945547212800,0.172212890625,-0.2287750244140625,-0.9548187255859375,-0.02069091796875
1761501945557268700,0.182268798828125,-0.22735595703125,-0.9536285400390625,-0.0252838134765625
1761501945567325000,0.192324951171875,-0.2366943359375,-0.9620208740234375,-0.0245819091796875
1761501945577380900,0.202380859375,-0.2377777099609375,-0.970001220703125,-0.0294189453125
1761501945587437800,0.212437744140625,-0.2332000732421875,-0.9627838134765625,-0.0416717529296875
1761501945597493800,0.22249365234375,-0.228546142578125,-0.9535064697265625,-0.0454864501953125
1761501945607550000,0.232550048828125,-0.2230682373046875,-0.9529571533203125,-0.0396881103515625
1761501945617606000,0.24260595703125,-0.2201690673828125,-0.9585418701171875,-0.03094482421875
1761501945627661800,0.252661865234375,-0.222137451171875,-0.9666900634765625,-0.02410888671875
1761501945637719000,0.262718994140625,-0.2301177978515625,-0.9668426513671875,-0.0174560546875
1761501945647775000,0.27277490234375,-0.23681640625,-0.9617156982421875,-0.0175323486328125
1761501945657831000,0.282830810546875,-0.2374114990234375,-0.966705322265625,-0.0194549560546875
1761501945667886800,0.292886962890625,-0.2364959716796875,-0.9759521484375,-0.0145263671875
1761501945677943000,0.302943115234375,-0.223663330078125,-0.9706878662109375,-0.015045166015625
1761501945687999000,0.3129990234375,-0.2144012451171875,-0.964263916015625,-0.020294189453125
1761501945698056000,0.323055908203125,-0.2068023681640625,-0.967864990234375,-0.020263671875
1761501945708112100,0.333112060546875,-0.20703125,-0.971527099609375,-0.0185089111328125
1761501945718168000,0.34316796875,-0.2129058837890625,-0.9726104736328125,-0.02069091796875
1761501945728223700,0.3532236328125,-0.2149658203125,-0.9742584228515625,-0.0230712890625
1761501945738280000,0.363280029296875,-0.220703125,-0.9819793701171875,-0.02471923828125
1761501945748335900,0.3733359375,-0.2310333251953125,-0.989044189453125,-0.0295257568359375
1761501945758392800,0.383392822265625,-0.2352142333984375,-0.9859466552734375,-0.035552978515625
1761501945768448800,0.39344873046875,-0.23175048828125,-0.978973388671875,-0.0441436767578125
1761501945778505000,0.4035048828125,-0.2227783203125,-0.974700927734375,-0.04833984375
1761501945788561000,0.413560791015625,-0.2019805908203125,-0.9802703857421875,-0.0464324951171875
1761501945798616800,0.423616943359375,-0.186920166015625,-0.9832763671875,-0.0414581298828125
1761501945808673000,0.433673095703125,-0.1927642822265625,-0.9716033935546875,-0.030426025390625
1761501945818730000,0.44372998046875,-0.2068328857421875,-0.9640045166015625,-0.0135345458984375
1761501945828786000,0.453785888671875,-0.2187957763671875,-0.9792022705078125,0.00067138671875
1761501945838841900,0.463841796875,-0.228668212890625,-0.998199462890625,0.0150146484375
1761501945848898000,0.47389794921875,-0.2424468994140625,-1.0067291259765625,0.02099609375
1761501945858954000,0.4839541015625,-0.2594146728515625,-1.0001678466796875,0.0171356201171875
1761501945869011000,0.494010986328125,-0.274200439453125,-0.980804443359375,0.013824462890625
1761501945879067000,0.50406689453125,-0.2797088623046875,-0.972747802734375,0.0038604736328125
1761501945889123000,0.514123046875,-0.253021240234375,-0.960968017578125,-0.010650634765625
1761501945899179000,0.524178955078125,-0.2258453369140625,-0.9462127685546875,-0.0177459716796875
1761501945909235000,0.53423486328125,-0.2210845947265625,-0.9455413818359375,-0.01739501953125
1761501945919291100,0.544291015625,-0.2182159423828125,-0.957672119140625,-0.00836181640625
1761501945929348000,0.55434814453125,-0.2137603759765625,-0.9637603759765625,-0.0041961669921875
1761501945939404000,0.564404052734375,-0.208984375,-0.9593505859375,-0.0021209716796875
1761501945949459700,0.574459716796875,-0.2023162841796875,-0.9534912109375,0.0007476806640625
1761501945959516000,0.584515869140625,-0.1934814453125,-0.95208740234375,0.00347900390625
1761501945969571800,0.59457177734375,-0.193695068359375,-0.957489013671875,0.0029754638671875
1761501945979627300,0.604627197265625,-0.21453857421875,-0.9671783447265625,0.003631591796875
1761501945989684200,0.614684326171875,-0.2401885986328125,-0.9776153564453125,0.005584716796875
1761501945999740400,0.624740478515625,-0.250152587890625,-0.973541259765625,0.0024261474609375
1761501946009796400,0.63479638671875,-0.2493438720703125,-0.9669189453125,-0.005615234375
1761501946019852300,0.644852294921875,-0.2387237548828125,-0.9642486572265625,-0.0128326416015625
1761501946029908200,0.654908203125,-0.2217559814453125,-0.9582977294921875,-0.017669677734375
1761501946039964200,0.664964111328125,-0.207794189453125,-0.952728271484375,-0.0179595947265625
1761501946050021000,0.675021240234375,-0.1964569091796875,-0.958953857421875,-0.0142974853515625
1761501946060077300,0.685077392578125,-0.1859283447265625,-0.96710205078125,-0.012664794921875
1761501946070133200,0.69513330078125,-0.194549560546875,-0.9739532470703125,-0.011383056640625
1761501946080189200,0.705189208984375,-0.2266387939453125,-0.9797515869140625,0.0013427734375
1761501946090245000,0.7152451171875,-0.2433013916015625,-0.9843597412109375,0.005767822265625
1761501946100302300,0.72530224609375,-0.230682373046875,-0.9791717529296875,-0.003173828125
1761501946110358300,0.735358154296875,-0.2130279541015625,-0.9689483642578125,-0.00823974609375
1761501946120414200,0.745414306640625,-0.205657958984375,-0.9723358154296875,-0.009124755859375
1761501946130470400,0.755470458984375,-0.21160888671875,-0.977630615234375,-0.0079345703125
1761501946140526300,0.7655263671875,-0.21038818359375,-0.9786224365234375,-0.0060577392578125
1761501946150582300,0.775582275390625,-0.2020263671875,-0.9758758544921875,-0.008941650390625
1761501946160639200,0.78563916015625,-0.1933441162109375,-0.97503662109375,-0.010589599609375
1761501946170695400,0.7956953125,-0.1955108642578125,-0.97808837890625,-0.00531005859375
1761501946180751400,0.80575146484375,-0.208770751953125,-0.988189697265625,0.0024871826171875
1761501946190807300,0.815807373046875,-0.2264251708984375,-0.9933319091796875,0.004058837890625
1761501946200863500,0.825863525390625,-0.236602783203125,-0.98980712890625,-0.0040740966796875
1761501946210919400,0.83591943359375,-0.238616943359375,-0.9833221435546875,-0.01318359375
1761501946220976400,0.845976318359375,-0.23223876953125,-0.972381591796875,-0.0233001708984375
1761501946231032300,0.8560322265625,-0.2205963134765625,-0.9694366455078125,-0.032073974609375
1761501946241088500,0.866088623046875,-0.212646484375,-0.9661102294921875,-0.03277587890625
1761501946251144200,0.876144287109375,-0.2076568603515625,-0.9634246826171875,-0.0250091552734375
1761501946261200100,0.8862001953125,-0.20989990234375,-0.9708404541015625,-0.015411376953125
1761501946271257000,0.896257080078125,-0.2121124267578125,-0.9785919189453125,-0.0048828125
1761501946281313300,0.906313232421875,-0.21142578125,-0.975341796875,-0.0022430419921875
1761501946291369200,0.916369140625,-0.213104248046875,-0.96966552734375,-0.00048828125
1761501946301425200,0.926425048828125,-0.2208251953125,-0.965179443359375,0.0011138916015625
1761501946311481300,0.9364814453125,-0.2242279052734375,-0.967681884765625,-0.003753662109375
1761501946321537300,0.946537353515625,-0.2237396240234375,-0.9707183837890625,-0.006378173828125
1761501946331594200,0.95659423828125,-0.224700927734375,-0.9675750732421875,-0.0065155029296875
1761501946341650200,0.966650146484375,-0.21728515625,-0.972747802734375,-0.0084686279296875
1761501946351706400,0.976706298828125,-0.213897705078125,-0.97882080078125,-0.005462646484375
1761501946361762300,0.98676220703125,-0.219085693359375,-0.9766082763671875,-0.00982666015625
1761501946371818200,0.996818359375,-0.203643798828125,-0.9747314453125,-0.0158538818359375
1761501946381874400,1.00687451171875,-0.1910400390625,-0.9697723388671875,-0.0195770263671875
1761501946391931400,1.016931396484375,-0.1761474609375,-0.9653167724609375,-0.0048675537109375
1761501946401987300,1.0269873046875,-0.208343505859375,-0.9770965576171875,0.0240631103515625
1761501946412043300,1.037043212890625,-0.2068939208984375,-0.9846954345703125,0.0257568359375
1761501946422099500,1.047099365234375,-0.210174560546875,-0.978546142578125,0.018524169921875
1761501946432155400,1.0571552734375,-0.2097320556640625,-0.973388671875,0.012725830078125
1761501946442212400,1.06721240234375,-0.2117462158203125,-0.9746551513671875,0.0023956298828125
1761501946452268300,1.077268310546875,-0.211761474609375,-0.97406005859375,-0.0060882568359375
1761501946462324500,1.087324462890625,-0.2086334228515625,-0.9679718017578125,-0.003997802734375
1761501946472380200,1.097380126953125,-0.2101898193359375,-0.9687957763671875,0.00335693359375
1761501946482436000,1.10743603515625,-0.198974609375,-0.966461181640625,0.002777099609375
1761501946492492300,1.1174921875,-0.1864471435546875,-0.96533203125,-0.014617919921875
1761501946502549200,1.12754931640625,-0.1972808837890625,-0.9800262451171875,-0.0136260986328125
1761501946512605200,1.137605224609375,-0.2068939208984375,-0.9788665771484375,-0.0120086669921875
1761501946522661000,1.1476611328125,-0.2009735107421875,-0.9639739990234375,-0.0184326171875
1761501946532717300,1.15771728515625,-0.196502685546875,-0.9551239013671875,-0.0210418701171875
1761501946542773200,1.167773193359375,-0.2031707763671875,-0.959625244140625,-0.0141448974609375
1761501946552830200,1.177830322265625,-0.2150726318359375,-0.9745025634765625,-0.0003662109375
1761501946562886100,1.18788623046875,-0.222930908203125,-0.9856719970703125,0.004302978515625
1761501946572942300,1.1979423828125,-0.2234344482421875,-0.98175048828125,0.0032501220703125
1761501946582998300,1.207998291015625,-0.2232666015625,-0.9785308837890625,0.00250244140625
1761501946593054200,1.21805419921875,-0.2232513427734375,-0.9696197509765625,-0.00006103515625
1761501946603110400,1.2281103515625,-0.216064453125,-0.9571533203125,-0.0034942626953125
1761501946613167400,1.23816748046875,-0.2047882080078125,-0.9519195556640625,-0.0077056884765625
1761501946623223300,1.248223388671875,-0.1940155029296875,-0.945281982421875,-0.007232666015625
1761501946633279200,1.258279296875,-0.191741943359375,-0.9456024169921875,-0.002655029296875
1761501946643335400,1.26833544921875,-0.19610595703125,-0.9489288330078125,0.000640869140625
1761501946653391400,1.278391357421875,-0.20220947265625,-0.941680908203125,-0.001556396484375
1761501946663447300,1.288447265625,-0.2025604248046875,-0.9270782470703125,-0.00439453125
1761501946673504300,1.298504150390625,-0.20245361328125,-0.9206695556640625,-0.009918212890625
1761501946683560400,1.308560546875,-0.199951171875,-0.9136505126953125,-0.011016845703125
1761501946693616400,1.318616455078125,-0.19439697265625,-0.8968963623046875,-0.0081939697265625
1761501946703672000,1.328672119140625,-0.1845245361328125,-0.880828857421875,-0.0031890869140625
1761501946713728300,1.338728271484375,-0.1698150634765625,-0.8728790283203125,0.0009918212890625
1761501946723785200,1.34878515625,-0.16455078125,-0.8794708251953125,0.0077362060546875
1761501946733841200,1.358841064453125,-0.170684814453125,-0.895599365234375,0.0111083984375
1761501946743897000,1.36889697265625,-0.1817626953125,-0.890838623046875,0.0137939453125
1761501946753953300,1.378953369140625,-0.1887969970703125,-0.8644256591796875,0.0114898681640625
1761501946764009200,1.38900927734375,-0.1853485107421875,-0.83551025390625,0.0024261474609375
1761501946774065200,1.399065185546875,-0.1719207763671875,-0.809356689453125,-0.0025177001953125
1761501946784122000,1.4091220703125,-0.16180419921875,-0.787322998046875,-0.0066986083984375
1761501946794178300,1.41917822265625,-0.1510772705078125,-0.7707366943359375,-0.010711669921875
1761501946804234200,1.429234130859375,-0.127655029296875,-0.744171142578125,-0.015472412109375
1761501946814290200,1.439290283203125,-0.080596923828125,-0.701873779296875,-0.0258026123046875
1761501946824346400,1.449346435546875,-0.046173095703125,-0.664031982421875,-0.0297698974609375
1761501946834403300,1.4594033203125,-0.06207275390625,-0.6604461669921875,-0.021514892578125
1761501946844459300,1.469459228515625,-0.126190185546875,-0.6934814453125,-0.0238494873046875
1761501946854515200,1.47951513671875,-0.204803466796875,-0.7432708740234375,-0.0365447998046875
1761501946864571400,1.4895712890625,-0.2717437744140625,-0.7860870361328125,-0.031951904296875
1761501946874627300,1.49962744140625,-0.2862548828125,-0.8151397705078125,-0.0225372314453125
1761501946884683300,1.509683349609375,-0.2813262939453125,-0.8302764892578125,-0.0185699462890625
1761501946894740200,1.519740234375,-0.2783355712890625,-0.8469696044921875,-0.0145416259765625
1761501946904796400,1.52979638671875,-0.2725830078125,-0.875091552734375,0.0080718994140625
1761501946914852400,1.539852294921875,-0.2988739013671875,-0.9254608154296875,0.0197601318359375
1761501946924908300,1.549908203125,-0.34820556640625,-0.9781951904296875,-0.0184173583984375
1761501946934964200,1.559964111328125,-0.359161376953125,-1.0143890380859375,-0.071746826171875
1761501946945021400,1.570021484375,-0.377716064453125,-1.0384063720703125,-0.0892333984375
1761501946955077000,1.5800771484375,-0.3960723876953125,-1.088897705078125,-0.0681915283203125
1761501946965133300,1.59013330078125,-0.4333648681640625,-1.1856689453125,-0.016204833984375
1761501946975189000,1.60018896484375,-0.477142333984375,-1.359405517578125,0.057373046875
1761501946985245000,1.610244873046875,-0.5232391357421875,-1.553802490234375,0.111541748046875
1761501946995301000,1.620301025390625,-0.5380401611328125,-1.6258087158203125,0.0897369384765625
1761501947005358000,1.630358154296875,-0.525665283203125,-1.5978240966796875,-0.013580322265625
1761501947015414000,1.6404140625,-0.6165008544921875,-1.565673828125,-0.12567138671875
1761501947025470000,1.650469970703125,-0.5805816650390625,-1.625030517578125,-0.216339111328125
1761501947035526100,1.660526123046875,-0.5581817626953125,-1.76873779296875,-0.2665863037109375
1761501947045582000,1.67058203125,-0.7058563232421875,-1.942413330078125,-0.2191925048828125
1761501947055639000,1.68063916015625,-0.8331756591796875,-2.106292724609375,-0.1314849853515625
1761501947065695000,1.690695068359375,-0.8860015869140625,-2.1250152587890625,-0.0344390869140625
1761501947075751200,1.700751220703125,-0.899810791015625,-2.0400543212890625,0.0716400146484375
1761501947085807000,1.71080712890625,-0.82891845703125,-1.915313720703125,0.1363983154296875
1761501947095863000,1.720863037109375,-0.709686279296875,-1.7647705078125,0.1061859130859375
1761501947105919200,1.730919189453125,-0.5676422119140625,-1.5927886962890625,0.0508270263671875
1761501947115976200,1.74097607421875,-0.44384765625,-1.4034423828125,-0.0135650634765625
1761501947126032100,1.7510322265625,-0.3048553466796875,-1.1903839111328125,-0.092132568359375
1761501947136088000,1.761088134765625,-0.11883544921875,-0.974945068359375,-0.1541748046875
1761501947146144300,1.771144287109375,0.0143890380859375,-0.7509613037109375,-0.1896820068359375
1761501947156200200,1.7812001953125,0.040435791015625,-0.568817138671875,-0.15313720703125
1761501947166257200,1.791257080078125,0.053619384765625,-0.4520111083984375,-0.084014892578125
1761501947176313000,1.80131298828125,0.0289306640625,-0.40667724609375,0.03216552734375
1761501947186369300,1.811369384765625,-0.0787353515625,-0.394622802734375,0.169769287109375
1761501947196425000,1.821425048828125,-0.132659912109375,-0.38543701171875,0.2208251953125
1761501947206481000,1.83148095703125,-0.146881103515625,-0.379669189453125,0.1843719482421875
1761501947216537900,1.841537841796875,-0.082977294921875,-0.38995361328125,0.1612091064453125
1761501947226594000,1.851593994140625,-0.056365966796875,-0.330474853515625,0.1307525634765625
1761501947236650000,1.86164990234375,-0.0652618408203125,-0.241943359375,0.0793304443359375
1761501947246706000,1.871705810546875,-0.0212554931640625,-0.15155029296875,0.0037078857421875
1761501947256762000,1.88176220703125,-0.02349853515625,-0.052581787109375,-0.0420379638671875
1761501947266818000,1.891818115234375,-0.066741943359375,0.0389404296875,-0.0593414306640625
1761501947276875000,1.901875,-0.0876617431640625,0.112335205078125,-0.059234619140625
1761501947286931000,1.911930908203125,-0.0558319091796875,0.1430206298828125,-0.03155517578125
1761501947296987100,1.921987060546875,0.0080718994140625,0.1191864013671875,0.0019073486328125
1761501947307043000,1.93204296875,0.0533447265625,0.0739593505859375,0.019561767578125
1761501947317099000,1.94209912109375,0.044891357421875,0.03216552734375,0.0050201416015625
1761501947327156000,1.952156005859375,-0.007598876953125,-0.0086517333984375,-0.026458740234375
1761501947337212200,1.962212158203125,-0.056304931640625,-0.0683441162109375,-0.048614501953125
1761501947347268000,1.97226806640625,-0.040374755859375,-0.157562255859375,-0.059661865234375
1761501947357324000,1.982323974609375,0.0217132568359375,-0.2196044921875,-0.0706939697265625
1761501947367380200,1.992380126953125,0.1110687255859375,-0.2376861572265625,-0.1103363037109375
1761501947377437200,2.002437255859375,0.150848388671875,-0.222930908203125,-0.1439971923828125
1761501947387493000,2.0124931640625,0.1301727294921875,-0.2082366943359375,-0.127685546875
1761501947397549000,2.022549072265625,0.1246490478515625,-0.2279510498046875,-0.087127685546875
1761501947407605200,2.032605224609375,0.0687408447265625,-0.280303955078125,-0.080718994140625
1761501947417661200,2.0426611328125,-0.095855712890625,-0.3864898681640625,-0.0438232421875
1761501947427716900,2.052716796875,-0.304534912109375,-0.7497406005859375,0.06524658203125
1761501947437774000,2.062774169921875,-0.3663482666015625,-1.563934326171875,0.1573028564453125
1761501947447830000,2.072830078125,-0.2709808349609375,-2.4453125,0.211761474609375
1761501947457886000,2.082885986328125,-0.0501556396484375,-2.8309173583984375,0.31072998046875
1761501947467942000,2.09294189453125,-0.1673431396484375,-2.88629150390625,0.3619842529296875
1761501947477998000,2.102998046875,-0.3550262451171875,-2.7436065673828125,0.2833099365234375
1761501947488055000,2.113054931640625,-0.5539093017578125,-2.7596893310546875,0.2998504638671875
1761501947498111000,2.123111083984375,-0.767791748046875,-2.8824920654296875,0.2257537841796875
1761501947508167000,2.1331669921875,-1.0815582275390625,-3.11968994140625,0.102752685546875
1761501947518223000,2.14322314453125,-1.3117523193359375,-3.2903900146484375,-0.01934814453125
1761501947528279000,2.153279052734375,-1.277252197265625,-3.391448974609375,-0.030792236328125
1761501947538336000,2.1633359375,-1.0525360107421875,-3.3066253662109375,0.006500244140625
1761501947548392000,2.173391845703125,-0.7194366455078125,-3.0592498779296875,0.010040283203125
1761501947558448000,2.1834482421875,-0.3998260498046875,-2.7772369384765625,-0.041290283203125
1761501947568504000,2.193504150390625,-0.2411346435546875,-2.40045166015625,-0.1016693115234375
1761501947578560000,2.20356005859375,-0.19061279296875,-1.9470977783203125,-0.150177001953125
1761501947588616200,2.2136162109375,-0.121337890625,-1.5166778564453125,-0.2405242919921875
1761501947598673200,2.223673095703125,-0.0738067626953125,-1.100372314453125,-0.345611572265625
1761501947608729000,2.23372900390625,-0.105438232421875,-0.759521484375,-0.384796142578125
1761501947618785000,2.243784912109375,-0.0844268798828125,-0.5617218017578125,-0.2902374267578125
1761501947628841200,2.25384130859375,-0.0565643310546875,-0.3935089111328125,-0.0503387451171875
1761501947638897200,2.263897216796875,-0.076873779296875,-0.317718505859375,0.1508331298828125
1761501947648954000,2.2739541015625,-0.11810302734375,-0.243133544921875,0.2725372314453125
1761501947659010000,2.284010009765625,-0.089263916015625,-0.0714874267578125,0.3342437744140625
1761501947669066000,2.29406591796875,0.06976318359375,0.0852813720703125,0.3146209716796875
1761501947679122000,2.304121826171875,0.307891845703125,0.1212921142578125,0.214874267578125
1761501947689178000,2.31417822265625,0.410736083984375,0.0988922119140625,0.0510406494140625
1761501947699235000,2.324235107421875,0.3826446533203125,0.1358642578125,-0.0888519287109375
1761501947709291000,2.334291015625,0.29595947265625,0.111297607421875,-0.1926422119140625
1761501947719347000,2.344346923828125,0.196319580078125,0.0519256591796875,-0.26416015625
1761501947729403100,2.354403076171875,0.09759521484375,-0.0021820068359375,-0.24322509765625
1761501947739459000,2.364458984375,0.084075927734375,-0.070526123046875,-0.2032318115234375
1761501947749515000,2.374514892578125,0.10919189453125,-0.1079254150390625,-0.1666412353515625
1761501947759572000,2.384572021484375,0.171844482421875,-0.0689544677734375,-0.1302490234375
1761501947769628200,2.394628173828125,0.1890411376953125,0.0198974609375,-0.162384033203125
1761501947779684000,2.40468408203125,0.139739990234375,0.1155548095703125,-0.17889404296875
1761501947789740000,2.414739990234375,0.0844573974609375,0.1394195556640625,-0.101318359375
1761501947799796200,2.424796142578125,0.001556396484375,0.11572265625,0.01214599609375
1761501947809853200,2.434853271484375,-0.0498046875,0.1538848876953125,0.1090850830078125
1761501947819909000,2.4449091796875,-0.0991668701171875,0.1778717041015625,0.1663665771484375
1761501947829965000,2.454965087890625,-0.15509033203125,0.148468017578125,0.203765869140625
1761501947840021200,2.465021240234375,-0.1927947998046875,0.1016082763671875,0.2351837158203125
1761501947850077200,2.4750771484375,-0.2104339599609375,0.062347412109375,0.215972900390625
1761501947860134100,2.485134033203125,-0.189697265625,0.0333099365234375,0.122314453125
1761501947870190000,2.495190185546875,-0.1363525390625,0.0423126220703125,-0.0225067138671875
1761501947880246300,2.505246337890625,-0.1391448974609375,0.0718231201171875,-0.1302337646484375
1761501947890302200,2.51530224609375,-0.2247772216796875,0.0239715576171875,-0.1562957763671875
1761501947900358000,2.52535791015625,-0.2825775146484375,-0.0793609619140625,-0.061492919921875
1761501947910415000,2.5354150390625,-0.2856903076171875,-0.2572174072265625,0.070068359375
1761501947920471000,2.545470947265625,-0.28924560546875,-0.457763671875,0.2138671875
1761501947930527000,2.55552685546875,-0.2341766357421875,-0.6756134033203125,0.3224639892578125
1761501947940583000,2.5655830078125,-0.117431640625,-0.9629669189453125,0.2645416259765625
1761501947950639000,2.57563916015625,0.02362060546875,-1.278228759765625,0.110443115234375
1761501947960695000,2.585695068359375,0.1021575927734375,-1.67779541015625,-0.0654144287109375
1761501947970752000,2.595751953125,-0.0541839599609375,-2.1846466064453125,-0.1828765869140625
1761501947980813600,2.6058134765625,-0.4301605224609375,-2.6115875244140625,-0.227447509765625
1761501947990869500,2.615869384765625,-0.7238006591796875,-2.985809326171875,-0.276641845703125
1761501948000925400,2.625925537109375,-0.799652099609375,-3.129547119140625,-0.3460540771484375
1761501948010981600,2.635981689453125,-0.7575225830078125,-3.247833251953125,-0.376983642578125
1761501948021038600,2.64603857421875,-0.919464111328125,-3.3496246337890625,-0.28778076171875
1761501948031094500,2.656094482421875,-0.915924072265625,-3.407501220703125,-0.1888275146484375
1761501948041150500,2.666150390625,-0.68951416015625,-3.350006103515625,-0.159576416015625
1761501948051206700,2.67620654296875,-0.667816162109375,-3.2290496826171875,-0.18304443359375
1761501948061262600,2.6862626953125,-0.7214202880859375,-3.093109130859375,-0.26971435546875
1761501948071319600,2.696319580078125,-0.744873046875,-2.760467529296875,-0.415771484375
1761501948081375500,2.70637548828125,-0.832855224609375,-2.16461181640625,-0.6103973388671875
1761501948091431700,2.716431640625,-0.5774688720703125,-2.1537628173828125,-0.39459228515625
1761501948101487600,2.726487548828125,-0.61395263671875,-1.8003082275390625,-0.04046630859375
1761501948111543600,2.73654345703125,-0.1718597412109375,-1.47735595703125,0.185272216796875
1761501948121600500,2.7466005859375,-0.18011474609375,-1.1713714599609375,0.236724853515625
1761501948131656700,2.75665673828125,-0.144866943359375,-0.7851409912109375,0.1988525390625
1761501948141712600,2.766712646484375,-0.0892333984375,-0.532745361328125,0.1725006103515625
1761501948151768600,2.7767685546875,-0.2236480712890625,-0.3221435546875,0.1315765380859375
1761501948161824500,2.786824462890625,-0.2888946533203125,-0.1235504150390625,-0.0579833984375
1761501948171881700,2.7968818359375,-0.1774749755859375,0.004364013671875,-0.231353759765625
1761501948181937400,2.8069375,-0.2099761962890625,-0.0147247314453125,-0.31884765625
1761501948191993600,2.81699365234375,-0.328887939453125,-0.079071044921875,-0.3160400390625
1761501948202049500,2.827049560546875,-0.4398345947265625,-0.07696533203125,-0.1805877685546875
1761501948212105500,2.83710546875,-0.399810791015625,-0.0465087890625,-0.035552978515625
1761501948222161400,2.847161376953125,-0.1730194091796875,0.0141143798828125,0.027191162109375
1761501948232218600,2.857218505859375,-0.0001220703125,0.108734130859375,-0.0085906982421875
1761501948242274600,2.867274658203125,-0.0215606689453125,0.19940185546875,-0.017181396484375
1761501948252330500,2.87733056640625,-0.0772247314453125,0.15740966796875,-0.08941650390625
1761501948262386700,2.88738671875,-0.132354736328125,-0.0106353759765625,-0.149993896484375
1761501948272443600,2.897443603515625,-0.1522369384765625,-0.2066650390625,-0.174896240234375
1761501948282499600,2.90749951171875,-0.0899200439453125,-0.368865966796875,-0.187469482421875
1761501948292555500,2.917555419921875,0.0109405517578125,-0.514068603515625,-0.1618499755859375
1761501948302611700,2.92761181640625,0.1960601806640625,-0.5807037353515625,-0.1751708984375
1761501948312667600,2.937667724609375,0.2298583984375,-0.4880828857421875,-0.194915771484375
1761501948322723600,2.9477236328125,0.1889190673828125,-0.38592529296875,-0.140350341796875
1761501948332780500,2.957780517578125,0.2022552490234375,-0.2347412109375,-0.076080322265625
1761501948342836700,2.967836669921875,0.20001220703125,-0.1382598876953125,-0.03216552734375
1761501948352892700,2.977892578125,0.1041717529296875,-0.042236328125,0.0341796875
1761501948362948600,2.987948486328125,0.0275421142578125,0.03515625,0.1044769287109375
1761501948373004800,2.9980048828125,-0.018768310546875,0.0511016845703125,0.1390380859375
1761501948383061800,3.008061767578125,-0.0567779541015625,0.0732421875,0.158233642578125
1761501948393117700,3.01811767578125,0.01300048828125,0.1609344482421875,0.120025634765625
1761501948403173600,3.028173583984375,0.1437530517578125,0.209625244140625,0.0691680908203125
1761501948413229600,3.0382294921875,0.1582794189453125,0.187164306640625,0.0517120361328125
1761501948423285500,3.048285400390625,0.0872802734375,0.08843994140625,0.07147216796875
1761501948433342500,3.058342529296875,-0.0156707763671875,-0.07232666015625,0.1301727294921875
1761501948443398400,3.0683984375,-0.1263885498046875,-0.3471527099609375,0.1901397705078125
1761501948453454600,3.07845458984375,-0.173370361328125,-0.75091552734375,0.1844482421875
1761501948463510500,3.088510498046875,-0.0941162109375,-1.30352783203125,0.071502685546875
1761501948473566500,3.09856640625,0.0035247802734375,-2.0342559814453125,-0.0205078125
1761501948483623400,3.10862353515625,-0.0312347412109375,-2.8760833740234375,-0.1480560302734375
1761501948493679600,3.1186796875,-0.4388580322265625,-3.3180694580078125,-0.3113861083984375
1761501948503735600,3.128735595703125,-0.8260650634765625,-3.512939453125,-0.4114532470703125
1761501948513791500,3.13879150390625,-0.7505340576171875,-3.5566558837890625,-0.3759918212890625
1761501948523847700,3.14884765625,-0.6322021484375,-3.3928375244140625,-0.233489990234375
1761501948533904600,3.158904541015625,-0.691162109375,-3.2054290771484375,-0.0889434814453125
1761501948543960600,3.168960693359375,-0.7858428955078125,-2.914794921875,-0.0693206787109375
1761501948554016500,3.1790166015625,-0.72772216796875,-2.772369384765625,-0.1164703369140625
1761501948564072700,3.18907275390625,-0.537322998046875,-2.95050048828125,-0.0493316650390625
1761501948574128600,3.199128662109375,-0.2288665771484375,-3.0740203857421875,-0.0138397216796875
1761501948584185600,3.209185546875,-0.0057525634765625,-2.9177703857421875,-0.0919952392578125
1761501948594241500,3.219241455078125,-0.0202178955078125,-2.4935150146484375,-0.1924591064453125
1761501948604297700,3.229297607421875,-0.057464599609375,-1.9773712158203125,-0.28448486328125
1761501948614353700,3.239353759765625,-0.0013275146484375,-1.600494384765625,-0.325439453125
1761501948624409600,3.24940966796875,-0.01171875,-1.313690185546875,-0.2247772216796875
1761501948634466600,3.259466552734375,-0.0410003662109375,-1.073974609375,-0.072998046875
1761501948644522800,3.269522705078125,-0.08258056640625,-0.9752044677734375,0.0266265869140625
1761501948654578700,3.27957861328125,-0.19158935546875,-0.8637237548828125,0.0925750732421875
1761501948664634400,3.28963427734375,-0.1916351318359375,-0.6654815673828125,0.0444183349609375
1761501948674690600,3.299690673828125,-0.139801025390625,-0.43768310546875,-0.0236053466796875
1761501948684747500,3.30974755859375,-0.2193603515625,-0.1846160888671875,-0.062469482421875
1761501948694803500,3.319803466796875,-0.1516876220703125,0.05328369140625,-0.0542144775390625
1761501948704859400,3.329859375,0.023284912109375,0.324859619140625,-0.0130462646484375
1761501948714915600,3.33991552734375,0.103240966796875,0.55548095703125,-0.00347900390625
1761501948724971500,3.349971435546875,0.0984039306640625,0.69183349609375,-0.0460357666015625
1761501948735028500,3.360028564453125,-0.00750732421875,0.813873291015625,-0.0453643798828125
1761501948745084400,3.37008447265625,-0.1093597412109375,0.7969512939453125,-0.0691680908203125
1761501948755140600,3.380140625,-0.2576446533203125,0.6365814208984375,-0.0689697265625
1761501948765196500,3.390196533203125,-0.4082183837890625,0.3680572509765625,0.0378265380859375
1761501948775252500,3.40025244140625,-0.4528350830078125,0.0476531982421875,0.1390533447265625
1761501948785309400,3.410309326171875,-0.4122772216796875,-0.096893310546875,0.1827545166015625
1761501948795365600,3.42036572265625,-0.3112030029296875,-0.0906219482421875,0.193756103515625
1761501948805421600,3.430421630859375,-0.174346923828125,-0.0360260009765625,0.0984649658203125
1761501948815477500,3.4404775390625,-0.0331878662109375,-0.0803985595703125,-0.0720062255859375
1761501948825533700,3.45053369140625,0.010467529296875,-0.111602783203125,-0.216766357421875
1761501948835590700,3.460590576171875,-0.060882568359375,-0.1739501953125,-0.2451934814453125
1761501948845646600,3.470646484375,-0.1684722900390625,-0.2293701171875,-0.1927947998046875
1761501948855702500,3.48070263671875,-0.162628173828125,-0.28533935546875,-0.0960693359375
1761501948865758700,3.4907587890625,-0.0835113525390625,-0.2755279541015625,0.0183258056640625
1761501948875814700,3.500814697265625,0.0273590087890625,-0.269287109375,0.105987548828125
1761501948885871600,3.51087158203125,0.1005859375,-0.289886474609375,0.1546478271484375
1761501948895927600,3.520927490234375,0.1171875,-0.277679443359375,0.09716796875
1761501948905983700,3.530983642578125,0.113616943359375,-0.2473602294921875,-0.0146942138671875
1761501948916039400,3.541039306640625,0.0074462890625,-0.212646484375,-0.0695953369140625
1761501948926096600,3.5510966796875,-0.051544189453125,-0.1587677001953125,-0.0754241943359375
1761501948936152600,3.561152587890625,0.0117034912109375,-0.0830841064453125,-0.0211944580078125
1761501948946208500,3.57120849609375,0.10791015625,-0.105255126953125,0.0769500732421875
1761501948956264400,3.581264404296875,0.1834716796875,-0.2749481201171875,0.172149658203125
1761501948966320600,3.591320556640625,0.2212066650390625,-0.67218017578125,0.151702880859375
1761501948976372000,3.6013720703125,0.106781005859375,-1.39923095703125,0.0415191650390625
1761501948986428000,3.611427978515625,-0.193634033203125,-2.445648193359375,-0.083648681640625
1761501948996483800,3.62148388671875,-0.653289794921875,-3.377166748046875,-0.2058258056640625
1761501949006539800,3.631539794921875,-1.1371307373046875,-3.74493408203125,-0.3585662841796875
1761501949016596000,3.641595947265625,-1.06817626953125,-3.684814453125,-0.3419189453125
1761501949026652000,3.65165185546875,-0.64349365234375,-3.6710052490234375,-0.169158935546875
1761501949036708900,3.661708984375,-0.3678131103515625,-3.6317291259765625,0.016998291015625
1761501949046764800,3.671764892578125,-0.2209930419921875,-3.432403564453125,0.126556396484375
1761501949056821000,3.681821044921875,-0.21368408203125,-3.1475830078125,0.1098175048828125
1761501949066877000,3.691876953125,-0.366363525390625,-2.9870147705078125,0.0392303466796875
1761501949076932900,3.701932861328125,-0.5258026123046875,-2.856170654296875,0.095428466796875
1761501949086989800,3.71198974609375,-0.5711669921875,-2.783203125,0.1373291015625
1761501949097046000,3.7220458984375,-0.408966064453125,-2.69390869140625,-0.000640869140625
1761501949107102000,3.73210205078125,-0.150543212890625,-2.454833984375,-0.161224365234375
1761501949117158000,3.742157958984375,0.0980377197265625,-2.147705078125,-0.3245849609375
1761501949127214000,3.752214111328125,0.2481536865234375,-1.7715301513671875,-0.387237548828125
1761501949137271000,3.76227099609375,0.2035369873046875,-1.329925537109375,-0.3079833984375
1761501949147327000,3.772326904296875,0.0489501953125,-0.9242401123046875,-0.130615234375
1761501949157383000,3.7823828125,-0.106170654296875,-0.51263427734375,-0.03228759765625
1761501949167439000,3.792439208984375,-0.2998809814453125,-0.2439117431640625,0.018798828125
1761501949177496000,3.80249609375,-0.443267822265625,0.0342559814453125,0.0718841552734375
1761501949187552000,3.812552001953125,-0.407958984375,0.3013916015625,0.013763427734375
1761501949197608000,3.82260791015625,-0.3643341064453125,0.485198974609375,-0.043792724609375
1761501949207664000,3.8326640625,-0.3681488037109375,0.694000244140625,-0.0582122802734375
1761501949217719800,3.8427197265625,-0.29547119140625,0.8012237548828125,-0.0779266357421875
1761501949227777000,3.852777099609375,-0.2609405517578125,0.741058349609375,-0.0600128173828125
1761501949237833000,3.8628330078125,-0.2693328857421875,0.52886962890625,-0.0402679443359375
1761501949247889000,3.872888916015625,-0.298583984375,0.19781494140625,-0.0467987060546875
1761501949257944800,3.88294482421875,-0.3119964599609375,-0.057098388671875,-0.010101318359375
1761501949268000800,3.893000732421875,-0.2793426513671875,-0.21942138671875,0.062286376953125
1761501949278057700,3.9030576171875,-0.2065582275390625,-0.3798828125,0.1614990234375
1761501949288114000,3.913114013671875,-0.1126251220703125,-0.4726104736328125,0.2628936767578125
1761501949298169900,3.923169921875,0.074371337890625,-0.472259521484375,0.3124237060546875
1761501949308225800,3.933225830078125,0.2000885009765625,-0.4575653076171875,0.2901763916015625
1761501949318282000,3.943281982421875,0.2072601318359375,-0.38922119140625,0.1750030517578125
1761501949328339000,3.9533388671875,0.135009765625,-0.3316192626953125,0.0392608642578125
1761501949338395000,3.963394775390625,0.0194091796875,-0.2811126708984375,-0.0586395263671875
1761501949348450800,3.973450927734375,-0.1083984375,-0.192840576171875,-0.13079833984375
1761501949358507000,3.983507080078125,-0.1662445068359375,-0.0510406494140625,-0.138031005859375
1761501949368563000,3.99356298828125,-0.138702392578125,0.07867431640625,-0.1017303466796875
1761501949378620000,4.003619873046875,-0.038726806640625,0.221466064453125,-0.0907745361328125
1761501949388675800,4.01367578125,0.0616455078125,0.386260986328125,-0.077880859375
1761501949398732000,4.02373193359375,0.1271209716796875,0.4666290283203125,-0.0614166259765625
1761501949408788000,4.0337880859375,0.174835205078125,0.499359130859375,-0.096710205078125
1761501949418844000,4.043843994140625,0.1106414794921875,0.43341064453125,-0.121673583984375
1761501949428900900,4.05390087890625,-0.0496368408203125,0.189605712890625,-0.069580078125
1761501949438957000,4.06395703125,-0.2333221435546875,-0.1013336181640625,0.0345001220703125
1761501949449013000,4.074012939453125,-0.207061767578125,-0.5608367919921875,0.0681304931640625
1761501949459069000,4.08406884765625,0.060150146484375,-1.114471435546875,-0.0663604736328125
1761501949469126000,4.0941259765625,0.2476806640625,-1.703216552734375,-0.1854400634765625
1761501949479182000,4.10418212890625,0.2682037353515625,-2.5540313720703125,-0.199249267578125
1761501949489237800,4.11423779296875,0.0396270751953125,-3.2636260986328125,-0.02349853515625
1761501949499293700,4.124293701171875,-0.5374603271484375,-3.50421142578125,0.147552490234375
1761501949509350000,4.134349853515625,-0.897613525390625,-3.558502197265625,0.208038330078125
1761501949519406800,4.14440673828125,-0.6631622314453125,-3.4680938720703125,0.131988525390625
1761501949529462800,4.154462890625,-0.416259765625,-3.2850189208984375,0.136749267578125
1761501949539518700,4.164518798828125,-0.3131561279296875,-3.1108551025390625,0.1563262939453125
1761501949549575000,4.174574951171875,-0.256622314453125,-3.04248046875,0.0653076171875
1761501949559630800,4.184630859375,-0.3105010986328125,-2.992919921875,-0.049835205078125
1761501949569687800,4.194687744140625,-0.51214599609375,-2.9629058837890625,-0.1392974853515625
1761501949579743700,4.20474365234375,-0.6963958740234375,-2.9971771240234375,-0.22222900390625
1761501949589800000,4.214800048828125,-0.792755126953125,-2.890960693359375,-0.34844970703125
1761501949599855900,4.22485595703125,-0.766693115234375,-2.6046905517578125,-0.4613189697265625
1761501949609911800,4.234911865234375,-0.6118316650390625,-2.2593994140625,-0.4597625732421875
1761501949619968800,4.24496875,-0.342987060546875,-1.8517913818359375,-0.46075439453125
1761501949630025000,4.25502490234375,-0.10565185546875,-1.3951568603515625,-0.4087677001953125
1761501949640081000,4.265080810546875,-0.0090789794921875,-0.9822845458984375,-0.273681640625
1761501949650136800,4.27513671875,0.0153045654296875,-0.6711273193359375,-0.1318206787109375
1761501949660193000,4.285193115234375,0.0338287353515625,-0.3627166748046875,-0.0119476318359375
1761501949670250000,4.29525,0.0380096435546875,-0.0988311767578125,0.0707550048828125
1761501949680306000,4.305305908203125,-0.00238037109375,0.0494537353515625,0.11187744140625
1761501949690361900,4.31536181640625,-0.0767822265625,0.19708251953125,0.1247406005859375
1761501949700418000,4.32541796875,-0.1383209228515625,0.34368896484375,0.1257476806640625
1761501949710475000,4.33547509765625,-0.1778106689453125,0.4917755126953125,0.1154022216796875
1761501949720531000,4.345531005859375,-0.152740478515625,0.6394805908203125,0.0970916748046875
1761501949730587000,4.3555869140625,-0.07763671875,0.70391845703125,0.0809326171875
1761501949740642800,4.365642822265625,-0.0030517578125,0.640289306640625,0.0533905029296875
1761501949750698800,4.37569873046875,0.0324859619140625,0.54071044921875,0.0044097900390625
1761501949760756000,4.385755859375,0.04205322265625,0.4062652587890625,-0.036895751953125
1761501949770812000,4.39581201171875,0.002838134765625,0.2370758056640625,-0.03948974609375
1761501949780867800,4.405867919921875,-0.0753936767578125,0.0294036865234375,0.01226806640625
1761501949790923800,4.415923828125,-0.162445068359375,-0.1621246337890625,0.0492095947265625
1761501949800980000,4.42597998046875,-0.1957244873046875,-0.240631103515625,-0.0001678466796875
1761501949811037000,4.436036865234375,-0.2484283447265625,-0.2389068603515625,-0.0666351318359375
1761501949821092900,4.4460927734375,-0.2584991455078125,-0.2083892822265625,-0.0941314697265625
1761501949831148800,4.456148681640625,-0.2146759033203125,-0.1639862060546875,-0.067962646484375
1761501949841205000,4.466205078125,-0.1817169189453125,-0.115234375,-0.00347900390625
1761501949851261000,4.476260986328125,-0.1284942626953125,-0.0430450439453125,0.021636962890625
1761501949861318000,4.48631787109375,-0.0503997802734375,0.026580810546875,0.0365447998046875
1761501949871373800,4.496373779296875,-0.0032958984375,0.0200347900390625,0.0816497802734375
1761501949881430000,4.506429931640625,0.0464324951171875,-0.0393218994140625,0.1076812744140625
1761501949891486000,4.51648583984375,0.0839691162109375,-0.08380126953125,0.084503173828125
1761501949901543000,4.52654296875,0.0971527099609375,-0.11029052734375,0.0447235107421875
1761501949911598800,4.536598876953125,0.0703582763671875,-0.1426544189453125,0.0027618408203125
1761501949921655000,4.546655029296875,0.00665283203125,-0.218658447265625,-0.0056915283203125
1761501949931711000,4.5567109375,-0.0819244384765625,-0.4148101806640625,0.0195465087890625
1761501949941767000,4.566766845703125,-0.13531494140625,-0.716644287109375,0.032501220703125
1761501949951824000,4.576823974609375,-0.045867919921875,-1.15155029296875,-0.0124359130859375
1761501949961880000,4.586880126953125,0.1567535400390625,-1.6245574951171875,-0.12945556640625
1761501949971936000,4.59693603515625,0.3137359619140625,-2.2536163330078125,-0.246307373046875
1761501949981992700,4.60699267578125,0.3729400634765625,-2.9139862060546875,-0.2878265380859375
1761501949992048600,4.617048583984375,0.0307769775390625,-3.1582183837890625,-0.157562255859375
1761501950002105600,4.627105712890625,-0.575592041015625,-3.267486572265625,-0.019256591796875
1761501950012161800,4.637161865234375,-0.617919921875,-3.370086669921875,-0.002044677734375
1761501950022217700,4.6472177734375,-0.3684539794921875,-3.3581085205078125,0.03375244140625
1761501950032273700,4.657273681640625,-0.3302764892578125,-3.190887451171875,0.12994384765625
1761501950042329600,4.66732958984375,-0.3607635498046875,-2.983978271484375,0.1327362060546875
1761501950052386800,4.67738671875,-0.268280029296875,-2.8556976318359375,0.0660552978515625
1761501950062442500,4.6874423828125,-0.19036865234375,-2.76318359375,0.0480499267578125
1761501950072498400,4.69749853515625,-0.203643798828125,-2.76019287109375,0.022308349609375
1761501950082554600,4.7075546875,-0.176177978515625,-2.6289825439453125,-0.170867919921875
1761501950092611600,4.717611572265625,-0.2950286865234375,-2.4328765869140625,-0.2989654541015625
1761501950102667500,4.72766748046875,-0.4672088623046875,-2.37237548828125,-0.28009033203125
1761501950112723700,4.7377236328125,-0.5018310546875,-2.3203887939453125,-0.21136474609375
1761501950122779600,4.747779541015625,-0.3450775146484375,-2.1320037841796875,-0.0626068115234375
1761501950132835600,4.757835693359375,-0.0679168701171875,-1.7287139892578125,0.0562744140625
1761501950142892500,4.767892578125,0.1583404541015625,-1.3115692138671875,0.1393890380859375
1761501950152948700,4.77794873046875,0.263763427734375,-0.884857177734375,0.1778411865234375
1761501950163004700,4.788004638671875,0.2314300537109375,-0.461639404296875,0.17059326171875
1761501950173060600,4.798060546875,0.1364593505859375,-0.100128173828125,0.0844879150390625
1761501950183116800,4.80811669921875,0.084808349609375,0.174774169921875,-0.0435333251953125
1761501950193173800,4.818173828125,-0.0249176025390625,0.407196044921875,-0.148590087890625
1761501950203229700,4.828229736328125,-0.184600830078125,0.5793304443359375,-0.1533660888671875
1761501950213285600,4.83828564453125,-0.238739013671875,0.6722869873046875,-0.0791473388671875
1761501950223341800,4.848341796875,-0.1612548828125,0.6471405029296875,-0.0383453369140625
1761501950233398800,4.858398681640625,-0.0156707763671875,0.56036376953125,-0.0778961181640625
1761501950243454700,4.868454833984375,0.0062255859375,0.5103302001953125,-0.129852294921875
1761501950253510700,4.8785107421875,-0.023834228515625,0.4835968017578125,-0.1879119873046875
1761501950263566800,4.88856689453125,-0.056732177734375,0.4084320068359375,-0.2196807861328125
1761501950273622800,4.898622802734375,-0.145782470703125,0.3001251220703125,-0.1730194091796875
1761501950283679700,4.9086796875,-0.2574920654296875,0.16314697265625,-0.0718994140625
1761501950293735700,4.918735595703125,-0.304168701171875,0.0260467529296875,0.006622314453125
1761501950303791900,4.9287919921875,-0.27056884765625,-0.0490570068359375,0.04205322265625
1761501950313847600,4.93884765625,-0.23138427734375,-0.0589599609375,0.074462890625
1761501950323904800,4.94890478515625,-0.1953277587890625,-0.0419464111328125,0.1217041015625
1761501950333960700,4.958960693359375,-0.1082000732421875,-0.0177154541015625,0.1179656982421875
1761501950344016600,4.9690166015625,-0.01324462890625,0.010894775390625,0.058258056640625
1761501950354072600,4.979072509765625,0.039154052734375,0.040863037109375,0.0189208984375
1761501950364128500,4.98912841796875,0.019256591796875,0.03387451171875,-0.0052490234375
1761501950374185500,4.999185546875,-0.0753173828125,-0.0268707275390625,0.0155181884765625
1761501950384241700,5.00924169921875,-0.1205596923828125,-0.107452392578125,0.073944091796875
1761501950394297600,5.019297607421875,-0.0910491943359375,-0.166290283203125,0.11773681640625
1761501950404353500,5.029353515625,-0.01983642578125,-0.2583160400390625,0.1214447021484375
1761501950414409700,5.03940966796875,0.075836181640625,-0.3544921875,0.09429931640625
1761501950424466700,5.049466796875,0.1233062744140625,-0.440765380859375,0.0797271728515625
1761501950434522600,5.059522705078125,0.1043243408203125,-0.5998992919921875,0.06396484375
1761501950444578600,5.06957861328125,0.078704833984375,-0.7684326171875,0.0419921875
1761501950454634800,5.079634765625,0.0809326171875,-0.9840850830078125,0.0047760009765625
1761501950464691700,5.089691650390625,0.0083465576171875,-1.3423309326171875,0.012237548828125
1761501950474747600,5.09974755859375,-0.08831787109375,-1.863433837890625,0.1057586669921875
1761501950484803600,5.109803466796875,-0.01422119140625,-2.452362060546875,0.185150146484375
1761501950494859800,5.11985986328125,0.2303619384765625,-2.93402099609375,0.218109130859375
1761501950504915700,5.129915771484375,0.181976318359375,-3.0489501953125,0.12628173828125
1761501950514972700,5.13997265625,-0.0616302490234375,-2.9584808349609375,-0.070709228515625
1761501950525025500,5.150025634765625,-0.06396484375,-2.8777008056640625,-0.18060302734375
1761501950535081700,5.160081787109375,-0.1439666748046875,-2.9970550537109375,-0.0894927978515625
1761501950545137700,5.1701376953125,-0.2671051025390625,-3.20404052734375,0.0256195068359375
1761501950555193600,5.180193603515625,-0.3308563232421875,-3.2608642578125,0.0508270263671875
1761501950565250600,5.19025048828125,-0.3268890380859375,-3.205841064453125,-0.0671844482421875
1761501950575306800,5.200306640625,-0.341217041015625,-3.1302642822265625,-0.177581787109375
1761501950585362700,5.21036279296875,-0.5594482421875,-3.0931549072265625,-0.1880340576171875
1761501950595418600,5.220418701171875,-0.8031768798828125,-2.9720306396484375,-0.2545013427734375
1761501950605474800,5.230474853515625,-0.8780517578125,-2.5648040771484375,-0.4305572509765625
1761501950615531800,5.24053173828125,-0.7636871337890625,-2.064056396484375,-0.59820556640625
1761501950625587700,5.250587646484375,-0.5712432861328125,-1.657867431640625,-0.5714569091796875
1761501950635643600,5.2606435546875,-0.4090423583984375,-1.3604278564453125,-0.368408203125
1761501950645699800,5.270699951171875,-0.116180419921875,-1.103363037109375,-0.1839141845703125
1761501950655756800,5.2807568359375,0.198089599609375,-0.80059814453125,-0.0477447509765625
1761501950665812700,5.290812744140625,0.4769287109375,-0.547821044921875,0.0540618896484375
1761501950675868700,5.30086865234375,0.5558013916015625,-0.3459014892578125,0.1340484619140625
1761501950685924900,5.3109248046875,0.340484619140625,-0.2260589599609375,0.26129150390625
1761501950695980500,5.32098046875,0.04559326171875,-0.164520263671875,0.3585052490234375
1761501950706037800,5.331037841796875,-0.06842041015625,-0.120147705078125,0.27447509765625
1761501950716093400,5.341093505859375,-0.175140380859375,-0.020050048828125,0.1038360595703125
1761501950726149600,5.351149658203125,-0.18603515625,0.115997314453125,0.0089874267578125
1761501950736205600,5.36120556640625,-0.0905914306640625,0.2410888671875,-0.03955078125
1761501950746262500,5.371262451171875,0.0336456298828125,0.2696533203125,-0.064910888671875
1761501950756318500,5.381318359375,0.1379547119140625,0.2562255859375,-0.0581817626953125
1761501950766374700,5.391374755859375,0.1673736572265625,0.240997314453125,-0.023956298828125
1761501950776430600,5.4014306640625,0.1732025146484375,0.1993408203125,0.01495361328125
1761501950786486500,5.411486572265625,0.1507720947265625,0.152191162109375,0.07177734375
1761501950796543500,5.42154345703125,0.07275390625,0.1297760009765625,0.135101318359375
1761501950806599700,5.431599609375,-0.05487060546875,0.1618194580078125,0.1483612060546875
1761501950816655600,5.441655517578125,-0.2464447021484375,0.20404052734375,0.0758514404296875
1761501950826711600,5.451711669921875,-0.3221282958984375,0.1662750244140625,0.02655029296875
1761501950836768500,5.4617685546875,-0.2625579833984375,0.10296630859375,-0.0101776123046875
1761501950846824700,5.47182470703125,-0.15692138671875,0.08392333984375,-0.045318603515625
1761501950856880600,5.481880615234375,-0.0669403076171875,0.09564208984375,-0.05194091796875
1761501950866936600,5.4919365234375,-0.044891357421875,0.085418701171875,-0.0471343994140625
1761501950876992800,5.50199267578125,-0.027862548828125,0.040069580078125,-0.0458526611328125
1761501950887049700,5.5120498046875,-0.01617431640625,-0.0102691650390625,-0.04766845703125
1761501950897105700,5.522105712890625,-0.07635498046875,-0.03521728515625,-0.0703887939453125
1761501950907161600,5.53216162109375,-0.1480865478515625,-0.05926513671875,-0.1049652099609375
1761501950917217800,5.5422177734375,-0.16278076171875,-0.0900726318359375,-0.1332855224609375
1761501950927274800,5.552274658203125,-0.144683837890625,-0.114288330078125,-0.1533050537109375
1761501950937330700,5.56233056640625,-0.0832672119140625,-0.161163330078125,-0.1467437744140625
1761501950947386600,5.57238671875,-0.0493011474609375,-0.326019287109375,-0.1018829345703125
1761501950957442800,5.58244287109375,-0.058929443359375,-0.5793914794921875,-0.04962158203125
1761501950967498500,5.59249853515625,-0.058258056640625,-0.8566131591796875,-0.0298919677734375
1761501950977555700,5.6025556640625,0.02197265625,-1.20941162109375,-0.036041259765625
1761501950987612000,5.61261181640625,0.1187744140625,-1.582061767578125,-0.06365966796875
1761501950997667800,5.622667724609375,0.2669677734375,-2.0045623779296875,-0.1271820068359375
1761501951007723800,5.632723876953125,0.50091552734375,-2.4781646728515625,-0.16204833984375
1761501951017779700,5.64277978515625,0.36370849609375,-2.7919921875,-0.108673095703125
1761501951027836700,5.652836669921875,-0.0244140625,-3.0146026611328125,-0.065338134765625
1761501951037892900,5.662892822265625,-0.169891357421875,-3.19354248046875,-0.0828399658203125
1761501951047948800,5.67294873046875,-0.0813140869140625,-3.3915863037109375,-0.0536346435546875
1761501951058004700,5.683004638671875,-0.0439605712890625,-3.57470703125,0.139862060546875
1761501951068062000,5.69306201171875,-0.1719970703125,-3.59002685546875,0.3452301025390625
1761501951078118000,5.703117919921875,-0.2392578125,-3.49859619140625,0.3695526123046875
1761501951088173800,5.713173828125,-0.244171142578125,-3.441314697265625,0.2709808349609375
1761501951098229800,5.723229736328125,-0.260345458984375,-3.3977813720703125,0.193450927734375
1761501951108286000,5.733285888671875,-0.36474609375,-3.2649993896484375,0.0996856689453125
1761501951118343000,5.743343017578125,-0.5507354736328125,-2.996002197265625,0.0315093994140625
1761501951128398800,5.75339892578125,-0.708770751953125,-2.555389404296875,0.0054779052734375
1761501951138455800,5.763455810546875,-0.680999755859375,-2.0168609619140625,-0.0240478515625
1761501951148512000,5.773511962890625,-0.60589599609375,-1.55462646484375,-0.0665283203125
1761501951158569000,5.78356884765625,-0.4589080810546875,-1.1293792724609375,-0.115234375
1761501951168625000,5.793625,-0.2548370361328125,-0.7005157470703125,-0.2065887451171875
1761501951178680800,5.803680908203125,-0.0439910888671875,-0.32080078125,-0.34814453125
1761501951188737000,5.813737060546875,0.2318878173828125,-0.0113372802734375,-0.437713623046875
1761501951198794000,5.8237939453125,0.36285400390625,0.2531585693359375,-0.426116943359375
1761501951208850000,5.833849853515625,0.3115386962890625,0.419097900390625,-0.2774810791015625
1761501951218905900,5.84390576171875,0.2535247802734375,0.5134429931640625,-0.104888916015625
1761501951228962000,5.853962158203125,0.1696319580078125,0.57110595703125,0.01995849609375
1761501951239018000,5.86401806640625,0.0585479736328125,0.48541259765625,0.10284423828125
1761501951249075000,5.874074951171875,0.0657196044921875,0.30853271484375,0.11810302734375
1761501951259131000,5.884130859375,0.1481170654296875,0.2116851806640625,-0.001983642578125
1761501951269187000,5.89418701171875,0.1645050048828125,0.266448974609375,-0.1481170654296875
1761501951279243000,5.904242919921875,0.121856689453125,0.406707763671875,-0.2465057373046875
1761501951289300000,5.914300048828125,-0.00445556640625,0.4274749755859375,-0.30615234375
1761501951299356000,5.92435595703125,-0.20501708984375,0.3204803466796875,-0.2523345947265625
1761501951309412000,5.934412109375,-0.325927734375,0.0807342529296875,-0.125
1761501951319468000,5.944468017578125,-0.4138641357421875,-0.22149658203125,0.0114288330078125
1761501951329523700,5.954523681640625,-0.474822998046875,-0.480072021484375,0.187347412109375
1761501951339581000,5.964580810546875,-0.446624755859375,-0.636962890625,0.304107666015625
1761501951349636900,5.974636962890625,-0.3792572021484375,-0.6386260986328125,0.3623046875
1761501951359692800,5.98469287109375,-0.240020751953125,-0.534820556640625,0.3426055908203125
1761501951369748700,5.994748779296875,-0.0833892822265625,-0.3891448974609375,0.24267578125
1761501951379805700,6.0048056640625,0.0367279052734375,-0.1864013671875,0.108612060546875
1761501951389862000,6.01486181640625,0.118560791015625,0.0092010498046875,-0.0056610107421875
1761501951399917800,6.024917724609375,0.096160888671875,0.1509857177734375,-0.0537567138671875
1761501951409973800,6.034973876953125,-0.0077667236328125,0.2401885986328125,-0.06036376953125
1761501951420030000,6.045030029296875,-0.0483856201171875,0.23138427734375,-0.0556488037109375
1761501951430087000,6.0550869140625,-0.0147705078125,0.1343994140625,-0.0426788330078125
1761501951440142800,6.065142822265625,0.0720367431640625,0.0060272216796875,-0.0461273193359375
1761501951450198800,6.07519873046875,0.1484832763671875,-0.1019134521484375,-0.0669403076171875
1761501951460255000,6.0852548828125,0.196197509765625,-0.1700286865234375,-0.046722412109375
1761501951470312000,6.09531201171875,0.2118682861328125,-0.265350341796875,-0.006866455078125
1761501951480367900,6.105367919921875,0.2509307861328125,-0.4611968994140625,0.0129852294921875
1761501951490423800,6.115423828125,0.2372589111328125,-0.870147705078125,-0.011962890625
1761501951500480000,6.12547998046875,0.1838836669921875,-1.3673553466796875,-0.0963134765625
1761501951510537000,6.135536865234375,0.1217498779296875,-1.925811767578125,-0.191070556640625
1761501951520593000,6.145593017578125,0.10931396484375,-2.6674346923828125,-0.1429901123046875
1761501951530648800,6.15564892578125,0.077911376953125,-3.211334228515625,0.0430908203125
1761501951540705000,6.165705078125,0.04473876953125,-3.3730621337890625,0.1945953369140625
1761501951550761000,6.175760986328125,-0.0557098388671875,-3.443328857421875,0.257293701171875
1761501951560818000,6.18581787109375,0.0129852294921875,-3.4269256591796875,0.2476806640625
1761501951570873900,6.195873779296875,0.0749359130859375,-3.2399139404296875,0.145233154296875
1761501951580930000,6.205929931640625,0.009979248046875,-3.0060272216796875,-0.0748748779296875
1761501951590986000,6.215986083984375,-0.098876953125,-2.8065032958984375,-0.2511444091796875
1761501951601042000,6.2260419921875,-0.2890167236328125,-2.6134490966796875,-0.28778076171875
1761501951611099000,6.236098876953125,-0.4059906005859375,-2.6345672607421875,-0.201904296875
1761501951621155000,6.246155029296875,-0.3894195556640625,-2.87469482421875,-0.1026611328125
1761501951631210800,6.256210693359375,-0.3865509033203125,-3.00384521484375,-0.0777740478515625
1761501951641267000,6.266266845703125,-0.4350128173828125,-2.9355926513671875,0.02813720703125
1761501951651324000,6.276323974609375,-0.3884429931640625,-2.6568145751953125,0.204010009765625
1761501951661379800,6.2863798828125,-0.2542572021484375,-2.26849365234375,0.3008575439453125
1761501951671435800,6.296435791015625,-0.1124420166015625,-1.7746124267578125,0.337066650390625
1761501951681492000,6.306491943359375,0.023040771484375,-1.255096435546875,0.367340087890625
1761501951691548000,6.3165478515625,0.094512939453125,-0.76080322265625,0.3561553955078125
1761501951701604900,6.32660498046875,0.1432342529296875,-0.31890869140625,0.2431488037109375
1761501951711660800,6.336660888671875,0.2365875244140625,0.0070648193359375,0.0354766845703125
1761501951721717000,6.346717041015625,0.3030242919921875,0.2473602294921875,-0.189422607421875
1761501951731773000,6.35677294921875,0.2102203369140625,0.4156951904296875,-0.339508056640625
1761501951741830000,6.366829833984375,-0.005584716796875,0.550811767578125,-0.3424835205078125
1761501951751885800,6.3768857421875,-0.1106414794921875,0.5709228515625,-0.2392578125
1761501951761942000,6.38694189453125,-0.08404541015625,0.516326904296875,-0.1216278076171875
1761501951771998000,6.396998046875,-0.00341796875,0.4751739501953125,-0.0124664306640625
1761501951782055000,6.407054931640625,0.04071044921875,0.4150543212890625,0.0306854248046875
1761501951792110800,6.41711083984375,0.0551300048828125,0.3543701171875,0.0200347900390625
1761501951802167000,6.4271669921875,0.0290069580078125,0.3328094482421875,0.007659912109375
1761501951812223000,6.437222900390625,0.005523681640625,0.293365478515625,-0.024505615234375
1761501951822279000,6.44727880859375,-0.0316314697265625,0.187286376953125,-0.0577850341796875
1761501951832336000,6.4573359375,-0.12127685546875,0.0750274658203125,-0.0139617919921875
1761501951842392000,6.46739208984375,-0.211639404296875,-0.04351806640625,0.050384521484375
1761501951852448000,6.477447998046875,-0.2501068115234375,-0.15887451171875,0.0955963134765625
1761501951862504000,6.48750390625,-0.1836395263671875,-0.223785400390625,0.0934906005859375
1761501951872561000,6.497560791015625,-0.0466156005859375,-0.2158050537109375,0.0681304931640625
1761501951882617000,6.5076171875,0.070770263671875,-0.134124755859375,0.0616912841796875
1761501951892673000,6.517673095703125,0.1464385986328125,-0.0385284423828125,0.0799102783203125
1761501951902728700,6.527728759765625,0.191375732421875,-0.041107177734375,0.0588226318359375
1761501951912785000,6.537784912109375,0.30810546875,0.0393524169921875,-0.06488037109375
1761501951922841900,6.547841796875,0.409881591796875,0.074951171875,-0.252716064453125
1761501951932897800,6.557897705078125,0.3924713134765625,-0.1213226318359375,-0.2683258056640625
1761501951942953700,6.56795361328125,0.2567291259765625,-0.321075439453125,-0.20794677734375
1761501951953010000,6.578010009765625,0.0969696044921875,-0.43365478515625,-0.2667999267578125
1761501951963067000,6.58806689453125,0.0041351318359375,-0.33428955078125,-0.3607940673828125
1761501951973122800,6.598122802734375,-0.0485687255859375,-0.2425537109375,-0.382781982421875
1761501951983179000,6.608178955078125,-0.0796661376953125,-0.311676025390625,-0.3119354248046875
1761501951993235200,6.618235107421875,0.0242156982421875,-0.524169921875,-0.1805267333984375
1761501952003292200,6.628292236328125,0.0594024658203125,-0.8484649658203125,-0.0282135009765625
1761501952013348000,6.63834814453125,0.0855560302734375,-1.251007080078125,0.1005859375
1761501952023404000,6.648404052734375,-0.0207977294921875,-1.5944061279296875,0.180908203125
1761501952033460200,6.658460205078125,-0.2251434326171875,-1.939727783203125,0.25091552734375
1761501952043516200,6.66851611328125,-0.1941680908203125,-2.3267822265625,0.2378997802734375
1761501952053573000,6.678572998046875,-0.2204437255859375,-2.5138702392578125,0.03851318359375
1761501952063629000,6.688629150390625,-0.5332794189453125,-2.72039794921875,-0.1366119384765625
1761501952073685200,6.698685302734375,-0.5618438720703125,-2.97296142578125,-0.2242431640625
1761501952083741200,6.7087412109375,-0.52520751953125,-3.1902618408203125,-0.155914306640625
1761501952093798100,6.718798095703125,-0.5424041748046875,-3.3116302490234375,-0.0163116455078125
1761501952103854000,6.72885400390625,-0.540374755859375,-3.3232421875,0.0825042724609375
1761501952113910000,6.738909912109375,-0.5284881591796875,-3.1470947265625,0.0774383544921875
1761501952123966000,6.748966064453125,-0.4762420654296875,-2.9342803955078125,-0.0011138916015625
1761501952134022000,6.75902197265625,-0.461273193359375,-2.83306884765625,-0.1090240478515625
1761501952144078800,6.769078857421875,-0.3803558349609375,-2.8610076904296875,-0.1969146728515625
1761501952154135000,6.779135009765625,-0.223052978515625,-2.890106201171875,-0.279632568359375
1761501952164191000,6.78919091796875,-0.07977294921875,-2.7677001953125,-0.3422698974609375
1761501952174247000,6.799246826171875,0.0152130126953125,-2.5183563232421875,-0.3302764892578125
1761501952184303900,6.809303955078125,0.055877685546875,-2.1587371826171875,-0.264678955078125
1761501952194360000,6.819360107421875,0.0814971923828125,-1.70184326171875,-0.213409423828125
1761501952204416000,6.829416015625,0.135009765625,-1.223846435546875,-0.1550750732421875
1761501952214472000,6.839471923828125,0.120269775390625,-0.7548065185546875,-0.04107666015625
1761501952224528100,6.849528076171875,0.2556304931640625,-0.5130767822265625,0.033203125
1761501952234585000,6.859585205078125,0.78936767578125,-0.428436279296875,-0.011260986328125
1761501952244641000,6.86964111328125,0.7619476318359375,-0.376068115234375,-0.1071014404296875
1761501952254697000,6.879697021484375,0.72894287109375,-0.3104248046875,-0.073822021484375
1761501952264753200,6.889753173828125,0.747528076171875,-0.23944091796875,0.0671844482421875
1761501952274810000,6.89981005859375,0.52777099609375,-0.30316162109375,0.212432861328125
1761501952284866000,6.909865966796875,-0.0750885009765625,-0.2591705322265625,0.2980194091796875
1761501952294922200,6.919922119140625,-0.3324127197265625,0.084747314453125,0.1558990478515625
1761501952304978200,6.929978271484375,-0.2087860107421875,0.4183807373046875,-0.065582275390625
1761501952315035100,6.94003515625,-0.24542236328125,0.537353515625,-0.1975555419921875
1761501952325091000,6.950091064453125,-0.224365234375,0.53216552734375,-0.249298095703125
1761501952335147300,6.960147216796875,-0.0878448486328125,0.54296875,-0.2294769287109375
1761501952345203200,6.970203125,-0.0749969482421875,0.5372467041015625,-0.1559600830078125
1761501952355259100,6.980259033203125,-0.1454620361328125,0.50067138671875,-0.021331787109375
1761501952365316000,6.990316162109375,-0.182464599609375,0.3710479736328125,0.075469970703125
1761501952375372300,7.000372314453125,-0.1446380615234375,0.277862548828125,0.136627197265625
1761501952385428200,7.01042822265625,-0.181121826171875,0.2572174072265625,0.164703369140625
1761501952395484000,7.02048388671875,-0.27557373046875,0.2425384521484375,0.1418304443359375
1761501952405541000,7.030541015625,-0.2865142822265625,0.2000274658203125,0.0559234619140625
1761501952415597000,7.04059716796875,-0.255340576171875,0.1942901611328125,-0.007171630859375
1761501952425653000,7.050653076171875,-0.17889404296875,0.1833648681640625,-0.0531768798828125
1761501952435709000,7.060708984375,-0.0872039794921875,0.1412506103515625,-0.075714111328125
1761501952445766000,7.070765869140625,-0.108428955078125,0.103851318359375,-0.08514404296875
1761501952455822000,7.080822021484375,-0.1531524658203125,-0.0362701416015625,-0.0428924560546875
1761501952465878000,7.0908779296875,-0.185821533203125,-0.1905975341796875,0.002838134765625
1761501952475934000,7.100933837890625,-0.233642578125,-0.3485260009765625,0.041778564453125
1761501952485990100,7.110990234375,-0.14703369140625,-0.501373291015625,0.0391693115234375
1761501952496047000,7.121047119140625,0.0348052978515625,-0.539215087890625,-0.0188751220703125
1761501952506103000,7.13110302734375,0.190521240234375,-0.51416015625,-0.0808258056640625
1761501952516159000,7.141158935546875,0.2872314453125,-0.51922607421875,-0.1004486083984375
1761501952526215200,7.151215087890625,0.326904296875,-0.561767578125,-0.08575439453125
1761501952536272100,7.161272216796875,0.2884521484375,-0.62890625,-0.0549774169921875
1761501952546328000,7.171328125,0.209259033203125,-0.8516998291015625,0.0501251220703125
1761501952556384000,7.181384033203125,0.0900115966796875,-1.36236572265625,0.238250732421875
1761501952566440200,7.191440185546875,-0.12060546875,-2.14337158203125,0.4728240966796875
1761501952576496000,7.20149609375,-0.2304840087890625,-2.7735137939453125,0.5928802490234375
1761501952586553000,7.211552978515625,-0.154937744140625,-3.1501617431640625,0.4874725341796875
1761501952596609000,7.221609130859375,-0.2922821044921875,-3.167938232421875,0.134124755859375
1761501952606665200,7.231665283203125,-0.024078369140625,-3.1246795654296875,-0.186431884765625
1761501952616721200,7.24172119140625,-0.3550262451171875,-3.0777587890625,-0.3326416015625
1761501952626778000,7.251778076171875,-0.6502685546875,-2.9600067138671875,-0.3671722412109375
1761501952636834000,7.261833984375,-0.8765106201171875,-3.0777587890625,-0.2671966552734375
1761501952646890200,7.27189013671875,-1.17431640625,-3.3498992919921875,-0.0448150634765625
1761501952656946200,7.2819462890625,-1.146240234375,-3.495574951171875,0.0172882080078125
1761501952667003100,7.292003173828125,-1.0472259521484375,-3.3394775390625,-0.0927734375
1761501952677059000,7.30205908203125,-1.0471343994140625,-2.9924774169921875,-0.2129974365234375
1761501952687115000,7.312114990234375,-1.00701904296875,-2.67498779296875,-0.271759033203125
1761501952697171000,7.3221708984375,-0.8217926025390625,-2.4241180419921875,-0.308135986328125
1761501952707227000,7.332226806640625,-0.6044464111328125,-2.207916259765625,-0.288726806640625
1761501952717283800,7.342283935546875,-0.469573974609375,-2.011505126953125,-0.204620361328125
1761501952727340000,7.352340087890625,-0.349456787109375,-1.6894378662109375,-0.161346435546875
1761501952737396000,7.36239599609375,-0.2642974853515625,-1.2943878173828125,-0.1262664794921875
1761501952747452000,7.372451904296875,-0.1371917724609375,-0.9901885986328125,-0.081268310546875
1761501952757509000,7.382509033203125,0.03662109375,-0.6925201416015625,-0.10308837890625
1761501952767565000,7.39256494140625,0.1605682373046875,-0.4082183837890625,-0.1048736572265625
1761501952777621000,7.40262109375,0.1541290283203125,-0.21392822265625,-0.0050506591796875
1761501952787677000,7.412677001953125,0.1251220703125,-0.1400299072265625,0.05609130859375
1761501952797734100,7.422734130859375,0.2300567626953125,-0.0081634521484375,0.009765625
1761501952807790000,7.4327900390625,0.178497314453125,0.108245849609375,0.0108642578125
1761501952817846000,7.442845947265625,0.2651824951171875,0.161102294921875,0.00262451171875
1761501952827902000,7.45290185546875,0.30084228515625,0.25433349609375,-0.0053558349609375
1761501952837958100,7.462958251953125,0.1931915283203125,0.3605499267578125,-0.003631591796875
1761501952848015000,7.47301513671875,0.146881103515625,0.467987060546875,-0.0209503173828125
1761501952858071000,7.483071044921875,0.1524658203125,0.5805511474609375,-0.0379638671875
1761501952868127200,7.493127197265625,0.1593780517578125,0.630950927734375,-0.035400390625
1761501952878183200,7.50318310546875,0.2089385986328125,0.5975494384765625,-0.0047149658203125
1761501952888240000,7.513240234375,0.2646026611328125,0.4690093994140625,0.032470703125
1761501952898296000,7.523296142578125,0.25408935546875,0.296661376953125,0.0812225341796875
1761501952908352300,7.533352294921875,0.1959686279296875,0.1161651611328125,0.11053466796875
1761501952918408200,7.543408203125,0.07427978515625,-0.0710601806640625,0.097381591796875
1761501952928465200,7.553465087890625,-0.0235443115234375,-0.2014007568359375,0.06280517578125
1761501952938521000,7.56352099609375,-0.061309814453125,-0.2423095703125,0.02618408203125
1761501952948577300,7.573577392578125,-0.10736083984375,-0.25042724609375,0.00921630859375
1761501952958633200,7.58363330078125,-0.2240753173828125,-0.1886444091796875,-0.01019287109375
1761501952968689000,7.59368896484375,-0.276947021484375,-0.0901031494140625,-0.1108245849609375
1761501952978746000,7.60374609375,-0.19683837890625,-0.1243438720703125,-0.261810302734375
1761501952988802300,7.61380224609375,-0.1842803955078125,-0.29302978515625,-0.365234375
1761501952998858200,7.623858154296875,0.126556396484375,-0.4354400634765625,-0.2909088134765625
1761501953008914200,7.6339140625,-0.1204681396484375,-0.4115753173828125,-0.211639404296875
1761501953018971100,7.64397119140625,-0.3642425537109375,-0.426727294921875,-0.1632232666015625
1761501953029027300,7.65402734375,-0.1546630859375,-0.4529266357421875,-0.04254150390625
1761501953039083300,7.664083251953125,-0.2237548828125,-0.4710845947265625,-0.0047149658203125
1761501953049139200,7.67413916015625,-0.01922607421875,-0.5679168701171875,0.06500244140625
1761501953059195100,7.684195068359375,-0.021484375,-0.796142578125,0.077911376953125
1761501953069252400,7.69425244140625,-0.1033782958984375,-0.9130706787109375,0.0516357421875
1761501953079308300,7.704308349609375,-0.049896240234375,-0.979583740234375,-0.01800537109375
1761501953089364000,7.714364013671875,-0.307403564453125,-1.1623687744140625,-0.194732666015625
1761501953099420200,7.724420166015625,-0.287139892578125,-1.2918548583984375,-0.3042144775390625
1761501953109477000,7.73447705078125,-0.0775146484375,-1.3797607421875,-0.35064697265625
1761501953119533000,7.744532958984375,-0.101593017578125,-1.421539306640625,-0.328704833984375
1761501953129589000,7.754589111328125,-0.382781982421875,-1.5184326171875,-0.24871826171875
1761501953139645200,7.764645263671875,-0.78125,-1.91278076171875,-0.18438720703125
1761501953149702100,7.7747021484375,-1.18145751953125,-2.3172760009765625,-0.1853485107421875
1761501953159758000,7.784758056640625,-1.797332763671875,-2.4362030029296875,-0.1827392578125
1761501953169814000,7.79481396484375,-1.9705047607421875,-2.2906646728515625,-0.2480010986328125
1761501953179870200,7.8048701171875,-1.7366943359375,-1.9745941162109375,-0.38677978515625
1761501953189926100,7.814926025390625,-1.3853759765625,-1.612152099609375,-0.4061431884765625
1761501953199983000,7.824983154296875,-1.205902099609375,-1.394927978515625,-0.2919769287109375
1761501953210039000,7.8350390625,-1.0845794677734375,-1.2569427490234375,-0.1631622314453125
1761501953220095200,7.84509521484375,-0.9202880859375,-1.1966705322265625,-0.0648040771484375
1761501953230151200,7.855151123046875,-0.7342071533203125,-1.1953582763671875,0.0013580322265625
1761501953240208100,7.8652080078125,-0.61688232421875,-1.22515869140625,0.022796630859375
1761501953250264000,7.87526416015625,-0.5939788818359375,-1.2352447509765625,-0.0194244384765625
1761501953260320300,7.8853203125,-0.645233154296875,-1.159210205078125,-0.0800628662109375
1761501953270376200,7.895376220703125,-0.6717987060546875,-1.0216522216796875,-0.1185302734375
1761501953280433200,7.90543310546875,-0.635162353515625,-0.8577880859375,-0.1165008544921875
1761501953290489000,7.915489013671875,-0.5403594970703125,-0.752960205078125,-0.107940673828125
1761501953300545300,7.925545166015625,-0.4297027587890625,-0.7201385498046875,-0.11187744140625
1761501953310601200,7.935601318359375,-0.363006591796875,-0.7152252197265625,-0.10302734375
1761501953320657200,7.9456572265625,-0.3255157470703125,-0.7014312744140625,-0.0629119873046875
1761501953330714000,7.955714111328125,-0.342742919921875,-0.663848876953125,-0.0345916748046875
1761501953340770300,7.965770263671875,-0.3993988037109375,-0.6408233642578125,-0.044891357421875
1761501953350826200,7.975826171875,-0.419952392578125,-0.646759033203125,-0.09564208984375
1761501953360882000,7.9858818359375,-0.4107666015625,-0.648223876953125,-0.1605377197265625
1761501953370939100,7.995939208984375,-0.3817596435546875,-0.6431732177734375,-0.22735595703125
1761501953380995000,8.0059951171875,-0.3903350830078125,-0.6481781005859375,-0.2493896484375
1761501953391051000,8.016051025390626,-0.462615966796875,-0.6553497314453125,-0.20703125
1761501953401107200,8.026107177734374,-0.5135955810546875,-0.641876220703125,-0.15155029296875
1761501953411164200,8.0361640625,-0.5404205322265625,-0.59796142578125,-0.1029815673828125
1761501953421220000,8.04622021484375,-0.6134033203125,-0.5651702880859375,-0.081451416015625
1761501953431276000,8.056276123046874,-0.62994384765625,-0.5625152587890625,-0.05145263671875
1761501953441332200,8.066332275390625,-0.6117095947265625,-0.602325439453125,-0.0260772705078125
1761501953451388200,8.07638818359375,-0.6287689208984375,-0.645721435546875,-0.008392333984375
1761501953461445000,8.086445068359374,-0.64569091796875,-0.67559814453125,0.0050201416015625
1761501953471501000,8.0965009765625,-0.6784820556640625,-0.6941375732421875,0.0161590576171875
1761501953481557200,8.10655712890625,-0.67669677734375,-0.6959381103515625,0.013824462890625
1761501953491613200,8.11661328125,-0.6749725341796875,-0.67437744140625,0.008056640625
1761501953501670100,8.126670166015625,-0.6913604736328125,-0.6345062255859375,-0.00079345703125
1761501953511726000,8.13672607421875,-0.681854248046875,-0.574188232421875,-0.0040130615234375
1761501953521782300,8.1467822265625,-0.6821136474609375,-0.5309295654296875,0.0150604248046875
1761501953531838200,8.156838134765625,-0.7089691162109375,-0.54473876953125,0.037078857421875
1761501953541895200,8.166895263671876,-0.7242584228515625,-0.5796966552734375,0.0496978759765625
1761501953551951000,8.176951171875,-0.7256927490234375,-0.6038818359375,0.0539093017578125
1761501953562007300,8.18700732421875,-0.7763824462890625,-0.6363067626953125,0.0510101318359375
1761501953572063200,8.197063232421876,-0.7857208251953125,-0.659637451171875,0.0423126220703125
1761501953582119200,8.207119140625,-0.78436279296875,-0.6560821533203125,0.0277252197265625
1761501953592176000,8.217176025390625,-0.7899627685546875,-0.651153564453125,0.0197601318359375
1761501953602232300,8.227232421875,-0.7840728759765625,-0.66009521484375,0.0186614990234375
1761501953612288300,8.237288330078124,-0.7874603271484375,-0.6799163818359375,-0.001495361328125
1761501953622344200,8.24734423828125,-0.761627197265625,-0.6847381591796875,-0.02508544921875
1761501953632401200,8.257401123046876,-0.775726318359375,-0.667236328125,-0.0243377685546875
1761501953642457300,8.267457275390624,-0.8160552978515625,-0.6689300537109375,-0.0233612060546875
1761501953652513300,8.27751318359375,-0.8657379150390625,-0.6556396484375,-0.0134124755859375
1761501953662569000,8.28756884765625,-0.880157470703125,-0.630096435546875,-0.0006256103515625
1761501953672626200,8.297626220703124,-0.89886474609375,-0.5928192138671875,0.0189971923828125
1761501953682682000,8.30768212890625,-0.9627685546875,-0.5425872802734375,0.0542449951171875
