time,seconds_elapsed,z,y,x
1761501945494416000,0.119415771484375,0.18990765482783317,-0.05448854603469371,-0.0027949644807726145
1761501945504472000,0.12947216796875,0.07923369571268558,-0.005548866298794746,-0.015135975137725471
1761501945514527700,0.13952783203125,-0.01527618732601404,0.014726444488763809,-0.018599349532509222
1761501945524585000,0.1495849609375,0.010715601412206888,0.12060381697714329,-0.07259030304229817
1761501945534641000,0.159640869140625,0.06162906543910503,0.20052666399776933,-0.09644684245064854
1761501945544696800,0.16969677734375,0.031778263185173274,0.1905810240447521,-0.0963617123173084
1761501945554752800,0.179752685546875,-0.0057172086030244824,0.18386486753225326,-0.10760872632563113
1761501945564809000,0.18980908203125,0.005109890359640121,0.1962497173309326,-0.1516262933589518
1761501945574865000,0.199864990234375,-0.08809139429852365,0.11431845309734344,-0.14375255517601035
1761501945584921900,0.209921875,-0.0996849475890398,0.03628653438985348,-0.19138583762161432
1761501945594977800,0.219977783203125,-0.056028030561655756,0.10737725565731525,-0.31388562441319223
1761501945605034000,0.230033935546875,-0.011849720008671284,0.19873744249343872,-0.35541575854495167
1761501945615090000,0.24008984375,0.04144786267578601,0.20426818861365317,-0.30339535618945956
1761501945625145900,0.250145751953125,0.07070376777648925,0.14934826542437077,-0.22219152944758533
1761501945635202000,0.2602021484375,0.05243249028772115,0.06922960357069968,-0.15871289061903954
1761501945645259000,0.270259033203125,-0.025749358284473417,0.06773556562066078,-0.09598448563590645
1761501945655315000,0.28031494140625,-0.09283025938868522,0.11834756248295307,-0.0978203958261758
1761501945665371000,0.290370849609375,-0.10092004234194756,0.06993745957911014,-0.11613595084808766
1761501945675427000,0.300427001953125,-0.09367723160684108,-0.020351883155107497,-0.06615063451677561
1761501945685483000,0.31048291015625,0.03221358586251735,0.03124970926642418,-0.06964125311151147
1761501945695539000,0.3205390625,0.12536547842100262,0.0936976898729801,-0.12014188942066394
1761501945705596000,0.330595947265625,0.20390958443433044,0.057438628011941904,-0.1192454703039024
1761501945715652000,0.340652099609375,0.2063901492036879,0.02041618056297302,-0.10159142966433428
1761501945725708000,0.3507080078125,0.15378303300142288,0.008613514566421508,-0.12239800691753625
1761501945735763700,0.360763671875,0.13866495884656904,-0.008750292688608169,-0.14473441495336592
1761501945745820000,0.37081982421875,0.08668956467658281,-0.08549158706367016,-0.15937924557328223
1761501945755877000,0.380877197265625,-0.012903905236721039,-0.15518705458045004,-0.20532836519107223
1761501945765932800,0.390932861328125,-0.056364861300587654,-0.12422960625886917,-0.26449389006085694
1761501945775988700,0.40098876953125,-0.028536650915443895,-0.054387423747777934,-0.3501942245043814
1761501945786045000,0.411044921875,0.05141337637305259,-0.010581599768996239,-0.39393151329159737
1761501945796100900,0.421100830078125,0.24759996533989906,-0.0633469752728939,-0.37956221167743204
1761501945806156800,0.43115673828125,0.3895224646776914,-0.09143325207233428,-0.3371007149796933
1761501945816213800,0.4412138671875,0.32995062402933834,0.023619945040345192,-0.23692491513378916
1761501945826270000,0.45127001953125,0.1935430887207389,0.09782792154550551,-0.07977481685206293
1761501945836326000,0.461325927734375,0.07953837774768471,-0.05194646033644676,0.05271847218882758
1761501945846381800,0.4713818359375,-0.014219371749460696,-0.23893910450041292,0.18932824750468133
1761501945856438000,0.48143798828125,-0.14912892358526586,-0.32263270223140716,0.24717531018704175
1761501945866494000,0.491493896484375,-0.31960634014755485,-0.2573456988066435,0.21110709472298622
1761501945876551000,0.501551025390625,-0.4734957561329007,-0.06540390780270099,0.18174436824694276
1761501945886606800,0.51160693359375,-0.5391802344426513,0.016291209587454794,0.08640965175665914
1761501945896663000,0.5216630859375,-0.2899541292056441,0.1346855338215828,-0.05630845037165563
1761501945906719000,0.531718994140625,-0.03514671670496464,0.2820715592622757,-0.1284483929976821
1761501945916775000,0.54177490234375,0.0011813187390565872,0.29102818817794324,-0.12873765826784073
1761501945926831000,0.5518310546875,0.02002542767971754,0.17418518503904343,-0.04423259345691185
1761501945936888000,0.56188818359375,0.05538637165725231,0.11637421658337116,-0.007842310998216272
1761501945946944000,0.571944091796875,0.09586275895237922,0.16106091504991055,0.008656038533896208
1761501945957000000,0.582,0.15859510945826769,0.21912615052759646,0.03351816337177297
1761501945967056000,0.592055908203125,0.24692338125258684,0.23252046962976455,0.05815371747873723
1761501945977111300,0.602111328125,0.24911241572946308,0.17858721939027308,0.0535797606267035
1761501945987167200,0.612167236328125,0.04944543730095029,0.08249240524768829,0.06344049877524376
1761501945997224400,0.622224365234375,-0.1984808373838663,-0.020691490373015403,0.0881355987664312
1761501946007280400,0.6322802734375,-0.2953188711091876,0.019043138644099233,0.06280307308796328
1761501946017336300,0.64233642578125,-0.2893931343220174,0.08442074296176433,-0.012078628827142529
1761501946027392500,0.652392578125,-0.18903730173408984,0.11145546488165854,-0.08148352046608924
1761501946037448200,0.6624482421875,-0.02671820331662893,0.17073709041178226,-0.13042027759253977
1761501946047505400,0.67250537109375,0.10829553954601287,0.22579379172325134,-0.1358921331323683
1761501946057561300,0.682561279296875,0.2213299441821873,0.16433832928538322,-0.10319354023188353
1761501946067617300,0.6926171875,0.3300542305342853,0.08321253621578216,-0.09022693588933907
1761501946077673200,0.702673095703125,0.25249489777460693,0.01445055015683174,-0.0777499599609524
1761501946087729200,0.712729248046875,-0.05594985075891017,-0.043835634595155715,0.05026420633792877
1761501946097785300,0.722785400390625,-0.21525661561787127,-0.08997370091378688,0.0981193787727505
1761501946107842300,0.73284228515625,-0.08964227700233458,-0.039537645140290255,0.014103198023885488
1761501946117898200,0.742898193359375,0.08401976094543934,0.06058861647546291,-0.033459055878967046
1761501946127954200,0.7529541015625,0.15552432371079922,0.027538579788804054,-0.04101677778214216
1761501946138010400,0.76301025390625,0.09514613511562346,-0.023926819032430647,-0.02930580865703523
1761501946148066300,0.77306640625,0.10489537571370601,-0.03314706732034683,-0.01137983747459948
1761501946158123300,0.783123291015625,0.1865507456153631,-0.006132803666591644,-0.039894788014888764
1761501946168179200,0.79317919921875,0.27520167349278923,0.001301145726442337,-0.055828051010146734
1761501946178235400,0.8032353515625,0.26094576912522316,-0.030226795959472655,-0.0020573709212243557
1761501946188291300,0.813291259765625,0.13877382604852317,-0.1311076753348112,0.07898761199712753
1761501946198347300,0.82334716796875,-0.028481413596868514,-0.18291560398340223,0.10024068177565931
1761501946208403500,0.833403564453125,-0.12654533585533498,-0.1487842018008232,0.025699240099010055
1761501946218460400,0.84346044921875,-0.1483326586410403,-0.08474164547920227,-0.06074635518728755
1761501946228516400,0.853516357421875,-0.09078545568808913,0.023695932886004446,-0.1602195688549429
1761501946238572300,0.863572265625,0.01609539475440979,0.054261167019605636,-0.24904892203919587
1761501946248628500,0.87362841796875,0.08646101661771535,0.08863748387396335,-0.2600583918314427
1761501946258684400,0.883684326171875,0.129399702373147,0.11635784997045993,-0.18803886528126895
1761501946268740000,0.893739990234375,0.10415478647947311,0.04438625421524048,-0.09671820673793553
1761501946278797300,0.90379736328125,0.08187690369784832,-0.03148877871930599,0.004738426698744296
1761501946288853200,0.913853271484375,0.08901099336147308,0.000301028773188591,0.029197379846498367
1761501946298909200,0.9239091796875,0.07281403792873024,0.05591302587985992,0.045130720473569814
1761501946308965000,0.933965087890625,-0.003134060242027044,0.09996727166175842,0.059200746880215586
1761501946319021300,0.944021240234375,-0.03801175074726343,0.07577507969141006,0.009891494046407752
1761501946329077200,0.9540771484375,-0.03626315351426601,0.046692777591943735,-0.017499489398673174
1761501946339134200,0.96413427734375,-0.04962473939061165,0.07841127341389656,-0.020367519115656613
1761501946349190100,0.974190185546875,0.01945376527160406,0.02850596351623535,-0.03999160401944536
1761501946359246300,0.984246337890625,0.05010419347062706,-0.030472879675030706,-0.010483980046841316
1761501946369302300,0.99430224609375,-0.0031470658540725706,-0.008238836035132409,-0.054115913330018514
1761501946379358200,1.004358154296875,0.14541165662780403,0.01082242278754711,-0.11597864139452575
1761501946389415200,1.014415283203125,0.26647973011583087,0.06003975042104721,-0.15725136669911444
1761501946399471400,1.024471435546875,0.41186756747663017,0.10389175162911414,-0.01609466410204768
1761501946409527300,1.03452734375,0.09790390939116478,-0.012023615270853041,0.26751447999104855
1761501946419583200,1.044583251953125,0.11608195563852787,-0.08743921400010585,0.28654775482825934
1761501946429639400,1.054639404296875,0.08831599683463573,-0.0281377147257328,0.21926102895364163
1761501946439695400,1.0646953125,0.09600552842393517,0.02167056453824043,0.16619031382761895
1761501946449752300,1.07475244140625,0.07849909782782197,0.008729249900579453,0.06838285511482972
1761501946459808300,1.084808349609375,0.07922522014528513,0.014357611176371573,-0.012675133415567688
1761501946469864400,1.094864501953125,0.11001169581413268,0.07402794376313686,0.009899170462787151
1761501946479920400,1.10492041015625,0.09425298566818237,0.06604629735946654,0.0844009422827512
1761501946489976000,1.11497607421875,0.20546222070381043,0.08865911118388176,0.0797399008023087
1761501946500033300,1.125033203125,0.3320937735378742,0.0988748002499342,-0.08992029022611678
1761501946510089500,1.13508935546875,0.2317296115130186,-0.046565351819992065,-0.07858823741599917
1761501946520145200,1.145145263671875,0.14399667526334523,-0.03668108666539192,-0.06184818351592403
1761501946530201000,1.155201171875,0.208039523845911,0.10801321547329425,-0.12661927787438035
1761501946540257300,1.16525732421875,0.256605255702883,0.19374504103362558,-0.1555991425126791
1761501946550313200,1.175313232421875,0.1949596775203943,0.14876082092523574,-0.09093428957425058
1761501946560370200,1.1853701171875,0.08194207788854838,0.0020230302602052687,0.04276091346915346
1761501946570426000,1.195426025390625,0.007975947315245866,-0.1082201362222433,0.08826412051692605
1761501946580482300,1.205482421875,0.005485737934708595,-0.07032616663575172,0.07810483781322837
1761501946590538200,1.215538330078125,0.009308511093258857,-0.03925298298001289,0.07079970243163407
1761501946600594200,1.22559423828125,0.011491408090293406,0.047670682713389395,0.04470225679527502
1761501946610650400,1.235650390625,0.08376929331570863,0.16951777774989604,0.009572500358265824
1761501946620707300,1.245707275390625,0.19700959578752517,0.22023674211800098,-0.03324037162698805
1761501946630763300,1.25576318359375,0.3085546386487782,0.2839659947067499,-0.028733411029982378
1761501946640819200,1.265819091796875,0.3410257064037025,0.2784562913745642,0.017747335813054814
1761501946650875400,1.27587548828125,0.3115776397317648,0.2427051790356636,0.05344181346073747
1761501946660931300,1.285931396484375,0.2663718858271837,0.31032500932216645,0.035291532003134486
1761501946670988300,1.29598828125,0.27829598624631763,0.44988311761617655,0.00948935668603517
1761501946681044200,1.306044189453125,0.29483824798539277,0.5090373173743487,-0.04431829897898715
1761501946691100400,1.316100341796875,0.3348696679919958,0.5741635772794484,-0.05683832403123378
1761501946701156400,1.32615625,0.4060943909026682,0.7344324651688336,-0.032447390051814726
1761501946711212300,1.33621240234375,0.5230161583662033,0.8871195196270942,0.01239990123733878
1761501946721268200,1.346268310546875,0.6942752268254756,0.9584440496504306,0.04946808752417564
1761501946731325400,1.356325439453125,0.7823815264321863,0.8846884930878877,0.11417093438543378
1761501946741381000,1.366381103515625,0.7665712322294712,0.7152309210926294,0.14900705077126622
1761501946751437300,1.376437255859375,0.7063254378423094,0.749333097180724,0.17964878420718014
1761501946761493200,1.3864931640625,0.6863938259258866,0.9953221201926469,0.1626922425787896
1761501946771549200,1.396549072265625,0.7676639959022402,1.2660077775657177,0.080218103640154
1761501946781606100,1.406606201171875,0.944866190674901,1.5098802468150854,0.03934796778708696
1761501946791662300,1.416662353515625,1.0874825174957514,1.7136872476577758,0.008342588670551777
1761501946801718300,1.42671826171875,1.234624797308445,1.8642355365216732,-0.017293445432558653
1761501946811774200,1.436774169921875,1.5052993487656117,2.1126947490394112,-0.049210094175115224
1761501946821830400,1.446830322265625,2.0072925928473473,2.5153975978076457,-0.13931209764368832
1761501946831886300,1.45688623046875,2.3842203643679616,2.8746190322458745,-0.17195815663933753
1761501946841943300,1.466943359375,2.2643758413255215,2.8987609553337097,-0.08768427480235695
1761501946851999200,1.476999267578125,1.6640566630482672,2.5659990732759237,-0.10846563541591167
1761501946862055400,1.487055419921875,0.9097206430137157,2.0725462785243987,-0.23092187532670794
1761501946872111400,1.497111328125,0.25387889947891235,1.6524305226624012,-0.18296156201697886
1761501946882167300,1.507167236328125,0.09751754042208194,1.3718214371681212,-0.0856789263293147
1761501946892224300,1.517224365234375,0.12252309460192919,1.2304518955379724,-0.037911276914319024
1761501946902280400,1.527280517578125,0.12546966944783924,1.0746335573166608,0.01313641708465293
1761501946912336400,1.53733642578125,0.15046061058044433,0.8081891907751559,0.24475809297747908
1761501946922392300,1.547392333984375,-0.15038579177856445,0.3269996652692556,0.36303755866028364
1761501946932448500,1.557448486328125,-0.693595720128715,-0.172656660297513,-0.018231767462287097
1761501946942504200,1.567504150390625,-0.8735817004010081,-0.5066477918893099,-0.5593487238548696
1761501946952561400,1.5775615234375,-1.1311395806536078,-0.7209463761299848,-0.7558776234533637
1761501946962617300,1.587617431640625,-1.3782511779546738,-1.1978484335750341,-0.5722489027645439
1761501946972673300,1.59767333984375,-1.7954259119287133,-2.1333424002707004,-0.06802847501947544
1761501946982729000,1.60772900390625,-2.2554811717301604,-3.829457166358828,0.6755764446396381
1761501946992785000,1.617784912109375,-2.7181208950668574,-5.733797918775677,1.2523634292252361
1761501947002842000,1.627842041015625,-2.8585645540237423,-6.442089980515838,1.0881037181340156
1761501947012898000,1.63789794921875,-2.721321444673836,-6.172540049174428,0.10980652863085269
1761501947022954000,1.6479541015625,-3.5974335403352975,-5.861225444293022,-0.9818396113503723
1761501947033010000,1.658010009765625,-3.2332045068681237,-6.445873590707778,-1.89234694776237
1761501947043066000,1.668066162109375,-2.9953961599633097,-7.859055212268233,-2.4223823372408746
1761501947053122000,1.6781220703125,-4.415456727382541,-9.569025485229492,-1.9899357998549938
1761501947063179000,1.688178955078125,-5.628226835757494,-11.1854833617568,-1.1415806759733707
1761501947073235000,1.69823486328125,-6.107828215289116,-11.379717647612095,-0.176103311886359
1761501947083291100,1.708291015625,-6.205879424196481,-10.55750110052824,0.9004614509548992
1761501947093347000,1.71834716796875,-5.469495240437984,-9.346900737407802,1.5855638488307595
1761501947103403000,1.728403076171875,-4.244738049410283,-7.888032884949445,1.3452861892029642
1761501947113460000,1.7384599609375,-2.775079630607366,-6.225999836683273,0.8612991419330239
1761501947123516200,1.74851611328125,-1.4635963422849774,-4.401113729253411,0.28830000532306727
1761501947133572000,1.758572021484375,0.012720365363359451,-2.3497663061022758,-0.433328580917418
1761501947143628000,1.7686279296875,1.9599419358685612,-0.27905425726771355,-1.012674967662245
1761501947153684200,1.778684326171875,3.3971164274349808,1.8723621443539857,-1.3593945017933844
1761501947163740200,1.788740234375,3.790943311308324,3.6100872702032327,-1.0285280780933796
1761501947173797000,1.798797119140625,4.067343254674971,4.702337148231267,-0.4009672571472823
1761501947183853000,1.80885302734375,3.977827818922698,5.088694426876306,0.68278791038841
1761501947193909200,1.8189091796875,3.0712896053373813,5.146421224179863,1.9873076433084904
1761501947203965200,1.828965087890625,2.6807582558780907,5.177136095917224,2.463666826048493
1761501947214020900,1.839020751953125,2.662507144394517,5.178819518959522,2.106414061334729
1761501947224078000,1.849078125,3.390080245187878,5.030043500465155,1.9000430552229284
1761501947234134000,1.859134033203125,3.729208447407186,5.574470111128687,1.6361264535933733
1761501947244190000,1.86918994140625,3.697767891743779,6.413702674943209,1.170526857537776
1761501947254246000,1.879245849609375,4.160888092073798,7.2826932481616735,0.4674175321977585
1761501947264302000,1.889302001953125,4.147546964463591,8.247006482106446,0.056181321427226066
1761501947274359000,1.899359130859375,3.7160143270522354,9.146354199665785,-0.0791703481528908
1761501947284415000,1.9094150390625,3.4908740308016535,9.874396087014675,-0.05006682060230523
1761501947294471000,1.919470947265625,3.7662253418982026,10.192282471501827,0.24065814684536307
1761501947304527000,1.929527099609375,4.332532944980263,9.987550172507762,0.5747351666223257
1761501947314583000,1.9395830078125,4.687522440937161,9.587060323613882,0.7371196584261953
1761501947324640000,1.949639892578125,4.483414995843172,9.234601807439327,0.5703427038170397
1761501947334696000,1.959696044921875,3.816854289895296,8.903216474431753,0.2328246036754921
1761501947344752000,1.969752197265625,3.1631016275942323,8.393427461907267,-0.010527166168019174
1761501947354808000,1.97980810546875,3.1283263745501637,7.595586062145233,-0.1415486245241016
1761501947364864000,1.989864013671875,3.544116083906591,7.060548626595735,-0.27688790954668074
1761501947374920200,1.999920166015625,4.231433162157237,6.951008639946579,-0.7039905651539564
1761501947384977200,2.00997705078125,4.425585030426085,7.161637011241912,-1.083909992771223
1761501947395033000,2.020033203125,4.004584308423102,7.373845929726958,-0.9911172889139502
1761501947405089000,2.030089111328125,3.70942150465846,7.249179685616493,-0.6897318112421781
1761501947415145200,2.040145263671875,2.9139696303814646,6.798541365718841,-0.7616236928246914
1761501947425201200,2.050201171875,1.0660627128481863,5.808166054278612,-0.5637012930411845
1761501947435258000,2.060258056640625,-1.186924157848209,2.2836410982877013,0.36073220432735975
1761501947445314000,2.07031396484375,-1.9460577874228357,-5.676216082900762,1.1831374058511108
1761501947455370200,2.080370361328125,-1.0701023436278103,-14.310007713675498,1.708134874227643
1761501947465426000,2.090426025390625,1.122280274632573,-18.094301796227693,2.7245398221984503
1761501947475482000,2.100482177734375,0.04664908458068966,-18.648149146187304,3.285110927455127
1761501947485538000,2.1105380859375,-1.7063509134203194,-17.263456537008285,2.559048815746605
1761501947495595000,2.120594970703125,-3.5707822647750374,-17.436842096102236,2.747065542261302
1761501947505651000,2.13065087890625,-5.590172122651338,-18.65634881925583,2.030660901214182
1761501947515707100,2.14070703125,-8.610552209484577,-20.994069298255443,0.8241805406332016
1761501947525763000,2.15076318359375,-10.854175185638665,-22.670919976425168,-0.37179208913259204
1761501947535819000,2.160819091796875,-10.556070190942286,-23.653342283034323,-0.46795514620579776
1761501947545876000,2.1708759765625,-8.425880701744555,-22.806218089187144,-0.06971112174363807
1761501947555932200,2.18093212890625,-5.225972315278649,-20.36685159165859,0.012516358090704307
1761501947565988000,2.190988037109375,-2.1235385068759323,-17.594906167423723,-0.4321978233218193
1761501947576044000,2.2010439453125,-0.5649585265606641,-13.900346716332434,-0.9682410018477589
1761501947586100200,2.211100341796875,-0.04133563447296619,-9.459952531570195,-1.4062842632621526
1761501947596157200,2.2211572265625,0.6859757466442883,-5.248247275450826,-2.2855350953407583
1761501947606213000,2.231213134765625,1.2026469198979437,-1.1754863796412944,-3.3475022094383835
1761501947616269000,2.24126904296875,0.9276125657960772,2.160059142282605,-3.800727623219788
1761501947626325200,2.2513251953125,1.142352317932993,4.097397908937931,-2.9600185571119186
1761501947636381200,2.261381103515625,1.4041937207236885,5.748217489272355,-0.6791152132250369
1761501947646437000,2.27143701171875,1.2058721655547617,6.49059477596581,1.2604415217407048
1761501947656494000,2.281494140625,0.8369280862644314,7.214805122327804,2.456889879259467
1761501947666550300,2.29155029296875,1.1812062185928225,8.885573850235343,3.084324443477392
1761501947676606200,2.301606201171875,2.8239199416220186,10.405216781651973,2.9179487631455063
1761501947686662000,2.311661865234375,5.264685200032591,10.734552780914306,1.9643508383519945
1761501947696718000,2.321718017578125,6.3882993536174295,10.487456673443317,0.38504137374088165
1761501947706775300,2.331775390625,6.2163628242880105,10.824106210589408,-0.9526004381887614
1761501947716831000,2.3418310546875,5.441083969467878,10.563699370646477,-1.933314187314361
1761501947726887000,2.351886962890625,4.501765476047993,9.971341380506754,-2.5999478123679753
1761501947736943000,2.361943115234375,3.5397783469632267,9.439024894353746,-2.3635439254336057
1761501947746999000,2.3719990234375,3.3967253822907804,8.771502649897336,-1.9358029353901742
1761501947757056000,2.382055908203125,3.625560441406071,8.409134149605036,-1.5358762733370064
1761501947767112000,2.39211181640625,4.2174049290657045,8.79699072689712,-1.1474882195167242
1761501947777168100,2.402168212890625,4.361467363041639,9.674715810713172,-1.4521103410221636
1761501947787224000,2.41222412109375,3.8551995103806256,10.618846672850847,-1.6176842034518717
1761501947797280000,2.422280029296875,3.295779036463797,10.857443832045792,-0.8606494458526373
1761501947807337000,2.4323369140625,2.4718305510208007,10.627844802820682,0.25601180158806963
1761501947817393200,2.44239306640625,1.9576549939751624,11.004591372555494,1.2203186240583657
1761501947827449000,2.452448974609375,1.4538684367358683,11.244449929988384,1.8070006143882869
1761501947837505000,2.462505126953125,0.8726200157620012,10.963638599920273,2.21198558274433
1761501947847561200,2.472561279296875,0.4635207439549267,10.512578255218267,2.5732357465311884
1761501947857617200,2.4826171875,0.2598646958902478,10.13311950391531,2.447924774776399
1761501947867674000,2.492674072265625,0.44960313163101673,9.849497792601586,1.587153748370707
1761501947877730000,2.50272998046875,0.9773844585724174,9.93536873437166,0.19738577215615657
1761501947887786200,2.5127861328125,0.9609880350448191,10.222032297599315,-0.8577654148489237
1761501947897842200,2.52284228515625,0.12243190918713807,9.753190212491154,-1.1299437949977815
1761501947907898000,2.532898193359375,-0.46824178112745285,8.74652252241969,-0.22162768501974642
1761501947917955000,2.542955078125,-0.5518091221302748,7.015373267829418,1.059480192652717
1761501947928011300,2.55301123046875,-0.6471294447690248,5.061939690941572,2.489779172426462
1761501947938067000,2.56306689453125,-0.13810893239900468,2.9297885462820528,3.6185485168173908
1761501947948123000,2.573122802734375,1.026301780346036,0.10211012890934944,3.149972096908092
1761501947958179000,2.583178955078125,2.480201196742058,-3.0127427238225937,1.7450952162258326
1761501947968236000,2.593236083984375,3.3520711247891186,-6.962545933005213,0.11185147846192121
1761501947978297600,2.603297607421875,1.9180612347334622,-11.963829202932118,-0.9720338913246989
1761501947988353500,2.613353515625,-1.6992504337653516,-16.17279597399831,-1.3668831039831042
1761501947998409500,2.623409423828125,-4.555077379518747,-19.849367348456383,-1.8457883179441092
1761501948008465400,2.63346533203125,-5.33000084502995,-21.247627879738808,-2.5598037257671353
1761501948018522600,2.643522705078125,-4.9792812814772125,-22.386968594765662,-2.9129949401304125
1761501948028578600,2.65357861328125,-6.633326253598928,-23.36589779856205,-2.0688059229522944
1761501948038634500,2.663634521484375,-6.645435209065675,-23.92220598567724,-1.0936359986241906
1761501948048690400,2.6736904296875,-4.418817728248238,-23.363232378745078,-0.7663939759664237
1761501948058746600,2.68374658203125,-4.154861671391129,-22.195689651584622,-0.9299020649727433
1761501948068803600,2.693803466796875,-4.646369177293777,-20.87648687492609,-1.7245847815081476
1761501948078859500,2.703859619140625,-4.921168699726462,-17.60218931016922,-3.1652389318838714
1761501948088915700,2.713915771484375,-5.880788807418942,-11.729635831654072,-5.1314989648580545
1761501948098971600,2.7239716796875,-3.4664117897182702,-11.59753739171624,-3.0664404117405413
1761501948109027600,2.734027587890625,-3.876662569648027,-8.116592634254694,0.3725245681256056
1761501948119083500,2.74408349609375,0.4520116540774703,-4.947720022043585,2.5828677904903885
1761501948129140700,2.754140625,0.39969957529902456,-1.9557430228739976,3.1148905543938277
1761501948139196700,2.76419677734375,0.7941559892475605,1.816618629822135,2.7906159301742908
1761501948149252600,2.774252685546875,1.3828227236539126,4.2769554346650835,2.583625038598478
1761501948159308500,2.78430859375,0.09614230654612183,6.331375104868411,2.217186512388289
1761501948169364500,2.794364501953125,-0.5136807592660189,8.270546932169795,0.36910043889582156
1761501948179421700,2.804421630859375,0.610645926502347,9.518343930262327,-1.343163351830095
1761501948189477600,2.8144775390625,0.30900881215706466,9.329571416944265,-2.2290482150956987
1761501948199533600,2.824533447265625,-0.8800146560579538,8.707257264479994,-2.233920497307181
1761501948209589500,2.834589599609375,-2.0268127013534305,8.744540408691764,-0.9310710356868803
1761501948219645400,2.8446455078125,-1.6964513045661151,9.058493545383214,0.48515389909222717
1761501948229702400,2.854702392578125,0.4826674891039729,9.662195936357975,1.1140955068722367
1761501948239758600,2.864758544921875,2.1575269934564827,10.593181485718489,0.7813030835457145
1761501948249814500,2.874814453125,1.948186908406019,11.480369978928564,0.7161423368491232
1761501948259870500,2.884870361328125,1.4154292543567717,11.06407232005,0.023867124734446406
1761501948269926700,2.8949267578125,0.8951397444754838,9.410749816983937,-0.5628673995003104
1761501948279983600,2.904983642578125,0.7314047879107296,7.481763868132234,-0.8140464654359966
1761501948290039600,2.91503955078125,1.381848325663805,5.883474685502052,-0.9548473403327167
1761501948300095500,2.925095458984375,2.40067231747508,4.454602158334851,-0.7276705698184669
1761501948310151700,2.935151611328125,4.220542934830487,3.8030297626823186,-0.8918252861652523
1761501948320207600,2.94520751953125,4.5335634668469424,4.718723634886741,-1.120181402657181
1761501948330264600,2.9552646484375,4.105282524707913,5.729406990340352,-0.6153720051761716
1761501948340320500,2.965320556640625,4.217653058607876,7.218435587784647,-0.01156176991276443
1761501948350376700,2.975376708984375,4.18762938400507,8.168286581134796,0.39521147009953855
1761501948360432600,2.9854326171875,3.238805395615101,9.11385478259921,1.021127519513294
1761501948370488600,2.995488525390625,2.467220134615898,9.879238266348839,1.6855097854435444
1761501948380545500,3.005545654296875,1.9761404987365006,10.045345358872414,2.0053873437479135
1761501948390601700,3.015601806640625,1.5513538284540176,10.27489645730257,2.181638667536527
1761501948400657700,3.02565771484375,2.182034827247262,11.147082611691951,1.7985311844676732
1761501948410713600,3.035713623046875,3.4211791478067632,11.634129631054401,1.29360539406538
1761501948420769500,3.04576953125,3.538489476196468,11.41917053707838,1.121455733441934
1761501948430826800,3.05582666015625,2.834595649415254,10.452433290857076,1.3177293431051074
1761501948440882700,3.065882568359375,1.8227642929702996,8.876350094816088,1.892775256177038
1761501948450938400,3.0759384765625,0.727152829554677,6.183942317676544,2.4699942755043507
1761501948460994600,3.08599462890625,0.25894319713115693,2.227230644279718,2.392915858129412
1761501948471050500,3.096050537109375,1.0610554060801862,-3.1960634014755485,1.2669427203282713
1761501948481107500,3.106107421875,2.059921190229058,-10.370820006531476,0.3665729662448168
1761501948491163400,3.116163330078125,1.718026738166809,-18.626900606453418,-0.8710811157569288
1761501948501219600,3.126219482421875,-2.3311982376240192,-22.950627729165554,-2.470698916642368
1761501948511275500,3.136275634765625,-6.212896024960279,-24.843697730505465,-3.4680136719569563
1761501948521331500,3.14633154296875,-5.580905697134137,-25.24973703022003,-3.1542487513139843
1761501948531388400,3.156388427734375,-4.544492272618412,-23.618780672740936,-1.8012857438728211
1761501948541444600,3.166444580078125,-5.253171287849545,-21.75697090206146,-0.4359694873476401
1761501948551500500,3.17650048828125,-6.320119551360607,-18.883387642604113,-0.30664686879869546
1761501948561556500,3.186556396484375,-5.883607371971011,-17.466504243916273,-0.8262619500171393
1761501948571612700,3.19661279296875,-4.105534453642368,-19.201492638278005,-0.19393426172910258
1761501948581669600,3.206669677734375,-1.1134138082183898,-20.40939075670242,0.16882544810418038
1761501948591725600,3.2167255859375,1.0665554648011921,-18.87751553570032,-0.5573152817985043
1761501948601781500,3.226781494140625,0.9121294577211141,-14.71702199590206,-1.5032067604005337
1761501948611837700,3.236837646484375,0.5312701919704675,-9.654451021319627,-2.3850486318856476
1761501948621893600,3.2468935546875,1.0727338611751793,-5.957455867514014,-2.7886571973219514
1761501948631950600,3.25695068359375,0.9678057522356509,-3.1436481545835733,-1.823434008925408
1761501948642006500,3.267006591796875,0.6711246528625487,-0.7904401835948228,-0.3711484574668109
1761501948652062700,3.277062744140625,0.22632928683944045,0.18366437652409076,0.5606847947642207
1761501948662118700,3.28711865234375,-0.9143781134307384,1.2856634951502084,1.1580678465243428
1761501948672174300,3.29717431640625,-1.0117138675451278,3.2398686409324404,0.6421602780543267
1761501948682231600,3.3072314453125,-0.6195948835682124,5.4839370227664705,-0.05024029573937878
1761501948692287700,3.317287841796875,-1.5273796631485224,7.974718065711856,-0.4353076259054243
1761501948702343400,3.327343505859375,-0.9705769705146551,10.313748458266257,-0.34392471578083933
1761501948712399400,3.3373994140625,0.6892822408437729,12.979481578969954,0.07561618106896058
1761501948722455600,3.34745556640625,1.4710907896935939,15.241001446342468,0.1792981441386044
1761501948732512500,3.357512451171875,1.4608300924420357,16.576497186154125,-0.2448470316362567
1761501948742568400,3.367568359375,0.48258302569091316,17.770595911806822,-0.2657324919451028
1761501948752624400,3.377624267578125,-0.44605625280439853,17.60110443754196,-0.542521434629336
1761501948762680600,3.3876806640625,-1.8312410294145345,16.02426311661005,-0.5845077880959958
1761501948772736500,3.397736572265625,-3.2404367962092158,13.386114752924442,0.43812436382658776
1761501948782793500,3.40779345703125,-3.610580606678128,10.238504124450683,1.4347329436331986
1761501948792849700,3.417849609375,-3.145442052263021,8.814787664872407,1.8907501800902187
1761501948802905600,3.427905517578125,-2.081340994876623,8.868878151500224,2.0350264029473064
1761501948812961500,3.43796142578125,-0.6538276272334158,9.39490927377343,1.132721369952336
1761501948823017500,3.448017578125,0.8278472464472055,8.948361438059806,-0.5191553912848234
1761501948833074700,3.45807470703125,1.3487221550010144,8.630739257466793,-1.9298015030182898
1761501948843130600,3.468130615234375,0.7204371114335953,8.009781780308485,-2.2026747335635126
1761501948853186600,3.4781865234375,-0.28636896419525143,7.459321150177717,-1.6745706044085322
1761501948863242800,3.48824267578125,-0.19304244572222232,6.904833748748898,-0.7053525742221624
1761501948873298700,3.498298583984375,0.616782675691694,6.995614089870452,0.4350097024047747
1761501948883355600,3.508355712890625,1.7426349635921419,7.050587789073586,1.3107564353525638
1761501948893411600,3.51841162109375,2.503180505791306,6.841685510918498,1.7998393444567917
1761501948903467800,3.5284677734375,2.7021318832963703,6.95552056441307,1.2410834719285369
1761501948913523700,3.538523681640625,2.6815985060945153,7.250479077777266,0.1453219507840462
1761501948923579400,3.548579345703125,1.6283061352312564,7.592859852051735,-0.39311902786493297
1761501948933636600,3.55863671875,1.025160501356423,8.125294996148348,-0.4548693085309118
1761501948943692800,3.56869287109375,1.6362008340038359,8.869177426707743,0.06906365415295586
1761501948953748500,3.57874853515625,2.6148347081154584,8.646264743378758,1.0279447252474725
1761501948963804400,3.588804443359375,3.4593256308495994,6.9649904035478825,1.9595204955860972
1761501948973860600,3.598860595703125,3.992532051579654,3.040043403202295,1.7580762783519923
1761501948983912000,3.608911865234375,3.0476375115931034,-4.125333963611721,0.6845386995784938
1761501948993968000,3.618968017578125,0.23055179990530011,-14.41532219158411,-0.5312351937223225
1761501949004023800,3.62902392578125,-4.241914516422153,-23.55817744321823,-1.7335405336409806
1761501949014079700,3.639079833984375,-9.053470164263247,-27.148829945111274,-3.2694550931617616
1761501949024136000,3.649135986328125,-8.503725573447346,-26.531139945316312,-3.162663820698857
1761501949034193000,3.65919287109375,-4.458781197585165,-26.371009004592892,-1.521414763394743
1761501949044248800,3.669248779296875,-1.8381728745043278,-25.96974641776085,0.26068543768860397
1761501949054304800,3.6793046875,-0.4443206611834466,-24.00649170408249,1.3080385546959936
1761501949064361000,3.68936083984375,-0.3854926246397197,-21.211071880757807,1.14403208771348
1761501949074417000,3.6994169921875,-1.886512104129046,-19.636019196808338,0.48089668003916736
1761501949084473900,3.709473876953125,-3.479148521694541,-18.34839463071823,1.0809031391054391
1761501949094529800,3.71952978515625,-3.988969682922959,-17.622769156861303,1.5472754730992018
1761501949104586000,3.7295859375,-2.4884710124373433,-16.733704348385334,0.24613157328777013
1761501949114642000,3.739641845703125,-0.054943157934397455,-14.375114099836349,-1.2852215966016054
1761501949124697900,3.74969775390625,2.286381921428442,-11.350615471768378,-2.8545716849952933
1761501949134754800,3.7597548828125,3.6688200296789404,-7.650622305190563,-3.4450399158656597
1761501949144811000,3.76981103515625,3.1426398543238636,-3.3101346018135547,-2.640525614210963
1761501949154867000,3.779866943359375,1.5383653136737643,0.6767652890980244,-0.8641470787100494
1761501949164923000,3.7899228515625,-0.07937566146664321,4.721109068718552,0.147381897254847
1761501949174979000,3.79997900390625,-2.0887743597477675,7.363779293742775,0.7039698146268725
1761501949185036000,3.8100361328125,-3.5956466569185257,10.096977346432208,1.2776435625627636
1761501949195092000,3.820092041015625,-3.320876360580325,12.71962185151577,0.7456347541194409
1761501949205148000,3.83014794921875,-2.938385694235563,14.524590375554562,0.19099625378213822
1761501949215204000,3.8402041015625,-2.996249854183197,16.575263844966887,0.021797515386156735
1761501949225260000,3.850260009765625,-2.2778069853067398,17.629644303327797,-0.22757877544388175
1761501949235317000,3.86031689453125,-1.9126386251628398,17.041262231081724,-0.11701298941094428
1761501949245373000,3.870373046875,-1.9527222137480973,14.960338584834336,0.014031155700981617
1761501949255428900,3.880428955078125,-2.194714276078343,11.712841348719596,-0.10940445063598453
1761501949265484800,3.89048486328125,-2.292306635302305,9.212313987785578,0.19172102439273148
1761501949275540700,3.900540771484375,-1.9499936655670402,7.620259315630793,0.8437903001841157
1761501949285597700,3.91059765625,-1.2201081231128423,6.046389703986049,1.7683251390352843
1761501949295654000,3.92065380859375,-0.2834942855417728,5.136256973040104,2.7339170146137475
1761501949305709800,3.930709716796875,1.571940689408779,5.137864408236742,3.2192280039638277
1761501949315765800,3.940765869140625,2.8334154997199774,5.2790340433806175,3.0255884691312906
1761501949325822700,3.95082275390625,2.932828060108423,5.9458110224276775,1.9358102419137952
1761501949335879000,3.96087890625,2.2424375657618043,6.50790188459754,0.6490532524384558
1761501949345934800,3.970934814453125,1.1031576410114765,7.002696157085895,-0.2752196475408971
1761501949355990800,3.98099072265625,-0.18561317250430584,7.871050185966491,-0.9655545392427592
1761501949366047000,3.991046875,-0.812790985482186,9.266834682524204,-1.0365978411719203
1761501949376104000,4.00110400390625,-0.611247253396362,10.544581997722387,-0.6862832782234997
1761501949386159900,4.011159912109375,0.3135416332811117,11.94903729199171,-0.5801961354419589
1761501949396215800,4.0212158203125,1.2746557789236306,13.566512236607075,-0.4465725317634642
1761501949406272000,4.03127197265625,1.9363328044831751,14.35289876089692,-0.27324849359840153
1761501949416328000,4.041327880859375,2.461767129907012,14.669495690095424,-0.6149754801392555
1761501949426385000,4.051385009765625,1.9098820199310778,14.016938959580658,-0.872455326719582
1761501949436440800,4.06144091796875,0.41156602724678815,11.620550018513201,-0.3937925432123244
1761501949446497000,4.0714970703125,-1.3256225805729627,8.762613825520873,0.5781237130820751
1761501949456553000,4.081552978515625,-0.9885410817503929,4.2494431583613155,0.8532228760484606
1761501949466609000,4.09160888671875,1.7543004130750894,-1.1928390809804201,-0.5197760074011981
1761501949476665900,4.101665771484375,3.7576346236854787,-6.987016941916942,-1.7318717236459253
1761501949486722000,4.11172216796875,4.103808360502123,-15.351387236166,-1.8928166111007332
1761501949496778000,4.121778076171875,1.924031541314721,-22.319650377774238,-0.1829050825893879
1761501949506833700,4.131833740234375,-3.76460738530755,-24.674366415238378,1.491484466163814
1761501949516889900,4.141889892578125,-7.383684602174163,-25.193648647773266,2.089085471523553
1761501949526947000,4.151947021484375,-5.186849680680036,-24.292720383024214,1.358510266304761
1761501949537002800,4.162002685546875,-2.8483798446178437,-22.48684234292507,1.444168442106992
1761501949547059000,4.172058837890625,-1.8799568372666835,-20.774532228839398,1.7049053907871246
1761501949557115000,4.182114990234375,-1.3308750942736862,-20.10518919869661,0.8958319645233451
1761501949567170800,4.1921708984375,-1.848875470304489,-19.623232195949555,-0.14284692070633173
1761501949577227800,4.202227783203125,-3.8171950661569833,-19.33441993025541,-0.9131215374983847
1761501949587284000,4.212283935546875,-5.634933639919757,-19.675581976389882,-1.6049555086515843
1761501949597340000,4.22233984375,-6.6257613713026045,-18.63607058585882,-2.725415728250146
1761501949607395800,4.232395751953125,-6.446085772153735,-15.827361072850227,-3.736173902505636
1761501949617452800,4.242452880859375,-5.01630723605752,-12.437074491435288,-3.65841495552063
1761501949627509000,4.252509033203125,-2.4680069010794163,-8.4330533698529,-3.6481595189660787
1761501949637565000,4.26256494140625,-0.22626367425732313,-3.945866454255581,-3.156658735065162
1761501949647620900,4.272620849609375,0.6366261709332466,0.11320844602882861,-1.8734804808594285
1761501949657677000,4.282677001953125,0.7928174341201781,3.1739854251801964,-0.5261828057035803
1761501949667734000,4.292734130859375,0.8956978898148983,6.205420574513077,0.6222931096762419
1761501949677790000,4.3027900390625,0.8706371713817119,8.79665287324488,1.4358657470554113
1761501949687846000,4.312845947265625,0.42530744275357574,10.250770900827646,1.8706714147880672
1761501949697902000,4.322902099609375,-0.33513737901747226,11.696201179563998,2.0419588325589895
1761501949707958000,4.3329580078125,-0.9548241055876016,13.131191897350549,2.0914995469279587
1761501949718015000,4.343014892578125,-1.3465426190048455,14.581964706158637,2.008525641773641
1761501949728071000,4.35307080078125,-1.0944541100740433,16.03106812044978,1.8192567232407628
1761501949738127000,4.363127197265625,-0.340807204814814,16.665125902199744,1.6279641899257897
1761501949748183000,4.37318310546875,0.4212351518133655,16.043444786942004,1.3136962881967424
1761501949758238700,4.38323876953125,0.8194938441216946,15.067816962778567,0.7910309160295873
1761501949768296000,4.3932958984375,0.984150737836957,13.747772474598884,0.3552623215489089
1761501949778352000,4.40335205078125,0.691456004686281,12.083510059845446,0.3197647455796599
1761501949788407800,4.41340771484375,0.03073525693826377,10.038158077716826,0.8404639322403817
1761501949798463700,4.423463623046875,-0.7139712764203549,8.148844214040041,1.2272288418382407
1761501949808520700,4.433520751953125,-0.9448562538027763,7.368429749897122,0.7615684555061161
1761501949818577000,4.443576904296875,-1.3922615831285714,7.37781483335793,0.11376958704292774
1761501949828632800,4.4536328125,-1.4499692373402415,7.673520950219035,-0.1677249760489911
1761501949838688800,4.463688720703125,-1.001783936617896,8.108582346278428,0.06683357527963817
1761501949848745000,4.473744873046875,-0.677256287485361,8.588360835942625,0.6744616883307695
1761501949858802000,4.483802001953125,-0.16068915912806986,9.298561361652611,0.8976745236501097
1761501949868857900,4.49385791015625,0.6070042089991271,9.982382999002933,1.0261270813662557
1761501949878913800,4.503913818359375,1.0897300041615963,9.916166021251678,1.463273247810453
1761501949888970000,4.513969970703125,1.6205910308092832,9.328196036937833,1.7301199115425347
1761501949899026000,4.52402587890625,2.0465305243887006,8.883084371507167,1.5283438320055602
1761501949909083000,4.534082763671875,2.231659128246456,8.61378987623155,1.1697221900913863
1761501949919138800,4.544138916015625,2.004913734886795,8.289583056551217,0.7843369713488966
1761501949929195000,4.554195068359375,1.3868864659614861,7.542299293115734,0.7144474425647407
1761501949939251000,4.5642509765625,0.5012585000663995,5.621082224699855,0.9610414457324892
1761501949949308000,4.574307861328125,-0.03658405603170395,2.6639310397177933,1.076392456747964
1761501949959363800,4.58436376953125,0.8694774799525737,-1.6030834311693907,0.6117234926059841
1761501949969420000,4.594419921875,2.943008677861094,-6.250988147467375,-0.5749046049050986
1761501949979476700,4.604476806640625,4.579515070682763,-12.431008323264122,-1.7718144424557685
1761501949989532700,4.61453271484375,5.202965533700585,-18.909624492144584,-2.2447616247951983
1761501949999589600,4.624589599609375,1.818866554879397,-21.296351286375522,-1.035628046291694
1761501950009645800,4.634645751953125,-4.208006986123324,-22.352982154011727,0.2674455794733018
1761501950019701800,4.64470166015625,-4.720167403954267,-23.34394315638542,0.40750769176669416
1761501950029757700,4.6547578125,-2.3662596141330896,-23.21437803431749,0.7635431165799498
1761501950039813600,4.664813720703125,-2.070470495163649,-21.566005262613295,1.7345080634988843
1761501950049870800,4.674870849609375,-2.424644144693017,-19.531935721999407,1.792390197494626
1761501950059926800,4.6849267578125,-1.543294440639019,-18.27239509462118,1.1647042157988994
1761501950069982700,4.694982666015625,-0.7640285620093346,-17.368366525769233,1.0158538899593055
1761501950080038700,4.70503857421875,-0.8389081541657447,-17.346595423465967,0.7832070174708962
1761501950090094600,4.715094482421875,-0.5045435130864382,-16.06745928425789,-1.1176000078618527
1761501950100151600,4.725151611328125,-1.634718194230646,-14.146578900450468,-2.414515403258055
1761501950110207500,4.73520751953125,-3.348720645317435,-13.546893343901633,-2.291408225157857
1761501950120263700,4.745263671875,-3.785913208186626,-13.022476671087741,-1.6795359717309475
1761501950130319600,4.755319580078125,-2.4008552728265524,-11.156401059657334,-0.27684556824229656
1761501950140375600,4.76537548828125,0.13953122028708456,-7.183954056990146,0.8506525141038
1761501950150432500,4.7754326171875,2.190201182568073,-3.080366645762324,1.6529145067870616
1761501950160488700,4.78548876953125,3.085958182159066,1.1119517728418111,2.0406664546608924
1761501950170544600,4.795544677734375,2.6634026319295168,5.266234767562151,1.997219819383323
1761501950180600600,4.8056005859375,1.6544658278822897,8.813133467924594,1.1852798977725207
1761501950190657500,4.815657470703125,1.0864636958420275,11.509846248781681,-0.04499762757923454
1761501950200713700,4.825713623046875,-0.05000526314079761,13.790159663951396,-1.0663217291105538
1761501950210769700,4.835769775390625,-1.687448060029745,15.479892035526037,-1.1262489590678364
1761501950220825600,4.84582568359375,-2.291685873055458,16.39327412365675,-0.42939420061055567
1761501950230881800,4.8558818359375,-1.5791554430931805,16.148053162407873,-0.06677592680826783
1761501950240938800,4.865938720703125,-0.15205343272984026,15.298105727833509,-0.4896513566419482
1761501950250994700,4.87599462890625,0.10838847852647304,14.808177015554904,-1.0313165397681294
1761501950261050600,4.886050537109375,-0.10378419960141182,14.545997905242443,-1.6324074330702423
1761501950271106800,4.89610693359375,-0.32262685701251026,13.807613487577438,-1.977131847861409
1761501950281163800,4.906163818359375,-1.092982868477702,12.743055334073304,-1.554186567661911
1761501950291219700,4.9162197265625,-2.107337605920434,11.39703352407217,-0.5933036004267632
1761501950301275600,4.926275634765625,-2.513527712282538,10.05044238975048,0.15364837377108634
1761501950311331800,4.936331787109375,-2.152073404225707,9.312473567149043,0.4851802756424993
1761501950321387800,4.9463876953125,-1.7398831806659698,9.21393194437623,0.7971113319218158
1761501950331444700,4.95644482421875,-1.3486451442420482,9.378602866616845,1.2696332745864987
1761501950341500700,4.966500732421875,-0.4318704910635948,9.61220470174253,1.2567621025756002
1761501950351556600,4.976556640625,0.5899755519825964,9.886112243771553,0.7055948585454375
1761501950361612500,4.986612548828125,1.2105782243538648,10.170924041652679,0.35988340547829867
1761501950371669800,4.996669677734375,1.116212499026209,10.092584079909324,0.16109622382530941
1761501950381725400,5.006725341796875,0.26595862885117527,9.488519869884849,0.3952963719040155
1761501950391781600,5.01678173828125,-0.13112170386016367,8.692879779559373,0.987232483369857
1761501950401837600,5.026837646484375,0.17937004033103585,8.113309374800323,1.4265442303501068
1761501950411893500,5.0368935546875,0.8864812947887927,7.209643794041871,1.4711457347512245
1761501950421950500,5.046950439453125,1.8319507851190864,6.265315363505482,1.2170768656581639
1761501950432006700,5.057006591796875,2.3113849913902578,5.417071225717663,1.0944313137203454
1761501950442062600,5.0670625,2.148163537305593,3.8531297183692454,0.9623781742289662
1761501950452118500,5.077118408203125,1.9216244801729916,2.1972236285507676,0.7547270651787519
1761501950462174700,5.0871748046875,1.9546125575393438,0.0816512782484293,0.3729335142526775
1761501950472231700,5.097231689453125,1.231381285342574,-3.429136244291067,0.41306766398139294
1761501950482287600,5.10728759765625,0.250148626909405,-8.534686528900265,1.3003928622484207
1761501950492343600,5.117343505859375,0.9167927733570337,-14.303222583580016,2.0719237627118825
1761501950502399700,5.127399658203125,3.230934223848581,-19.018255547255276,2.40811927248016
1761501950512456700,5.137456787109375,2.665994401988387,-20.136874961292744,1.5125149792328476
1761501950522511600,5.14751171875,0.1877712273210287,-19.241222591120003,-0.44964821288175877
1761501950532567800,5.15756787109375,0.06991115609407425,-18.440424095118043,-1.5911517319656907
1761501950542623700,5.167623779296875,-0.8108738998144864,-19.60346834181547,-0.7675660884857177
1761501950552679400,5.177679443359375,-2.09641581441164,-21.62837842441797,0.3088714495129883
1761501950562736600,5.187736572265625,-2.768036726358533,-22.183157502269744,0.5346722554989158
1761501950572792800,5.197792724609375,-2.734661695501208,-21.643349199056622,-0.6105480190858245
1761501950582848500,5.2078486328125,-2.8354911369502545,-20.904455078303812,-1.6539437037043272
1761501950592904400,5.217904541015625,-4.913720137286186,-20.544635093450545,-1.699357693532109
1761501950602960600,5.227960693359375,-7.267575758528709,-19.359779996961354,-2.305803830257058
1761501950613017600,5.238017578125,-8.024854261755943,-15.36481487301588,-4.033985759474337
1761501950623073500,5.248073486328125,-6.983319256442785,-10.448707548332214,-5.739512789291143
1761501950633129500,5.25812939453125,-5.208485758426785,-6.459407610541581,-5.578019328042864
1761501950643185700,5.268185546875,-3.734790339192748,-3.5388235304564235,-3.6937361520096657
1761501950653241600,5.27824169921875,-0.9612824879467486,-1.0166776274323464,-1.9701991259887814
1761501950663298600,5.288298583984375,2.0586229671120644,1.9524778835982084,-0.6805756411664188
1761501950673354800,5.298354736328125,4.776425882270932,4.43157024231553,0.31836350047960876
1761501950683410700,5.30841064453125,5.580528680515289,6.412178241854906,1.1444595193453133
1761501950693466600,5.318466552734375,3.532413078892231,7.587301633402705,2.4576132250979543
1761501950703523600,5.328523681640625,0.7090121927082538,8.189680666819214,3.476210714676976
1761501950713579800,5.338579833984375,-0.36661680538654323,8.623672972342371,2.703424845716357
1761501950723635700,5.3486357421875,-1.4154080654382706,9.60530208274722,1.0550921137616038
1761501950733691600,5.358691650390625,-1.5630208853721619,10.940680918180941,0.11295140252783895
1761501950743747600,5.36874755859375,-0.6841852099657059,12.168784789288043,-0.40426512964889405
1761501950753804800,5.3788046875,0.48414077652692794,12.449598457443713,-0.7045186806812882
1761501950763860700,5.38886083984375,1.4804133293122053,12.317884632909298,-0.6836417507387698
1761501950773916700,5.398916748046875,1.7758990814208984,12.16808336302042,-0.376355378460139
1761501950783972900,5.408972900390625,1.8767454740047453,11.758766064548492,-0.0022609854682348668
1761501950794029800,5.41902978515625,1.7280384290933608,11.29501574962139,0.5676681873781606
1761501950804085800,5.429085693359375,1.042387238228321,11.073178002047538,1.214379516332969
1761501950814141700,5.4391416015625,-0.14834460480716077,11.385417905080319,1.3673850621558725
1761501950824198000,5.449197998046875,-1.998961986875534,11.798425874763726,0.6707106652341782
1761501950834253600,5.459253662109375,-2.736321737667918,11.427940703511238,0.19813217007666825
1761501950844310800,5.469310791015625,-2.1477193006694315,10.806977381134033,-0.14902400190606713
1761501950854366500,5.479366455078125,-1.0904665017426014,10.619350530719757,-0.4752672958500683
1761501950864422700,5.489422607421875,-0.1636415426602587,10.732186636304855,-0.514330309215933
1761501950874478600,5.499478515625,0.11802549092173575,10.62837321060896,-0.43209845460057256
1761501950884535600,5.50953564453125,0.364485638576746,10.178569587969779,-0.3767985921829939
1761501950894591500,5.519591552734375,0.5606856715470552,9.678801034200191,-0.3481331272561103
1761501950904647700,5.529647705078125,0.041214053919911384,9.428011332908271,-0.5246381335448473
1761501950914703600,5.53970361328125,-0.6074952804517001,9.186784409731626,-0.8209401704724878
1761501950924759600,5.549759521484375,-0.710382238952443,8.880220214247704,-1.0643119236581027
1761501950934816500,5.55981640625,-0.4976256965219974,8.638924902009963,-1.2392723308533429
1761501950944872700,5.569872802734375,0.13954291072487832,8.175658571207522,-1.1667775149416177
1761501950954928600,5.5799287109375,0.4985100781410932,6.5564131097882985,-0.7271802290182561
1761501950964984600,5.589984619140625,0.4083944845385849,4.07130777439177,-0.2168879066141322
1761501950975041500,5.60004150390625,0.40647827565371986,1.353524148455262,-0.022561375898122786
1761501950985098000,5.610097900390625,1.1913177166320383,-2.1061352443933488,-0.07984061209727078
1761501950995154000,5.62015380859375,2.1645862643182276,-5.763000632384419,-0.35110118328146633
1761501951005209900,5.6302099609375,3.6585306908547874,-9.910376916456222,-0.9810396200791001
1761501951015266000,5.64026611328125,5.974935994625091,-14.556955352586506,-1.3328700674831866
1761501951025323000,5.650322998046875,4.624539038279653,-17.633572290426493,-0.8272184470243752
1761501951035379000,5.66037890625,0.7801444150298833,-19.811850395488737,-0.43340186534933745
1761501951045435000,5.670434814453125,-0.724570557976514,-21.55812590754032,-0.6399750429697334
1761501951055491000,5.680490966796875,0.04546820423305034,-23.490856888139245,-0.3782896344583481
1761501951065548000,5.690548095703125,0.3169984957367182,-25.278773739612102,1.5076175625801085
1761501951075604000,5.70060400390625,-1.0156037876557558,-25.423326002931592,3.514359535807371
1761501951085660000,5.710659912109375,-1.7242068881064652,-24.523325958943367,3.742366911926865
1761501951095716000,5.720716064453125,-1.7904700430870055,-23.960372926986217,2.76893689006865
1761501951105772000,5.73077197265625,-1.9415192672103643,-23.534039027261734,2.0180323057875036
1761501951115829000,5.7408291015625,-2.9480402422875165,-22.23338897538185,1.1274592847056686
1761501951125885000,5.750885009765625,-4.766515313631296,-19.596581504911182,0.5042651345364749
1761501951135944000,5.76094384765625,-6.054852411904931,-9.994765510714053,0.003548139201942831
1761501951146000000,5.770999755859375,-5.340587705495953,-5.461072280007601,-0.3870548689877614
1761501951156056800,5.781056884765625,-3.940519248008728,-1.288437636038661,-0.8620847393527626
1761501951166113000,5.791113037109375,-2.013725256243348,2.9217309120327233,-1.7760818906418978
1761501951176169000,5.8011689453125,-0.04599774453248828,6.650665510934591,-3.196018101029098
1761501951186225000,5.811224853515625,2.5584756920337677,9.689579033324122,-4.106494238585234
1761501951196281900,5.82128173828125,3.7670366582810875,12.285775676465034,-4.019596584115922
1761501951206338000,5.831338134765625,3.2309389000236988,13.914075966477393,-2.5850796213209626
1761501951216394000,5.84139404296875,2.6684166606992483,14.839443091434239,-0.913983926481381
1761501951226450000,5.851449951171875,1.879666914409399,15.404473514187336,0.2876872071869671
1761501951236506000,5.861506103515625,0.8429723348647356,14.562957223349809,1.0825268678497522
1761501951246563000,5.87156298828125,0.9775117382138967,12.826357886660098,1.2359127912923693
1761501951256619000,5.881618896484375,1.858267568027973,11.873476147311925,0.0976183065159712
1761501951266675000,5.891675048828125,2.108976605299115,12.405410940670967,-1.2714599054917692
1761501951276731100,5.901731201171875,1.804133388388902,13.773243600463866,-2.1786635972484945
1761501951286788000,5.9117880859375,0.6985786231078207,13.967113144659995,-2.740621188427508
1761501951296844000,5.921843994140625,-1.121420442932844,12.906273719418047,-2.239623677384853
1761501951306899700,5.931899658203125,-2.163949719980359,10.542573580509423,-1.0651346382178366
1761501951316956000,5.941955810546875,-2.9083816011160613,7.5666417072117325,0.1709763059951365
1761501951327011800,5.95201171875,-3.4312346778750418,5.021836228612065,1.797686550337076
1761501951337068800,5.96206884765625,-3.1334324655175205,3.4800650520175695,2.8764754737675187
1761501951347124700,5.972124755859375,-2.5001082587391137,3.4669612402945753,3.425784888036549
1761501951357181000,5.982180908203125,-1.1974315964024513,4.492873144540191,3.2551226164266467
1761501951367236900,5.99223681640625,0.26153730527758595,5.930752569505572,2.3324682575598357
1761501951377293800,6.0022939453125,1.3725060584314166,7.926243665400147,1.0939246793724595
1761501951387349800,6.012349853515625,2.1384594510234893,9.84766005578041,0.048532432375568896
1761501951397406000,6.022406005859375,1.9127897240713239,11.237895101517438,-0.3647663917468861
1761501951407462000,6.0324619140625,0.901050575954467,12.111232764029502,-0.3918229601724073
1761501951417517800,6.042517822265625,0.5101083076067269,12.023706456267833,-0.32509953073635695
1761501951427574800,6.05257470703125,0.8414760318923741,11.072171455353498,-0.1864861376802437
1761501951437631000,6.062630859375,1.6922867322325705,9.813000245809555,-0.20730003059022128
1761501951447687000,6.07268701171875,2.4431409015007315,8.75381384847164,-0.391085001286678
1761501951457742800,6.082742919921875,2.916649663245678,8.084612272626162,-0.16985692831007762
1761501951467799800,6.0927998046875,3.082814038914442,7.148070842704176,0.23668257601158693
1761501951477856000,6.10285595703125,3.4883360367566345,5.225198408296704,0.4292154465101659
1761501951487912000,6.112911865234375,3.3802363120436665,1.2127139942735432,0.16014299648739397
1761501951497967900,6.1229677734375,2.870551928937435,-3.663556410062313,-0.711619525662437
1761501951508024800,6.13302490234375,2.257438735538721,-9.138377229437232,-1.706792958099395
1761501951518081000,6.1430810546875,2.101130567973852,-16.40651705158949,-1.3118037524484096
1761501951528137000,6.153136962890625,1.7037492064893245,-21.730943311357496,0.44935390611030157
1761501951538193000,6.16319287109375,1.2471622073203326,-23.3051893550992,1.888176676340401
1761501951548249000,6.1732490234375,0.12052081486880778,-23.98366027907133,2.480972473375499
1761501951558306000,6.18330615234375,0.6668558164369315,-23.81489945716858,2.4023744452178475
1761501951568362000,6.193362060546875,1.182473169788718,-21.976309234035014,1.4514982004731893
1761501951578418000,6.20341796875,0.5068775455245748,-19.68146460468769,-0.6330122182197868
1761501951588473900,6.213473876953125,-0.5444073214411735,-17.72630318109393,-2.301209342073649
1761501951598529800,6.22352978515625,-2.368103926825523,-15.835144566333293,-2.6491522805199024
1761501951608586800,6.233586669921875,-3.475229886946082,-16.043533634269238,-1.8523298485420643
1761501951618642700,6.243642578125,-3.2871599689394233,-18.399004874014853,-0.9621070291373878
1761501951628699000,6.253698974609375,-3.259064924311638,-19.665549242675304,-0.8103794673610478
1761501951638754800,6.2637548828125,-3.7730385290443893,-18.9948244027853,0.15495879878252744
1761501951648811800,6.273811767578125,-3.3916052627980706,-16.258046153521537,1.838314036540687
1761501951658867700,6.28386767578125,-2.168929261958599,-12.44650750569105,2.7809730725601316
1761501951668924000,6.293923828125,-0.8686182327747345,-7.600213721945881,3.1608336826622483
1761501951678979800,6.303979736328125,0.38655893869698044,-2.503423082375526,3.506750229847431
1761501951689035800,6.314035888671875,1.0357318719923496,2.3450807786345482,3.4668513501793146
1761501951699093000,6.324093017578125,1.484434839913249,6.678721392595768,2.443544367735088
1761501951709149000,6.33414892578125,2.398209142231941,9.874520005655288,0.49490807159375394
1761501951719204900,6.344204833984375,3.0771102743148804,12.229308523833751,-1.6339872496075927
1761501951729260800,6.3542607421875,2.2093407673239707,13.878175801056623,-3.0515614070385695
1761501951739318000,6.364318115234375,0.12747430553482844,15.201964736461639,-3.05800371504575
1761501951749374000,6.3743740234375,-0.8896160126179457,15.399184760129451,-2.05397324161008
1761501951759430000,6.384429931640625,-0.6320873584598302,14.864681577587127,-0.929940424221754
1761501951769485800,6.39448583984375,0.15489422738002612,14.46209563319683,0.103933636275772
1761501951779543000,6.40454296875,0.5967477495312691,13.87295835866928,0.4987181679338216
1761501951789599000,6.414598876953125,0.7730980036497116,13.277393681442737,0.37821605776548384
1761501951799655000,6.424655029296875,0.5824644457001239,13.064371693009138,0.24634700613673774
1761501951809711000,6.434711181640625,0.44547878171000627,12.674492085456848,-0.08190647685220465
1761501951819767000,6.44476708984375,0.19203125938568263,11.629419553667306,-0.4257879562795162
1761501951829824000,6.454823974609375,-0.5794488972712308,10.522769978886842,-0.022745947817945852
1761501951839880000,6.4648798828125,-1.3853319299958646,9.355256477820873,0.5723167803689837
1761501951849936100,6.47493603515625,-1.7231085714757441,8.221364675849676,0.9771830907814204
1761501951859991800,6.48499169921875,-1.0688877071410416,7.58469934194982,0.9297031083345413
1761501951870049000,6.495049072265625,0.2560282595325261,7.664349217247962,0.6821002203851938
1761501951880105000,6.50510498046875,1.3838684333145617,8.466891926568746,0.6591152122475207
1761501951890161000,6.515160888671875,2.111854791083932,9.404588956266641,0.9173817522261292
1761501951900216800,6.525216796875,2.5497271529108283,9.377329193419218,0.8222904891029
1761501951910272800,6.535272705078125,3.702824006089568,10.161775105035304,-0.2638072229709476
1761501951920329700,6.545329833984375,4.732216738188266,10.503383725893498,-1.9867603846892714
1761501951930386000,6.555385986328125,4.609692182281613,8.569664318779111,-2.0440579967953263
1761501951940441900,6.56544189453125,3.317543416765332,6.602973200911283,-1.3790142712816595
1761501951950497800,6.575497802734375,1.7736030794382094,5.493353670409322,-1.903641371975839
1761501951960554800,6.5855546875,0.8695574863862245,6.465458581143618,-2.8012477988258
1761501951970611000,6.59561083984375,0.33580073829703033,7.367454767385125,-3.029568186417222
1761501951980667100,6.605667236328125,-0.008759645038843154,6.696082861763238,-2.380208790639043
1761501951990723000,6.61572314453125,0.9548200139343738,4.620549091860652,-1.153410668368265
1761501952000780000,6.625780029296875,1.2466232781380415,1.4475176064044237,0.2830322209879756
1761501952010836200,6.635836181640625,1.4582190331608056,-2.495235684266686,1.5121300715684889
1761501952020892200,6.64589208984375,0.3795517268160358,-5.860078027823567,2.289372481546551
1761501952030948000,6.655947998046875,-1.643575600555539,-9.2454113707453,2.9761124905616043
1761501952041004300,6.66600439453125,-1.3490005335509776,-13.04077454432249,2.851894282479584
1761501952051061200,6.676061279296875,-1.6249216073594988,-14.874329695898293,0.8940922812491655
1761501952061117200,6.6861171875,-4.7258951339513064,-16.897096921253205,-0.8389953940577805
1761501952071172900,6.6961728515625,-5.0537943784087895,-19.370237093567848,-1.7248289655275642
1761501952081229000,6.70622900390625,-4.757456393384933,-21.497541382718087,-1.0748385783694683
1761501952091286300,6.716286376953125,-4.99618331643939,-22.685121520256995,0.292580057262443
1761501952101342000,6.726342041015625,-5.033450094038248,-22.797992697155475,1.2768461285747588
1761501952111398000,6.73639794921875,-4.951365685069561,-21.07093158866167,1.2522776506379245
1761501952121454000,6.7464541015625,-4.448360049074888,-18.98482323325276,0.5034011381182819
1761501952131510000,6.756510009765625,-4.2900475559502835,-17.993290568470954,-0.540816311211884
1761501952141567000,6.76656689453125,-3.4719875440239902,-18.26847879796028,-1.3919889036670325
1761501952151623000,6.776622802734375,-1.89978849593997,-18.55516808015108,-2.194075101391971
1761501952161679000,6.78667919921875,-0.47839847001526503,-17.35557484873533,-2.802873061940074
1761501952171735000,6.796735107421875,0.4429272705962881,-14.909989038300512,-2.686097571079433
1761501952181792000,6.8067919921875,0.8027338479787111,-11.381730741000174,-2.0518816761583087
1761501952191848000,6.816847900390625,0.9903180282950401,-6.898519158774614,-1.5704440211102366
1761501952201904000,6.826904052734375,1.436082604676485,-2.2078584198117257,-1.035096350567788
1761501952211960000,6.8369599609375,1.1991110008567571,2.3952859482616184,0.022351970931142568
1761501952222016000,6.84701611328125,2.414545360004902,4.7694016827225685,0.6464351788945496
1761501952232073000,6.857072998046875,7.537399246114492,5.601331230047345,0.07104222421692684
1761501952242129200,6.867129150390625,7.190114917707443,6.114501701703667,-1.0010352371424436
1761501952252185000,6.87718505859375,6.822596779567003,6.756877814465761,-0.7741280042845755
1761501952262241000,6.887240966796875,6.976293303328752,7.4516691741198295,0.5639406547550112
1761501952272298000,6.897298095703125,4.798851064568757,6.826188666579127,2.0176899220906197
1761501952282354200,6.907354248046875,-1.114484506189823,7.2577125361621375,2.954252248670161
1761501952292410000,6.91741015625,-3.62253232575655,10.629698906254768,1.690312071158737
1761501952302466000,6.927466064453125,-2.399505611783266,13.899219758129119,-0.3623584903549403
1761501952312523000,6.93752294921875,-2.7650515730679035,15.063143125748633,-1.5778095814421773
1761501952322579200,6.9475791015625,-2.573723530048132,15.010454322612285,-2.052771026213467
1761501952332635100,6.95763525390625,-1.2442319990873336,15.116297208309172,-1.8649197193935512
1761501952342691000,6.967691162109375,-1.110139170461893,15.061761316001414,-1.177594750097394
1761501952352747000,6.9777470703125,-1.773473315578699,14.705587578696012,0.09850337312165647
1761501952362804200,6.98780419921875,-2.086673003554344,13.437049990391731,1.0141043428782373
1761501952372860000,6.99785986328125,-1.6418962691664696,12.525463553506135,1.6033261538840828
1761501952382916000,7.007916015625,-1.9062837031781672,12.32438802345395,1.8895932651400564
1761501952392972000,7.017971923828125,-2.7315736663579937,12.18061668137908,1.6872712421581149
1761501952403029000,7.028029052734375,-2.741044090014696,11.762785237061976,0.8684729060199111
1761501952413085000,7.0380849609375,-2.3426555973142382,11.704810017955303,0.2682884965708479
1761501952423141000,7.04814111328125,-1.4935855300962924,11.595258925390242,-0.175206381312944
1761501952433197000,7.058197021484375,-0.4701320883860811,11.178366223227977,-0.40200028998944903
1761501952443254000,7.06825390625,-0.5256395656723529,10.804889468944072,-0.5085263356449082
1761501952453310000,7.07831005859375,-0.7969038266509771,9.420456972005963,-0.10389102097675204
1761501952463366100,7.0883662109375,-0.9600684359818696,7.894484253045916,0.34236974142380056
1761501952473422000,7.098422119140625,-1.3057909218996762,6.333983826062083,0.7268273969925939
1761501952483478000,7.10847802734375,-0.3758633571594953,4.82635457304418,0.7082060639571398
1761501952493535000,7.118534912109375,1.4518804777890444,4.450099586218595,0.14436609309762716
1761501952503591200,7.128591064453125,2.999989040711522,4.69347287377417,-0.4659120230056345
1761501952513647000,7.138647216796875,3.964954016563296,4.642300904941559,-0.6719631495133042
1761501952523703000,7.148703125,4.380729112872481,4.222715894955396,-0.553573282258585
1761501952533760000,7.158760009765625,4.0474294706761835,3.5601036343723536,-0.29490934046022593
1761501952543816200,7.168816162109375,3.3414649751007555,1.3674655800461768,0.6752351569212973
1761501952553872100,7.1788720703125,2.268973690509796,-3.6528555678278205,2.460067340251803
1761501952563928000,7.188927978515625,0.31185762571692466,-11.327667142379283,4.731320081609487
1761501952573984300,7.198984375,-0.6670676325567066,-17.52318182442784,5.9279842738360164
1761501952584041200,7.209041259765625,0.12153627552166581,-21.22578312767744,4.958163090124726
1761501952594097200,7.21909716796875,-1.2368101785235106,-21.400188092947005,1.5809344354644417
1761501952604153000,7.229153076171875,1.3694324962049722,-20.97445040555,-1.4837410124301909
1761501952614209300,7.239209228515625,-1.8730857824534177,-20.517391697216034,-2.8514555988013743
1761501952624266200,7.249266357421875,-4.752121462097763,-19.36721277731061,-3.148706607016921
1761501952634322200,7.259322265625,-6.96555563621521,-20.52287685062885,-2.1677073189482092
1761501952644378000,7.269378173828125,-9.908735578989981,-23.18676054407358,-0.01098532173167914
1761501952654434000,7.27943408203125,-9.69004898892343,-24.605243194651603,0.5782540979960933
1761501952664491300,7.2894912109375,-8.791166550788283,-23.063403044474125,-0.4955167415440082
1761501952674547000,7.299546875,-8.85051481181383,-19.65300540292263,-1.6404057383477686
1761501952684603000,7.309602783203125,-8.494597095096111,-16.536669033634663,-2.1639175712764263
1761501952694659000,7.3196591796875,-6.700602385014295,-14.076405878549814,-2.4638749158412216
1761501952704715000,7.329715087890625,-4.59378909522891,-11.955518470704554,-2.2277007460094986
1761501952714772000,7.33977197265625,-3.311418211883306,-10.026066657906771,-1.369457338385284
1761501952724828000,7.349827880859375,-2.193927509614825,-6.861314925017952,-0.9223382055897266
1761501952734884000,7.359884033203125,-1.4386118308931588,-2.978591447895765,-0.5608819978367537
1761501952744940000,7.36993994140625,-0.28513445396423337,0.013645078992843626,-0.09801182674504816
1761501952754997000,7.3799970703125,1.3235275079898536,2.940523290786147,-0.2816482192836702
1761501952765053000,7.390052978515625,2.4567168607801197,5.733554757669568,-0.2623864694528282
1761501952775109000,7.400109130859375,2.334914773929119,7.640505984845757,0.7600565165732055
1761501952785165000,7.4101650390625,2.009557030647993,8.363821428194642,1.4149265655316412
1761501952795222000,7.420221923828125,3.011301877364516,9.653583006313443,1.0211359950806944
1761501952805278000,7.43027783203125,2.4895272434920073,10.79044242591858,1.0926478643696755
1761501952815334100,7.440334228515625,3.32899887675941,11.30370759012103,1.068246340497583
1761501952825390000,7.45039013671875,3.669750004005432,12.213519418549536,1.0368596339132636
1761501952835446000,7.460446044921875,2.6041777050226926,13.252364454126358,1.0846316581092774
1761501952845503000,7.4705029296875,2.135174876394868,14.306022443431615,0.9235570798601954
1761501952855559200,7.48055908203125,2.1683260353684424,15.413850414341688,0.735591499010846
1761501952865615000,7.490614990234375,2.2136662293076514,15.915528016602993,0.7077111200470477
1761501952875671000,7.500671142578125,2.685575300770998,15.597078153014182,0.9302976401615888
1761501952885728000,7.51072802734375,3.2385353465020654,14.34459971910715,1.2057705318111926
1761501952895784200,7.5207841796875,3.1733494653642174,12.658969522154331,1.6020611023843288
1761501952905840000,7.530840087890625,2.673870249930024,10.88827969981432,1.8323390537843107
1761501952915896000,7.54089599609375,1.5772756206959484,9.045777856194972,1.683563035289943
1761501952925953000,7.550953125,0.7360599202401935,7.754784105932712,1.3678414276212454
1761501952936009200,7.56100927734375,0.5072026492930949,7.333449037408828,1.0713809121962636
1761501952946065200,7.571065185546875,0.22042627334073184,7.225572015535831,0.995462843837589
1761501952956121000,7.58112109375,-0.7435057062014937,7.795679010900854,0.908981515084207
1761501952966177000,7.591177001953125,-1.080594365417212,8.722515039366483,0.017015870600193737
1761501952976234000,7.60123388671875,-0.13103227201104165,8.349813361108303,-1.3999438081942497
1761501952986290200,7.611290283203125,0.12332768898308276,6.666543463546037,-2.386546907619387
1761501952996346000,7.62134619140625,3.2760739267796275,5.248628968244791,-1.6607874321192502
1761501953006402300,7.63140234375,0.9487310494095087,5.46517620819509,-0.9104425275474787
1761501953016459300,7.641459228515625,-1.3601894515633581,5.3025020127296445,-0.47371027566641566
1761501953026515200,7.65151513671875,0.7641746924817562,5.035168588393926,0.6584343903765082
1761501953036571400,7.6615712890625,0.16022008031159637,4.844771104222536,0.9781130651079117
1761501953046627000,7.671626953125,2.247681019373238,3.8793794273912905,1.6154605360530316
1761501953056683000,7.68168310546875,2.305117601558566,1.6228630673944948,1.7177315546125174
1761501953066740000,7.691739990234375,1.5739152043521403,0.4563964450329542,1.463187615353614
1761501953076796200,7.701796142578125,2.1657053314760324,-0.2159481050133705,0.79297262468189
1761501953086852000,7.71185205078125,-0.2673708337366581,-2.0382395197749137,-0.9094999129351228
1761501953096908000,7.721907958984375,0.05438713148683309,-3.3498312369078396,-1.9396010124988852
1761501953106965000,7.731965087890625,2.2655033840507266,-4.264315733322501,-2.3674828723177312
1761501953117021200,7.742021240234375,2.2417884542033075,-4.745213582405448,-2.1598840779766437
1761501953127077000,7.7520771484375,-0.23720716614127157,-5.794566567993164,-1.40779028391093
1761501953137133000,7.762133056640625,-3.8225866960674524,-9.789771930435299,-0.8057439895801246
1761501953147190000,7.77218994140625,-7.431998258966207,-13.897531658911705,-0.8204766446139663
1761501953157246200,7.78224609375,-13.210259004324675,-15.195199480110405,-0.7641995346620678
1761501953167302100,7.79230224609375,-14.728462258327006,-13.868601332503557,-1.3483441154688596
1761501953177358000,7.802358154296875,-12.32189094594121,-10.836589260065555,-2.6643501419126987
1761501953187414300,7.812414306640625,-8.806158368214964,-7.32164052619338,-2.8535516942977903
1761501953197471200,7.82247119140625,-6.995177452018857,-5.21528433252573,-1.77209574361518
1761501953207527200,7.832527099609375,-5.751050082349777,-3.885892754808068,-0.568256106801331
1761501953217583000,7.8425830078125,-4.063976116329432,-3.3316830012768506,0.33295433588996526
1761501953227639300,7.852639404296875,-2.1326181776493787,-3.3762475346684453,0.9252520472098141
1761501953237696300,7.8626962890625,-0.853777221995592,-3.7432887029469013,1.094228046233207
1761501953247752200,7.872752197265625,-0.4996662624388933,-3.9222687210470437,0.6543228634044528
1761501953257808100,7.88280810546875,-0.8862252011358738,-3.2517034556329247,0.04451528742238879
1761501953267864300,7.8928642578125,-1.0530243675768374,-1.965526165741682,-0.3406964013841003
1761501953277921300,7.90292138671875,-0.6223088917672633,-0.40751638652980327,-0.3268287656817585
1761501953287977200,7.912977294921875,0.366208809107542,0.5798486371785402,-0.251489520124346
1761501953298033200,7.923033203125,1.5097639269590377,0.8610568576097488,-0.3019078210454434
1761501953308089300,7.93308935546875,2.229946332979202,0.8621335469305514,-0.22586488419808445
1761501953318145000,7.94314501953125,2.674796717125177,0.9408119468480348,0.1601519104462117
1761501953328202200,7.9532021484375,2.5943548146665094,1.2427420527905224,0.43223698628842827
1761501953338258200,7.963258056640625,2.1352555404156446,1.3935866942524908,0.32985278967805204
1761501953348314000,7.973314208984375,2.034520206990838,1.2546014174103737,-0.16570749874673782
1761501953358370000,7.9833701171875,2.229191130697727,1.1543757870733737,-0.8026077373810112
1761501953368427000,7.993427001953125,2.6272984683692453,1.1090466990500687,-1.4703881943821906
1761501953378483000,8.00348291015625,2.6685581149965523,0.9534890575915574,-1.716707326131314
1761501953388539100,8.0135390625,2.0922131020247936,0.767573102748394,-1.345499247431755
1761501953398595000,8.023594970703124,1.7239233949899673,0.7812748803645372,-0.8567466662604362
1761501953408652000,8.033652099609375,1.5824796190798283,1.0995710146963595,-0.44912082800678904
1761501953418708000,8.0437080078125,0.9703601128935814,1.3229460548400878,-0.3132204385027289
1761501953428764200,8.05376416015625,0.8895008618056773,1.2702695266634225,-0.09572097586151213
1761501953438820000,8.063820068359375,1.1293249324470758,0.8200485553950071,0.07516893049180508
1761501953448876000,8.0738759765625,1.0094652118355034,0.34709260522723195,0.17511106771230697
1761501953458933000,8.08393310546875,0.8862702093213796,0.010074819290637969,0.24186480095507576
1761501953468989200,8.0939892578125,0.6094698684602976,-0.21944179234802721,0.2984440904576331
1761501953479045000,8.104045166015625,0.676021777254343,-0.29084289473891256,0.23546163764819503
1761501953489101000,8.11410107421875,0.7431225521028041,-0.13561024745106695,0.14799473192356527
1761501953499158000,8.124157958984375,0.6269394741773605,0.2046498814076185,0.036338702968508
1761501953509214200,8.134214111328125,0.753477357378602,0.7576876685500145,-0.01730111499907216
1761501953519270100,8.144270263671874,0.7738076132237911,1.1552122378975151,0.14834113420844078
1761501953529326000,8.154326171875,0.5278799650102853,0.999258875119686,0.3472286526970565
1761501953539383300,8.16438330078125,0.39339375315308567,0.6381424207150935,0.46318902778252957
1761501953549439200,8.174439208984374,0.39591304249763487,0.3812514799386263,0.5040482769154012
1761501953559495200,8.1844951171875,-0.08168284243047237,0.03998363534212112,0.48368280362635846
1761501953569551000,8.194551025390625,-0.15069500385820864,-0.21595453475415705,0.4131495701111853
1761501953579607300,8.204607177734376,-0.110686234074831,-0.21349369759857653,0.28648382274657486
1761501953589664300,8.214664306640625,-0.1333387953877449,-0.20475626439154146,0.22524857893064618
1761501953599720200,8.22472021484375,-0.036758243554830546,-0.340676892966032,0.2306954461596906
1761501953609776400,8.2347763671875,-0.02541150463223457,-0.5912193414986133,0.04792765314914286
1761501953619832000,8.24483203125,0.27478257129788397,-0.698435269114375,-0.17429785163328052
1761501953629889300,8.25488916015625,0.1840495764493942,-0.588459813657403,-0.1689179852258414
1761501953639945200,8.2649453125,-0.16060615701973438,-0.6720598878860473,-0.17008775965757666
1761501953650001200,8.275001220703125,-0.5912392152428627,-0.6177320853710174,-0.08674027195051312
1761501953660057000,8.28505712890625,-0.6717997756451368,-0.45074236479401586,0.020758271998912094
1761501953670114000,8.295114013671874,-0.79544369097054,-0.16915011348128317,0.1882120298910886
1761501953680170000,8.305169921875,-1.3705682222366333,0.24943887120485303,0.5093422186050564
