time,seconds_elapsed,z,y,x
1761501945494416000,0.119415771484375,0.03976668417453766,0.04957440495491028,0.021776847541332245
1761501945504472000,0.12947216796875,0.03814934566617012,0.04330158978700638,0.02872024103999138
1761501945514527700,0.13952783203125,0.025270871818065643,0.04429531842470169,0.042711127549409866
1761501945524585000,0.1495849609375,0.017760757356882095,0.044863373041152954,0.058102600276470184
1761501945534641000,0.159640869140625,0.01183273270726204,0.04035661369562149,0.056482553482055664
1761501945544696800,0.16969677734375,0.01730233244597912,0.03095938265323639,0.047583334147930145
1761501945554752800,0.179752685546875,0.014243701472878456,0.0166334118694067,0.03468811511993408
1761501945564809000,0.18980908203125,0.010551761835813522,0.0006027799099683762,0.01692829094827175
1761501945574865000,0.199864990234375,0.007917307317256927,0.0015590651892125607,0.007113133557140827
1761501945584921900,0.209921875,-0.00599770899862051,0.025916069746017456,0.01050173956900835
1761501945594977800,0.219977783203125,-0.02555551752448082,0.04874902591109276,0.017077108845114708
1761501945605034000,0.230033935546875,-0.0372324138879776,0.06229093670845032,0.014275996014475822
1761501945615090000,0.24008984375,-0.040086522698402405,0.06341425329446793,-0.002844135742634535
1761501945625145900,0.250145751953125,-0.03145281970500946,0.06431014090776443,-0.007960334420204163
1761501945635202000,0.2602021484375,-0.025459004566073418,0.05158621445298195,-0.00885397382080555
1761501945645259000,0.270259033203125,-0.015145648270845413,0.040668051689863205,0.010560469701886177
1761501945655315000,0.28031494140625,-0.0036680055782198906,0.016056383028626442,0.02334706485271454
1761501945665371000,0.290370849609375,0.005163835361599922,-0.00820794515311718,0.02527199685573578
1761501945675427000,0.300427001953125,0.0035939058288931847,-0.022851618006825447,0.014111258089542389
1761501945685483000,0.31048291015625,-0.0021662451326847076,-0.029524700716137886,-0.012589063495397568
1761501945695539000,0.3205390625,-0.0068481420166790485,-0.024683112278580666,-0.03566360101103783
1761501945705596000,0.330595947265625,-0.008387714624404907,-0.02626955881714821,-0.0483759343624115
1761501945715652000,0.340652099609375,-0.0006546308286488056,-0.018780462443828583,-0.051713261753320694
1761501945725708000,0.3507080078125,0.00026469258591532707,-0.017849154770374298,-0.051062650978565216
1761501945735763700,0.360763671875,0.007482518441975117,-0.013481811620295048,-0.048242680728435516
1761501945745820000,0.37081982421875,0.012135060504078865,-0.0022126452531665564,-0.030856501311063766
1761501945755877000,0.380877197265625,0.010477382689714432,0.023280970752239227,0.002116680610924959
1761501945765932800,0.390932861328125,0.004603514447808266,0.06418313086032867,0.04574458673596382
1761501945775988700,0.40098876953125,0.0014635534025728703,0.1088085025548935,0.07169997692108154
1761501945786045000,0.411044921875,0.00368835823610425,0.1764621138572693,0.08167377859354019
1761501945796100900,0.421100830078125,-0.004718803334981203,0.2342003583908081,0.06932038813829422
1761501945806156800,0.43115673828125,-0.01805112138390541,0.2592143714427948,0.041790496557950974
1761501945816213800,0.4412138671875,-0.03803139925003052,0.25493618845939636,-0.0002959584817290306
1761501945826270000,0.45127001953125,-0.03389337658882141,0.23395738005638123,-0.027722788974642754
1761501945836326000,0.461325927734375,-0.020327499136328697,0.20467539131641388,-0.03652693331241608
1761501945846381800,0.4713818359375,0.0006829765625298023,0.1555539220571518,-0.020074989646673203
1761501945856438000,0.48143798828125,0.019343262538313866,0.11134178936481476,0.019741706550121307
1761501945866494000,0.491493896484375,0.02742808684706688,0.038676902651786804,0.06564901024103165
1761501945876551000,0.501551025390625,0.02356548234820366,-0.013261042535305023,0.1037263572216034
1761501945886606800,0.51160693359375,0.00041782017797231674,-0.023068133741617203,0.1203620657324791
1761501945896663000,0.5216630859375,-0.024648169055581093,-0.013614512979984283,0.12478633224964142
1761501945906719000,0.531718994140625,-0.035604409873485565,-0.0046135615557432175,0.11258932203054428
1761501945916775000,0.54177490234375,-0.039017204195261,0.0014515900984406471,0.10031112283468246
1761501945926831000,0.5518310546875,-0.04133228957653046,0.004134724382311106,0.09279914200305939
1761501945936888000,0.56188818359375,-0.038724079728126526,0.0057939691469073296,0.08304823935031891
1761501945946944000,0.571944091796875,-0.030227266252040863,0.01145398523658514,0.05753754451870918
1761501945957000000,0.582,-0.020782282575964928,0.03463407978415489,0.016420945525169373
1761501945967056000,0.592055908203125,-0.0015468019992113113,0.051135290414094925,-0.026724128052592278
1761501945977111300,0.602111328125,0.02667231857776642,0.04140649735927582,-0.04483708739280701
1761501945987167200,0.612167236328125,0.0508602112531662,0.015211110934615135,-0.045725785195827484
1761501945997224400,0.622224365234375,0.05643901601433754,-0.01984093338251114,-0.02419455349445343
1761501946007280400,0.6322802734375,0.04198337718844414,-0.04114116355776787,0.006351106334477663
1761501946017336300,0.64233642578125,0.018858246505260468,-0.047747254371643066,0.03146539628505707
1761501946027392500,0.652392578125,-0.010629337280988693,-0.03975457698106766,0.04235852509737015
1761501946037448200,0.6624482421875,-0.029968706890940666,-0.024922804906964302,0.03227730095386505
1761501946047505400,0.67250537109375,-0.026578234508633614,-0.00035328022204339504,-0.0035012064035981894
1761501946057561300,0.682561279296875,-0.026645945385098457,0.04327861964702606,-0.0424884669482708
1761501946067617300,0.6926171875,-0.006745207589119673,0.053464144468307495,-0.06741618365049362
1761501946077673200,0.702673095703125,0.02700948342680931,0.028605446219444275,-0.0654301717877388
1761501946087729200,0.712729248046875,0.047196775674819946,0.003120859619230032,-0.047112952917814255
1761501946097785300,0.722785400390625,0.04129859805107117,-0.007758114021271467,-0.02241656929254532
1761501946107842300,0.73284228515625,0.029653390869498253,0.007940953597426414,-0.008412867784500122
1761501946117898200,0.742898193359375,0.016571924090385437,0.01890687458217144,-0.00021130545064806938
1761501946127954200,0.7529541015625,0.00768042728304863,0.02012021094560623,0.012680791318416595
1761501946138010400,0.76301025390625,-0.0030265054665505886,0.020104065537452698,0.01583261229097843
1761501946148066300,0.77306640625,-0.0007122182287275791,0.028630707412958145,0.00944768451154232
1761501946158123300,0.783123291015625,0.008393961936235428,0.04114581644535065,-0.01700209639966488
1761501946168179200,0.79317919921875,0.017824482172727585,0.025411861017346382,-0.05215635523200035
1761501946178235400,0.8032353515625,0.039876583963632584,0.007910141721367836,-0.07938200235366821
1761501946188291300,0.813291259765625,0.05352874472737312,-0.019915897399187088,-0.07594892382621765
1761501946198347300,0.82334716796875,0.0502854622900486,-0.038655683398246765,-0.04741659387946129
1761501946208403500,0.833403564453125,0.034501172602176666,-0.04211166873574257,-0.0011239293962717056
1761501946218460400,0.84346044921875,0.009011803194880486,-0.027481647208333015,0.03311377018690109
1761501946228516400,0.853516357421875,-0.017578262835741043,0.003716220147907734,0.06186872348189354
1761501946238572300,0.863572265625,-0.03136492520570755,0.0338699147105217,0.07276894152164459
1761501946248628500,0.87362841796875,-0.03564675524830818,0.049310389906167984,0.06794648617506027
1761501946258684400,0.883684326171875,-0.02401682361960411,0.04965350031852722,0.043017685413360596
1761501946268740000,0.893739990234375,-0.011487449519336224,0.043470971286296844,0.017941627651453018
1761501946278797300,0.90379736328125,-0.003424502909183502,0.04362346976995468,0.0011056861840188503
1761501946288853200,0.913853271484375,-0.0051832543686032295,0.03722256049513817,-0.0005694422870874405
1761501946298909200,0.9239091796875,-0.011761844158172607,0.025000711902976036,0.0035680043511092663
1761501946308965000,0.933965087890625,-0.019077016040682793,0.022031819447875023,0.008548913523554802
1761501946319021300,0.944021240234375,-0.019078075885772705,0.019779302179813385,0.02300192415714264
1761501946329077200,0.9540771484375,-0.021544162184000015,0.015692681074142456,0.03523595631122589
1761501946339134200,0.96413427734375,-0.012851782143115997,0.013890424743294716,0.03892764076590538
1761501946349190100,0.974190185546875,-0.00007766298949718475,0.0032763960771262646,0.030776236206293106
1761501946359246300,0.984246337890625,-0.000250993762165308,-0.0005001290701329708,0.021435968577861786
1761501946369302300,0.99430224609375,-0.01251991093158722,0.025146909058094025,0.024097265675663948
1761501946379358200,1.004358154296875,-0.027027618139982224,0.06034538522362709,0.032761573791503906
1761501946389415200,1.014415283203125,-0.03001381829380989,0.07519570738077164,0.023424265906214714
1761501946399471400,1.024471435546875,-0.011180838569998741,0.032956480979919434,-0.002679818542674184
1761501946409527300,1.03452734375,0.01632269099354744,0.013661880046129227,-0.03068455494940281
1761501946419583200,1.044583251953125,0.030258208513259888,-0.01311459206044674,-0.04462916776537895
1761501946429639400,1.054639404296875,0.03328249230980873,-0.02149183116853237,-0.042608361691236496
1761501946439695400,1.0646953125,0.03275471553206444,-0.03895387426018715,-0.03097849152982235
1761501946449752300,1.07475244140625,0.014363725669682026,-0.04987043887376785,-0.0177934467792511
1761501946459808300,1.084808349609375,-0.0008598477579653263,-0.07440823316574097,-0.00962988194078207
1761501946469864400,1.094864501953125,-0.00010350998491048813,-0.10369634628295898,-0.011109801009297371
1761501946479920400,1.10492041015625,0.00018925592303276062,-0.10749781876802444,-0.006655420176684856
1761501946489976000,1.11497607421875,-0.00632696645334363,-0.09970115125179291,-0.032662518322467804
1761501946500033300,1.125033203125,0.00000432133674621582,-0.09611394256353378,-0.05621722340583801
1761501946510089500,1.13508935546875,0.0007326961494982243,-0.09679517894983292,-0.06998017430305481
1761501946520145200,1.145145263671875,-0.016978006809949875,-0.07132438570261002,-0.06943195313215256
1761501946530201000,1.155201171875,-0.042740363627672195,-0.042074352502822876,-0.057684749364852905
1761501946540257300,1.16525732421875,-0.040290165692567825,-0.02554979920387268,-0.04684407263994217
1761501946550313200,1.175313232421875,-0.03116218000650406,-0.032200511544942856,-0.042539604008197784
1761501946560370200,1.1853701171875,-0.014843041077256203,-0.044111575931310654,-0.04135612025856972
1761501946570426000,1.195426025390625,-0.012314902618527412,-0.057228442281484604,-0.03638559579849243
1761501946580482300,1.205482421875,-0.011623818427324295,-0.05916747823357582,-0.03502395749092102
1761501946590538200,1.215538330078125,-0.023409638553857803,-0.06976526230573654,-0.027709318324923515
1761501946600594200,1.22559423828125,-0.03296758234500885,-0.07428786158561707,-0.025913231074810028
1761501946610650400,1.235650390625,-0.03857087343931198,-0.07118767499923706,-0.025430932641029358
1761501946620707300,1.245707275390625,-0.033978793770074844,-0.07835527509450912,-0.048091575503349304
1761501946630763300,1.25576318359375,-0.013404544442892075,-0.08915839344263077,-0.08862408250570297
1761501946640819200,1.265819091796875,0.00876436848193407,-0.09225068986415863,-0.12837493419647217
1761501946650875400,1.27587548828125,0.01865801215171814,-0.09399479627609253,-0.1498440057039261
1761501946660931300,1.285931396484375,0.0093638114631176,-0.08411405235528946,-0.15705524384975433
1761501946670988300,1.29598828125,-0.0031969877891242504,-0.0691036805510521,-0.16270621120929718
1761501946681044200,1.306044189453125,-0.01801775023341179,-0.04821515828371048,-0.16086971759796143
1761501946691100400,1.316100341796875,-0.03681061044335365,-0.03550202399492264,-0.1673707664012909
1761501946701156400,1.32615625,-0.04825637862086296,-0.02549027092754841,-0.18881018459796906
1761501946711212300,1.33621240234375,-0.049472641199827194,-0.014799010939896107,-0.24060547351837158
1761501946721268200,1.346268310546875,-0.03463050350546837,-0.009629594162106514,-0.33290618658065796
1761501946731325400,1.356325439453125,-0.00007945159450173378,-0.007847673259675503,-0.43215474486351013
1761501946741381000,1.366381103515625,0.029739996418356895,-0.020839257165789604,-0.493815541267395
1761501946751437300,1.376437255859375,0.04206191003322601,-0.03448822349309921,-0.516988217830658
1761501946761493200,1.3864931640625,0.05020884424448013,-0.0473773330450058,-0.5094056129455566
1761501946771549200,1.396549072265625,0.05500732734799385,-0.05924784392118454,-0.4894489347934723
1761501946781606100,1.406606201171875,0.06707001477479935,-0.0795426145195961,-0.46818816661834717
1761501946791662300,1.416662353515625,0.09961171448230743,-0.09440625458955765,-0.45043206214904785
1761501946801718300,1.42671826171875,0.13990002870559692,-0.07252947986125946,-0.4362352192401886
1761501946811774200,1.436774169921875,0.14909964799880981,0.020889149978756905,-0.43050089478492737
1761501946821830400,1.446830322265625,0.13358920812606812,0.14810405671596527,-0.4220241904258728
1761501946831886300,1.45688623046875,0.12373337894678116,0.26072755455970764,-0.40289896726608276
1761501946841943300,1.466943359375,0.13168533146381378,0.33675357699394226,-0.3458329439163208
1761501946851999200,1.476999267578125,0.1242215484380722,0.33698660135269165,-0.24345169961452484
1761501946862055400,1.487055419921875,0.09984928369522095,0.24503730237483978,-0.09338225424289703
1761501946872111400,1.497111328125,0.08057252317667007,0.12929153442382812,0.08138955384492874
1761501946882167300,1.507167236328125,0.07292424887418747,0.0029983539134263992,0.21314793825149536
1761501946892224300,1.517224365234375,0.08306583017110825,-0.09773172438144684,0.27000561356544495
1761501946902280400,1.527280517578125,0.09240543842315674,-0.0981539860367775,0.2915753126144409
1761501946912336400,1.53733642578125,0.0653272196650505,-0.05201365426182747,0.3806498050689697
1761501946922392300,1.547392333984375,0.010720835998654366,0.06736031919717789,0.5400312542915344
1761501946932448500,1.557448486328125,-0.08543525636196136,0.18318013846874237,0.7156552672386169
1761501946942504200,1.567504150390625,-0.18988195061683655,0.16857746243476868,0.8069811463356018
1761501946952561400,1.5775615234375,-0.2668718099594116,0.035536330193281174,0.7704386115074158
1761501946962617300,1.587617431640625,-0.23111209273338318,-0.19629526138305664,0.6292344927787781
1761501946972673300,1.59767333984375,-0.04061831161379814,-0.4326854348182678,0.4353595972061157
1761501946982729000,1.60772900390625,0.22851485013961792,-0.6152867674827576,0.1970796287059784
1761501946992785000,1.617784912109375,0.3828040063381195,-0.6143897771835327,0.013067452237010002
1761501947002842000,1.627842041015625,0.3435305058956146,-0.5198153853416443,-0.12793782353401184
1761501947012898000,1.63789794921875,0.12740860879421234,-0.4414249658584595,-0.19993078708648682
1761501947022954000,1.6479541015625,-0.12751126289367676,-0.15073975920677185,-0.12590588629245758
1761501947033010000,1.658010009765625,-0.33111074566841125,0.03857478126883507,-0.14096952974796295
1761501947043066000,1.668066162109375,-0.39047864079475403,0.06980347633361816,-0.23873716592788696
1761501947053122000,1.6781220703125,-0.26810958981513977,-0.07461974769830704,-0.3452359139919281
1761501947063179000,1.688178955078125,-0.07007299363613129,-0.28262993693351746,-0.4039888083934784
1761501947073235000,1.69823486328125,0.1354905515909195,-0.5311291813850403,-0.4103391170501709
1761501947083291100,1.708291015625,0.29513853788375854,-0.6320602297782898,-0.40532511472702026
1761501947093347000,1.71834716796875,0.3881222605705261,-0.6443483233451843,-0.5068541765213013
1761501947103403000,1.728403076171875,0.4416769742965698,-0.580763041973114,-0.7110897898674011
1761501947113460000,1.7384599609375,0.4769451916217804,-0.5296364426612854,-0.9498371481895447
1761501947123516200,1.74851611328125,0.4585331082344055,-0.43121448159217834,-1.1511658430099487
1761501947133572000,1.758572021484375,0.34817516803741455,-0.27438119053840637,-1.2844905853271484
1761501947143628000,1.7686279296875,0.12684138119220734,-0.12957186996936798,-1.36465585231781
1761501947153684200,1.778684326171875,-0.17419809103012085,-0.09483200311660767,-1.451456069946289
1761501947163740200,1.788740234375,-0.47339996695518494,-0.06262455880641937,-1.5472774505615234
1761501947173797000,1.798797119140625,-0.6560193300247192,-0.09651754796504974,-1.6532611846923828
1761501947183853000,1.80885302734375,-0.6503623127937317,-0.18452370166778564,-1.6774725914001465
1761501947193909200,1.8189091796875,-0.5190982818603516,-0.27958551049232483,-1.6118099689483643
1761501947203965200,1.828965087890625,-0.279740571975708,-0.3330514132976532,-1.4600722789764404
1761501947214020900,1.839020751953125,0.008317852392792702,-0.25962114334106445,-1.2557284832000732
1761501947224078000,1.849078125,0.23340946435928345,-0.2087717205286026,-1.0140091180801392
1761501947234134000,1.859134033203125,0.3790401518344879,-0.10429272055625916,-0.7596951127052307
1761501947244190000,1.86918994140625,0.45974278450012207,0.041061658412218094,-0.4979226589202881
1761501947254246000,1.879245849609375,0.5022004842758179,0.13513490557670593,-0.20989751815795898
1761501947264302000,1.889302001953125,0.4449734091758728,0.06982684880495071,0.013734912499785423
1761501947274359000,1.899359130859375,0.3223654627799988,-0.07897727191448212,0.14928555488586426
1761501947284415000,1.9094150390625,0.1765892207622528,-0.1960131973028183,0.2954966425895691
1761501947294471000,1.919470947265625,0.03427441790699959,-0.23963870108127594,0.5222930312156677
1761501947304527000,1.929527099609375,-0.11482441425323486,-0.18623951077461243,0.8208087086677551
1761501947314583000,1.9395830078125,-0.25999465584754944,-0.10345569252967834,1.1682252883911133
1761501947324640000,1.949639892578125,-0.33661240339279175,-0.05326739326119423,1.528578281402588
1761501947334696000,1.959696044921875,-0.31480270624160767,-0.0006992558483034372,1.8298228979110718
1761501947344752000,1.969752197265625,-0.2001284956932068,0.13892456889152527,2.047577381134033
1761501947354808000,1.97980810546875,-0.09410937130451202,0.4017023742198944,2.1335840225219727
1761501947364864000,1.989864013671875,-0.07064922899007797,0.7732270956039429,2.0942864418029785
1761501947374920200,1.999920166015625,-0.11765935271978378,1.0449800491333008,2.0650973320007324
1761501947384977200,2.00997705078125,-0.22819286584854126,1.1724244356155396,2.2268245220184326
1761501947395033000,2.020033203125,-0.4416804015636444,1.3947837352752686,2.4810280799865723
1761501947405089000,2.030089111328125,-0.7822023630142212,1.575000524520874,2.631331205368042
1761501947415145200,2.040145263671875,-1.2427952289581299,1.584186315536499,2.539013147354126
1761501947425201200,2.050201171875,-1.4332635402679443,1.376365303993225,2.287527084350586
1761501947435258000,2.060258056640625,-0.9952733516693115,1.1368204355239868,1.8973063230514526
1761501947445314000,2.07031396484375,-0.27201327681541443,1.0379689931869507,1.1119153499603271
1761501947455370200,2.080370361328125,0.4491731524467468,1.1423414945602417,0.04860885813832283
1761501947465426000,2.090426025390625,0.7563391327857971,0.8871923089027405,-0.6181476712226868
1761501947475482000,2.100482177734375,0.6848660111427307,0.7206723093986511,-0.9015780687332153
1761501947485538000,2.1105380859375,0.45201346278190613,0.46215328574180603,-0.9170854091644287
1761501947495595000,2.120594970703125,0.21750187873840332,0.21986180543899536,-0.8653452396392822
1761501947505651000,2.13065087890625,0.04772854596376419,0.04646245017647743,-0.7353780269622803
1761501947515707100,2.14070703125,-0.04748186096549034,-0.11031278222799301,-0.40574637055397034
1761501947525763000,2.15076318359375,0.031813617795705795,-0.20382992923259735,0.14556628465652466
1761501947535819000,2.160819091796875,0.18553899228572845,-0.3367980718612671,0.6650701761245728
1761501947545876000,2.1708759765625,0.33268100023269653,-0.43315452337265015,0.8116042613983154
1761501947555932200,2.18093212890625,0.4984867572784424,-0.3365406394004822,0.5343363881111145
1761501947565988000,2.190988037109375,0.5997326374053955,-0.14822609722614288,0.13430790603160858
1761501947576044000,2.2010439453125,0.5210668444633484,0.0437859445810318,-0.1687536984682083
1761501947586100200,2.211100341796875,0.3275924623012543,0.42376908659935,-0.4050840735435486
1761501947596157200,2.2211572265625,0.05901399627327919,0.9200720191001892,-0.544924795627594
1761501947606213000,2.231213134765625,-0.2653864026069641,1.3483058214187622,-0.4630902111530304
1761501947616269000,2.24126904296875,-0.5320002436637878,1.6140823364257812,-0.250778466463089
1761501947626325200,2.2513251953125,-0.5334407687187195,1.7284727096557617,0.03616531193256378
1761501947636381200,2.261381103515625,-0.25258538126945496,1.5266567468643188,0.10043564438819885
1761501947646437000,2.27143701171875,0.08498211205005646,1.0642105340957642,-0.2070581465959549
1761501947656494000,2.281494140625,0.26506903767585754,0.4794396758079529,-0.5386296510696411
1761501947666550300,2.29155029296875,0.268442839384079,-0.03149641677737236,-0.7420455813407898
1761501947676606200,2.301606201171875,0.13278888165950775,-0.576370120048523,-0.9794413447380066
1761501947686662000,2.311661865234375,-0.02039019763469696,-1.1764549016952515,-1.1709290742874146
1761501947696718000,2.321718017578125,-0.038770269602537155,-1.458921194076538,-1.1652789115905762
1761501947706775300,2.331775390625,0.02069227583706379,-1.4020330905914307,-0.9486292600631714
1761501947716831000,2.3418310546875,0.08850967139005661,-1.1312096118927002,-0.5910905599594116
1761501947726887000,2.351886962890625,0.12181346118450165,-0.7809475064277649,-0.2050047516822815
1761501947736943000,2.361943115234375,0.23540766537189484,-0.3547373414039612,0.05097535625100136
1761501947746999000,2.3719990234375,0.401116281747818,-0.055338166654109955,0.15470297634601593
1761501947757056000,2.382055908203125,0.4799697995185852,0.2130160629749298,0.21570375561714172
1761501947767112000,2.39211181640625,0.3500205874443054,0.46971938014030457,0.2614494264125824
1761501947777168100,2.402168212890625,0.1586226522922516,0.5723655819892883,0.2650233805179596
1761501947787224000,2.41222412109375,0.05963335931301117,0.46487534046173096,0.22362861037254333
1761501947797280000,2.422280029296875,0.026206957176327705,0.12023647129535675,0.14512261748313904
1761501947807337000,2.4323369140625,0.022868111729621887,-0.2586510479450226,0.0906255841255188
1761501947817393200,2.44239306640625,0.05001824349164963,-0.5873639583587646,0.1333746463060379
1761501947827449000,2.452448974609375,0.11171615123748779,-0.8224169611930847,0.25893402099609375
1761501947837505000,2.462505126953125,0.23656673729419708,-0.9664050340652466,0.3840642273426056
1761501947847561200,2.472561279296875,0.39023563265800476,-0.9526997208595276,0.3671974241733551
1761501947857617200,2.4826171875,0.48317089676856995,-0.7785609364509583,0.211006760597229
1761501947867674000,2.492674072265625,0.4154585301876068,-0.33187997341156006,0.02719281241297722
1761501947877730000,2.50272998046875,0.16392935812473297,0.0913621038198471,-0.1140894815325737
1761501947887786200,2.5127861328125,-0.0459483340382576,0.21866796910762787,-0.08255450427532196
1761501947897842200,2.52284228515625,-0.17904353141784668,0.21630361676216125,0.09924565255641937
1761501947907898000,2.532898193359375,-0.17206385731697083,0.10243849456310272,0.414433091878891
1761501947917955000,2.542955078125,0.008555199950933456,-0.07491524517536163,0.660132646560669
1761501947928011300,2.55301123046875,0.34937629103660583,-0.3027092516422272,0.5295320749282837
1761501947938067000,2.56306689453125,0.8010380268096924,-0.42650550603866577,0.0574587881565094
1761501947948123000,2.573122802734375,1.042464256286621,-0.3871327042579651,-0.5058804750442505
1761501947958179000,2.583178955078125,0.9872423410415649,-0.2762272357940674,-0.977920413017273
1761501947968236000,2.593236083984375,0.7418984770774841,-0.41730302572250366,-1.1553632020950317
1761501947978297600,2.603297607421875,0.4021334648132324,-0.7268312573432922,-0.9895939826965332
1761501947988353500,2.613353515625,0.06484934687614441,-0.7654286623001099,-0.5925899744033813
1761501947998409500,2.623409423828125,-0.33610180020332336,-0.5449106693267822,-0.006423650775104761
1761501948008465400,2.63346533203125,-0.5943991541862488,-0.3907823860645294,0.5337259769439697
1761501948018522600,2.643522705078125,-0.6375908255577087,-0.5610764026641846,0.6617909669876099
1761501948028578600,2.65357861328125,-0.3107006251811981,-0.700565755367279,0.6036586165428162
1761501948038634500,2.663634521484375,0.051821887493133545,-0.7261435389518738,0.2020888775587082
1761501948048690400,2.6736904296875,0.4329516291618347,-0.7304880619049072,-0.44731760025024414
1761501948058746600,2.68374658203125,0.625461995601654,-0.4208209812641144,-0.6384750604629517
1761501948068803600,2.693803466796875,0.3857679069042206,0.17945827543735504,0.02395295724272728
1761501948078859500,2.703859619140625,-0.1559470295906067,1.3400113582611084,1.005808711051941
1761501948088915700,2.713915771484375,-0.2731115520000458,1.4149326086044312,1.1911932229995728
1761501948098971600,2.7239716796875,-0.17176975309848785,1.2400883436203003,0.8943557143211365
1761501948109027600,2.734027587890625,0.05456974729895592,1.2523963451385498,0.38919034600257874
1761501948119083500,2.74408349609375,0.36023059487342834,0.9239861965179443,-0.05470933020114899
1761501948129140700,2.754140625,0.5490413904190063,0.6451399922370911,-0.39904963970184326
1761501948139196700,2.76419677734375,0.6424544453620911,0.3416083753108978,-0.4908581078052521
1761501948149252600,2.774252685546875,0.48847496509552,0.03430536016821861,-0.3721393048763275
1761501948159308500,2.78430859375,0.2177625149488449,-0.11926022917032242,-0.31304189562797546
1761501948169364500,2.794364501953125,-0.04625551775097847,-0.12775178253650665,-0.3486732244491577
1761501948179421700,2.804421630859375,-0.25264889001846313,-0.10437162220478058,-0.3172716200351715
1761501948189477600,2.8144775390625,-0.3400505483150482,-0.003839501179754734,-0.015438821166753769
1761501948199533600,2.824533447265625,-0.3556598722934723,-0.1309918612241745,0.4809192717075348
1761501948209589500,2.834589599609375,-0.2764767110347748,-0.32411637902259827,0.6552004814147949
1761501948219645400,2.8446455078125,-0.03312423825263977,-0.5106870532035828,0.5487470626831055
1761501948229702400,2.854702392578125,0.06332284957170486,-0.4826827645301819,0.29623034596443176
1761501948239758600,2.864758544921875,0.0771678239107132,-0.5504035353660583,0.047218114137649536
1761501948249814500,2.874814453125,0.047048717737197876,-0.636755645275116,-0.15782688558101654
1761501948259870500,2.884870361328125,-0.02465848997235298,-0.7054654359817505,-0.23479729890823364
1761501948269926700,2.8949267578125,-0.16978909075260162,-0.7802082300186157,-0.34174856543540955
1761501948279983600,2.904983642578125,-0.34465599060058594,-0.8340005874633789,-0.4630590081214905
1761501948290039600,2.91503955078125,-0.38832226395606995,-0.7483776807785034,-0.4817100465297699
1761501948300095500,2.925095458984375,-0.38076502084732056,-0.31315353512763977,-0.21733832359313965
1761501948310151700,2.935151611328125,-0.3523886203765869,0.12450053542852402,0.10204094648361206
1761501948320207600,2.94520751953125,-0.2566208243370056,0.34467044472694397,0.30315807461738586
1761501948330264600,2.9552646484375,-0.19533295929431915,0.4303170442581177,0.2910725176334381
1761501948340320500,2.965320556640625,-0.1649678647518158,0.3927465081214905,0.1562579721212387
1761501948350376700,2.975376708984375,-0.19164392352104187,0.23308077454566956,0.07982172816991806
1761501948360432600,2.9854326171875,-0.2610645294189453,0.03942423313856125,0.14009572565555573
1761501948370488600,2.995488525390625,-0.27106544375419617,-0.14389891922473907,0.2801525592803955
1761501948380545500,3.005545654296875,-0.23402857780456543,-0.3348739445209503,0.45956066250801086
1761501948390601700,3.015601806640625,-0.18820513784885406,-0.40310776233673096,0.5532085299491882
1761501948400657700,3.02565771484375,-0.14927984774112701,-0.3216935992240906,0.4999040365219116
1761501948410713600,3.035713623046875,-0.0901290774345398,-0.22220227122306824,0.34935131669044495
1761501948420769500,3.04576953125,-0.016388803720474243,-0.17661960422992706,0.14677771925926208
1761501948430826800,3.05582666015625,-0.008327065035700798,-0.15345948934555054,0.007820609956979752
1761501948440882700,3.065882568359375,-0.07880016416311264,-0.15349198877811432,0.040886953473091125
1761501948450938400,3.0759384765625,-0.1968437135219574,-0.08470560610294342,0.13594403862953186
1761501948460994600,3.08599462890625,-0.23394687473773956,0.044766638427972794,-0.037608832120895386
1761501948471050500,3.096050537109375,-0.09451679140329361,0.06486587226390839,-0.45343053340911865
1761501948481107500,3.106107421875,0.1831342577934265,0.23866111040115356,-0.28234320878982544
1761501948491163400,3.116163330078125,0.23874826729297638,0.6142026782035828,0.35228684544563293
1761501948501219600,3.126219482421875,0.10371135175228119,0.837744414806366,0.7864750623703003
1761501948511275500,3.136275634765625,-0.12128269672393799,0.7248210906982422,1.0513274669647217
1761501948521331500,3.14633154296875,-0.35641637444496155,0.38787558674812317,1.2478551864624023
1761501948531388400,3.156388427734375,-0.489582896232605,-0.044410403817892075,1.310581922531128
1761501948541444600,3.166444580078125,-0.6802625060081482,-0.47570401430130005,1.3531243801116943
1761501948551500500,3.17650048828125,-0.7552025318145752,-0.6209818124771118,1.427198886871338
1761501948561556500,3.186556396484375,-0.5485790967941284,-0.6047424077987671,1.1963430643081665
1761501948571612700,3.19661279296875,-0.10323376953601837,-0.47122079133987427,0.5756564140319824
1761501948581669600,3.206669677734375,0.315252423286438,-0.10183876007795334,0.12632785737514496
1761501948591725600,3.2167255859375,0.4905397891998291,0.2832484245300293,0.08729249984025955
1761501948601781500,3.226781494140625,0.40149620175361633,0.6901764869689941,0.1963992863893509
1761501948611837700,3.236837646484375,0.2042876034975052,0.9585460424423218,0.1758541464805603
1761501948621893600,3.2468935546875,-0.02682657167315483,0.9823381900787354,0.09035815298557281
1761501948631950600,3.25695068359375,-0.21730643510818481,0.8016296029090881,0.055913832038640976
1761501948642006500,3.267006591796875,-0.3725726902484894,0.483754426240921,0.22025750577449799
1761501948652062700,3.277062744140625,-0.48813050985336304,0.045035574585199356,0.5646442174911499
1761501948662118700,3.28711865234375,-0.5272259712219238,-0.27094343304634094,0.8736949563026428
1761501948672174300,3.29717431640625,-0.4140187203884125,-0.5049067735671997,1.0759265422821045
1761501948682231600,3.3072314453125,-0.18789900839328766,-0.5886293649673462,1.2648009061813354
1761501948692287700,3.317287841796875,0.016143321990966797,-0.45277276635169983,1.2612597942352295
1761501948702343400,3.327343505859375,0.13636133074760437,-0.3369705379009247,0.8514465689659119
1761501948712399400,3.3373994140625,0.14113734662532806,-0.24261662364006042,0.2752525806427002
1761501948722455600,3.34745556640625,0.021397897973656654,-0.16744783520698547,-0.21856378018856049
1761501948732512500,3.357512451171875,-0.1797761768102646,-0.16616465151309967,-0.5215625166893005
1761501948742568400,3.367568359375,-0.3876305818557739,-0.09316127747297287,-0.696588933467865
1761501948752624400,3.377624267578125,-0.48613446950912476,-0.11749209463596344,-0.7198452353477478
1761501948762680600,3.3876806640625,-0.4054758548736572,-0.2889306843280792,-0.6890316605567932
1761501948772736500,3.397736572265625,-0.14944882690906525,-0.5358256101608276,-0.6900687217712402
1761501948782793500,3.40779345703125,0.11734426766633987,-0.7731284499168396,-0.6864396333694458
1761501948792849700,3.417849609375,0.2716040313243866,-0.9135857224464417,-0.7093941569328308
1761501948802905600,3.427905517578125,0.2830308675765991,-0.8957548141479492,-0.8062237501144409
1761501948812961500,3.43796142578125,0.20387880504131317,-0.6292462944984436,-0.9595534801483154
1761501948823017500,3.448017578125,0.11051902920007706,-0.21840521693229675,-1.016379714012146
1761501948833074700,3.45807470703125,0.07140316069126129,0.11672061681747437,-0.855470597743988
1761501948843130600,3.468130615234375,0.11550271511077881,0.22071093320846558,-0.5966193079948425
1761501948853186600,3.4781865234375,0.21757130324840546,0.12990710139274597,-0.40392687916755676
1761501948863242800,3.48824267578125,0.19144968688488007,-0.11978369951248169,-0.345926970243454
1761501948873298700,3.498298583984375,0.11663789302110672,-0.387221097946167,-0.3719227612018585
1761501948883355600,3.508355712890625,0.06704796850681305,-0.5608776211738586,-0.44617435336112976
1761501948893411600,3.51841162109375,0.004126688465476036,-0.5184469223022461,-0.4438668191432953
1761501948903467800,3.5284677734375,-0.020313140004873276,-0.26797422766685486,-0.2990531921386719
1761501948913523700,3.538523681640625,0.0028388001956045628,-0.024053199216723442,-0.00004270533099770546
1761501948923579400,3.548579345703125,0.0005042729899287224,0.10763851553201675,0.23465795814990997
1761501948933636600,3.55863671875,-0.05554382503032684,0.13492393493652344,0.2413504421710968
1761501948943692800,3.56869287109375,-0.06117108464241028,0.07028156518936157,-0.08006779849529266
1761501948953748500,3.57874853515625,-0.009175685234367847,0.019162878394126892,-0.6799407601356506
1761501948963804400,3.588804443359375,-0.01614517718553543,0.0771007388830185,-1.4325604438781738
1761501948973860600,3.598860595703125,0.05572433024644852,0.19578267633914948,-1.8662848472595215
1761501948983912000,3.608911865234375,0.2130710780620575,0.4546853303909302,-1.6957472562789917
1761501948993968000,3.618968017578125,0.2826637029647827,0.8458114862442017,-0.880654513835907
1761501949004023800,3.62902392578125,0.04023401811718941,1.1081900596618652,0.2244817316532135
1761501949014079700,3.639079833984375,-0.2875295579433441,1.2063771486282349,1.1693929433822632
1761501949024136000,3.649135986328125,-0.3619726598262787,1.101244568824768,1.407379388809204
1761501949034193000,3.65919287109375,-0.3232530355453491,0.9380167126655579,1.0690152645111084
1761501949044248800,3.669248779296875,-0.21898655593395233,0.8985273838043213,0.6708383560180664
1761501949054304800,3.6793046875,0.004325506277382374,0.8879327774047852,0.292736679315567
1761501949064361000,3.68936083984375,0.288260281085968,0.7353485226631165,0.016970615833997726
1761501949074417000,3.6994169921875,0.4830667972564697,0.30071690678596497,0.12214896827936172
1761501949084473900,3.709473876953125,0.5382964611053467,-0.11352768540382385,0.4910372495651245
1761501949094529800,3.71952978515625,0.5083282589912415,-0.3605538010597229,0.8194630742073059
1761501949104586000,3.7295859375,0.42818179726600647,-0.41117435693740845,0.9927272200584412
1761501949114642000,3.739641845703125,0.3676031827926636,-0.2255905717611313,1.032846450805664
1761501949124697900,3.74969775390625,0.2832440733909607,0.08615826815366745,0.9387670755386353
1761501949134754800,3.7597548828125,0.2732735276222229,0.26418694853782654,0.9186431765556335
1761501949144811000,3.76981103515625,0.3609168231487274,0.32124224305152893,0.9120765924453735
1761501949154867000,3.779866943359375,0.47512826323509216,0.3813306987285614,0.9340394139289856
1761501949164923000,3.7899228515625,0.5700305104255676,0.3995709717273712,1.085470199584961
1761501949174979000,3.79997900390625,0.608129620552063,0.25855132937431335,1.1508809328079224
1761501949185036000,3.8100361328125,0.49118995666503906,0.09682156145572662,0.890521764755249
1761501949195092000,3.820092041015625,0.26648834347724915,-0.06485062092542648,0.5780683159828186
1761501949205148000,3.83014794921875,-0.10559947788715363,-0.24587446451187134,0.32499322295188904
1761501949215204000,3.8402041015625,-0.4791979193687439,-0.3436800241470337,0.05088331922888756
1761501949225260000,3.850260009765625,-0.6827616691589355,-0.417662113904953,-0.19893291592597961
1761501949235317000,3.86031689453125,-0.6789113283157349,-0.40788403153419495,-0.3825821280479431
1761501949245373000,3.870373046875,-0.6355694532394409,-0.23778606951236725,-0.4854845404624939
1761501949255428900,3.880428955078125,-0.5983322262763977,-0.08448594063520432,-0.41860899329185486
1761501949265484800,3.89048486328125,-0.6064794063568115,-0.0503426156938076,-0.2786811888217926
1761501949275540700,3.900540771484375,-0.5753914713859558,-0.19459128379821777,-0.18830397725105286
1761501949285597700,3.91059765625,-0.44692671298980713,-0.37788522243499756,-0.1574169099330902
1761501949295654000,3.92065380859375,-0.1986408680677414,-0.5171102285385132,-0.18365246057510376
1761501949305709800,3.930709716796875,0.09525786340236664,-0.5401849746704102,-0.27269819378852844
1761501949315765800,3.940765869140625,0.30065035820007324,-0.47590383887290955,-0.31711623072624207
1761501949325822700,3.95082275390625,0.42030033469200134,-0.32338273525238037,-0.2744278609752655
1761501949335879000,3.96087890625,0.4163497984409332,-0.18404445052146912,-0.09011303633451462
1761501949345934800,3.970934814453125,0.27321261167526245,-0.08315218985080719,0.20686058700084686
1761501949355990800,3.98099072265625,0.06570858508348465,-0.07102657854557037,0.5022196173667908
1761501949366047000,3.991046875,-0.06443104892969131,-0.08637703210115433,0.6912590861320496
1761501949376104000,4.00110400390625,-0.04977818951010704,-0.027503207325935364,0.6740416288375854
1761501949386159900,4.011159912109375,0.02610618993639946,-0.01439512800425291,0.43180230259895325
1761501949396215800,4.0212158203125,0.11215021461248398,-0.049124035984277725,0.024763621389865875
1761501949406272000,4.03127197265625,0.10627394914627075,-0.009805124253034592,-0.41659167408943176
1761501949416328000,4.041327880859375,-0.026843249797821045,0.05942058190703392,-0.7295347452163696
1761501949426385000,4.051385009765625,-0.2189546376466751,0.093241386115551,-0.8061200976371765
1761501949436440800,4.06144091796875,-0.4338531196117401,-0.046583596616983414,-0.6800661087036133
1761501949446497000,4.0714970703125,-0.5453721880912781,0.02251504734158516,-0.6652624011039734
1761501949456553000,4.081552978515625,-0.5192388296127319,0.4070744216442108,-0.9858528971672058
1761501949466609000,4.09160888671875,-0.44358348846435547,0.7187199592590332,-1.505812406539917
1761501949476665900,4.101665771484375,-0.2377973049879074,0.8841043710708618,-1.741377830505371
1761501949486722000,4.11172216796875,-0.03665008395910263,0.9525007605552673,-1.122339129447937
1761501949496778000,4.121778076171875,0.004277394153177738,0.6365417242050171,-0.13294804096221924
1761501949506833700,4.131833740234375,0.0476648174226284,0.1523268073797226,0.6882305145263672
1761501949516889900,4.141889892578125,0.04347453638911247,-0.20127421617507935,1.0427166223526
1761501949526947000,4.151947021484375,0.19111965596675873,-0.474396288394928,1.0015121698379517
1761501949537002800,4.162002685546875,0.4682621657848358,-0.6939011812210083,0.6556141376495361
1761501949547059000,4.172058837890625,0.7213218808174133,-0.7901874780654907,0.19812168180942535
1761501949557115000,4.182114990234375,0.7865186333656311,-0.7681030631065369,-0.08984972536563873
1761501949567170800,4.1921708984375,0.9020596146583557,-0.70891273021698,-0.15047791600227356
1761501949577227800,4.202227783203125,1.1249886751174927,-0.5650467872619629,-0.0627724677324295
1761501949587284000,4.212283935546875,1.2203724384307861,-0.34229737520217896,0.2584657371044159
1761501949597340000,4.22233984375,1.0977221727371216,-0.1829575151205063,0.6378300786018372
1761501949607395800,4.232395751953125,0.8240363001823425,-0.09057778120040894,0.8679420948028564
1761501949617452800,4.242452880859375,0.4242284595966339,-0.03069065324962139,0.919553816318512
1761501949627509000,4.252509033203125,-0.008859077468514442,0.034398335963487625,0.8852201104164124
1761501949637565000,4.26256494140625,-0.3369945287704468,0.06909642368555069,0.8750982284545898
1761501949647620900,4.272620849609375,-0.4659988582134247,0.1647891253232956,0.865151047706604
1761501949657677000,4.282677001953125,-0.373923659324646,0.3031741976737976,0.8623149394989014
1761501949667734000,4.292734130859375,-0.11428622156381607,0.443424791097641,0.7841626405715942
1761501949677790000,4.3027900390625,0.21979734301567078,0.5316270589828491,0.6304340362548828
1761501949687846000,4.312845947265625,0.45008647441864014,0.5156145095825195,0.44573506712913513
1761501949697902000,4.322902099609375,0.4801744222640991,0.3682953119277954,0.2601419985294342
1761501949707958000,4.3329580078125,0.3279305696487427,0.12471622228622437,0.11467641592025757
1761501949718015000,4.343014892578125,0.03750203922390938,-0.1705034226179123,-0.025014732033014297
1761501949728071000,4.35307080078125,-0.2538086175918579,-0.4291006326675415,-0.15548565983772278
1761501949738127000,4.363127197265625,-0.44202911853790283,-0.5522707104682922,-0.2783556282520294
1761501949748183000,4.37318310546875,-0.48854658007621765,-0.504609227180481,-0.4432985186576843
1761501949758238700,4.38323876953125,-0.4072116017341614,-0.2973887026309967,-0.6360865235328674
1761501949768296000,4.3932958984375,-0.2238473743200302,-0.04076249152421951,-0.8357000350952148
1761501949778352000,4.40335205078125,0.03142108395695686,0.12180982530117035,-1.0211130380630493
1761501949788407800,4.41340771484375,0.24230456352233887,0.20311400294303894,-1.1128355264663696
1761501949798463700,4.423463623046875,0.27422088384628296,0.31068819761276245,-1.050468921661377
1761501949808520700,4.433520751953125,0.15645191073417664,0.33393120765686035,-0.8307211995124817
1761501949818577000,4.443576904296875,-0.014245035126805305,0.27908051013946533,-0.537926435470581
1761501949828632800,4.4536328125,-0.17397211492061615,0.1381598711013794,-0.28294771909713745
1761501949838688800,4.463688720703125,-0.26031047105789185,-0.08332884311676025,-0.09275329858064651
1761501949848745000,4.473744873046875,-0.2821585237979889,-0.28336766362190247,0.028553688898682594
1761501949858802000,4.483802001953125,-0.265160471200943,-0.3936708867549896,0.015795765444636345
1761501949868857900,4.49385791015625,-0.1804801970720291,-0.4386892318725586,-0.1273166537284851
1761501949878913800,4.503913818359375,-0.011285612359642982,-0.3938281238079071,-0.36004042625427246
1761501949888970000,4.513969970703125,0.16681674122810364,-0.2560473382472992,-0.5592024922370911
1761501949899026000,4.52402587890625,0.30594438314437866,-0.06702335923910141,-0.6236577033996582
1761501949909083000,4.534082763671875,0.32736366987228394,0.09863964468240738,-0.494256854057312
1761501949919138800,4.544138916015625,0.2368597388267517,0.19189447164535522,-0.213746577501297
1761501949929195000,4.554195068359375,0.08088133484125137,0.18181760609149933,0.09646241366863251
1761501949939251000,4.5642509765625,-0.062066227197647095,0.06417831778526306,0.2370472550392151
1761501949949308000,4.574307861328125,-0.1746833175420761,-0.03816935420036316,-0.0005972548387944698
1761501949959363800,4.58436376953125,-0.3348172903060913,-0.04944748803973198,-0.6243394017219543
1761501949969420000,4.594419921875,-0.4505974054336548,0.07686277478933334,-1.080599069595337
1761501949979476700,4.604476806640625,-0.5287962555885315,0.45489245653152466,-0.7760775685310364
1761501949989532700,4.61453271484375,-0.6268296241760254,0.6941778063774109,-0.02017470821738243
1761501949999589600,4.624589599609375,-0.5326524972915649,0.6971831321716309,0.6603237986564636
1761501950009645800,4.634645751953125,-0.31468528509140015,0.8804344534873962,1.0190953016281128
1761501950019701800,4.64470166015625,0.025770757347345352,1.0905836820602417,1.0366661548614502
1761501950029757700,4.6547578125,0.33432966470718384,0.9923498034477234,0.9380894303321838
1761501950039813600,4.664813720703125,0.4137861430644989,0.6818540692329407,0.7315095663070679
1761501950049870800,4.674870849609375,0.31703564524650574,0.3132912814617157,0.4383845031261444
1761501950059926800,4.6849267578125,0.25746580958366394,-0.1273624449968338,0.07515401393175125
1761501950069982700,4.694982666015625,0.23509444296360016,-0.42319703102111816,-0.42040035128593445
1761501950080038700,4.70503857421875,0.05662515014410019,-0.3145900368690491,-0.7098912596702576
1761501950090094600,4.715094482421875,-0.23941422998905182,-0.023686297237873077,-0.5913891196250916
1761501950100151600,4.725151611328125,-0.5323966145515442,0.3528931140899658,-0.07448774576187134
1761501950110207500,4.73520751953125,-0.576497495174408,0.6076138615608215,0.6653165817260742
1761501950120263700,4.745263671875,-0.5357624888420105,0.7235130667686462,1.3580325841903687
1761501950130319600,4.755319580078125,-0.43627315759658813,0.6708605289459229,1.7668992280960083
1761501950140375600,4.76537548828125,-0.2164199948310852,0.5349658727645874,1.8451048135757446
1761501950150432500,4.7754326171875,0.022034646943211555,0.4036855697631836,1.579326868057251
1761501950160488700,4.78548876953125,0.22369839251041412,0.233282670378685,1.2432206869125366
1761501950170544600,4.795544677734375,0.33736902475357056,0.14077696204185486,0.9163528084754944
1761501950180600600,4.8056005859375,0.31750020384788513,0.21433594822883606,0.6862868666648865
1761501950190657500,4.815657470703125,0.19753436744213104,0.34138497710227966,0.6000052690505981
1761501950200713700,4.825713623046875,-0.01289297640323639,0.3097950220108032,0.6724170446395874
1761501950210769700,4.835769775390625,-0.24099405109882355,0.10704085230827332,0.7817174196243286
1761501950220825600,4.84582568359375,-0.37487712502479553,-0.09713057428598404,0.6660749912261963
1761501950230881800,4.8558818359375,-0.37548723816871643,-0.1573033630847931,0.25490206480026245
1761501950240938800,4.865938720703125,-0.33608177304267883,-0.1764867603778839,-0.24858038127422333
1761501950250994700,4.87599462890625,-0.3244003653526306,-0.10173609107732773,-0.6784433722496033
1761501950261050600,4.886050537109375,-0.323682576417923,-0.0129889827221632,-0.9792271852493286
1761501950271106800,4.89610693359375,-0.35008329153060913,-0.047864142805337906,-1.0976134538650513
1761501950281163800,4.906163818359375,-0.3508911430835724,-0.1687900274991989,-0.9660312533378601
1761501950291219700,4.9162197265625,-0.2838979959487915,-0.24092601239681244,-0.6763685345649719
1761501950301275600,4.926275634765625,-0.20901323854923248,-0.26338765025138855,-0.3922513425350189
1761501950311331800,4.936331787109375,-0.13929781317710876,-0.34914302825927734,-0.28394776582717896
1761501950321387800,4.9463876953125,-0.014334291219711304,-0.4820786118507385,-0.3059042990207672
1761501950331444700,4.95644482421875,0.14112506806850433,-0.5545152425765991,-0.4880123436450958
1761501950341500700,4.966500732421875,0.26696380972862244,-0.5415326952934265,-0.791946291923523
1761501950351556600,4.976556640625,0.3573392629623413,-0.4584159851074219,-1.0460381507873535
1761501950361612500,4.986612548828125,0.3817347586154938,-0.36443212628364563,-1.1056766510009766
1761501950371669800,4.996669677734375,0.32690373063087463,-0.3561752736568451,-0.9396880865097046
1761501950381725400,5.006725341796875,0.21337547898292542,-0.3854634165763855,-0.6441090703010559
1761501950391781600,5.01678173828125,0.09066846966743469,-0.3920387625694275,-0.33103370666503906
1761501950401837600,5.026837646484375,0.04590186849236488,-0.28094425797462463,-0.13680624961853027
1761501950411893500,5.0368935546875,0.08639603108167648,-0.08275395631790161,-0.06456587463617325
1761501950421950500,5.046950439453125,0.17328239977359772,0.09793946146965027,-0.09337878227233887
1761501950432006700,5.057006591796875,0.26913729310035706,0.20018194615840912,-0.18484479188919067
1761501950442062600,5.0670625,0.22483870387077332,0.30114418268203735,-0.25620037317276
1761501950452118500,5.077118408203125,0.009827064350247383,0.45786190032958984,-0.20043671131134033
1761501950462174700,5.0871748046875,-0.22299493849277496,0.5074665546417236,0.019953789189457893
1761501950472231700,5.097231689453125,-0.3185350298881531,0.3949698209762573,0.23790262639522552
1761501950482287600,5.10728759765625,-0.18136587738990784,0.3048314154148102,0.47167304158210754
1761501950492343600,5.117343505859375,0.12013459205627441,0.42545396089553833,0.7728554606437683
1761501950502399700,5.127399658203125,0.20445650815963745,0.49956604838371277,0.9410029053688049
1761501950512456700,5.137456787109375,-0.035835981369018555,0.6532661318778992,0.9282585978507996
1761501950522511600,5.14751171875,-0.44953984022140503,0.867587149143219,0.9414322376251221
1761501950532567800,5.15756787109375,-0.6614401340484619,0.9927077293395996,1.0297496318817139
1761501950542623700,5.167623779296875,-0.5963521599769592,1.0279179811477661,0.9264037013053894
1761501950552679400,5.177679443359375,-0.3378521800041199,0.950353741645813,0.6582441329956055
1761501950562736600,5.187736572265625,0.005753861740231514,0.903418779373169,0.2834831178188324
1761501950572792800,5.197792724609375,0.3072183430194855,0.7401078939437866,-0.1769331991672516
1761501950582848500,5.2078486328125,0.5378878712654114,0.33065077662467957,-0.594203770160675
1761501950592904400,5.217904541015625,0.5931053757667542,-0.10473557561635971,-0.5949230790138245
1761501950602960600,5.227960693359375,0.2503942847251892,-0.385740727186203,-0.10409733653068542
1761501950613017600,5.238017578125,-0.3536362051963806,-0.4385858178138733,0.5500580668449402
1761501950623073500,5.248073486328125,-0.9138332605361938,-0.5015912055969238,1.0267783403396606
1761501950633129500,5.25812939453125,-1.1350327730178833,-0.5969638228416443,1.2107921838760376
1761501950643185700,5.268185546875,-1.0379390716552734,-0.4335425794124603,1.1377053260803223
1761501950653241600,5.27824169921875,-0.6864068508148193,-0.016162395477294922,0.8393982648849487
1761501950663298600,5.288298583984375,-0.22257722914218903,0.6201234459877014,0.40041759610176086
1761501950673354800,5.298354736328125,0.24550580978393555,1.0593903064727783,-0.1048799529671669
1761501950683410700,5.30841064453125,0.5996249914169312,0.8179919123649597,-0.5356125831604004
1761501950693466600,5.318466552734375,0.7068020701408386,0.11310195177793503,-0.7305874228477478
1761501950703523600,5.328523681640625,0.5888670086860657,-0.5617578029632568,-0.6155162453651428
1761501950713579800,5.338579833984375,0.3910447061061859,-0.9622977375984192,-0.21839389204978943
1761501950723635700,5.3486357421875,0.0354955829679966,-1.1290701627731323,0.24681879580020905
1761501950733691600,5.358691650390625,-0.3294903635978699,-1.0813785791397095,0.5446920394897461
1761501950743747600,5.36874755859375,-0.5266273617744446,-0.8229218125343323,0.582275927066803
1761501950753804800,5.3788046875,-0.5207127332687378,-0.4661882221698761,0.41614821553230286
1761501950763860700,5.38886083984375,-0.38933977484703064,-0.14346201717853546,0.1189473569393158
1761501950773916700,5.398916748046875,-0.18228405714035034,0.0811479240655899,-0.264707088470459
1761501950783972900,5.408972900390625,0.03317650407552719,0.1939624398946762,-0.6129838228225708
1761501950794029800,5.41902978515625,0.2273571640253067,0.21124635636806488,-0.8145065307617188
1761501950804085800,5.429085693359375,0.27940040826797485,0.1626850962638855,-0.7627012133598328
1761501950814141700,5.4391416015625,0.18739429116249084,0.02334584668278694,-0.4543732702732086
1761501950824198000,5.449197998046875,0.11076434701681137,-0.08070357143878937,-0.12690654397010803
1761501950834253600,5.459253662109375,0.10888415575027466,-0.13156355917453766,-0.002298296196386218
1761501950844310800,5.469310791015625,0.14691640436649323,-0.1166556254029274,-0.11065967381000519
1761501950854366500,5.479366455078125,0.22068622708320618,-0.07101037353277206,-0.3279586732387543
1761501950864422700,5.489422607421875,0.3042813539505005,-0.060685817152261734,-0.5706002116203308
1761501950874478600,5.499478515625,0.4008385241031647,-0.04435291513800621,-0.7526538968086243
1761501950884535600,5.50953564453125,0.4602490961551666,-0.006115604192018509,-0.8466917276382446
1761501950894591500,5.519591552734375,0.47900038957595825,0.002417430281639099,-0.7931531071662903
1761501950904647700,5.529647705078125,0.46097710728645325,0.012744443491101265,-0.63839191198349
1761501950914703600,5.53970361328125,0.40412554144859314,0.027836577966809273,-0.4775729477405548
1761501950924759600,5.549759521484375,0.29147863388061523,0.010193946771323681,-0.37126442790031433
1761501950934816500,5.55981640625,0.14234451949596405,-0.022300880402326584,-0.35662850737571716
1761501950944872700,5.569872802734375,0.017450235784053802,-0.06001053750514984,-0.34750205278396606
1761501950954928600,5.5799287109375,-0.031404122710227966,-0.09253200143575668,-0.1617705225944519
1761501950964984600,5.589984619140625,-0.027748368680477142,-0.1247313842177391,0.050114262849092484
1761501950975041500,5.60004150390625,0.017445743083953857,-0.14751818776130676,0.0922502651810646
1761501950985098000,5.610097900390625,-0.002945118583738804,-0.2563609480857849,-0.094324991106987
1761501950995154000,5.62015380859375,-0.07170580327510834,-0.3228960335254669,-0.4018167555332184
1761501951005209900,5.6302099609375,-0.12048717588186264,-0.22888338565826416,-0.3803994059562683
1761501951015266000,5.64026611328125,-0.1554933786392212,-0.33567774295806885,-0.09005998820066452
1761501951025323000,5.650322998046875,-0.3081435561180115,-0.47908973693847656,0.1788594126701355
1761501951035379000,5.66037890625,-0.41491445899009705,-0.45634233951568604,0.593632161617279
1761501951045435000,5.670434814453125,-0.34606942534446716,-0.23032325506210327,0.9516071081161499
1761501951055491000,5.680490966796875,-0.1841984987258911,-0.07556775957345963,1.016507863998413
1761501951065548000,5.690548095703125,-0.08218389004468918,-0.12098726630210876,0.8916028738021851
1761501951075604000,5.70060400390625,-0.09092891216278076,-0.06017211079597473,0.659674346446991
1761501951085660000,5.710659912109375,-0.09944893419742584,0.25868088006973267,0.3385067582130432
1761501951095716000,5.720716064453125,0.036284662783145905,0.5667588114738464,0.04541069269180298
1761501951105772000,5.73077197265625,0.23314380645751953,0.7001707553863525,-0.16446703672409058
1761501951115829000,5.7408291015625,0.43454375863075256,0.5796827077865601,-0.13622555136680603
1761501951125885000,5.750885009765625,0.5105087757110596,0.19345182180404663,0.04142012074589729
1761501951135944000,5.76094384765625,0.3657601475715637,-0.17314907908439636,0.16797727346420288
1761501951146000000,5.770999755859375,0.11177010089159012,-0.5334760546684265,0.27681952714920044
1761501951156056800,5.781056884765625,-0.1266520619392395,-0.6973549723625183,0.5556975603103638
1761501951166113000,5.791113037109375,-0.30518046021461487,-0.596869707107544,0.9116640686988831
1761501951176169000,5.8011689453125,-0.3567344546318054,-0.27822861075401306,1.0652000904083252
1761501951186225000,5.811224853515625,-0.2877785861492157,0.2567175328731537,0.953275203704834
1761501951196281900,5.82128173828125,-0.2357255071401596,0.6502134203910828,0.572812557220459
1761501951206338000,5.831338134765625,-0.20805208384990692,0.7680749893188477,0.1226729154586792
1761501951216394000,5.84139404296875,-0.20649705827236176,0.6872797608375549,-0.21912463009357452
1761501951226450000,5.851449951171875,-0.2229050248861313,0.45775753259658813,-0.4474245309829712
1761501951236506000,5.861506103515625,-0.10264040529727936,0.18412864208221436,-0.6071396470069885
1761501951246563000,5.87156298828125,0.20970118045806885,0.1237117201089859,-0.6868847012519836
1761501951256619000,5.881618896484375,0.5885113477706909,0.30682986974716187,-0.8010091185569763
1761501951266675000,5.891675048828125,0.7016003727912903,0.43328022956848145,-1.023232102394104
1761501951276731100,5.901731201171875,0.4863128364086151,0.4906303286552429,-1.2501674890518188
1761501951286788000,5.9117880859375,0.030809566378593445,0.4859585165977478,-1.4316262006759644
1761501951296844000,5.921843994140625,-0.5020359754562378,0.3899174928665161,-1.5120965242385864
1761501951306899700,5.931899658203125,-0.9158498048782349,0.31685808300971985,-1.3605917692184448
1761501951316956000,5.941955810546875,-1.0545413494110107,0.24288026988506317,-1.0180964469909668
1761501951327011800,5.95201171875,-0.8694639801979065,0.12388762831687927,-0.49503862857818604
1761501951337068800,5.96206884765625,-0.4693605303764343,-0.11257657408714294,0.048472851514816284
1761501951347124700,5.972124755859375,-0.030805420130491257,-0.4017784297466278,0.4998914897441864
1761501951357181000,5.982180908203125,0.3657456636428833,-0.557811439037323,0.7628893256187439
1761501951367236900,5.99223681640625,0.6561126708984375,-0.5623922348022461,0.7855321168899536
1761501951377293800,6.0022939453125,0.7622276544570923,-0.4726458787918091,0.5527204275131226
1761501951387349800,6.012349853515625,0.6669178009033203,-0.32792073488235474,0.18804770708084106
1761501951397406000,6.022406005859375,0.46202829480171204,-0.2572404444217682,-0.044763971120119095
1761501951407462000,6.0324619140625,0.25919342041015625,-0.26739656925201416,-0.1020822674036026
1761501951417517800,6.042517822265625,0.11036665737628937,-0.2964212894439697,-0.05244254320859909
1761501951427574800,6.05257470703125,0.07341095805168152,-0.3303012549877167,-0.0038569571916013956
1761501951437631000,6.062630859375,0.13630495965480804,-0.2919011414051056,-0.006910537835210562
1761501951447687000,6.07268701171875,0.22288815677165985,-0.16935735940933228,-0.03745313361287117
1761501951457742800,6.082742919921875,0.21372927725315094,-0.04061828553676605,-0.08476632088422775
1761501951467799800,6.0927998046875,0.09071766585111618,0.03711637854576111,-0.1766050010919571
1761501951477856000,6.10285595703125,-0.13247627019882202,0.06666122376918793,-0.2735440731048584
1761501951487912000,6.112911865234375,-0.3377965986728668,0.13680176436901093,-0.2262434959411621
1761501951497967900,6.1229677734375,-0.5399733781814575,0.21715092658996582,-0.04447849467396736
1761501951508024800,6.13302490234375,-0.7432183027267456,0.25861814618110657,0.1440727263689041
1761501951518081000,6.1430810546875,-0.7255303859710693,0.1951637864112854,0.6097591519355774
1761501951528137000,6.153136962890625,-0.5418987274169922,0.17588767409324646,1.186481237411499
1761501951538193000,6.16319287109375,-0.3685533404350281,0.16309385001659393,1.443011999130249
1761501951548249000,6.1732490234375,-0.050452589988708496,-0.007720246911048889,1.4067955017089844
1761501951558306000,6.18330615234375,0.3615565299987793,-0.19945000112056732,1.1510016918182373
1761501951568362000,6.193362060546875,0.6769531965255737,-0.38649001717567444,0.6896411776542664
1761501951578418000,6.20341796875,0.7395891547203064,-0.5329511165618896,0.07882654666900635
1761501951588473900,6.213473876953125,0.38320794701576233,-0.6450071334838867,-0.37347936630249023
1761501951598529800,6.22352978515625,-0.22754061222076416,-0.7482773065567017,-0.45201945304870605
1761501951608586800,6.233586669921875,-0.7418791651725769,-0.8117252588272095,-0.3645215332508087
1761501951618642700,6.243642578125,-0.9785274267196655,-0.5130096673965454,-0.15698006749153137
1761501951628699000,6.253698974609375,-0.8855488896369934,-0.030955545604228973,0.17971013486385345
1761501951638754800,6.2637548828125,-0.5700029134750366,0.36143967509269714,0.5996517539024353
1761501951648811800,6.273811767578125,-0.22358465194702148,0.5962229371070862,0.8871735334396362
1761501951658867700,6.28386767578125,0.12392590194940567,0.6871560215950012,0.9547150135040283
1761501951668924000,6.293923828125,0.40265682339668274,0.5812822580337524,0.8423974514007568
1761501951678979800,6.303979736328125,0.6100859045982361,0.28528890013694763,0.6326937675476074
1761501951689035800,6.314035888671875,0.8015647530555725,-0.1336488127708435,0.4168113172054291
1761501951699093000,6.324093017578125,0.8992756009101868,-0.5098043084144592,0.1639508455991745
1761501951709149000,6.33414892578125,0.8567975759506226,-0.5859559774398804,-0.14750798046588898
1761501951719204900,6.344204833984375,0.6772701740264893,-0.33622366189956665,-0.40595924854278564
1761501951729260800,6.3542607421875,0.4087927043437958,0.025749364867806435,-0.42772385478019714
1761501951739318000,6.364318115234375,0.06678476929664612,0.29721710085868835,-0.24288958311080933
1761501951749374000,6.3743740234375,-0.20597706735134125,0.5104038119316101,-0.005517624784260988
1761501951759430000,6.384429931640625,-0.34830304980278015,0.6663724184036255,0.08138025552034378
1761501951769485800,6.39448583984375,-0.3375679850578308,0.7235320806503296,0.015183144249022007
1761501951779543000,6.40454296875,-0.204955592751503,0.6768668293952942,-0.1915079802274704
1761501951789599000,6.414598876953125,-0.10218692570924759,0.6237839460372925,-0.4992324113845825
1761501951799655000,6.424655029296875,-0.0926101952791214,0.48420554399490356,-0.806877851486206
1761501951809711000,6.434711181640625,-0.13354367017745972,0.3839660882949829,-1.0600006580352783
1761501951819767000,6.44476708984375,-0.20019087195396423,0.30122220516204834,-1.1531814336776733
1761501951829824000,6.454823974609375,-0.313053697347641,0.18011461198329926,-0.9927238821983337
1761501951839880000,6.4648798828125,-0.3992149531841278,0.0014295568689703941,-0.6166091561317444
1761501951849936100,6.47493603515625,-0.37595492601394653,-0.18199922144412994,-0.19231989979743958
1761501951859991800,6.48499169921875,-0.18603505194187164,-0.31708887219429016,0.11885157227516174
1761501951870049000,6.495049072265625,0.16859209537506104,-0.3797692656517029,0.24230843782424927
1761501951880105000,6.50510498046875,0.5841895937919617,-0.5409142374992371,0.20966526865959167
1761501951890161000,6.515160888671875,0.9374639391899109,-0.7419934272766113,0.06010410562157631
1761501951900216800,6.525216796875,1.194571852684021,-0.9006968140602112,-0.03014775738120079
1761501951910272800,6.535272705078125,1.2386367321014404,-0.875565230846405,-0.2191702276468277
1761501951920329700,6.545329833984375,1.0513856410980225,-0.6601977348327637,-0.4806252419948578
1761501951930386000,6.555385986328125,0.8143606185913086,-0.45511019229888916,-0.509810745716095
1761501951940441900,6.56544189453125,0.6248471140861511,-0.2362966239452362,-0.3252153694629669
1761501951950497800,6.575497802734375,0.4112408459186554,-0.05364033207297325,-0.1630638688802719
1761501951960554800,6.5855546875,0.0737706869840622,0.1087174192070961,0.05145507678389549
1761501951970611000,6.59561083984375,-0.3082134425640106,0.11786990612745285,0.3050149083137512
1761501951980667100,6.605667236328125,-0.5801900625228882,0.06955350190401077,0.5141316652297974
1761501951990723000,6.61572314453125,-0.652565062046051,-0.02485494315624237,0.5823578834533691
1761501952000780000,6.625780029296875,-0.4926286041736603,-0.10818737745285034,0.4891941249370575
1761501952010836200,6.635836181640625,-0.20648075640201569,-0.05493400990962982,0.41746556758880615
1761501952020892200,6.64589208984375,-0.04399251192808151,-0.2271726131439209,0.2818584740161896
1761501952030948000,6.655947998046875,-0.008235631510615349,-0.6212918758392334,0.07417759299278259
1761501952041004300,6.66600439453125,-0.0073559898883104324,-0.6341655850410461,0.07751479744911194
1761501952051061200,6.676061279296875,-0.11309019476175308,-0.5401387810707092,0.23334936797618866
1761501952061117200,6.6861171875,-0.24925947189331055,-0.31852731108665466,0.3947707414627075
1761501952071172900,6.6961728515625,-0.2741824984550476,0.06157563626766205,0.5648217797279358
1761501952081229000,6.70622900390625,-0.10448561608791351,0.25795766711235046,0.7245060205459595
1761501952091286300,6.716286376953125,0.08217711001634598,0.22767575085163116,0.6874215006828308
1761501952101342000,6.726342041015625,0.23243585228919983,0.11664137244224548,0.4795660376548767
1761501952111398000,6.73639794921875,0.2610059976577759,0.032115306705236435,0.22339630126953125
1761501952121454000,6.7464541015625,0.17508654296398163,0.07534214109182358,-0.020986538380384445
1761501952131510000,6.756510009765625,0.12242381274700165,0.18988461792469025,-0.1825517863035202
1761501952141567000,6.76656689453125,0.11036475747823715,0.40292152762413025,-0.27892598509788513
1761501952151623000,6.776622802734375,0.107579804956913,0.7921066284179688,-0.2275431901216507
1761501952161679000,6.78667919921875,0.06291646510362625,1.2316850423812866,0.024701835587620735
1761501952171735000,6.796735107421875,0.0031966576352715492,1.564077615737915,0.33946412801742554
1761501952181792000,6.8067919921875,-0.10355988144874573,1.692618489265442,0.6296719908714294
1761501952191848000,6.816847900390625,-0.2601468861103058,1.642562985420227,0.8345022797584534
1761501952201904000,6.826904052734375,-0.4483011066913605,1.3384413719177246,0.9173782467842102
1761501952211960000,6.8369599609375,-0.7979631423950195,0.0906372219324112,1.046903371810913
1761501952222016000,6.84701611328125,-1.3016961812973022,-1.4222662448883057,1.1522971391677856
1761501952232073000,6.857072998046875,-1.4008113145828247,-2.120433807373047,0.9593959450721741
1761501952242129200,6.867129150390625,-1.1449265480041504,-2.188307523727417,0.5869746804237366
1761501952252185000,6.87718505859375,-0.7356444001197815,-1.3825241327285767,0.32752275466918945
1761501952262241000,6.887240966796875,-0.09399492293596268,-0.11845148354768753,0.27894535660743713
1761501952272298000,6.897298095703125,0.6653969287872314,0.5872071385383606,0.14360859990119934
1761501952282354200,6.907354248046875,1.2201805114746094,0.31470659375190735,-0.10876238346099854
1761501952292410000,6.91741015625,1.3410568237304688,0.08113913983106613,-0.17281845211982727
1761501952302466000,6.927466064453125,1.0326709747314453,0.1773623526096344,-0.02072613313794136
1761501952312523000,6.93752294921875,0.5542861819267273,0.1088138148188591,0.14196906983852386
1761501952322579200,6.9475791015625,0.10518509149551392,0.16565339267253876,0.155706986784935
1761501952332635100,6.95763525390625,-0.2382986843585968,0.20787878334522247,0.02926330827176571
1761501952342691000,6.967691162109375,-0.44197404384613037,0.1996440291404724,-0.17742781341075897
1761501952352747000,6.9777470703125,-0.43621501326560974,0.10383619368076324,-0.3774091601371765
1761501952362804200,6.98780419921875,-0.23638126254081726,0.00873737595975399,-0.6306734085083008
1761501952372860000,6.99785986328125,0.018705612048506737,-0.003645895281806588,-0.8626053333282471
1761501952382916000,7.007916015625,0.18904060125350952,-0.061124369502067566,-1.0141329765319824
1761501952392972000,7.017971923828125,0.2467712163925171,-0.09538521617650986,-1.0238784551620483
1761501952403029000,7.028029052734375,0.22501663863658905,-0.052364517003297806,-0.9636819362640381
1761501952413085000,7.0380849609375,0.141213521361351,-0.0682525709271431,-0.9369081854820251
1761501952423141000,7.04814111328125,0.0035507248248904943,-0.1607838273048401,-1.1174895763397217
1761501952433197000,7.058197021484375,-0.13415268063545227,-0.3127794861793518,-1.4277576208114624
1761501952443254000,7.06825390625,-0.1706576943397522,-0.5288183093070984,-1.6811776161193848
1761501952453310000,7.07831005859375,-0.09629467129707336,-0.6011914014816284,-1.724244236946106
1761501952463366100,7.0883662109375,-0.05169124901294708,-0.6067107915878296,-1.4810110330581665
1761501952473422000,7.098422119140625,-0.006646287627518177,-0.588882327079773,-1.0565249919891357
1761501952483478000,7.10847802734375,0.02922143042087555,-0.44703513383865356,-0.6321945190429688
1761501952493535000,7.118534912109375,0.010669063776731491,-0.11226752400398254,-0.3096410036087036
1761501952503591200,7.128591064453125,-0.05299220606684685,0.24978390336036682,-0.14395320415496826
1761501952513647000,7.138647216796875,-0.12753814458847046,0.5883168578147888,-0.18967147171497345
1761501952523703000,7.148703125,-0.23350133001804352,0.8399991393089294,-0.3181338310241699
1761501952533760000,7.158760009765625,-0.4272362291812897,0.9614319205284119,-0.5462058186531067
1761501952543816200,7.168816162109375,-0.5444089770317078,0.9239324927330017,-0.8545268774032593
1761501952553872100,7.1788720703125,-0.40769290924072266,0.7217016220092773,-1.0756055116653442
1761501952563928000,7.188927978515625,-0.02193482406437397,0.30067238211631775,-1.1165987253189087
1761501952573984300,7.198984375,0.4604959487915039,0.03052905760705471,-0.8411804437637329
1761501952584041200,7.209041259765625,0.8443770408630371,0.0788385346531868,-0.12440928816795349
1761501952594097200,7.21909716796875,0.9431602954864502,0.1076955497264862,0.2974468469619751
1761501952604153000,7.229153076171875,0.8477727770805359,0.7474545240402222,0.15472297370433807
1761501952614209300,7.239209228515625,0.7018735408782959,0.5561069846153259,-0.13384854793548584
1761501952624266200,7.249266357421875,0.2801553010940552,0.39612877368927,-0.12821196019649506
1761501952634322200,7.259322265625,-0.15441083908081055,0.1463182121515274,0.06743042171001434
1761501952644378000,7.269378173828125,-0.2735305428504944,0.020955240353941917,0.41759827733039856
1761501952654434000,7.27943408203125,-0.0648258626461029,0.21710824966430664,0.7285927534103394
1761501952664491300,7.2894912109375,0.2629064619541168,0.31675124168395996,0.7339539527893066
1761501952674547000,7.299546875,0.4932136833667755,0.16989003121852875,0.5105068683624268
1761501952684603000,7.309602783203125,0.5932811498641968,-0.00086572440341115,0.27495911717414856
1761501952694659000,7.3196591796875,0.5572142004966736,0.059120289981365204,0.21351145207881927
1761501952704715000,7.329715087890625,0.42668044567108154,0.21288162469863892,0.326337069272995
1761501952714772000,7.33977197265625,0.3340880870819092,0.32728925347328186,0.5406993627548218
1761501952724828000,7.349827880859375,0.2210691124200821,0.2813712954521179,0.7444573044776917
1761501952734884000,7.359884033203125,0.1943007856607437,0.08814999461174011,0.9064797163009644
1761501952744940000,7.36993994140625,0.25998419523239136,-0.04332227259874344,0.9898918271064758
1761501952754997000,7.3799970703125,0.334646999835968,-0.1387387067079544,0.9339832663536072
1761501952765053000,7.390052978515625,0.3785952925682068,-0.2211158722639084,0.7053647041320801
1761501952775109000,7.400109130859375,0.46426329016685486,-0.5536369681358337,0.4462357461452484
1761501952785165000,7.4101650390625,0.5566059947013855,-0.5713653564453125,0.29815733432769775
1761501952795222000,7.420221923828125,0.5832692384719849,-0.5611376166343689,0.1563405692577362
1761501952805278000,7.43027783203125,0.5684812068939209,-0.5177794694900513,0.07483932375907898
1761501952815334100,7.440334228515625,0.5199869275093079,-0.2625831663608551,0.06723006069660187
1761501952825390000,7.45039013671875,0.4118252992630005,-0.015112383291125298,0.08888715505599976
1761501952835446000,7.460446044921875,0.2151605188846588,0.044512778520584106,0.12183230370283127
1761501952845503000,7.4705029296875,-0.04240390285849571,0.04358147084712982,0.19537734985351562
1761501952855559200,7.48055908203125,-0.38575735688209534,0.046700384467840195,0.25297436118125916
1761501952865615000,7.490614990234375,-0.685360312461853,0.030048172920942307,0.20240598917007446
1761501952875671000,7.500671142578125,-0.8826844096183777,0.10499749332666397,0.07533366233110428
1761501952885728000,7.51072802734375,-0.895136833190918,0.21921567618846893,-0.19951973855495453
1761501952895784200,7.5207841796875,-0.7196195125579834,0.2846298813819885,-0.533967137336731
1761501952905840000,7.530840087890625,-0.3917768895626068,0.2257217913866043,-0.8517547249794006
1761501952915896000,7.54089599609375,0.019223669543862343,0.029982130974531174,-1.0946464538574219
1761501952925953000,7.550953125,0.437531441450119,-0.19557669758796692,-1.3373222351074219
1761501952936009200,7.56100927734375,0.7637514472007751,-0.4188452959060669,-1.60996675491333
1761501952946065200,7.571065185546875,0.9352960586547852,-0.7653158903121948,-1.8681941032409668
1761501952956121000,7.58112109375,0.8755293488502502,-1.2976791858673096,-2.0393893718719482
1761501952966177000,7.591177001953125,0.5842759013175964,-1.613479733467102,-1.9986629486083984
1761501952976234000,7.60123388671875,0.18289488554000854,-1.431699275970459,-1.738600254058838
1761501952986290200,7.611290283203125,-0.08775577694177628,-1.0966161489486694,-1.3142958879470825
1761501952996346000,7.62134619140625,-0.25781112909317017,-0.28846412897109985,-1.0683149099349976
1761501953006402300,7.63140234375,-0.426910400390625,-0.4127402603626251,-0.9965916872024536
1761501953016459300,7.641459228515625,-0.6176028847694397,-0.5138400197029114,-0.8193954229354858
1761501953026515200,7.65151513671875,-0.7392318844795227,-0.7897520065307617,-0.8071169257164001
1761501953036571400,7.6615712890625,-0.8016585111618042,-1.0634512901306152,-0.9459003210067749
1761501953046627000,7.671626953125,-0.6474481821060181,-0.9501076936721802,-0.9643488526344299
1761501953056683000,7.68168310546875,-0.313109815120697,-0.7916436791419983,-0.8850874900817871
1761501953066740000,7.691739990234375,-0.023775741457939148,-0.5077701210975647,-0.7488934397697449
1761501953076796200,7.701796142578125,0.11435536295175552,-0.29915350675582886,-0.8154453635215759
1761501953086852000,7.71185205078125,0.26016849279403687,-0.611596405506134,-1.2389934062957764
1761501953096908000,7.721907958984375,0.2246903032064438,-0.705807089805603,-1.5239051580429077
1761501953106965000,7.731965087890625,-0.012466315180063248,-0.3865220546722412,-1.9707462787628174
1761501953117021200,7.742021240234375,-0.3333190381526947,-0.20441775023937225,-2.6886141300201416
1761501953127077000,7.7520771484375,-0.4482458829879761,-0.13065113127231598,-3.3793835639953613
1761501953137133000,7.762133056640625,-0.17496441304683685,0.07957576960325241,-3.6453986167907715
1761501953147190000,7.77218994140625,0.2795998752117157,0.3402358591556549,-3.2889416217803955
1761501953157246200,7.78224609375,0.6340881586074829,0.1486293226480484,-2.5299739837646484
1761501953167302100,7.79230224609375,0.6602928638458252,-0.08363374322652817,-1.6408900022506714
1761501953177358000,7.802358154296875,0.32337096333503723,0.08086901158094406,-1.0220288038253784
1761501953187414300,7.812414306640625,0.011023427359759808,0.45678722858428955,-0.5908982753753662
1761501953197471200,7.82247119140625,-0.2427389919757843,0.66316819190979,-0.4906477630138397
1761501953207527200,7.832527099609375,-0.4437525272369385,0.5300351977348328,-0.6651076674461365
1761501953217583000,7.8425830078125,-0.5216777324676514,0.35600709915161133,-1.036247968673706
1761501953227639300,7.852639404296875,-0.43734875321388245,0.26098310947418213,-1.412671446800232
1761501953237696300,7.8626962890625,-0.1803741455078125,0.3432627320289612,-1.555673360824585
1761501953247752200,7.872752197265625,0.09606996923685074,0.5136839747428894,-1.4639972448349
1761501953257808100,7.88280810546875,0.29117393493652344,0.6339904069900513,-1.2331055402755737
1761501953267864300,7.8928642578125,0.3977973163127899,0.6834929585456848,-0.9352900981903076
1761501953277921300,7.90292138671875,0.4019488990306854,0.6968604326248169,-0.7105059623718262
1761501953287977200,7.912977294921875,0.34459665417671204,0.6660453081130981,-0.6376599669456482
1761501953298033200,7.923033203125,0.26521384716033936,0.5849488377571106,-0.7117223739624023
1761501953308089300,7.93308935546875,0.20972131192684174,0.43364667892456055,-0.8551520109176636
1761501953318145000,7.94314501953125,0.17584140598773956,0.34652918577194214,-1.023541808128357
1761501953328202200,7.9532021484375,0.12479792535305023,0.2268187552690506,-1.17216157913208
1761501953338258200,7.963258056640625,0.10166291892528534,0.11185765266418457,-1.275368571281433
1761501953348314000,7.973314208984375,0.10539667308330536,0.09211216866970062,-1.3255188465118408
1761501953358370000,7.9833701171875,0.07767389714717865,0.1686609834432602,-1.4096319675445557
1761501953368427000,7.993427001953125,-0.007312103174626827,0.3239714801311493,-1.57369065284729
1761501953378483000,8.00348291015625,-0.08726637065410614,0.4884946644306183,-1.7211215496063232
1761501953388539100,8.0135390625,-0.1418297439813614,0.5869998931884766,-1.795417070388794
1761501953398595000,8.023594970703124,-0.21483395993709564,0.6884979605674744,-1.7395918369293213
1761501953408652000,8.033652099609375,-0.3145248591899872,0.7532335519790649,-1.5665050745010376
1761501953418708000,8.0437080078125,-0.42202314734458923,0.6628201007843018,-1.2946745157241821
1761501953428764200,8.05376416015625,-0.5038450360298157,0.6118365526199341,-0.9937320351600647
1761501953438820000,8.063820068359375,-0.5073164105415344,0.5986534357070923,-0.7480511665344238
1761501953448876000,8.0738759765625,-0.4371757209300995,0.5548199415206909,-0.6271260976791382
1761501953458933000,8.08393310546875,-0.3575938940048218,0.49058303236961365,-0.6292828917503357
1761501953468989200,8.0939892578125,-0.2796783149242401,0.3726832866668701,-0.699944019317627
1761501953479045000,8.104045166015625,-0.21774066984653473,0.27977654337882996,-0.7675149440765381
1761501953489101000,8.11410107421875,-0.19005444645881653,0.20146973431110382,-0.7483382821083069
1761501953499158000,8.124157958984375,-0.1792982965707779,0.15203265845775604,-0.6090686917304993
1761501953509214200,8.134214111328125,-0.18422861397266388,0.1311582624912262,-0.42474254965782166
1761501953519270100,8.144270263671874,-0.17744064331054688,0.12145265936851501,-0.3019874691963196
1761501953529326000,8.154326171875,-0.11682870984077454,0.06638754159212112,-0.24804194271564484
1761501953539383300,8.16438330078125,-0.008372897282242775,0.04032796621322632,-0.2440582513809204
1761501953549439200,8.174439208984374,0.07688314467668533,0.0195798110216856,-0.2846837043762207
1761501953559495200,8.1844951171875,0.11994349956512451,-0.06305673718452454,-0.33195388317108154
1761501953569551000,8.194551025390625,0.14626458287239075,-0.08901935815811157,-0.38605520129203796
1761501953579607300,8.204607177734376,0.1563463807106018,-0.09404820948839188,-0.4653119146823883
1761501953589664300,8.214664306640625,0.15685610473155975,-0.09051605314016342,-0.573561429977417
1761501953599720200,8.22472021484375,0.14216263592243195,-0.09101070463657379,-0.6793463230133057
1761501953609776400,8.2347763671875,0.13881877064704895,-0.06376736611127853,-0.7675710320472717
1761501953619832000,8.24483203125,0.09367319196462631,0.027844656258821487,-0.7714897990226746
1761501953629889300,8.25488916015625,-0.017142802476882935,0.0775243267416954,-0.8128819465637207
1761501953639945200,8.2649453125,-0.12675251066684723,0.07323780655860901,-0.9019946455955505
1761501953650001200,8.275001220703125,-0.20080329477787018,0.0387064628303051,-1.0181317329406738
1761501953660057000,8.28505712890625,-0.25526919960975647,0.08827028423547745,-1.0639588832855225
1761501953670114000,8.295114013671874,-0.31300947070121765,0.1139274463057518,-1.0092064142227173
1761501953680170000,8.305169921875,-0.36147117614746094,0.03950834646821022,-0.8133687376976013
