time,seconds_elapsed,z,y,x
1761501945446651000,0.07165087890625,-0.0039036613889038563,0.03887682408094406,0.10582416504621506
1761501945456707000,0.08170703125,0.0010985539993271232,0.04466414079070091,0.0810927227139473
1761501945466764000,0.091763916015625,0.015688415616750717,0.05066504329442978,0.046848997473716736
1761501945476820000,0.101820068359375,0.029709160327911377,0.059599146246910095,0.02430693805217743
1761501945486876000,0.1118759765625,0.02917732670903206,0.06349269300699234,0.01968475431203842
1761501945496931800,0.121931884765625,0.0327526219189167,0.0525718629360199,0.02840128168463707
1761501945506987800,0.13198779296875,0.027782095596194267,0.04339727386832237,0.03777534142136574
1761501945517043700,0.142043701171875,0.014345915988087654,0.05073188617825508,0.05546485632658005
1761501945527101000,0.152100830078125,0.007195328362286091,0.04671584069728851,0.06566183269023895
1761501945537156900,0.162156982421875,0.007781490217894316,0.041249170899391174,0.0644916445016861
1761501945547212800,0.172212890625,0.009587113745510578,0.03358858451247215,0.051055192947387695
1761501945557268700,0.182268798828125,0.008110390976071358,0.0137815922498703,0.037276532500982285
1761501945567325000,0.192324951171875,0.006923686247318983,0.0028631645254790783,0.020726051181554794
1761501945577380900,0.202380859375,-0.002088717184960842,0.010902981273829937,0.012500878423452377
1761501945587437800,0.212437744140625,-0.01895212009549141,0.03570073843002319,0.021437913179397583
1761501945597493800,0.22249365234375,-0.03519447147846222,0.05697300657629967,0.022718628868460655
1761501945607550000,0.232550048828125,-0.04782531410455704,0.0680171325802803,0.01798699051141739
1761501945617606000,0.24260595703125,-0.043934166431427,0.0660940632224083,-0.0007142598042264581
1761501945627661800,0.252661865234375,-0.03683231770992279,0.06513132899999619,-0.0043747746385633945
1761501945637719000,0.262718994140625,-0.030049245804548264,0.05411756411194801,0.0013622068800032139
1761501945647775000,0.27277490234375,-0.018931612372398376,0.03925046697258949,0.021816615015268326
1761501945657831000,0.282830810546875,-0.006677609868347645,0.012146944180130959,0.0324958898127079
1761501945667886800,0.292886962890625,-0.0009952232940122485,-0.011698201298713684,0.02966921217739582
1761501945677943000,0.302943115234375,-0.00446984963491559,-0.018665563315153122,0.015620504505932331
1761501945687999000,0.3129990234375,-0.012438293546438217,-0.02419987879693508,-0.013059609569609165
1761501945698056000,0.323055908203125,-0.015300925821065903,-0.02087811753153801,-0.03563948720693588
1761501945708112100,0.333112060546875,-0.013159478083252907,-0.02165442891418934,-0.046356312930583954
1761501945718168000,0.34316796875,-0.009014533832669258,-0.013604758307337761,-0.04484124109148979
1761501945728223700,0.3532236328125,-0.006808104924857616,-0.014158695936203003,-0.042884618043899536
1761501945738280000,0.363280029296875,0.0005230448441579938,-0.0054573495872318745,-0.039139945060014725
1761501945748335900,0.3733359375,0.0067689563147723675,0.005019792355597019,-0.019413644447922707
1761501945758392800,0.383392822265625,0.004180630203336477,0.03785736858844757,0.019271964207291603
1761501945768448800,0.39344873046875,-0.005839779507368803,0.07968311011791229,0.06004735827445984
1761501945778505000,0.4035048828125,-0.007273359224200249,0.130288764834404,0.08621664345264435
1761501945788561000,0.413560791015625,-0.0027201527263969183,0.19829897582530975,0.0851346030831337
1761501945798616800,0.423616943359375,-0.012389025650918484,0.24657009541988373,0.0695287436246872
1761501945808673000,0.433673095703125,-0.03148016333580017,0.26236265897750854,0.03671087697148323
1761501945818730000,0.44372998046875,-0.04460182413458824,0.254826158285141,-0.004174504894763231
1761501945828786000,0.453785888671875,-0.03772367537021637,0.23085132241249084,-0.024762071669101715
1761501945838841900,0.463841796875,-0.020830979570746422,0.19802600145339966,-0.026671292260289192
1761501945848898000,0.47389794921875,0.0003510046226438135,0.14205381274223328,-0.004845088813453913
1761501945858954000,0.4839541015625,0.01483647059649229,0.09979663789272308,0.03664323315024376
1761501945869011000,0.494010986328125,0.02047145366668701,0.025651033967733383,0.08419770002365112
1761501945879067000,0.50406689453125,0.010830543003976345,-0.01617790386080742,0.1170017197728157
1761501945889123000,0.514123046875,-0.015250857919454575,-0.01739390380680561,0.1283838003873825
1761501945899179000,0.524178955078125,-0.03574628010392189,-0.0068155620247125626,0.12595872581005096
1761501945909235000,0.53423486328125,-0.04417917877435684,-0.00034408041392453015,0.11783236265182495
1761501945919291100,0.544291015625,-0.045892391353845596,0.0054762582294642925,0.1023402214050293
1761501945929348000,0.55434814453125,-0.047748345881700516,0.008743423968553543,0.09686262905597687
1761501945939404000,0.564404052734375,-0.04839709401130676,0.008649414405226707,0.08672583848237991
1761501945949459700,0.574459716796875,-0.03506371006369591,0.017491376027464867,0.05142617225646973
1761501945959516000,0.584515869140625,-0.022666696459054947,0.0403791144490242,0.008420382626354694
1761501945969571800,0.59457177734375,-0.003317233407869935,0.054431017488241196,-0.02436872199177742
1761501945979627300,0.604627197265625,0.026280339807271957,0.03832155466079712,-0.04247715324163437
1761501945989684200,0.614684326171875,0.04416932538151741,0.007872303947806358,-0.037702105939388275
1761501945999740400,0.624740478515625,0.04538479074835777,-0.02183419279754162,-0.009820672683417797
1761501946009796400,0.63479638671875,0.02972061187028885,-0.03935299813747406,0.021081849932670593
1761501946019852300,0.644852294921875,0.0020844561513513327,-0.0423559807240963,0.04073943942785263
1761501946029908200,0.654908203125,-0.02442491613328457,-0.033356357365846634,0.04700532555580139
1761501946039964200,0.664964111328125,-0.038650721311569214,-0.015845010057091713,0.03038080967962742
1761501946050021000,0.675021240234375,-0.03406102955341339,0.018872756510972977,-0.008053665049374104
1761501946060077300,0.685077392578125,-0.029258552938699722,0.053034454584121704,-0.04446174204349518
1761501946070133200,0.69513330078125,-0.00564137427136302,0.054962050169706345,-0.0632609948515892
1761501946080189200,0.705189208984375,0.02479695901274681,0.02660231664776802,-0.05681294947862625
1761501946090245000,0.7152451171875,0.04043157771229744,0.002939330879598856,-0.03434572368860245
1761501946100302300,0.72530224609375,0.030974693596363068,0.00048709215479902923,-0.010264622047543526
1761501946110358300,0.735358154296875,0.017050355672836304,0.01672465167939663,0.0015062838792800903
1761501946120414200,0.745414306640625,0.005277586169540882,0.02268693596124649,0.007818241603672504
1761501946130470400,0.755470458984375,-0.0026554379146546125,0.0239426176995039,0.021037107333540916
1761501946140526300,0.7655263671875,-0.006047239992767572,0.026463298127055168,0.020989172160625458
1761501946150582300,0.775582275390625,-0.006431267596781254,0.0376131571829319,0.010184726677834988
1761501946160639200,0.78563916015625,0.002123870886862278,0.04222974553704262,-0.02057371847331524
1761501946170695400,0.7956953125,0.014639928936958313,0.028068918734788895,-0.05336575210094452
1761501946180751400,0.80575146484375,0.03659982234239578,0.004834169987589121,-0.07340044528245926
1761501946190807300,0.815807373046875,0.044797565788030624,-0.022641129791736603,-0.06513985246419907
1761501946200863500,0.825863525390625,0.04120948910713196,-0.03640967234969139,-0.030014891177415848
1761501946210919400,0.83591943359375,0.020108729600906372,-0.040835049003362656,0.013226589187979698
1761501946220976400,0.845976318359375,-0.007354319095611572,-0.01440929900854826,0.04591662436723709
1761501946231032300,0.8560322265625,-0.028918733820319176,0.01895664632320404,0.07267739623785019
1761501946241088500,0.866088623046875,-0.0413554310798645,0.04198713228106499,0.07778267562389374
1761501946251144200,0.876144287109375,-0.040954090654850006,0.0524272546172142,0.06681551784276962
1761501946261200100,0.8862001953125,-0.028132036328315735,0.052984386682510376,0.04178180173039436
1761501946271257000,0.896257080078125,-0.01392620149999857,0.046605318784713745,0.016475645825266838
1761501946281313300,0.906313232421875,-0.009520268067717552,0.048169128596782684,0.007300789933651686
1761501946291369200,0.916369140625,-0.011623366735875607,0.03742566704750061,0.006019276566803455
1761501946301425200,0.926425048828125,-0.02363848313689232,0.024090688675642014,0.011216435581445694
1761501946311481300,0.9364814453125,-0.02551334910094738,0.027406057342886925,0.019590212032198906
1761501946321537300,0.946537353515625,-0.027165574952960014,0.024826519191265106,0.03352174162864685
1761501946331594200,0.95659423828125,-0.025490978732705116,0.017980331555008888,0.04441912844777107
1761501946341650200,0.966650146484375,-0.016988305374979973,0.01816675253212452,0.043718986213207245
1761501946351706400,0.976706298828125,-0.006661897525191307,0.0007906925166025758,0.033181123435497284
1761501946361762300,0.98676220703125,-0.00824727676808834,0.00842810608446598,0.029641781002283096
1761501946371818200,0.996818359375,-0.023441676050424576,0.032700423151254654,0.03301867097616196
1761501946381874400,1.00687451171875,-0.04009149223566055,0.07529981434345245,0.03717373311519623
1761501946391931400,1.016931396484375,-0.032160598784685135,0.06891222298145294,0.021083980798721313
1761501946401987300,1.0269873046875,-0.012764531187713146,0.03134061023592949,-0.004625378176569939
1761501946412043300,1.037043212890625,0.013199158944189548,0.008064850233495235,-0.03073767200112343
1761501946422099500,1.047099365234375,0.024406006559729576,-0.009943444281816483,-0.04090429097414017
1761501946432155400,1.0571552734375,0.02538125589489937,-0.02311517298221588,-0.032933447510004044
1761501946442212400,1.06721240234375,0.02100089006125927,-0.04001106694340706,-0.020246682688593864
1761501946452268300,1.077268310546875,0.0032530513126403093,-0.04981442913413048,-0.009385512210428715
1761501946462324500,1.087324462890625,-0.010712831281125546,-0.07685296982526779,-0.005031776614487171
1761501946472380200,1.097380126953125,-0.007017429452389479,-0.1044292002916336,-0.0038485340774059296
1761501946482436000,1.10743603515625,-0.012507270090281963,-0.09982912242412567,-0.004306863993406296
1761501946492492300,1.1174921875,-0.01170166302472353,-0.09370917826890945,-0.03146125376224518
1761501946502549200,1.12754931640625,-0.0062733422964811325,-0.09392569959163666,-0.053760964423418045
1761501946512605200,1.137605224609375,-0.009138104505836964,-0.08792825788259506,-0.06987255811691284
1761501946522661000,1.1476611328125,-0.027547204867005348,-0.05992671847343445,-0.0597568079829216
1761501946532717300,1.15771728515625,-0.05018514022231102,-0.03327220305800438,-0.0477595329284668
1761501946542773200,1.167773193359375,-0.04669719934463501,-0.022885341197252274,-0.03464319929480553
1761501946552830200,1.177830322265625,-0.03315741941332817,-0.0311089176684618,-0.03465438261628151
1761501946562886100,1.18788623046875,-0.01888500712811947,-0.04429955407977104,-0.03392947092652321
1761501946572942300,1.1979423828125,-0.02141714096069336,-0.052025385200977325,-0.031450867652893066
1761501946582998300,1.207998291015625,-0.022790798917412758,-0.06006200611591339,-0.027361050248146057
1761501946593054200,1.21805419921875,-0.03298431634902954,-0.0669313594698906,-0.020601149648427963
1761501946603110400,1.2281103515625,-0.04242522269487381,-0.07141825556755066,-0.018740665167570114
1761501946613167400,1.23816748046875,-0.043476369231939316,-0.06753350049257278,-0.02178732119500637
1761501946623223300,1.248223388671875,-0.03821795806288719,-0.07352588325738907,-0.04966076463460922
1761501946633279200,1.258279296875,-0.01576032117009163,-0.08687790483236313,-0.09393395483493805
1761501946643335400,1.26833544921875,0.0057130130007863045,-0.09039673954248428,-0.12923255562782288
1761501946653391400,1.278391357421875,0.013512346893548965,-0.08885344117879868,-0.14753539860248566
1761501946663447300,1.288447265625,0.0017710020765662193,-0.07696136087179184,-0.15457919239997864
1761501946673504300,1.298504150390625,-0.014287859201431274,-0.05957651138305664,-0.15805009007453918
1761501946683560400,1.308560546875,-0.030586404725909233,-0.04017698019742966,-0.15609799325466156
1761501946693616400,1.318616455078125,-0.048593636602163315,-0.03116351179778576,-0.16451624035835266
1761501946703672000,1.328672119140625,-0.05493515357375145,-0.01786847971379757,-0.19163814187049866
1761501946713728300,1.338728271484375,-0.055390819907188416,-0.008100270293653011,-0.252131849527359
1761501946723785200,1.34878515625,-0.032756347209215164,-0.0030072415247559547,-0.35280999541282654
1761501946733841200,1.358841064453125,-0.0008500810363329947,-0.005918608978390694,-0.44548267126083374
1761501946743897000,1.36889697265625,0.026450516656041145,-0.02088690549135208,-0.497351735830307
1761501946753953300,1.378953369140625,0.03862648829817772,-0.0335257351398468,-0.5094616413116455
1761501946764009200,1.38900927734375,0.044443897902965546,-0.04676324501633644,-0.4994753301143646
1761501946774065200,1.399065185546875,0.04928339272737503,-0.06235232204198837,-0.4781513810157776
1761501946784122000,1.4091220703125,0.06437605619430542,-0.07919042557477951,-0.45642346143722534
1761501946794178300,1.41917822265625,0.10311999171972275,-0.0885985717177391,-0.44189831614494324
1761501946804234200,1.429234130859375,0.13850967586040497,-0.051534563302993774,-0.4295220673084259
1761501946814290200,1.439290283203125,0.14169907569885254,0.05492370203137398,-0.4234718978404999
1761501946824346400,1.449346435546875,0.12131018191576004,0.1807284951210022,-0.41440385580062866
1761501946834403300,1.4594033203125,0.11823049932718277,0.2906094491481781,-0.3897099494934082
1761501946844459300,1.469459228515625,0.12774305045604706,0.35378497838974,-0.318295955657959
1761501946854515200,1.47951513671875,0.11262854188680649,0.32271572947502136,-0.20560322701931
1761501946864571400,1.4895712890625,0.08639800548553467,0.22157633304595947,-0.04150856286287308
1761501946874627300,1.49962744140625,0.06729461997747421,0.10304062813520432,0.12596645951271057
1761501946884683300,1.509683349609375,0.06668422371149063,-0.021402493119239807,0.23936757445335388
1761501946894740200,1.519740234375,0.08249381184577942,-0.10813392698764801,0.28040236234664917
1761501946904796400,1.52979638671875,0.08385202288627625,-0.07847749441862106,0.3125627040863037
1761501946914852400,1.539852294921875,0.04676457494497299,-0.029375465586781502,0.4189693033695221
1761501946924908300,1.549908203125,-0.01671852543950081,0.11266609281301498,0.5957528352737427
1761501946934964200,1.559964111328125,-0.1202092319726944,0.1931111365556717,0.7548210620880127
1761501946945021400,1.570021484375,-0.22248287498950958,0.1499098688364029,0.8153555393218994
1761501946955077000,1.5800771484375,-0.27733761072158813,-0.01350702065974474,0.7500801086425781
1761501946965133300,1.59013330078125,-0.20348601043224335,-0.25681740045547485,0.5932702422142029
1761501946975189000,1.60018896484375,0.022040853276848793,-0.48200204968452454,0.3831798732280731
1761501946985245000,1.610244873046875,0.27577245235443115,-0.6284016370773315,0.15096262097358704
1761501946995301000,1.620301025390625,0.3842954635620117,-0.5852586627006531,-0.01912975311279297
1761501947005358000,1.630358154296875,0.29182732105255127,-0.5088731050491333,-0.15582874417304993
1761501947015414000,1.6404140625,0.0580795481801033,-0.3838355541229248,-0.1766836941242218
1761501947025470000,1.650469970703125,-0.1938709318637848,-0.07749931514263153,-0.1127270832657814
1761501947035526100,1.660526123046875,-0.369064599275589,0.06626877188682556,-0.15652835369110107
1761501947045582000,1.67058203125,-0.382214218378067,0.04561568796634674,-0.2620084583759308
1761501947055639000,1.68063916015625,-0.226468026638031,-0.11679212749004364,-0.35936883091926575
1761501947065695000,1.690695068359375,-0.02269492670893669,-0.3448447287082672,-0.4042912721633911
1761501947075751200,1.700751220703125,0.17427033185958862,-0.5660296082496643,-0.3986469805240631
1761501947085807000,1.71080712890625,0.31907200813293457,-0.6416923999786377,-0.41489386558532715
1761501947095863000,1.720863037109375,0.3934314548969269,-0.6240891814231873,-0.5439277291297913
1761501947105919200,1.730919189453125,0.4453412592411041,-0.565601110458374,-0.7662670612335205
1761501947115976200,1.74097607421875,0.47092944383621216,-0.5102565884590149,-0.9971269369125366
1761501947126032100,1.7510322265625,0.431749552488327,-0.3868723511695862,-1.1861943006515503
1761501947136088000,1.761088134765625,0.2964273989200592,-0.2360711246728897,-1.2997573614120483
1761501947146144300,1.771144287109375,0.04992388188838959,-0.1015322133898735,-1.3814152479171753
1761501947156200200,1.7812001953125,-0.260387122631073,-0.08895357698202133,-1.4675521850585938
1761501947166257200,1.791257080078125,-0.541922390460968,-0.05835225433111191,-1.567108154296875
1761501947176313000,1.80131298828125,-0.6792714595794678,-0.11417317390441895,-1.6621826887130737
1761501947186369300,1.811369384765625,-0.6316352486610413,-0.20384074747562408,-1.6626436710357666
1761501947196425000,1.821425048828125,-0.47698092460632324,-0.29724791646003723,-1.5741199254989624
1761501947206481000,1.83148095703125,-0.2112930715084076,-0.3190128803253174,-1.4064507484436035
1761501947216537900,1.841537841796875,0.06389801949262619,-0.235434889793396,-1.1931846141815186
1761501947226594000,1.851593994140625,0.27094706892967224,-0.19025063514709473,-0.9417020082473755
1761501947236650000,1.86164990234375,0.3970022201538086,-0.06338723003864288,-0.6925787329673767
1761501947246706000,1.871705810546875,0.47215476632118225,0.0842837244272232,-0.42019328474998474
1761501947256762000,1.88176220703125,0.4916357696056366,0.1401246190071106,-0.13833683729171753
1761501947266818000,1.891818115234375,0.41108953952789307,0.032655149698257446,0.0577024444937706
1761501947276875000,1.901875,0.2773493230342865,-0.10800955444574356,0.18857790529727936
1761501947286931000,1.911930908203125,0.13526567816734314,-0.21521218121051788,0.35047227144241333
1761501947296987100,1.921987060546875,-0.006797718815505505,-0.2284906953573227,0.5958846807479858
1761501947307043000,1.93204296875,-0.16352155804634094,-0.16234496235847473,0.9103880524635315
1761501947317099000,1.94209912109375,-0.29417356848716736,-0.0786103904247284,1.266454815864563
1761501947327156000,1.952156005859375,-0.3494642674922943,-0.04018630087375641,1.6177715063095093
1761501947337212200,1.962212158203125,-0.29755204916000366,0.03007560968399048,1.8980120420455933
1761501947347268000,1.97226806640625,-0.1780293881893158,0.19842280447483063,2.0895628929138184
1761501947357324000,1.982323974609375,-0.08725181221961975,0.4898541271686554,2.139519214630127
1761501947367380200,1.992380126953125,-0.08504032343626022,0.8628450036048889,2.084855794906616
1761501947377437200,2.002437255859375,-0.14626853168010712,1.0857579708099365,2.093038320541382
1761501947387493000,2.0124931640625,-0.27708885073661804,1.2211447954177856,2.294034957885742
1761501947397549000,2.022549072265625,-0.5191243886947632,1.4537492990493774,2.5452117919921875
1761501947407605200,2.032605224609375,-0.902054488658905,1.6026498079299927,2.6362807750701904
1761501947417661200,2.0426611328125,-1.3463839292526245,1.5507432222366333,2.492562770843506
1761501947427716900,2.052716796875,-1.3888206481933594,1.325499176979065,2.2202866077423096
1761501947437774000,2.062774169921875,-0.8336860537528992,1.0753511190414429,1.7591915130615234
1761501947447830000,2.072830078125,-0.09236188977956772,1.1049820184707642,0.8392230272293091
1761501947457886000,2.082885986328125,0.5742201209068298,1.0819464921951294,-0.1575624644756317
1761501947467942000,2.09294189453125,0.752992570400238,0.8539606928825378,-0.717358410358429
1761501947477998000,2.102998046875,0.6288737654685974,0.6625867486000061,-0.9135393500328064
1761501947488055000,2.113054931640625,0.37892600893974304,0.4006595313549042,-0.9004954695701599
1761501947498111000,2.123111083984375,0.16783533990383148,0.17897666990756989,-0.8414686322212219
1761501947508167000,2.1331669921875,0.0018570221727713943,0.0014586133183911443,-0.6676584482192993
1761501947518223000,2.14322314453125,-0.04953692480921745,-0.1324712187051773,-0.2809627056121826
1761501947528279000,2.153279052734375,0.06440748274326324,-0.2310478687286377,0.3032994270324707
1761501947538336000,2.1633359375,0.21106749773025513,-0.37001827359199524,0.7510601282119751
1761501947548392000,2.173391845703125,0.36616867780685425,-0.42171260714530945,0.7809323072433472
1761501947558448000,2.1834482421875,0.5303008556365967,-0.29092931747436523,0.43526491522789
1761501947568504000,2.193504150390625,0.5870161056518555,-0.09325084835290909,0.05347920209169388
1761501947578560000,2.20356005859375,0.4732527732849121,0.11626508831977844,-0.22630850970745087
1761501947588616200,2.2136162109375,0.26192694902420044,0.5638670921325684,-0.4558223783969879
1761501947598673200,2.223673095703125,-0.02099396474659443,1.0424326658248901,-0.537213146686554
1761501947608729000,2.23372900390625,-0.3557109534740448,1.4304554462432861,-0.41613543033599854
1761501947618785000,2.243784912109375,-0.5703955888748169,1.6583600044250488,-0.17120184004306793
1761501947628841200,2.25384130859375,-0.49356549978256226,1.7128517627716064,0.09276162832975388
1761501947638897200,2.263897216796875,-0.16597644984722137,1.438175916671753,0.05736448988318443
1761501947648954000,2.2739541015625,0.1436879187822342,0.9195280075073242,-0.29720157384872437
1761501947659010000,2.284010009765625,0.2754212021827698,0.3457976281642914,-0.588699460029602
1761501947669066000,2.29406591796875,0.2366652637720108,-0.14784538745880127,-0.7912022471427917
1761501947679122000,2.304121826171875,0.08340355008840561,-0.7315988540649414,-1.0364130735397339
1761501947689178000,2.31417822265625,-0.045277465134859085,-1.2819632291793823,-1.1835225820541382
1761501947699235000,2.324235107421875,-0.036196086555719376,-1.4769281148910522,-1.1224126815795898
1761501947709291000,2.334291015625,0.033660225570201874,-1.3338884115219116,-0.8647880554199219
1761501947719347000,2.344346923828125,0.0875341072678566,-1.0512253046035767,-0.48512354493141174
1761501947729403100,2.354403076171875,0.1315321922302246,-0.6657295227050781,-0.11867258697748184
1761501947739459000,2.364458984375,0.2699659764766693,-0.2672165334224701,0.0929589718580246
1761501947749515000,2.374514892578125,0.4273737072944641,0.01506976317614317,0.17555610835552216
1761501947759572000,2.384572021484375,0.4534183442592621,0.2876514792442322,0.23813053965568542
1761501947769628200,2.394628173828125,0.29248857498168945,0.5128816962242126,0.2728387117385864
1761501947779684000,2.40468408203125,0.1163545697927475,0.5768593549728394,0.2648140788078308
1761501947789740000,2.414739990234375,0.039257124066352844,0.3964879512786865,0.21259136497974396
1761501947799796200,2.424796142578125,0.01829884573817253,0.02901380881667137,0.13291756808757782
1761501947809853200,2.434853271484375,0.018262093886733055,-0.34553131461143494,0.09471825510263443
1761501947819909000,2.4449091796875,0.05453567951917648,-0.6519298553466797,0.16567817330360413
1761501947829965000,2.454965087890625,0.13218839466571808,-0.8623925447463989,0.30087220668792725
1761501947840021200,2.465021240234375,0.2661166489124298,-0.9772467017173767,0.40150880813598633
1761501947850077200,2.4750771484375,0.41755568981170654,-0.9225671887397766,0.3415783643722534
1761501947860134100,2.485134033203125,0.4771955907344818,-0.6852923035621643,0.17314861714839935
1761501947870190000,2.495190185546875,0.35490667819976807,-0.20528976619243622,-0.01401781477034092
1761501947880246300,2.505246337890625,0.09739046543836594,0.15224386751651764,-0.11352762579917908
1761501947890302200,2.51530224609375,-0.0948018729686737,0.22507332265377045,-0.046495065093040466
1761501947900358000,2.52535791015625,-0.195103719830513,0.20539070665836334,0.1842726320028305
1761501947910415000,2.5354150390625,-0.15048643946647644,0.061654042452573776,0.5018881559371948
1761501947920471000,2.545470947265625,0.06659553945064545,-0.12526683509349823,0.6766002774238586
1761501947930527000,2.55552685546875,0.4579526484012604,-0.3416401445865631,0.4382263422012329
1761501947940583000,2.5655830078125,0.8797076344490051,-0.43555760383605957,-0.07707853615283966
1761501947950639000,2.57563916015625,1.050826072692871,-0.35298842191696167,-0.6371303796768188
1761501947960695000,2.585695068359375,0.9348068237304688,-0.27218198776245117,-1.0481743812561035
1761501947970752000,2.595751953125,0.64802086353302,-0.48034051060676575,-1.1344155073165894
1761501947980813600,2.6058134765625,0.3211625814437866,-0.7694215774536133,-0.9041327834129333
1761501947990869500,2.615869384765625,-0.047869522124528885,-0.7285516262054443,-0.457831472158432
1761501948000925400,2.625925537109375,-0.4163641929626465,-0.47765445709228516,0.16230076551437378
1761501948010981600,2.635981689453125,-0.6538342833518982,-0.4076428711414337,0.6027130484580994
1761501948021038600,2.64603857421875,-0.5808777809143066,-0.6041772365570068,0.6647183299064636
1761501948031094500,2.656094482421875,-0.22603419423103333,-0.7110089063644409,0.5554829239845276
1761501948041150500,2.666150390625,0.14065884053707123,-0.7136642932891846,0.04886581003665924
1761501948051206700,2.67620654296875,0.4983903467655182,-0.7107241749763489,-0.5555529594421387
1761501948061262600,2.6862626953125,0.6223027110099792,-0.25111424922943115,-0.5583516955375671
1761501948071319600,2.696319580078125,0.2246786504983902,0.4059368669986725,0.302531898021698
1761501948081375500,2.70637548828125,-0.23391449451446533,1.5461753606796265,1.1437456607818604
1761501948091431700,2.716431640625,-0.26609960198402405,1.3306736946105957,1.1435943841934204
1761501948101487600,2.726487548828125,-0.1348225325345993,1.2611221075057983,0.791549801826477
1761501948111543600,2.73654345703125,0.127637580037117,1.1955795288085938,0.27133724093437195
1761501948121600500,2.7466005859375,0.4098013639450073,0.8413610458374023,-0.14743205904960632
1761501948131656700,2.75665673828125,0.5787783861160278,0.5795429944992065,-0.4455660283565521
1761501948141712600,2.766712646484375,0.6201106905937195,0.2636537551879883,-0.4633612632751465
1761501948151768600,2.7767685546875,0.4148925244808197,-0.017006147652864456,-0.33913570642471313
1761501948161824500,2.786824462890625,0.14172065258026123,-0.12232138216495514,-0.3073439598083496
1761501948171881700,2.7968818359375,-0.11418063193559647,-0.1323191523551941,-0.3495345711708069
1761501948181937400,2.8069375,-0.29662182927131653,-0.07329844683408737,-0.2647711932659149
1761501948191993600,2.81699365234375,-0.35494211316108704,0.0007475492893718183,0.11626669019460678
1761501948202049500,2.827049560546875,-0.35366833209991455,-0.18610382080078125,0.5763347148895264
1761501948212105500,2.83710546875,-0.23567670583724976,-0.38813841342926025,0.6482315063476562
1761501948222161400,2.847161376953125,0.01347612775862217,-0.4969165623188019,0.4957439601421356
1761501948232218600,2.857218505859375,0.06091421842575073,-0.48700082302093506,0.23792174458503723
1761501948242274600,2.867274658203125,0.0664203017950058,-0.5675326585769653,-0.009845972992479801
1761501948252330500,2.87733056640625,0.02803616225719452,-0.6531320214271545,-0.17794309556484222
1761501948262386700,2.88738671875,-0.06436221301555634,-0.715876042842865,-0.24843937158584595
1761501948272443600,2.897443603515625,-0.2249377816915512,-0.7962236404418945,-0.3661966323852539
1761501948282499600,2.90749951171875,-0.3830389976501465,-0.8531524538993835,-0.4856788218021393
1761501948292555500,2.917555419921875,-0.3918585777282715,-0.6584926843643188,-0.4309023916721344
1761501948302611700,2.92761181640625,-0.38817861676216125,-0.18992865085601807,-0.12674303352832794
1761501948312667600,2.937667724609375,-0.3361809551715851,0.20703254640102386,0.17352092266082764
1761501948322723600,2.9477236328125,-0.24492372572422028,0.3744332492351532,0.33096274733543396
1761501948332780500,2.957780517578125,-0.1918192356824875,0.44107991456985474,0.2666527330875397
1761501948342836700,2.967836669921875,-0.17255738377571106,0.36292707920074463,0.12922616302967072
1761501948352892700,2.977892578125,-0.21514959633350372,0.18926845490932465,0.08995065838098526
1761501948362948600,2.987948486328125,-0.28177282214164734,0.0013709953054785728,0.1744181364774704
1761501948373004800,2.9980048828125,-0.2743609845638275,-0.19563500583171844,0.32922396063804626
1761501948383061800,3.008061767578125,-0.22805899381637573,-0.3600423336029053,0.5055103302001953
1761501948393117700,3.01811767578125,-0.18424680829048157,-0.3887011408805847,0.5577349066734314
1761501948403173600,3.028173583984375,-0.1435590237379074,-0.2911101281642914,0.47705525159835815
1761501948413229600,3.0382294921875,-0.07737281918525696,-0.20144763588905334,0.3079809844493866
1761501948423285500,3.048285400390625,-0.013798902742564678,-0.164956197142601,0.10687771439552307
1761501948433342500,3.058342529296875,-0.022613700479269028,-0.14910532534122467,0.0041284323669970036
1761501948443398400,3.0683984375,-0.11365572363138199,-0.14577478170394897,0.07520420849323273
1761501948453454600,3.07845458984375,-0.22458331286907196,-0.04434136673808098,0.13838690519332886
1761501948463510500,3.088510498046875,-0.2279343605041504,0.05939488485455513,-0.13922765851020813
1761501948473566500,3.09856640625,-0.03188017010688782,0.07975687831640244,-0.48710787296295166
1761501948483623400,3.10862353515625,0.21759197115898132,0.33699774742126465,-0.12346228212118149
1761501948493679600,3.1186796875,0.20837770402431488,0.7027594447135925,0.4909505546092987
1761501948503735600,3.128735595703125,0.04718668758869171,0.8407114744186401,0.8687199354171753
1761501948513791500,3.13879150390625,-0.19151882827281952,0.6621508002281189,1.117931842803955
1761501948523847700,3.14884765625,-0.4052404463291168,0.2886240780353546,1.2838937044143677
1761501948533904600,3.158904541015625,-0.5391966104507446,-0.1938411146402359,1.321739673614502
1761501948543960600,3.168960693359375,-0.7238274812698364,-0.5237140655517578,1.3833023309707642
1761501948554016500,3.1790166015625,-0.7362284660339355,-0.6154064536094666,1.4243043661117554
1761501948564072700,3.18907275390625,-0.46186429262161255,-0.5862371325492859,1.0658066272735596
1761501948574128600,3.199128662109375,0.004151601810008287,-0.3954322934150696,0.4335588812828064
1761501948584185600,3.209185546875,0.3801572024822235,-0.0015022892039269209,0.08910351246595383
1761501948594241500,3.219241455078125,0.4797767102718353,0.39186790585517883,0.12359224259853363
1761501948604297700,3.229297607421875,0.35008636116981506,0.7817490696907043,0.2121945470571518
1761501948614353700,3.239353759765625,0.14116564393043518,0.990974485874176,0.16282859444618225
1761501948624409600,3.24940966796875,-0.08451488614082336,0.9547349810600281,0.07885246723890305
1761501948634466600,3.259466552734375,-0.26548120379447937,0.7433273792266846,0.07751955837011337
1761501948644522800,3.269522705078125,-0.41272976994514465,0.3770921528339386,0.30203574895858765
1761501948654578700,3.27957861328125,-0.5155823826789856,-0.048822931945323944,0.660500168800354
1761501948664634400,3.28963427734375,-0.5203771591186523,-0.32408806681632996,0.9375293850898743
1761501948674690600,3.299690673828125,-0.36924275755882263,-0.5562171936035156,1.130247950553894
1761501948684747500,3.30974755859375,-0.13339240849018097,-0.5593178868293762,1.3048120737075806
1761501948694803500,3.319803466796875,0.04825541377067566,-0.40936514735221863,1.2000418901443481
1761501948704859400,3.329859375,0.1431283950805664,-0.3139297068119049,0.7137151956558228
1761501948714915600,3.33991552734375,0.1185506135225296,-0.20863603055477142,0.1435241401195526
1761501948724971500,3.349971435546875,-0.03296753764152527,-0.16743266582489014,-0.3054776191711426
1761501948735028500,3.360028564453125,-0.24128159880638123,-0.15047553181648254,-0.571513295173645
1761501948745084400,3.37008447265625,-0.43204542994499207,-0.07936113327741623,-0.7103961110115051
1761501948755140600,3.380140625,-0.4930587112903595,-0.1387331187725067,-0.7046753764152527
1761501948765196500,3.390196533203125,-0.3562009930610657,-0.34765198826789856,-0.6824004054069519
1761501948775252500,3.40025244140625,-0.08788138628005981,-0.5905237197875977,-0.6846805810928345
1761501948785309400,3.410309326171875,0.16401609778404236,-0.8152149319648743,-0.6804909110069275
1761501948795365600,3.42036572265625,0.2780659794807434,-0.9253563284873962,-0.7194130420684814
1761501948805421600,3.430421630859375,0.26231685280799866,-0.8502426743507385,-0.8345369696617126
1761501948815477500,3.4404775390625,0.1699477583169937,-0.529670238494873,-0.9873227477073669
1761501948825533700,3.45053369140625,0.08585498481988907,-0.11330152302980423,-0.990901529788971
1761501948835590700,3.460590576171875,0.06235472112894058,0.16861245036125183,-0.7857552766799927
1761501948845646600,3.470646484375,0.13845933973789215,0.22211802005767822,-0.5312140583992004
1761501948855702500,3.48070263671875,0.21739330887794495,0.08280433714389801,-0.37390968203544617
1761501948865758700,3.4907587890625,0.16578763723373413,-0.18820825219154358,-0.3380720615386963
1761501948875814700,3.500814697265625,0.09931407123804092,-0.4407225251197815,-0.38234975934028625
1761501948885871600,3.51087158203125,0.0437040701508522,-0.5699651837348938,-0.4489213526248932
1761501948895927600,3.520927490234375,-0.016411731019616127,-0.46242594718933105,-0.41907209157943726
1761501948905983700,3.530983642578125,-0.02426113188266754,-0.198375403881073,-0.22889097034931183
1761501948916039400,3.541039306640625,0.0044136568903923035,0.0259248074144125,0.07838056236505508
1761501948926096600,3.5510966796875,-0.01829325407743454,0.125021830201149,0.27142032980918884
1761501948936152600,3.561152587890625,-0.07320976257324219,0.13125042617321014,0.19582170248031616
1761501948946208500,3.57120849609375,-0.05329757556319237,0.05414232984185219,-0.198878213763237
1761501948956264400,3.581264404296875,-0.01631532423198223,0.028900889679789543,-0.8669736981391907
1761501948966320600,3.591320556640625,-0.012181565165519714,0.10402839630842209,-1.5782030820846558
1761501948976372000,3.6013720703125,0.08394496887922287,0.23668444156646729,-1.881990671157837
1761501948986428000,3.611427978515625,0.2402655929327011,0.5522503852844238,-1.5341589450836182
1761501948996483800,3.62148388671875,0.24606995284557343,0.9386532306671143,-0.6118737459182739
1761501949006539800,3.631539794921875,-0.06119171902537346,1.1513944864273071,0.5044655799865723
1761501949016596000,3.641595947265625,-0.33712637424468994,1.199816346168518,1.309793472290039
1761501949026652000,3.65165185546875,-0.36656415462493896,1.0596848726272583,1.3612260818481445
1761501949036708900,3.661708984375,-0.3130796253681183,0.9203200340270996,0.972453773021698
1761501949046764800,3.671764892578125,-0.1863725334405899,0.9000331163406372,0.5827369093894958
1761501949056821000,3.681821044921875,0.06729035824537277,0.8684541583061218,0.20582932233810425
1761501949066877000,3.691876953125,0.34370729327201843,0.6614146828651428,0.005946306046098471
1761501949076932900,3.701932861328125,0.5022484660148621,0.1887536644935608,0.20987866818904877
1761501949086989800,3.71198974609375,0.5297647714614868,-0.18964050710201263,0.593637228012085
1761501949097046000,3.7220458984375,0.48421168327331543,-0.39268362522125244,0.8844863772392273
1761501949107102000,3.73210205078125,0.40191787481307983,-0.3782849907875061,1.0221375226974487
1761501949117158000,3.742157958984375,0.3440876007080078,-0.12486443668603897,1.0181409120559692
1761501949127214000,3.752214111328125,0.2593860328197479,0.13648727536201477,0.9342872500419617
1761501949137271000,3.76227099609375,0.28644347190856934,0.29422229528427124,0.924470841884613
1761501949147327000,3.772326904296875,0.3806791603565216,0.33780547976493835,0.9148163199424744
1761501949157383000,3.7823828125,0.4939420819282532,0.4047221839427948,0.9660686254501343
1761501949167439000,3.792439208984375,0.5844203233718872,0.3813289701938629,1.1317918300628662
1761501949177496000,3.80249609375,0.58399897813797,0.21832701563835144,1.1177308559417725
1761501949187552000,3.812552001953125,0.4418754279613495,0.06083805114030838,0.8114430904388428
1761501949197608000,3.82260791015625,0.18215543031692505,-0.11586029082536697,0.5180463194847107
1761501949207664000,3.8326640625,-0.21670061349868774,-0.2715851664543152,0.26598748564720154
1761501949217719800,3.8427197265625,-0.5578134655952454,-0.3640807569026947,-0.01426522247493267
1761501949227777000,3.852777099609375,-0.7033320665359497,-0.42380931973457336,-0.24018517136573792
1761501949237833000,3.8628330078125,-0.6802381873130798,-0.3702363669872284,-0.41703104972839355
1761501949247889000,3.872888916015625,-0.6319646835327148,-0.18724073469638824,-0.47951120138168335
1761501949257944800,3.88294482421875,-0.604385256767273,-0.06163167208433151,-0.37947356700897217
1761501949268000800,3.893000732421875,-0.617249608039856,-0.06272783130407333,-0.2408379167318344
1761501949278057700,3.9030576171875,-0.5574869513511658,-0.2503267526626587,-0.1682601124048233
1761501949288114000,3.913114013671875,-0.4029650390148163,-0.41396334767341614,-0.15349048376083374
1761501949298169900,3.923169921875,-0.1310831904411316,-0.5317317843437195,-0.2005096673965454
1761501949308225800,3.933225830078125,0.14787468314170837,-0.5278691649436951,-0.28788265585899353
1761501949318282000,3.943281982421875,0.3351191282272339,-0.4419883191585541,-0.315605103969574
1761501949328339000,3.9533388671875,0.4265286922454834,-0.28391721844673157,-0.23305481672286987
1761501949338395000,3.963394775390625,0.3831942677497864,-0.1476254165172577,-0.017941981554031372
1761501949348450800,3.973450927734375,0.21617837250232697,-0.06737398356199265,0.28868159651756287
1761501949358507000,3.983507080078125,0.01486523263156414,-0.07374399155378342,0.5717782974243164
1761501949368563000,3.99356298828125,-0.0793486163020134,-0.07080839574337006,0.7133125066757202
1761501949378620000,4.003619873046875,-0.04385374113917351,-0.010349842719733715,0.638242781162262
1761501949388675800,4.01367578125,0.042211104184389114,-0.02021738700568676,0.34663838148117065
1761501949398732000,4.02373193359375,0.11626588553190231,-0.04216636344790459,-0.08459664136171341
1761501949408788000,4.0337880859375,0.07633312046527863,0.007918642833828926,-0.5035331845283508
1761501949418844000,4.043843994140625,-0.08201470971107483,0.09223485738039017,-0.7697219848632812
1761501949428900900,4.05390087890625,-0.27757781744003296,0.07041104882955551,-0.7760257124900818
1761501949438957000,4.06395703125,-0.48826634883880615,-0.06112780049443245,-0.6464932560920715
1761501949449013000,4.074012939453125,-0.55172199010849,0.1025700494647026,-0.7105340361595154
1761501949459069000,4.08406884765625,-0.5133069753646851,0.5090576410293579,-1.0966540575027466
1761501949469126000,4.0941259765625,-0.41037607192993164,0.7719611525535583,-1.6200025081634521
1761501949479182000,4.10418212890625,-0.180423304438591,0.9270056486129761,-1.6512395143508911
1761501949489237800,4.11423779296875,-0.026031067594885826,0.908034086227417,-0.8768575191497803
1761501949499293700,4.124293701171875,0.00977406743913889,0.5143948793411255,0.11254359036684036
1761501949509350000,4.134349853515625,0.03418779745697975,0.0591951459646225,0.8296039700508118
1761501949519406800,4.14440673828125,0.05757594481110573,-0.27509522438049316,1.0745683908462524
1761501949529462800,4.154462890625,0.23979128897190094,-0.5296974182128906,0.9438719749450684
1761501949539518700,4.164518798828125,0.539908230304718,-0.7336899638175964,0.5456539988517761
1761501949549575000,4.174574951171875,0.7403696775436401,-0.780722439289093,0.10500391572713852
1761501949559630800,4.184630859375,0.7946584820747375,-0.7527304887771606,-0.11280963569879532
1761501949569687800,4.194687744140625,0.9481439590454102,-0.6799942255020142,-0.1420154571533203
1761501949579743700,4.20474365234375,1.1652107238769531,-0.5096011757850647,0.008389223366975784
1761501949589800000,4.214800048828125,1.2006816864013672,-0.28830236196517944,0.36637425422668457
1761501949599855900,4.22485595703125,1.0322577953338623,-0.15682050585746765,0.7209059596061707
1761501949609911800,4.234911865234375,0.7282467484474182,-0.07376690208911896,0.9041775465011597
1761501949619968800,4.24496875,0.3055359423160553,-0.0113400062546134,0.9174309968948364
1761501949630025000,4.25502490234375,-0.11101333796977997,0.047515321522951126,0.8880904316902161
1761501949640081000,4.265080810546875,-0.3973281979560852,0.0907948836684227,0.8782188892364502
1761501949650136800,4.27513671875,-0.4679642617702484,0.20196348428726196,0.8734851479530334
1761501949660193000,4.285193115234375,-0.3313118815422058,0.3406769037246704,0.8604833483695984
1761501949670250000,4.29525,-0.03780250623822212,0.4769284725189209,0.7557329535484314
1761501949680306000,4.305305908203125,0.28325939178466797,0.5405346155166626,0.597296953201294
1761501949690361900,4.31536181640625,0.4728096127510071,0.4918336570262909,0.40231603384017944
1761501949700418000,4.32541796875,0.4541081190109253,0.32157111167907715,0.2279530018568039
1761501949710475000,4.33547509765625,0.25571486353874207,0.057556502521038055,0.08238275349140167
1761501949720531000,4.345531005859375,-0.044565070420503616,-0.2408490926027298,-0.05315563082695007
1761501949730587000,4.3555869140625,-0.31794866919517517,-0.4713425040245056,-0.18232187628746033
1761501949740642800,4.365642822265625,-0.4722583591938019,-0.558587372303009,-0.30667445063591003
1761501949750698800,4.37569873046875,-0.48321273922920227,-0.4581230878829956,-0.484472393989563
1761501949760756000,4.385755859375,-0.37793397903442383,-0.2239510715007782,-0.6763888597488403
1761501949770812000,4.39581201171875,-0.1723552644252777,0.018994197249412537,-0.8804165720939636
1761501949780867800,4.405867919921875,0.08683023601770401,0.14916285872459412,-1.0474843978881836
1761501949790923800,4.415923828125,0.26542341709136963,0.23519814014434814,-1.1061465740203857
1761501949800980000,4.42597998046875,0.24889689683914185,0.32985061407089233,-1.0033286809921265
1761501949811037000,4.436036865234375,0.10739676654338837,0.32974302768707275,-0.7539025545120239
1761501949821092900,4.4460927734375,-0.06566262990236282,0.25935328006744385,-0.46053192019462585
1761501949831148800,4.456148681640625,-0.211004376411438,0.0916774570941925,-0.22582727670669556
1761501949841205000,4.466205078125,-0.27813148498535156,-0.13723482191562653,-0.04571475833654404
1761501949851261000,4.476260986328125,-0.2859632968902588,-0.31804826855659485,0.043949615210294724
1761501949861318000,4.48631787109375,-0.26000121235847473,-0.40904077887535095,-0.0034533210564404726
1761501949871373800,4.496373779296875,-0.15780667960643768,-0.4340294599533081,-0.17673268914222717
1761501949881430000,4.506429931640625,0.03015124425292015,-0.36311429738998413,-0.409488707780838
1761501949891486000,4.51648583984375,0.1990116387605667,-0.20653559267520905,-0.587282657623291
1761501949901543000,4.52654296875,0.31553956866264343,-0.020200610160827637,-0.6031508445739746
1761501949911598800,4.536598876953125,0.30639028549194336,0.1332256942987442,-0.4244932234287262
1761501949921655000,4.546655029296875,0.19237929582595825,0.20577393472194672,-0.1275278627872467
1761501949931711000,4.5567109375,0.035361986607313156,0.15979233384132385,0.16160647571086884
1761501949941767000,4.566766845703125,-0.10042647272348404,0.03550153598189354,0.22637055814266205
1761501949951824000,4.576823974609375,-0.2202058732509613,-0.045227665454149246,-0.12579786777496338
1761501949961880000,4.586880126953125,-0.38070714473724365,-0.03321787342429161,-0.7830156683921814
1761501949971936000,4.59693603515625,-0.4713344871997833,0.14939507842063904,-1.0767487287521362
1761501949981992700,4.60699267578125,-0.562106728553772,0.5545119643211365,-0.5915961861610413
1761501949992048600,4.617048583984375,-0.6289576888084412,0.703838050365448,0.174484983086586
1761501950002105600,4.627105712890625,-0.48962002992630005,0.7204436659812927,0.7903220653533936
1761501950012161800,4.637161865234375,-0.24871420860290527,0.9543336629867554,1.0507220029830933
1761501950022217700,4.6472177734375,0.11215902864933014,1.095065951347351,1.0270299911499023
1761501950032273700,4.657273681640625,0.36503124237060547,0.9323519468307495,0.9051876664161682
1761501950042329600,4.66732958984375,0.3933904469013214,0.5972642302513123,0.6715895533561707
1761501950052386800,4.67738671875,0.28306180238723755,0.21598875522613525,0.36604562401771545
1761501950062442500,4.6874423828125,0.24876534938812256,-0.2305903285741806,-0.038790274411439896
1761501950072498400,4.69749853515625,0.20091739296913147,-0.42062950134277344,-0.518464207649231
1761501950082554600,4.7075546875,-0.02052311785519123,-0.25103169679641724,-0.7154068350791931
1761501950092611600,4.717611572265625,-0.3337646424770355,0.07741942256689072,-0.48693424463272095
1761501950102667500,4.72766748046875,-0.5765346884727478,0.43696320056915283,0.10011834651231766
1761501950112723700,4.7377236328125,-0.5678607821464539,0.6539765000343323,0.8657803535461426
1761501950122779600,4.747779541015625,-0.5317552089691162,0.7283124923706055,1.4933273792266846
1761501950132835600,4.757835693359375,-0.396453857421875,0.6421800255775452,1.827125072479248
1761501950142892500,4.767892578125,-0.163519948720932,0.5000668168067932,1.8054157495498657
1761501950152948700,4.77794873046875,0.07300789654254913,0.37222787737846375,1.5039070844650269
1761501950163004700,4.788004638671875,0.25681793689727783,0.20168571174144745,1.164862871170044
1761501950173060600,4.798060546875,0.3390433192253113,0.1445894092321396,0.8542888164520264
1761501950183116800,4.80811669921875,0.2896389961242676,0.2558927536010742,0.6584367752075195
1761501950193173800,4.818173828125,0.14733858406543732,0.35549604892730713,0.6099951863288879
1761501950203229700,4.828229736328125,-0.0787358209490776,0.27205973863601685,0.7144560813903809
1761501950213285600,4.83828564453125,-0.29122650623321533,0.04796326532959938,0.7896272540092468
1761501950223341800,4.848341796875,-0.38975948095321655,-0.1149715930223465,0.5943350195884705
1761501950233398800,4.858398681640625,-0.3722158968448639,-0.16393913328647614,0.13161981105804443
1761501950243454700,4.868454833984375,-0.3353947699069977,-0.16019606590270996,-0.35597676038742065
1761501950253510700,4.8785107421875,-0.33030787110328674,-0.07241081446409225,-0.7625532746315002
1761501950263566800,4.88856689453125,-0.33679667115211487,-0.007529555354267359,-1.0233888626098633
1761501950273622800,4.898622802734375,-0.36395666003227234,-0.07859574258327484,-1.0809904336929321
1761501950283679700,4.9086796875,-0.34722933173179626,-0.19106343388557434,-0.8952828645706177
1761501950293735700,4.918735595703125,-0.27335724234580994,-0.23999395966529846,-0.5895767211914062
1761501950303791900,4.9287919921875,-0.19892294704914093,-0.27410584688186646,-0.339925616979599
1761501950313847600,4.93884765625,-0.12122736126184464,-0.3778945803642273,-0.27112019062042236
1761501950323904800,4.94890478515625,0.019277025014162064,-0.5018900036811829,-0.3283848166465759
1761501950333960700,4.958960693359375,0.17132434248924255,-0.5577082633972168,-0.5537854433059692
1761501950344016600,4.9690166015625,0.2863353490829468,-0.5250152945518494,-0.8592590689659119
1761501950354072600,4.979072509765625,0.36722302436828613,-0.427120178937912,-1.0789909362792969
1761501950364128500,4.98912841796875,0.3670685589313507,-0.3502637445926666,-1.0778963565826416
1761501950374185500,4.999185546875,0.2967621684074402,-0.3591856062412262,-0.8664463758468628
1761501950384241700,5.00924169921875,0.1760549247264862,-0.3857506215572357,-0.5578142404556274
1761501950394297600,5.019297607421875,0.0659870058298111,-0.37605777382850647,-0.2643653452396393
1761501950404353500,5.029353515625,0.04801439866423607,-0.23087716102600098,-0.10453599691390991
1761501950414409700,5.03940966796875,0.09362848848104477,-0.029499301686882973,-0.056342367082834244
1761501950424466700,5.049466796875,0.1957215666770935,0.13792884349822998,-0.1061200425028801
1761501950434522600,5.059522705078125,0.26563939452171326,0.2222069650888443,-0.20192646980285645
1761501950444578600,5.06957861328125,0.1771811693906784,0.34612199664115906,-0.25149083137512207
1761501950454634800,5.079634765625,-0.0662115141749382,0.49012815952301025,-0.15186409652233124
1761501950464691700,5.089691650390625,-0.2726278007030487,0.4932933449745178,0.08458998799324036
1761501950474747600,5.09974755859375,-0.31445273756980896,0.3591344654560089,0.2944476008415222
1761501950484803600,5.109803466796875,-0.11631728708744049,0.3219141364097595,0.5506128072738647
1761501950494859800,5.11985986328125,0.16436417400836945,0.4594070017337799,0.8451927900314331
1761501950504915700,5.129915771484375,0.16712534427642822,0.5249878764152527,0.9506848454475403
1761501950514972700,5.13997265625,-0.14112968742847443,0.7101761102676392,0.9320520162582397
1761501950525025500,5.150025634765625,-0.5424576997756958,0.915966808795929,0.9693043231964111
1761501950535081700,5.160081787109375,-0.6750905513763428,1.012120008468628,1.0316617488861084
1761501950545137700,5.1701376953125,-0.5523739457130432,1.019760012626648,0.8764575123786926
1761501950555193600,5.180193603515625,-0.26488733291625977,0.9334983825683594,0.578915536403656
1761501950565250600,5.19025048828125,0.08202323317527771,0.8895061612129211,0.18155434727668762
1761501950575306800,5.200306640625,0.3620136082172394,0.6576132774353027,-0.29225024580955505
1761501950585362700,5.21036279296875,0.569576621055603,0.21565373241901398,-0.6415403485298157
1761501950595418600,5.220418701171875,0.5359313488006592,-0.18576321005821228,-0.5020024180412292
1761501950605474800,5.230474853515625,0.10615919530391693,-0.41934266686439514,0.06811913102865219
1761501950615531800,5.24053173828125,-0.5212929844856262,-0.43821942806243896,0.6991836428642273
1761501950625587700,5.250587646484375,-1.0144087076187134,-0.5375444293022156,1.1059447526931763
1761501950635643600,5.2606435546875,-1.1434918642044067,-0.5783179402351379,1.2203764915466309
1761501950645699800,5.270699951171875,-0.9765641093254089,-0.3479718267917633,1.0903303623199463
1761501950655756800,5.2807568359375,-0.5810820460319519,0.13535702228546143,0.7409635782241821
1761501950665812700,5.290812744140625,-0.10907269269227982,0.7696011066436768,0.2837129533290863
1761501950675868700,5.30086865234375,0.3408966064453125,1.0771015882492065,-0.22113610804080963
1761501950685924900,5.3109248046875,0.6450522541999817,0.6559346914291382,-0.6023252606391907
1761501950695980500,5.32098046875,0.6853735446929932,-0.0693574994802475,-0.7262954115867615
1761501950706037800,5.331037841796875,0.5429263710975647,-0.6757036447525024,-0.5295525193214417
1761501950716093400,5.341093505859375,0.30999380350112915,-1.0265748500823975,-0.09080313891172409
1761501950726149600,5.351149658203125,-0.07254716753959656,-1.1302971839904785,0.34884533286094666
1761501950736205600,5.36120556640625,-0.4078226387500763,-1.0316745042800903,0.5840546488761902
1761501950746262500,5.371262451171875,-0.5501699447631836,-0.7325200438499451,0.5623429417610168
1761501950756318500,5.381318359375,-0.504800021648407,-0.3764340877532959,0.35633280873298645
1761501950766374700,5.391374755859375,-0.3481776714324951,-0.07214663177728653,0.034686874598264694
1761501950776430600,5.4014306640625,-0.13434316217899323,0.1249920055270195,-0.3560827374458313
1761501950786486500,5.411486572265625,0.07934675365686417,0.2088424265384674,-0.6725669503211975
1761501950796543500,5.42154345703125,0.25215980410575867,0.2125926911830902,-0.8239870667457581
1761501950806599700,5.431599609375,0.25570419430732727,0.1358337253332138,-0.695461094379425
1761501950816655600,5.441655517578125,0.154606893658638,-0.005504753906279802,-0.3588404357433319
1761501950826711600,5.451711669921875,0.09853802621364594,-0.09712601453065872,-0.06564319133758545
1761501950836768500,5.4617685546875,0.10938854515552521,-0.12476030737161636,-0.006220345385372639
1761501950846824700,5.47182470703125,0.15653207898139954,-0.09803841263055801,-0.1517181545495987
1761501950856880600,5.481880615234375,0.22866566479206085,-0.06205884367227554,-0.3854062855243683
1761501950866936600,5.4919365234375,0.3224678039550781,-0.05922231078147888,-0.6153854131698608
1761501950876992800,5.50199267578125,0.41398999094963074,-0.029993850737810135,-0.7844271659851074
1761501950887049700,5.5120498046875,0.4618150293827057,0.0032764871139079332,-0.8424039483070374
1761501950897105700,5.522105712890625,0.4695531129837036,0.0065740132704377174,-0.7529329061508179
1761501950907161600,5.53216162109375,0.44499585032463074,0.021580126136541367,-0.5914137959480286
1761501950917217800,5.5422177734375,0.37267184257507324,0.030310768634080887,-0.43591126799583435
1761501950927274800,5.552274658203125,0.24773523211479187,0.0033718282356858253,-0.35274526476860046
1761501950937330700,5.56233056640625,0.10170318931341171,-0.029925674200057983,-0.3532313108444214
1761501950947386600,5.57238671875,-0.008044078014791012,-0.06208893656730652,-0.3158751428127289
1761501950957442800,5.58244287109375,-0.04285798594355583,-0.09315897524356842,-0.09114695340394974
1761501950967498500,5.59249853515625,-0.024868598207831383,-0.1258881539106369,0.08417665958404541
1761501950977555700,5.6025556640625,0.009243831969797611,-0.16421104967594147,0.07412616163492203
1761501950987612000,5.61261181640625,-0.025054486468434334,-0.2883199453353882,-0.16907717287540436
1761501950997667800,5.622667724609375,-0.09552811831235886,-0.28841662406921387,-0.43526679277420044
1761501951007723800,5.632723876953125,-0.12754730880260468,-0.23950952291488647,-0.30409517884254456
1761501951017779700,5.64277978515625,-0.19645340740680695,-0.3709370493888855,-0.02220996469259262
1761501951027836700,5.652836669921875,-0.35115668177604675,-0.49015212059020996,0.27464595437049866
1761501951037892900,5.662892822265625,-0.4242263734340668,-0.4107278883457184,0.7070258259773254
1761501951047948800,5.67294873046875,-0.3111717402935028,-0.16842016577720642,1.0023349523544312
1761501951058004700,5.683004638671875,-0.1558511108160019,-0.07571020722389221,1.0036367177963257
1761501951068062000,5.69306201171875,-0.0806887224316597,-0.11928431689739227,0.8481392860412598
1761501951078118000,5.703117919921875,-0.1103544682264328,0.0073652383871376514,0.5884560942649841
1761501951088173800,5.713173828125,-0.09106466174125671,0.3501838445663452,0.26476508378982544
1761501951098229800,5.723229736328125,0.07883436232805252,0.6208731532096863,-0.011799401603639126
1761501951108286000,5.733285888671875,0.28205379843711853,0.7070189118385315,-0.17683149874210358
1761501951118343000,5.743343017578125,0.466948002576828,0.49467310309410095,-0.09109529107809067
1761501951128398800,5.75339892578125,0.484730988740921,0.10330881178379059,0.08788138628005981
1761501951138455800,5.763455810546875,0.30044105648994446,-0.2636028826236725,0.19413192570209503
1761501951148512000,5.773511962890625,0.037402763962745667,-0.6022395491600037,0.3331390917301178
1761501951158569000,5.78356884765625,-0.18083049356937408,-0.6896178126335144,0.6567256450653076
1761501951168625000,5.793625,-0.343213826417923,-0.5368211269378662,0.9775984883308411
1761501951178680800,5.803680908203125,-0.3531801700592041,-0.152218297123909,1.0656566619873047
1761501951188737000,5.813737060546875,-0.2762691378593445,0.3827649652957916,0.8848616480827332
1761501951198794000,5.8237939453125,-0.23296454548835754,0.707878589630127,0.46335992217063904
1761501951208850000,5.833849853515625,-0.21019797027111053,0.7672774791717529,0.03459259867668152
1761501951218905900,5.84390576171875,-0.2189350128173828,0.6414417624473572,-0.27876904606819153
1761501951228962000,5.853962158203125,-0.2175096869468689,0.3742758631706238,-0.48907461762428284
1761501951239018000,5.86401806640625,-0.0519430935382843,0.15594884753227234,-0.6272021532058716
1761501951249075000,5.874074951171875,0.30414897203445435,0.157057523727417,-0.697329044342041
1761501951259131000,5.884130859375,0.6414183378219604,0.355167418718338,-0.8432976603507996
1761501951269187000,5.89418701171875,0.6683183908462524,0.45355311036109924,-1.0800426006317139
1761501951279243000,5.904242919921875,0.37930604815483093,0.5013962388038635,-1.2888985872268677
1761501951289300000,5.914300048828125,-0.10893500596284866,0.4693104922771454,-1.4626461267471313
1761501951299356000,5.92435595703125,-0.6301590204238892,0.36443281173706055,-1.4926549196243286
1761501951309412000,5.934412109375,-0.9894753694534302,0.3062385022640228,-1.2853562831878662
1761501951319468000,5.944468017578125,-1.0482518672943115,0.2237127274274826,-0.8973947167396545
1761501951329523700,5.954523681640625,-0.7868775725364685,0.07755125313997269,-0.34648045897483826
1761501951339581000,5.964580810546875,-0.3706243932247162,-0.17955298721790314,0.17758969962596893
1761501951349636900,5.974636962890625,0.06682749837636948,-0.45723944902420044,0.5964117050170898
1761501951359692800,5.98469287109375,0.4446360468864441,-0.567409873008728,0.800518810749054
1761501951369748700,5.994748779296875,0.6923068165779114,-0.5451669096946716,0.7553763389587402
1761501951379805700,6.0048056640625,0.7495160698890686,-0.43191438913345337,0.4705275595188141
1761501951389862000,6.01486181640625,0.6105746626853943,-0.2977834939956665,0.11593086272478104
1761501951399917800,6.024917724609375,0.402202844619751,-0.25464320182800293,-0.0665968731045723
1761501951409973800,6.034973876953125,0.20655983686447144,-0.2687763273715973,-0.08943533897399902
1761501951420030000,6.045030029296875,0.07988524436950684,-0.3065492808818817,-0.028969865292310715
1761501951430087000,6.0550869140625,0.07260069996118546,-0.3232012391090393,0.006406234111636877
1761501951440142800,6.065142822265625,0.1533203125,-0.2682274580001831,-0.008675247430801392
1761501951450198800,6.07519873046875,0.22053636610507965,-0.13347044587135315,-0.04246729984879494
1761501951460255000,6.0852548828125,0.18998485803604126,-0.01480291411280632,-0.0974341481924057
1761501951470312000,6.09531201171875,0.03801342844963074,0.049421876668930054,-0.1948333978652954
1761501951480367900,6.105367919921875,-0.19893333315849304,0.0776500552892685,-0.277311772108078
1761501951490423800,6.115423828125,-0.39133235812187195,0.1647242307662964,-0.17698489129543304
1761501951500480000,6.12547998046875,-0.6025699973106384,0.23513315618038177,0.0016295883106067777
1761501951510537000,6.135536865234375,-0.7739236354827881,0.2609272003173828,0.23266467452049255
1761501951520593000,6.145593017578125,-0.6858478784561157,0.17863312363624573,0.7768398523330688
1761501951530648800,6.15564892578125,-0.5132973790168762,0.1923643797636032,1.2902346849441528
1761501951540705000,6.165705078125,-0.3103429675102234,0.13413091003894806,1.4626826047897339
1761501951550761000,6.175760986328125,0.040464334189891815,-0.05541159212589264,1.373365044593811
1761501951560818000,6.18581787109375,0.44941002130508423,-0.23773932456970215,1.0599756240844727
1761501951570873900,6.195873779296875,0.7130872011184692,-0.4264184236526489,0.5521888732910156
1761501951580930000,6.205929931640625,0.6855847239494324,-0.5601655840873718,-0.06203753873705864
1761501951590986000,6.215986083984375,0.2317136526107788,-0.6699059009552002,-0.41289567947387695
1761501951601042000,6.2260419921875,-0.38432157039642334,-0.7767016291618347,-0.43897363543510437
1761501951611099000,6.236098876953125,-0.8352967500686646,-0.7628483772277832,-0.3145590126514435
1761501951621155000,6.246155029296875,-0.996503472328186,-0.3994304835796356,-0.08239687234163284
1761501951631210800,6.256210693359375,-0.8247732520103455,0.0874885693192482,0.2901308834552765
1761501951641267000,6.266266845703125,-0.4896266758441925,0.4369989037513733,0.696739137172699
1761501951651324000,6.276323974609375,-0.13956482708454132,0.6381961703300476,0.9287156462669373
1761501951661379800,6.2863798828125,0.19636578857898712,0.6825106739997864,0.9436666369438171
1761501951671435800,6.296435791015625,0.45069393515586853,0.5293634533882141,0.8013081550598145
1761501951681492000,6.306491943359375,0.6544592976570129,0.192902073264122,0.5826269388198853
1761501951691548000,6.3165478515625,0.8315272927284241,-0.2389012575149536,0.3651401698589325
1761501951701604900,6.32660498046875,0.8969566226005554,-0.5528285503387451,0.09407643228769302
1761501951711660800,6.336660888671875,0.8135120868682861,-0.5573346018791199,-0.2200937569141388
1761501951721717000,6.346717041015625,0.610584020614624,-0.2308286875486374,-0.43226778507232666
1761501951731773000,6.35677294921875,0.3133419454097748,0.1104186549782753,-0.3891746401786804
1761501951741830000,6.366829833984375,-0.015211709775030613,0.3588143587112427,-0.1739741861820221
1761501951751885800,6.3768857421875,-0.26139405369758606,0.5574933290481567,0.038907717913389206
1761501951761942000,6.38694189453125,-0.3692283630371094,0.6946264505386353,0.08229407668113708
1761501951771998000,6.396998046875,-0.3149707317352295,0.721243679523468,-0.014278005808591843
1761501951782055000,6.407054931640625,-0.17994579672813416,0.6670392751693726,-0.2553683817386627
1761501951792110800,6.41711083984375,-0.09917452186346054,0.5996674299240112,-0.5743503570556641
1761501951802167000,6.4271669921875,-0.11337822675704956,0.45536884665489197,-0.873443603515625
1761501951812223000,6.437222900390625,-0.1535501480102539,0.36724618077278137,-1.0972641706466675
1761501951822279000,6.44727880859375,-0.23539680242538452,0.2770814001560211,-1.1318557262420654
1761501951832336000,6.4573359375,-0.34551265835762024,0.14778120815753937,-0.9080649614334106
1761501951842392000,6.46739208984375,-0.41692930459976196,-0.045285988599061966,-0.5025818943977356
1761501951852448000,6.477447998046875,-0.3538920283317566,-0.21904154121875763,-0.09102364629507065
1761501951862504000,6.48750390625,-0.11744806915521622,-0.3343449532985687,0.17375634610652924
1761501951872561000,6.497560791015625,0.266066312789917,-0.3932221233844757,0.256509006023407
1761501951882617000,6.5076171875,0.6766423583030701,-0.5949848294258118,0.18407556414604187
1761501951892673000,6.517673095703125,1.0069390535354614,-0.8230227828025818,0.03833167627453804
1761501951902728700,6.527728759765625,1.2200849056243896,-0.8823771476745605,-0.05450984835624695
1761501951912785000,6.537784912109375,1.2032028436660767,-0.8411517143249512,-0.2816769480705261
1761501951922841900,6.547841796875,0.9855725169181824,-0.597216784954071,-0.5224741101264954
1761501951932897800,6.557897705078125,0.7536426186561584,-0.39318856596946716,-0.46211010217666626
1761501951942953700,6.56795361328125,0.5717644095420837,-0.18578797578811646,-0.2735500633716583
1761501951953010000,6.578010009765625,0.33085888624191284,-0.006958307232707739,-0.11321204155683517
1761501951963067000,6.58806689453125,-0.032465796917676926,0.1337151825428009,0.12509693205356598
1761501951973122800,6.598122802734375,-0.39975884556770325,0.10451735556125641,0.3663119375705719
1761501951983179000,6.608178955078125,-0.6237717270851135,0.05648591369390488,0.5588638186454773
1761501951993235200,6.618235107421875,-0.6430698037147522,-0.04789828509092331,0.5704528093338013
1761501952003292200,6.628292236328125,-0.4321466088294983,-0.09411398321390152,0.4747558534145355
1761501952013348000,6.63834814453125,-0.15490037202835083,-0.06356379389762878,0.4001244902610779
1761501952023404000,6.648404052734375,-0.03365463390946388,-0.3242233395576477,0.2294345200061798
1761501952033460200,6.658460205078125,-0.010329869575798512,-0.6689991354942322,0.05734265223145485
1761501952043516200,6.66851611328125,-0.03456197306513786,-0.5886827111244202,0.12164893746376038
1761501952053573000,6.678572998046875,-0.1550188809633255,-0.5167840123176575,0.2768358588218689
1761501952063629000,6.688629150390625,-0.2830868363380432,-0.21265873312950134,0.44251537322998047
1761501952073685200,6.698685302734375,-0.2527416944503784,0.13773763179779053,0.6127550005912781
1761501952083741200,6.7087412109375,-0.06132514402270317,0.2719162106513977,0.7485072612762451
1761501952093798100,6.718798095703125,0.11557852476835251,0.2078285664319992,0.6521849632263184
1761501952103854000,6.72885400390625,0.2491496354341507,0.09247400611639023,0.4284573495388031
1761501952113910000,6.738909912109375,0.23869486153125763,0.03244955092668533,0.16399745643138885
1761501952123966000,6.748966064453125,0.14967603981494904,0.10523001849651337,-0.06619073450565338
1761501952134022000,6.75902197265625,0.11030679941177368,0.23664157092571259,-0.2038026601076126
1761501952144078800,6.769078857421875,0.10140331834554672,0.48905491828918457,-0.28067055344581604
1761501952154135000,6.779135009765625,0.09372755885124207,0.9069139361381531,-0.17167162895202637
1761501952164191000,6.78919091796875,0.044390369206666946,1.3323568105697632,0.10895631462335587
1761501952174247000,6.799246826171875,-0.023250460624694824,1.6194876432418823,0.42301303148269653
1761501952184303900,6.809303955078125,-0.14411109685897827,1.7056974172592163,0.6952301859855652
1761501952194360000,6.819360107421875,-0.30844011902809143,1.6166194677352905,0.8686041235923767
1761501952204416000,6.829416015625,-0.5209790468215942,1.160373330116272,0.9471364617347717
1761501952214472000,6.839471923828125,-0.9331309199333191,-0.3657854497432709,1.0914411544799805
1761501952224528100,6.849528076171875,-1.3859719038009644,-1.6511974334716797,1.1496446132659912
1761501952234585000,6.859585205078125,-1.3651219606399536,-2.1888298988342285,0.8688302040100098
1761501952244641000,6.86964111328125,-1.0667866468429565,-2.0815114974975586,0.5118747353553772
1761501952254697000,6.879697021484375,-0.6040443181991577,-1.0651684999465942,0.3060073256492615
1761501952264753200,6.889753173828125,0.08536922931671143,0.1626136749982834,0.271898090839386
1761501952274810000,6.89981005859375,0.8361912965774536,0.5773789286613464,0.08135291188955307
1761501952284866000,6.909865966796875,1.2878258228302002,0.22036193311214447,-0.14204555749893188
1761501952294922200,6.919922119140625,1.290506362915039,0.09472145140171051,-0.14265196025371552
1761501952304978200,6.929978271484375,0.9096066355705261,0.16833707690238953,0.03297952190041542
1761501952315035100,6.94003515625,0.4284552037715912,0.11501234024763107,0.16792961955070496
1761501952325091000,6.950091064453125,0.0036701022181659937,0.18469154834747314,0.14265622198581696
1761501952335147300,6.960147216796875,-0.31104710698127747,0.21525585651397705,-0.0137802604585886
1761501952345203200,6.970203125,-0.4679810404777527,0.1914871335029602,-0.2194700390100479
1761501952355259100,6.980259033203125,-0.40718188881874084,0.0719173327088356,-0.43239057064056396
1761501952365316000,6.990316162109375,-0.17900437116622925,0.004742024466395378,-0.688377857208252
1761501952375372300,7.000372314453125,0.06691831350326538,-0.007800132501870394,-0.908640444278717
1761501952385428200,7.01042822265625,0.20420773327350616,-0.07108616083860397,-1.0228631496429443
1761501952395484000,7.02048388671875,0.24066667258739471,-0.0843292623758316,-1.0049818754196167
1761501952405541000,7.030541015625,0.2048034816980362,-0.042990610003471375,-0.9416812658309937
1761501952415597000,7.04059716796875,0.1030275821685791,-0.08399263769388199,-0.955639123916626
1761501952425653000,7.050653076171875,-0.039033953100442886,-0.1864100843667984,-1.1830837726593018
1761501952435709000,7.060708984375,-0.16579829156398773,-0.36446425318717957,-1.497410535812378
1761501952445766000,7.070765869140625,-0.16376043856143951,-0.5584505200386047,-1.709176778793335
1761501952455822000,7.080822021484375,-0.0858299508690834,-0.5967552661895752,-1.6856129169464111
1761501952465878000,7.0908779296875,-0.04759867861866951,-0.6053245067596436,-1.3781852722167969
1761501952475934000,7.100933837890625,-0.0027683558873832226,-0.566584587097168,-0.9378420114517212
1761501952485990100,7.110990234375,0.0205747839063406,-0.3751078248023987,-0.536028265953064
1761501952496047000,7.121047119140625,-0.00996128749102354,-0.011318966746330261,-0.24391385912895203
1761501952506103000,7.13110302734375,-0.07713340222835541,0.3369354009628296,-0.12863759696483612
1761501952516159000,7.141158935546875,-0.1548692137002945,0.6687825918197632,-0.21163341403007507
1761501952526215200,7.151215087890625,-0.283702552318573,0.8827846050262451,-0.35623666644096375
1761501952536272100,7.161272216796875,-0.48027873039245605,0.9708678722381592,-0.61902916431427
1761501952546328000,7.171328125,-0.5474942326545715,0.9277795553207397,-0.9206435680389404
1761501952556384000,7.181384033203125,-0.32849639654159546,0.6302365064620972,-1.093631386756897
1761501952566440200,7.191440185546875,0.0905328318476677,0.1855698674917221,-1.0888656377792358
1761501952576496000,7.20149609375,0.5711598992347717,0.05156785249710083,-0.6726942658424377
1761501952586553000,7.211552978515625,0.8918577432632446,0.05078328400850296,0.036493562161922455
1761501952596609000,7.221609130859375,0.920069694519043,0.3732992708683014,0.3252566456794739
1761501952606665200,7.231665283203125,0.8209692239761353,0.7147162556648254,0.06845735758543015
1761501952616721200,7.24172119140625,0.6113520860671997,0.5193417072296143,-0.15066833794116974
1761501952626778000,7.251778076171875,0.15065155923366547,0.3504248559474945,-0.09213924407958984
1761501952636834000,7.261833984375,-0.22900788486003876,0.08734316378831863,0.14906324446201324
1761501952646890200,7.27189013671875,-0.2550312280654907,0.05673731490969658,0.5172476768493652
1761501952656946200,7.2819462890625,0.010640127584338188,0.2624659836292267,0.7689979076385498
1761501952667003100,7.292003173828125,0.32623642683029175,0.3091895282268524,0.6973811984062195
1761501952677059000,7.30205908203125,0.5210618376731873,0.11924756318330765,0.44943320751190186
1761501952687115000,7.312114990234375,0.592276930809021,-0.005055478774011135,0.24817518889904022
1761501952697171000,7.3221708984375,0.5169869661331177,0.1024230420589447,0.2338537722826004
1761501952707227000,7.332226806640625,0.39483121037483215,0.2537427842617035,0.37843093276023865
1761501952717283800,7.342283935546875,0.29991641640663147,0.33838018774986267,0.5975584983825684
1761501952727340000,7.352340087890625,0.20031657814979553,0.2426683008670807,0.7979970574378967
1761501952737396000,7.36239599609375,0.1980169415473938,0.05085998401045799,0.9391126036643982
1761501952747452000,7.372451904296875,0.27651548385620117,-0.06477100402116776,1.0012696981430054
1761501952757509000,7.382509033203125,0.34422340989112854,-0.1549309939146042,0.8973070979118347
1761501952767565000,7.39256494140625,0.38242247700691223,-0.250262051820755,0.6378670334815979
1761501952777621000,7.40262109375,0.48968395590782166,-0.6096982359886169,0.40475308895111084
1761501952787677000,7.412677001953125,0.5613397359848022,-0.5489395260810852,0.27134203910827637
1761501952797734100,7.422734130859375,0.5774244666099548,-0.5642479062080383,0.13543319702148438
1761501952807790000,7.4327900390625,0.551633894443512,-0.4696338176727295,0.07302680611610413
1761501952817846000,7.442845947265625,0.49275803565979004,-0.18043582141399384,0.07999416440725327
1761501952827902000,7.45290185546875,0.36121731996536255,0.015235678292810917,0.09921766072511673
1761501952837958100,7.462958251953125,0.1504446268081665,0.05160673335194588,0.14233636856079102
1761501952848015000,7.47301513671875,-0.12898008525371552,0.048049017786979675,0.21709395945072174
1761501952858071000,7.483071044921875,-0.4778669774532318,0.05344058945775032,0.26161348819732666
1761501952868127200,7.493127197265625,-0.7622547745704651,0.03569168597459793,0.1946757435798645
1761501952878183200,7.50318310546875,-0.911625862121582,0.1331910789012909,0.02124696597456932
1761501952888240000,7.513240234375,-0.8749411106109619,0.24722950160503387,-0.2747354209423065
1761501952898296000,7.523296142578125,-0.6577222347259521,0.28980305790901184,-0.6118199825286865
1761501952908352300,7.533352294921875,-0.30478227138519287,0.19225706160068512,-0.9124242663383484
1761501952918408200,7.543408203125,0.12001349031925201,-0.023744743317365646,-1.1436092853546143
1761501952928465200,7.553465087890625,0.5221729278564453,-0.24576182663440704,-1.395872712135315
1761501952938521000,7.56352099609375,0.8125720024108887,-0.47846856713294983,-1.6715998649597168
1761501952948577300,7.573577392578125,0.9378827810287476,-0.8816892504692078,-1.9148423671722412
1761501952958633200,7.58363330078125,0.8117094039916992,-1.4216995239257812,-2.0519795417785645
1761501952968689000,7.59368896484375,0.4826390743255615,-1.579384684562683,-1.942939043045044
1761501952978746000,7.60374609375,0.08003517985343933,-1.4093624353408813,-1.6343166828155518
1761501952988802300,7.61380224609375,-0.1352750062942505,-0.8714491724967957,-1.2207539081573486
1761501952998858200,7.623858154296875,-0.3113565444946289,-0.21276499330997467,-1.0393401384353638
1761501953008914200,7.6339140625,-0.47100400924682617,-0.5179579257965088,-0.9666313529014587
1761501953018971100,7.64397119140625,-0.666487991809845,-0.5215854048728943,-0.7834790945053101
1761501953029027300,7.65402734375,-0.7682167887687683,-0.8971872925758362,-0.8357058167457581
1761501953039083300,7.664083251953125,-0.7991054654121399,-1.0511059761047363,-0.964826762676239
1761501953049139200,7.67413916015625,-0.5740105509757996,-0.9098418354988098,-0.9417896270751953
1761501953059195100,7.684195068359375,-0.22831971943378448,-0.7491786479949951,-0.8573008179664612
1761501953069252400,7.69425244140625,-0.005584915168583393,-0.3787672817707062,-0.7094789147377014
1761501953079308300,7.704308349609375,0.15345746278762817,-0.35389256477355957,-0.9035535454750061
1761501953089364000,7.714364013671875,0.2624201774597168,-0.6754136085510254,-1.3161890506744385
1761501953099420200,7.724420166015625,0.17772765457630157,-0.6462501287460327,-1.5983043909072876
1761501953109477000,7.73447705078125,-0.10096576064825058,-0.30649441480636597,-2.126743793487549
1761501953119533000,7.744532958984375,-0.3984523117542267,-0.1891496777534485,-2.870763063430786
1761501953129589000,7.754589111328125,-0.4255049526691437,-0.10096096992492676,-3.4962399005889893
1761501953139645200,7.764645263671875,-0.07124248892068863,0.18910999596118927,-3.5952069759368896
1761501953149702100,7.7747021484375,0.3758532404899597,0.29883062839508057,-3.136275291442871
1761501953159758000,7.784758056640625,0.6763808727264404,0.12977451086044312,-2.2785770893096924
1761501953169814000,7.79481396484375,0.5846349596977234,-0.1141316294670105,-1.4711096286773682
1761501953179870200,7.8048701171875,0.2232985943555832,0.17917907238006592,-0.8811217546463013
1761501953189926100,7.814926025390625,-0.06354542076587677,0.54372239112854,-0.5263500809669495
1761501953199983000,7.824983154296875,-0.30964839458465576,0.6547338962554932,-0.5046945810317993
1761501953210039000,7.8350390625,-0.48393550515174866,0.4839610755443573,-0.742913007736206
1761501953220095200,7.84509521484375,-0.5245082378387451,0.3252047300338745,-1.1320130825042725
1761501953230151200,7.855151123046875,-0.39329296350479126,0.2651272714138031,-1.4709757566452026
1761501953240208100,7.8652080078125,-0.11580782383680344,0.3815329670906067,-1.5422115325927734
1761501953250264000,7.87526416015625,0.14644242823123932,0.5622750520706177,-1.4099550247192383
1761501953260320300,7.8853203125,0.322035014629364,0.6544340252876282,-1.153552770614624
1761501953270376200,7.895376220703125,0.39861902594566345,0.692105770111084,-0.8612495064735413
1761501953280433200,7.90543310546875,0.38242781162261963,0.6945691704750061,-0.6692004203796387
1761501953290489000,7.915489013671875,0.3156343996524811,0.6569328308105469,-0.6359809637069702
1761501953300545300,7.925545166015625,0.23848527669906616,0.5500854849815369,-0.7381611466407776
1761501953310601200,7.935601318359375,0.1956440657377243,0.41116198897361755,-0.8932255506515503
1761501953320657200,7.9456572265625,0.15844157338142395,0.3300684690475464,-1.0598646402359009
1761501953330714000,7.955714111328125,0.10789716988801956,0.19478999078273773,-1.1987659931182861
1761501953340770300,7.965770263671875,0.09792257100343704,0.0997854471206665,-1.2857201099395752
1761501953350826200,7.975826171875,0.09838329255580902,0.10644947737455368,-1.334172010421753
1761501953360882000,7.9858818359375,0.05221473425626755,0.20351503789424896,-1.4380449056625366
1761501953370939100,7.995939208984375,-0.03775377199053764,0.3716377317905426,-1.6094776391983032
1761501953380995000,8.0059951171875,-0.11424428224563599,0.5173848271369934,-1.7432836294174194
1761501953391051000,8.016051025390626,-0.16401183605194092,0.6109786629676819,-1.7871233224868774
1761501953401107200,8.026107177734374,-0.2473120540380478,0.7182747721672058,-1.7023361921310425
1761501953411164200,8.0361640625,-0.3467875123023987,0.7466174960136414,-1.4991562366485596
1761501953421220000,8.04622021484375,-0.4550817608833313,0.6441659331321716,-1.2154494524002075
1761501953431276000,8.056276123046874,-0.5206778049468994,0.6148338913917542,-0.9162815809249878
1761501953441332200,8.066332275390625,-0.502246618270874,0.5934185981750488,-0.6989055871963501
1761501953451388200,8.07638818359375,-0.4252588748931885,0.5468686819076538,-0.610446572303772
1761501953461445000,8.086445068359374,-0.3458942770957947,0.46848440170288086,-0.637188196182251
1761501953471501000,8.0965009765625,-0.26745620369911194,0.3510376513004303,-0.7135540843009949
1761501953481557200,8.10655712890625,-0.2164316326379776,0.2633248567581177,-0.7674223780632019
1761501953491613200,8.11661328125,-0.19306665658950806,0.18892145156860352,-0.7142329216003418
1761501953501670100,8.126670166015625,-0.18440765142440796,0.14758147299289703,-0.5579277276992798
1761501953511726000,8.13672607421875,-0.19396014511585236,0.13781778514385223,-0.37869617342948914
1761501953521782300,8.1467822265625,-0.17916682362556458,0.11624964326620102,-0.27299585938453674
1761501953531838200,8.156838134765625,-0.09727009385824203,0.058108843863010406,-0.2356221079826355
1761501953541895200,8.166895263671876,0.01067741122096777,0.047323837876319885,-0.24308988451957703
1761501953551951000,8.176951171875,0.08305840194225311,0.003451456781476736,-0.29024115204811096
1761501953562007300,8.18700732421875,0.12009072303771973,-0.07342175394296646,-0.3363945186138153
1761501953572063200,8.197063232421876,0.13950011134147644,-0.08509518951177597,-0.3988259434700012
1761501953582119200,8.207119140625,0.1518997848033905,-0.08917754888534546,-0.48503434658050537
1761501953592176000,8.217176025390625,0.1459697186946869,-0.08633222430944443,-0.5965174436569214
1761501953602232300,8.227232421875,0.134250208735466,-0.08272577077150345,-0.6989695429801941
1761501953612288300,8.237288330078124,0.13000380992889404,-0.04283534735441208,-0.7665368318557739
1761501953622344200,8.24734423828125,0.062309447675943375,0.053573478013277054,-0.7702090740203857
1761501953632401200,8.257401123046876,-0.058098189532756805,0.08616285026073456,-0.8213817477226257
1761501953642457300,8.267457275390624,-0.15895822644233704,0.07073462009429932,-0.9284034967422485
1761501953652513300,8.27751318359375,-0.22361791133880615,0.04639386385679245,-1.0311189889907837
1761501953662569000,8.28756884765625,-0.2747546136379242,0.10943541675806046,-1.0543649196624756
1761501953672626200,8.297626220703124,-0.33994239568710327,0.08349063247442245,-0.9614115357398987
1761501953682682000,8.30768212890625,-0.36836203932762146,0.06168306991457939,-0.7575603723526001
