time,seconds_elapsed,z,y,x
1761379814673921500,0.052921630859375,-0.15451844036579132,-0.5641757249832153,0.3586956560611725
1761379814684004600,0.063004638671875,-0.21572348475456238,-0.56673264503479,0.5157225131988525
1761379814694087400,0.07308740234375,-0.27086618542671204,-0.5230116248130798,0.5735766291618347
1761379814704170500,0.08317041015625,-0.3200792670249939,-0.4419447183609009,0.5541531443595886
1761379814714253300,0.09325341796875,-0.3336663246154785,-0.3433866500854492,0.48550528287887573
1761379814724336600,0.103336669921875,-0.33474063873291016,-0.25833699107170105,0.38206544518470764
1761379814734419700,0.113419677734375,-0.3394724726676941,-0.19564403593540192,0.26347774267196655
1761379814744502500,0.12350244140625,-0.3496105968952179,-0.16503046452999115,0.14622807502746582
1761379814754585600,0.133585693359375,-0.3538986146450043,-0.13054455816745758,0.0582013875246048
1761379814764668400,0.14366845703125,-0.3564927875995636,-0.12640121579170227,0.02464049682021141
1761379814774751500,0.15375146484375,-0.3739767372608185,-0.15595650672912598,0.04228271543979645
1761379814784834600,0.16383447265625,-0.39755505323410034,-0.20270003378391266,0.1152152419090271
1761379814794917600,0.173917724609375,-0.4220406115055084,-0.23650303483009338,0.22121252119541168
1761379814805000400,0.18400048828125,-0.44761332869529724,-0.2643836736679077,0.3250609040260315
1761379814815083500,0.19408349609375,-0.45726534724235535,-0.27339932322502136,0.41278308629989624
1761379814825166300,0.204166259765625,-0.4344708323478699,-0.27055665850639343,0.47438758611679077
1761379814835249400,0.21424951171875,-0.3914385437965393,-0.1880284994840622,0.5175212621688843
1761379814845332700,0.224332763671875,-0.34238922595977783,-0.058061979711055756,0.5615746974945068
1761379814855415600,0.23441552734375,-0.3003455698490143,-0.07941349595785141,0.5323103666305542
1761379814865498600,0.24449853515625,-0.2666083872318268,-0.27490442991256714,0.40575110912323
1761379814875581400,0.25458154296875,-0.2788204252719879,-0.6283134818077087,0.14385871589183807
1761379814885664500,0.26466455078125,-0.3479566276073456,-0.9773244857788086,-0.17289286851882935
1761379814895747300,0.274747314453125,-0.4153788089752197,-1.1143907308578491,-0.41745734214782715
1761379814905830700,0.28483056640625,-0.4552529752254486,-0.9921361804008484,-0.5308752059936523
1761379814915913500,0.29491357421875,-0.48615628480911255,-0.5971620678901672,-0.4853210747241974
1761379814925997600,0.30499755859375,-0.4689823389053345,-0.05269822105765343,-0.27998867630958557
1761379814936080400,0.315080322265625,-0.35634645819664,0.40400952100753784,0.01789088174700737
1761379814946163500,0.32516357421875,-0.23566079139709473,0.646975040435791,0.30619245767593384
1761379814956246500,0.33524658203125,-0.14054696261882782,0.607907235622406,0.5085879564285278
1761379814966329600,0.34532958984375,-0.08309432119131088,0.36115095019340515,0.6196109056472778
1761379814976412400,0.355412353515625,-0.06805205345153809,0.006164470687508583,0.6506242752075195
1761379814986495500,0.36549560546875,-0.090053491294384,-0.33161383867263794,0.6438779830932617
1761379814996578600,0.37557861328125,-0.1284281313419342,-0.5666630864143372,0.626024603843689
1761379815006661400,0.385661376953125,-0.18332892656326294,-0.7059323191642761,0.5914589166641235
1761379815016744700,0.39574462890625,-0.26603859663009644,-0.7852538824081421,0.5300390124320984
1761379815026827500,0.40582763671875,-0.3802543878555298,-0.8113642930984497,0.44662028551101685
1761379815036910600,0.41591064453125,-0.5251511931419373,-0.7667763233184814,0.3207283318042755
1761379815046993400,0.425993408203125,-0.6825736165046692,-0.6104341745376587,0.15810616314411163
1761379815057076500,0.436076416015625,-0.8058756589889526,-0.36161717772483826,-0.0226115882396698
1761379815067159300,0.4461591796875,-0.88751620054245,-0.08207131177186966,-0.18670572340488434
1761379815077242600,0.45624267578125,-0.9078519940376282,0.15214195847511292,-0.31048572063446045
1761379815087325700,0.46632568359375,-0.8717520833015442,0.31169408559799194,-0.3704952597618103
1761379815097408500,0.476408447265625,-0.7987033724784851,0.4056796133518219,-0.36513257026672363
1761379815107491600,0.48649169921875,-0.7008396983146667,0.42775508761405945,-0.30190834403038025
1761379815117574400,0.496574462890625,-0.6146721839904785,0.4001980125904083,-0.17981788516044617
1761379815127657500,0.506657470703125,-0.5509496331214905,0.3174791634082794,-0.034162409603595734
1761379815137740500,0.516740478515625,-0.5194145441055298,0.20438939332962036,0.1058412417769432
1761379815147823600,0.52682373046875,-0.5007641315460205,0.08926599472761154,0.2097300887107849
1761379815157906400,0.536906494140625,-0.4783301055431366,-0.007994108833372593,0.27134060859680176
1761379815167989500,0.546989501953125,-0.45597338676452637,-0.07912421226501465,0.2808033525943756
1761379815178072600,0.557072509765625,-0.4259691834449768,-0.13552254438400269,0.24965593218803406
1761379815188155400,0.5671552734375,-0.40305399894714355,-0.17288164794445038,0.18096183240413666
1761379815198238700,0.57723876953125,-0.4019576609134674,-0.1984586864709854,0.09313956648111343
1761379815208321500,0.587321533203125,-0.40858200192451477,-0.20985141396522522,0.014888965524733067
1761379815218404600,0.597404541015625,-0.41530919075012207,-0.20033259689807892,-0.06065510958433151
1761379815228487400,0.6074873046875,-0.4213750660419464,-0.17110812664031982,-0.11893706023693085
1761379815238570500,0.617570556640625,-0.41861364245414734,-0.12244969606399536,-0.15517203509807587
1761379815248653300,0.6276533203125,-0.40770426392555237,-0.0516492985188961,-0.15937796235084534
1761379815258736600,0.637736572265625,-0.38232043385505676,0.01839979737997055,-0.13967834413051605
1761379815268819500,0.6478193359375,-0.33955565094947815,0.06871223449707031,-0.11109276860952377
1761379815278902500,0.657902587890625,-0.2907017171382904,0.08299477398395538,-0.073542520403862
1761379815288985600,0.667985595703125,-0.24722428619861603,0.06195446848869324,-0.03407766669988632
1761379815299068400,0.678068359375,-0.19751346111297607,0.03142212703824043,0.00985250435769558
1761379815309151500,0.6881513671875,-0.14353863894939423,0.0041391076520085335,0.06485370546579361
1761379815319234600,0.698234619140625,-0.10066725313663483,-0.02341393008828163,0.1271325796842575
1761379815329317600,0.708317626953125,-0.06677426397800446,-0.053101249039173126,0.17406919598579407
1761379815339400400,0.718400390625,-0.03894782438874245,-0.07862312346696854,0.20146358013153076
1761379815349484500,0.728484619140625,-0.020322473719716072,-0.10818048566579819,0.20582078397274017
1761379815359567400,0.7385673828125,-0.013353344053030014,-0.12848705053329468,0.19208867847919464
1761379815369650700,0.748650634765625,0.00210444163531065,-0.11930153518915176,0.18931260704994202
1761379815379733500,0.7587333984375,0.019646262750029564,-0.10088089853525162,0.18622460961341858
1761379815389816600,0.768816650390625,0.043720439076423645,-0.09826194494962692,0.19229288399219513
1761379815399899400,0.7788994140625,0.049474526196718216,-0.10504664480686188,0.20554451644420624
1761379815409982500,0.788982421875,0.04118330404162407,-0.10641711205244064,0.20698581635951996
1761379815420065300,0.799065185546875,0.03194824606180191,-0.09530313313007355,0.17448566854000092
1761379815430148600,0.809148681640625,0.0337781086564064,-0.06870295107364655,0.12151405960321426
1761379815440231700,0.819231689453125,0.04028383642435074,-0.046105969697237015,0.0531899593770504
1761379815450314500,0.829314453125,0.0596625953912735,-0.03986112400889397,0.0013845539651811123
1761379815460397600,0.8393974609375,0.09784144908189774,-0.04256365820765495,-0.02748437412083149
1761379815470480400,0.84948046875,0.14979545772075653,-0.06327959150075912,-0.039060868322849274
1761379815480563500,0.8595634765625,0.19851523637771606,-0.08101732283830643,-0.03499837964773178
1761379815490646500,0.869646484375,0.24771207571029663,-0.09401967376470566,-0.026235515251755714
1761379815500729600,0.8797294921875,0.28990304470062256,-0.08469928056001663,-0.01207372359931469
1761379815510812400,0.8898125,0.3227859139442444,0.03302336111664772,0.02847636677324772
1761379815520895500,0.8998955078125,0.34708887338638306,0.07986423373222351,0.05403461307287216
1761379815530978600,0.909978515625,0.3726440370082855,-0.13052788376808167,-0.02082790993154049
1761379815541061400,0.920061279296875,0.40244874358177185,-0.4118741750717163,-0.1883586347103119
1761379815551144700,0.930144775390625,0.40684083104133606,-0.657719612121582,-0.4116747975349426
1761379815561227500,0.9402275390625,0.4029306173324585,-0.7931090593338013,-0.5933719873428345
1761379815571310600,0.950310546875,0.37747666239738464,-0.7727265954017639,-0.6708457469940186
1761379815581393400,0.960393310546875,0.3539506196975708,-0.5943992733955383,-0.6364348530769348
1761379815591476500,0.9704765625,0.361483097076416,-0.25722283124923706,-0.49564072489738464
1761379815601559300,0.980559326171875,0.40931034088134766,0.10373258590698242,-0.30370786786079407
1761379815611642600,0.990642578125,0.48669248819351196,0.3243270218372345,-0.12389655411243439
1761379815621725400,1.000725341796875,0.5367512702941895,0.3563329577445984,-0.010317475534975529
1761379815631809500,1.0108095703125,0.5558594465255737,0.29693540930747986,0.020403418689966202
1761379815641891600,1.0208916015625,0.56623774766922,0.19688352942466736,-0.010691385716199875
1761379815651975400,1.030975341796875,0.5677895545959473,0.12888796627521515,-0.06157054379582405
1761379815662058500,1.04105859375,0.5903434753417969,0.15675054490566254,-0.061759840697050095
1761379815672141600,1.0511416015625,0.6515471935272217,0.24794037640094757,0.0015592097770422697
1761379815682224600,1.061224609375,0.7220163345336914,0.3543663024902344,0.10960530489683151
1761379815692307500,1.071307373046875,0.7933541536331177,0.43167999386787415,0.2248791605234146
1761379815702390500,1.081390625,0.8639191389083862,0.44853830337524414,0.3237171769142151
1761379815712473300,1.091473388671875,0.915042519569397,0.4020823836326599,0.3927745521068573
1761379815722556700,1.101556640625,0.9322236180305481,0.2930491268634796,0.4471675753593445
1761379815732639500,1.111639404296875,0.8857445120811462,0.12953795492649078,0.4692486524581909
1761379815742722600,1.12172265625,0.7996988296508789,-0.08414874970912933,0.45281586050987244
1761379815752805400,1.131805419921875,0.6972371935844421,-0.2975805997848511,0.3868645429611206
1761379815762888400,1.141888427734375,0.5988903641700745,-0.4250110685825348,0.2973731756210327
1761379815772971300,1.15197119140625,0.5282527208328247,-0.4353470802307129,0.19879280030727386
1761379815783054600,1.1620546875,0.4714089632034302,-0.36563926935195923,0.10308056324720383
1761379815793137700,1.1721376953125,0.43205997347831726,-0.2424638420343399,0.022724207490682602
1761379815803220500,1.182220458984375,0.4031447470188141,-0.09253080934286118,-0.052360374480485916
1761379815813303600,1.192303466796875,0.38138431310653687,0.060668595135211945,-0.11166603863239288
1761379815823386400,1.202386474609375,0.365425705909729,0.2031756192445755,-0.17068633437156677
1761379815833469400,1.212469482421875,0.36412155628204346,0.3143919110298157,-0.2319377064704895
1761379815843552500,1.222552490234375,0.3775273561477661,0.40718308091163635,-0.2842419147491455
1761379815853635600,1.232635498046875,0.4007498621940613,0.47837337851524353,-0.29003268480300903
1761379815863718400,1.242718505859375,0.42926931381225586,0.5293017625808716,-0.26358047127723694
1761379815873801500,1.252801513671875,0.46789392828941345,0.5403211116790771,-0.21287335455417633
1761379815883884500,1.262884521484375,0.5196637511253357,0.5049664378166199,-0.17731866240501404
1761379815893967400,1.27296728515625,0.5659052729606628,0.424635648727417,-0.15017865598201752
1761379815904050700,1.28305078125,0.608284592628479,0.32564178109169006,-0.13693490624427795
1761379815914133500,1.293133544921875,0.6442577838897705,0.22019340097904205,-0.1326778382062912
1761379815924216600,1.303216552734375,0.6553754210472107,0.14413012564182281,-0.11815259605646133
1761379815934299400,1.31329931640625,0.6518914699554443,0.08995556831359863,-0.11698666214942932
1761379815944382500,1.323382568359375,0.6537355184555054,0.05427879840135574,-0.1229788288474083
1761379815954465300,1.33346533203125,0.6620600819587708,0.03187708556652069,-0.13346663117408752
1761379815964548600,1.343548583984375,0.6719640493392944,0.029318492859601974,-0.13731053471565247
1761379815974631400,1.35363134765625,0.6891734004020691,0.03687734156847,-0.12148575484752655
1761379815984714500,1.363714599609375,0.696736752986908,0.0724649652838707,-0.07954458892345428
1761379815994797600,1.373797607421875,0.7067792415618896,0.11991743743419647,-0.02998875081539154
1761379816004880400,1.38388037109375,0.7167909145355225,0.16722574830055237,0.024123109877109528
1761379816014963500,1.39396337890625,0.7265364527702332,0.20471879839897156,0.07678978145122528
1761379816025046500,1.404046630859375,0.7291158437728882,0.2409108579158783,0.12740102410316467
1761379816035129600,1.414129638671875,0.7255269289016724,0.25546932220458984,0.1730601191520691
1761379816045212400,1.42421240234375,0.7237198948860168,0.2560664713382721,0.20133660733699799
1761379816055295500,1.43429541015625,0.707417368888855,0.2411181628704071,0.22734424471855164
1761379816065378300,1.44437841796875,0.6875916123390198,0.2029029130935669,0.2392197698354721
1761379816075461400,1.45446142578125,0.6687201857566833,0.15129484236240387,0.25024792551994324
1761379816085544700,1.464544677734375,0.6348322629928589,0.10108840465545654,0.2611226737499237
1761379816095628500,1.474628662109375,0.5987645387649536,0.05756622552871704,0.2680085301399231
1761379816105711400,1.48471142578125,0.5542038679122925,0.02608693391084671,0.26579684019088745
1761379816115794400,1.49479443359375,0.5071788430213928,0.007288746070116758,0.270759642124176
1761379816125877500,1.50487744140625,0.46890148520469666,0.00846419483423233,0.28941628336906433
1761379816135960600,1.514960693359375,0.44549548625946045,0.031477637588977814,0.3297285735607147
1761379816146043600,1.525043701171875,0.4333890378475189,0.061084069311618805,0.37860795855522156
1761379816156126500,1.53512646484375,0.4294968247413635,0.10324164479970932,0.4242318868637085
1761379816166209500,1.54520947265625,0.4333307445049286,0.13461698591709137,0.44546449184417725
1761379816176292400,1.555292236328125,0.44368910789489746,0.15833616256713867,0.444179505109787
1761379816186375700,1.565375732421875,0.4532027542591095,0.17021165788173676,0.439719021320343
1761379816196458500,1.57545849609375,0.4571855068206787,0.19892266392707825,0.4316616356372833
1761379816206541600,1.58554150390625,0.4794105887413025,0.34869641065597534,0.4489753246307373
1761379816216624400,1.595624267578125,0.5282326936721802,0.41939935088157654,0.44918546080589294
1761379816226707500,1.60570751953125,0.5875654816627502,0.313657283782959,0.3742908239364624
1761379816236790500,1.61579052734375,0.6294050216674805,-0.02522115595638752,0.17046232521533966
1761379816246873600,1.62587353515625,0.5909457802772522,-0.4543112516403198,-0.16898685693740845
1761379816256956700,1.635956787109375,0.5200958251953125,-0.7407264709472656,-0.5175384283065796
1761379816267039500,1.64603955078125,0.4420091509819031,-0.8305404782295227,-0.7616097927093506
1761379816277122600,1.65612255859375,0.3305225670337677,-0.6552456021308899,-0.8406867980957031
1761379816287205400,1.666205322265625,0.26472094655036926,-0.22600199282169342,-0.7606558799743652
1761379816297288400,1.676288330078125,0.29948559403419495,0.3042728006839752,-0.5928881764411926
1761379816307371500,1.68637158203125,0.4476388096809387,0.7551562786102295,-0.41716575622558594
1761379816317454600,1.69645458984375,0.6491341590881348,1.0421056747436523,-0.2484571784734726
1761379816327537700,1.70653759765625,0.8518760204315186,1.2140324115753174,-0.08547677844762802
1761379816337620500,1.716620361328125,1.0308313369750977,1.2997660636901855,0.07838325947523117
1761379816347702300,1.726702392578125,1.1910686492919922,1.335526466369629,0.23590199649333954
1761379816357785300,1.736785400390625,1.3064324855804443,1.3448117971420288,0.3769954741001129
1761379816367868200,1.7468681640625,1.3700636625289917,1.3001551628112793,0.5008032321929932
1761379816377951500,1.756951416015625,1.3989245891571045,1.1450315713882446,0.585544228553772
1761379816388034300,1.767034423828125,1.370718240737915,0.8725764155387878,0.6118489503860474
1761379816398117400,1.777117431640625,1.309394121170044,0.5074455738067627,0.5917021632194519
1761379816408200200,1.7872001953125,1.232555866241455,0.09101012349128723,0.5515701770782471
1761379816418283300,1.797283203125,1.1524336338043213,-0.2901957929134369,0.5369680523872375
1761379816428366000,1.807365966796875,1.1048798561096191,-0.5066787600517273,0.5624822974205017
1761379816438449400,1.817449462890625,1.0631883144378662,-0.5893265008926392,0.5954666137695312
1761379816448532200,1.8275322265625,1.01613450050354,-0.5608857870101929,0.6241583228111267
1761379816458615300,1.837615234375,0.9668558835983276,-0.4422704875469208,0.6118620038032532
1761379816468699100,1.84769921875,0.9221264719963074,-0.21628084778785706,0.5957517623901367
1761379816478782500,1.857782470703125,0.8899523019790649,0.09611727297306061,0.5651310086250305
1761379816488865300,1.867865234375,0.8804088234901428,0.4361586272716522,0.5099082589149475
1761379816498948400,1.8779482421875,0.9055243134498596,0.7489300966262817,0.4244330823421478
1761379816509031200,1.88803125,0.9552974700927734,1.0196276903152466,0.3281286656856537
1761379816519114200,1.8981142578125,1.0205940008163452,1.2460030317306519,0.22794239223003387
1761379816529197300,1.908197265625,1.0883121490478516,1.4049490690231323,0.128068208694458
1761379816539280400,1.9182802734375,1.1646928787231445,1.4829339981079102,0.036951348185539246
1761379816549363500,1.928363525390625,1.2428443431854248,1.4730843305587769,-0.04997657239437103
1761379816559446300,1.9384462890625,1.3207329511642456,1.408600091934204,-0.09597975015640259
1761379816569529300,1.948529296875,1.4014419317245483,1.311658501625061,-0.10090308636426926
1761379816579612200,1.958612060546875,1.476630449295044,1.2093514204025269,-0.06961893290281296
1761379816589695200,1.9686953125,1.54805326461792,1.1195417642593384,-0.03259902074933052
1761379816599778300,1.9787783203125,1.6267027854919434,1.0676213502883911,0.015275293029844761
1761379816609861400,1.988861328125,1.7109235525131226,1.0522710084915161,0.0516623817384243
1761379816619944400,1.9989443359375,1.7931196689605713,1.0704894065856934,0.07559168338775635
1761379816630027300,2.00902734375,1.8771735429763794,1.1044670343399048,0.07876697182655334
1761379816640110300,2.0191103515625,1.9603794813156128,1.148301124572754,0.06851513683795929
1761379816650193200,2.029193115234375,2.02913236618042,1.1892352104187012,0.04145864024758339
1761379816660276500,2.0392763671875,2.084911346435547,1.2195183038711548,0.006939277984201908
1761379816670359300,2.049359375,2.152059316635132,1.2663277387619019,-0.029296115040779114
1761379816680442400,2.0594423828125,2.2234082221984863,1.3466439247131348,-0.05949582904577255
1761379816690525200,2.069525146484375,2.299515962600708,1.4407786130905151,-0.07799180597066879
1761379816700608300,2.079608154296875,2.3794541358947754,1.5201019048690796,-0.08976510912179947
1761379816710691300,2.08969140625,2.4708075523376465,1.5741615295410156,-0.08925192058086395
1761379816720774400,2.0997744140625,2.5525407791137695,1.5994149446487427,-0.06726965308189392
1761379816730857500,2.109857421875,2.6255548000335693,1.5739450454711914,-0.040113452821969986
1761379816740940300,2.119940185546875,2.665412187576294,1.4925421476364136,-0.010458089411258698
1761379816751023400,2.1300234375,2.672253370285034,1.3817737102508545,0.031218627467751503
1761379816761106200,2.140106201171875,2.6609253883361816,1.2727892398834229,0.07429898530244827
1761379816771190500,2.1501904296875,2.6483652591705322,1.1904687881469727,0.10897339880466461
1761379816781273300,2.1602734375,2.6430575847625732,1.1352458000183105,0.13440366089344025
1761379816791356400,2.1703564453125,2.647338390350342,1.086893916130066,0.1474938988685608
1761379816801439200,2.180439208984375,2.6454734802246094,1.041993260383606,0.1503908783197403
1761379816811522300,2.190522216796875,2.649007558822632,1.0299170017242432,0.14483892917633057
1761379816821605000,2.200605224609375,2.669128656387329,1.0422884225845337,0.15158498287200928
1761379816831688400,2.2106884765625,2.6993236541748047,1.0669002532958984,0.17024080455303192
1761379816841771300,2.220771240234375,2.725376844406128,1.0950267314910889,0.2002122849225998
1761379816851854300,2.230854248046875,2.750438690185547,1.128461241722107,0.22434531152248383
1761379816861937400,2.2409375,2.7657270431518555,1.1660146713256836,0.2267157882452011
1761379816872020200,2.251020263671875,2.773043155670166,1.2084312438964844,0.19297856092453003
1761379816882103300,2.261103271484375,2.765918493270874,1.263584017753601,0.12982089817523956
1761379816892186400,2.271186279296875,2.750714063644409,1.332942008972168,0.060009315609931946
1761379816902269400,2.28126953125,2.750673294067383,1.4342098236083984,0.021295474842190742
1761379816912352300,2.291352294921875,2.7522025108337402,1.5445549488067627,0.02110852114856243
1761379816922435300,2.301435302734375,2.7683749198913574,1.6585321426391602,0.030899368226528168
1761379816932518100,2.31151806640625,2.8077452182769775,1.7641576528549194,0.012386349961161613
1761379816942601200,2.321601318359375,2.869488000869751,1.88508141040802,-0.0355721190571785
1761379816952684300,2.331684326171875,2.939366579055786,2.0502259731292725,-0.08400175720453262
1761379816962767400,2.341767333984375,3.021726608276367,2.35815167427063,-0.09170468151569366
1761379816972850400,2.351850341796875,3.1126413345336914,2.640075445175171,-0.12099466472864151
1761379816982933200,2.361933349609375,3.23760986328125,2.671694755554199,-0.27831849455833435
1761379816993016300,2.372016357421875,3.3618502616882324,2.326955795288086,-0.6016703844070435
1761379817003099100,2.38209912109375,3.3789427280426025,1.697198510169983,-1.0258169174194336
1761379817013182500,2.392182373046875,3.240847110748291,0.9943192005157471,-1.3423330783843994
1761379817023265300,2.402265380859375,3.0152764320373535,0.40296852588653564,-1.4174435138702393
1761379817033348400,2.412348388671875,2.7720932960510254,0.07054991275072098,-1.2197462320327759
1761379817043431200,2.42243115234375,2.6205942630767822,0.16205532848834991,-0.8248031735420227
1761379817053514200,2.43251416015625,2.6027991771698,0.6484311819076538,-0.35567575693130493
1761379817063597300,2.442597412109375,2.7594475746154785,1.2850492000579834,0.03927580639719963
1761379817073680400,2.452680419921875,3.0549044609069824,1.818921685218811,0.23236170411109924
1761379817083764200,2.46276416015625,3.2976746559143066,2.187363386154175,0.24512942135334015
1761379817093847300,2.472847412109375,3.4341413974761963,2.4020347595214844,0.14500932395458221
1761379817103930000,2.48293017578125,3.4981019496917725,2.4050586223602295,-0.003314902540296316
1761379817114013200,2.49301318359375,3.496014356613159,2.260974645614624,-0.13281744718551636
1761379817124096500,2.503096435546875,3.4106719493865967,2.0130693912506104,-0.20192301273345947
1761379817134179300,2.513179443359375,3.2781331539154053,1.7065634727478027,-0.19759197533130646
1761379817144262400,2.523262451171875,3.1233692169189453,1.4223052263259888,-0.14224588871002197
1761379817154345200,2.53334521484375,2.954362154006958,1.2394119501113892,-0.033950041979551315
1761379817164428300,2.54342822265625,2.8093669414520264,1.1284362077713013,0.06277117133140564
1761379817174511000,2.553510986328125,2.711979866027832,1.1470667123794556,0.12253735214471817
1761379817184594400,2.563594482421875,2.636824131011963,1.2716848850250244,0.1327231377363205
1761379817194677200,2.57367724609375,2.577085018157959,1.4262794256210327,0.08360891789197922
1761379817204760300,2.58376025390625,2.53391170501709,1.5865551233291626,0.001289009815081954
1761379817214843400,2.593843505859375,2.4940104484558105,1.740720510482788,-0.09742765873670578
1761379817224926200,2.60392626953125,2.4501662254333496,1.871326208114624,-0.19385060667991638
1761379817235009300,2.61400927734375,2.400669574737549,1.9631798267364502,-0.2898971438407898
1761379817245092400,2.62409228515625,2.3480825424194336,2.009941577911377,-0.3786381781101227
1761379817255175400,2.634175537109375,2.2884182929992676,1.9903112649917603,-0.47321438789367676
1761379817265258200,2.64425830078125,2.221038341522217,1.9148939847946167,-0.5762408971786499
1761379817275341300,2.65434130859375,2.1658835411071777,1.8245735168457031,-0.6757565140724182
1761379817285424000,2.664424072265625,2.1330652236938477,1.7283636331558228,-0.7561437487602234
1761379817295507200,2.674507080078125,2.1130568981170654,1.6413172483444214,-0.8053311109542847
1761379817305590300,2.68459033203125,2.108480215072632,1.5376856327056885,-0.8217811584472656
1761379817315673300,2.69467333984375,2.1086583137512207,1.4176102876663208,-0.7952726483345032
1761379817325756400,2.70475634765625,2.1304142475128174,1.3069735765457153,-0.7011248469352722
1761379817335839200,2.714839111328125,2.1611249446868896,1.2303096055984497,-0.5547797679901123
1761379817345922300,2.72492236328125,2.18516206741333,1.181481122970581,-0.38380110263824463
1761379817356005600,2.735005615234375,2.2055487632751465,1.1488432884216309,-0.23069718480110168
1761379817366088700,2.745088623046875,2.200521945953369,1.1121478080749512,-0.1334763616323471
1761379817376172500,2.755172607421875,2.172226667404175,1.100250482559204,-0.08384383469820023
1761379817386255600,2.765255615234375,2.135242462158203,1.1295380592346191,-0.07505886256694794
1761379817396338700,2.775338623046875,2.085202932357788,1.1727113723754883,-0.09648671001195908
1761379817406421800,2.785421875,2.022735595703125,1.2317895889282227,-0.14568327367305756
1761379817416504600,2.795504638671875,1.974014163017273,1.2850077152252197,-0.19475463032722473
1761379817426587600,2.805587646484375,1.9365826845169067,1.2976876497268677,-0.2237125188112259
1761379817436670500,2.81567041015625,1.8908120393753052,1.2578374147415161,-0.2256915122270584
1761379817446753800,2.82575390625,1.8313883543014526,1.1777068376541138,-0.2097431719303131
1761379817456836600,2.835836669921875,1.7537634372711182,1.0611320734024048,-0.18510451912879944
1761379817466919700,2.845919677734375,1.653162956237793,0.9385772347450256,-0.1669774353504181
1761379817477002500,2.85600244140625,1.5325690507888794,0.8209390044212341,-0.14609496295452118
1761379817487085600,2.86608544921875,1.4115045070648193,0.6898946762084961,-0.10300341248512268
1761379817497168600,2.876168701171875,1.3153667449951172,0.5664442777633667,-0.0625285804271698
1761379817507251700,2.886251708984375,1.2398942708969116,0.513444185256958,0.01084310095757246
1761379817517334800,2.896334716796875,1.1778903007507324,0.44792813062667847,0.07443853467702866
1761379817527417600,2.90641748046875,1.1252163648605347,0.36649104952812195,0.12683409452438354
1761379817537500700,2.916500732421875,1.0705666542053223,0.30528101325035095,0.16668549180030823
1761379817547583500,2.92658349609375,1.0101845264434814,0.20237915217876434,0.20025037229061127
1761379817557666600,2.93666650390625,0.9643421769142151,0.09183449298143387,0.2544006109237671
1761379817567749600,2.94674951171875,0.9371979236602783,0.02951306849718094,0.35138922929763794
1761379817577832700,2.956832763671875,0.9300270080566406,-0.009196148253977299,0.4896717369556427
1761379817587915800,2.966915771484375,0.8999151587486267,-0.06214165315032005,0.6212806105613708
1761379817597998600,2.97699853515625,0.8376549482345581,-0.2088756561279297,0.6631798148155212
1761379817608081700,2.98708154296875,0.7691177129745483,-0.372749000787735,0.6166927218437195
1761379817618164500,2.99716455078125,0.6484593152999878,-0.522656261920929,0.5138843059539795
1761379817628247800,3.007247802734375,0.481456458568573,-0.6282623410224915,0.37758690118789673
1761379817638330600,3.01733056640625,0.3048636019229889,-0.6356023550033569,0.26184511184692383
1761379817648413700,3.02741357421875,0.15733113884925842,-0.5388108491897583,0.16600088775157928
1761379817658497500,3.03749755859375,0.0648370236158371,-0.3291790187358856,0.10494611412286758
1761379817668580600,3.04758056640625,0.030817266553640366,-0.038735758513212204,0.05474046617746353
1761379817678663700,3.05766357421875,0.0539059042930603,0.23458467423915863,-0.0060394760221242905
1761379817688746800,3.067746826171875,0.07126971334218979,0.4074304699897766,-0.08985874056816101
1761379817698829600,3.07782958984375,0.05828559398651123,0.4514842927455902,-0.18336519598960876
1761379817708912600,3.08791259765625,0.01882340759038925,0.39560186862945557,-0.21756817400455475
1761379817718995500,3.097995361328125,-0.02843129076063633,0.3078952431678772,-0.1827901303768158
1761379817729078500,3.10807861328125,-0.05726826563477516,0.21752697229385376,-0.08398258686065674
1761379817739161900,3.118161865234375,-0.06731702387332916,0.12122301757335663,0.02738543227314949
1761379817749244700,3.12824462890625,-0.06491219252347946,0.02790345624089241,0.13904857635498047
1761379817759327700,3.13832763671875,-0.06693344563245773,-0.04571641609072685,0.22393646836280823
1761379817769410600,3.14841064453125,-0.08298458158969879,-0.07349078357219696,0.2834559977054596
1761379817779493600,3.15849365234375,-0.10887987911701202,-0.05664040893316269,0.312762051820755
1761379817789576400,3.168576416015625,-0.14114433526992798,-0.024895798414945602,0.29529091715812683
1761379817799659800,3.17865966796875,-0.17725834250450134,0.02933724969625473,0.2445266991853714
1761379817809742600,3.18874267578125,-0.20572246611118317,0.06358283758163452,0.1653410643339157
1761379817819825700,3.19882568359375,-0.22799234092235565,0.07655388861894608,0.055887434631586075
1761379817829908700,3.20890869140625,-0.23703031241893768,0.07949081808328629,-0.047850944101810455
1761379817839991600,3.218991455078125,-0.2342444360256195,0.0687699019908905,-0.11898988485336304
1761379817850074600,3.22907470703125,-0.2178225815296173,0.05026891827583313,-0.13331957161426544
1761379817860157700,3.23915771484375,-0.17687593400478363,0.024608686566352844,-0.0988016352057457
1761379817870240800,3.24924072265625,-0.12110401690006256,-0.02783534675836563,-0.03992154449224472
1761379817880323600,3.259323486328125,-0.07302942126989365,-0.11340038478374481,0.01834149658679962
1761379817890406700,3.26940673828125,-0.045861177146434784,-0.22593198716640472,0.04574995115399361
1761379817900489500,3.279489501953125,-0.060513198375701904,-0.3507760763168335,0.04043646529316902
1761379817910572500,3.289572509765625,-0.10703276097774506,-0.46101364493370056,-0.00237091863527894
1761379817920656600,3.29965673828125,-0.1765429824590683,-0.524627149105072,-0.05921199172735214
1761379817930739700,3.30973974609375,-0.2413688451051712,-0.5207889676094055,-0.12474865466356277
1761379817940822500,3.319822509765625,-0.29592567682266235,-0.4470515549182892,-0.2023601531982422
1761379817950905600,3.329905517578125,-0.3304141163825989,-0.33380597829818726,-0.27817395329475403
1761379817960988400,3.339988525390625,-0.35147666931152344,-0.21467706561088562,-0.3633466958999634
1761379817971071700,3.35007177734375,-0.36980241537094116,-0.12053804844617844,-0.45113512873649597
1761379817981154600,3.360154541015625,-0.4012235403060913,-0.03924207389354706,-0.5328370928764343
1761379817991237600,3.370237548828125,-0.43539801239967346,0.023957934230566025,-0.6235403418540955
1761379818001320700,3.38032080078125,-0.46781909465789795,0.06498441100120544,-0.7142049074172974
1761379818011403500,3.390403564453125,-0.4876213073730469,0.09193000942468643,-0.7971764802932739
1761379818021486600,3.400486572265625,-0.4899924099445343,0.10786519944667816,-0.8522706627845764
1761379818031569700,3.410569580078125,-0.4771663546562195,0.10653921216726303,-0.8600755929946899
1761379818041652700,3.42065283203125,-0.45919308066368103,0.0828104019165039,-0.8334828615188599
1761379818051735600,3.430735595703125,-0.44643840193748474,0.08499126136302948,-0.7534551024436951
1761379818061818600,3.440818603515625,-0.43482092022895813,0.1128406673669815,-0.6353581547737122
1761379818071901400,3.4509013671875,-0.4316011667251587,0.1568155735731125,-0.4968295395374298
1761379818081984500,3.460984619140625,-0.4144837260246277,0.18973040580749512,-0.36203688383102417
1761379818092067800,3.47106787109375,-0.3860286474227905,0.21619237959384918,-0.2265232801437378
1761379818102150700,3.481150634765625,-0.34444573521614075,0.21887503564357758,-0.10986360907554626
1761379818112233700,3.491233642578125,-0.28864479064941406,0.20930255949497223,0.0051335496827960014
1761379818122316500,3.501316650390625,-0.23226626217365265,0.17417415976524353,0.09383050352334976
1761379818132399600,3.511399658203125,-0.19293004274368286,0.09676086157560349,0.1600601226091385
1761379818142482400,3.521482421875,-0.1830834299325943,-0.0027804234996438026,0.2017839252948761
1761379818152565800,3.531565673828125,-0.20565424859523773,-0.11255672574043274,0.2229246199131012
1761379818162648600,3.541648681640625,-0.24520176649093628,-0.21193386614322662,0.22912733256816864
1761379818172731600,3.551731689453125,-0.28640618920326233,-0.29315733909606934,0.2310227006673813
1761379818182814700,3.561814697265625,-0.3236333727836609,-0.331832617521286,0.23718585073947906
1761379818192898600,3.571898681640625,-0.3518522381782532,-0.34563684463500977,0.24721425771713257
1761379818202981600,3.581981689453125,-0.3780096769332886,-0.33204683661460876,0.24761457741260529
1761379818213064700,3.592064697265625,-0.40174803137779236,-0.2823956608772278,0.22893837094306946
1761379818223147500,3.6021474609375,-0.41019371151924133,-0.22107818722724915,0.18517127633094788
1761379818233230600,3.612230712890625,-0.3960739076137543,-0.15171828866004944,0.1351832151412964
1761379818243313700,3.622313720703125,-0.37475186586380005,-0.08176927268505096,0.09863383322954178
1761379818253396700,3.632396728515625,-0.34490475058555603,-0.03854670003056526,0.07868222892284393
1761379818263479800,3.642479736328125,-0.3238878548145294,-0.05259957164525986,0.09471025317907333
1761379818273562600,3.652562744140625,-0.3127659559249878,-0.1262146681547165,0.14573056995868683
1761379818283645700,3.662645751953125,-0.29800692200660706,-0.25592800974845886,0.2304927408695221
1761379818293728500,3.672728515625,-0.2746073305606842,-0.33091863989830017,0.36241215467453003
1761379818303811600,3.6828115234375,-0.25700831413269043,-0.3488334119319916,0.5111951231956482
1761379818313894700,3.692894775390625,-0.18566222488880157,-0.2641022801399231,0.6457939147949219
1761379818323977700,3.702977783203125,-0.07232418656349182,-0.16996420919895172,0.7005969882011414
1761379818334060500,3.713060546875,0.045165158808231354,-0.10246772319078445,0.6581528782844543
1761379818344143600,3.7231435546875,0.12678365409374237,-0.11188589781522751,0.49701929092407227
1761379818354226000,3.733225830078125,0.169753760099411,-0.1808798760175705,0.238327294588089
1761379818364308700,3.743308837890625,0.13534152507781982,-0.2664436101913452,-0.03434962406754494
1761379818374392000,3.75339208984375,0.05305011197924614,-0.3322037160396576,-0.2351628988981247
1761379818384475000,3.763474853515625,-0.04098629206418991,-0.275544673204422,-0.2956821918487549
1761379818394558000,3.773557861328125,-0.08195716142654419,-0.10471327602863312,-0.22543282806873322
1761379818404641000,3.78364111328125,-0.03293319791555405,0.17555966973304749,-0.04872733727097511
1761379818414723800,3.793723876953125,0.09708498418331146,0.4436643719673157,0.16306853294372559
1761379818424807000,3.803806884765625,0.25053852796554565,0.6437700986862183,0.34729117155075073
1761379818434890000,3.813889892578125,0.38428062200546265,0.7844135165214539,0.4655139446258545
1761379818444973000,3.82397314453125,0.46831899881362915,0.8710261583328247,0.5099558234214783
1761379818455056000,3.834055908203125,0.5084187388420105,0.876899778842926,0.5157500505447388
1761379818465140000,3.844139892578125,0.5051921010017395,0.7686615586280823,0.5043430328369141
1761379818475222800,3.854222900390625,0.49329873919487,0.6223539113998413,0.514431357383728
1761379818485306000,3.86430615234375,0.5030805468559265,0.475780189037323,0.5456098318099976
1761379818495389000,3.874388916015625,0.513282835483551,0.3465135097503662,0.5739650130271912
1761379818505472000,3.884471923828125,0.5207892060279846,0.21680906414985657,0.5677313804626465
1761379818515554800,3.894554931640625,0.5054718255996704,0.11231169104576111,0.5179824829101562
1761379818525638000,3.904637939453125,0.4572432339191437,0.04269912838935852,0.4364098608493805
1761379818535720700,3.914720703125,0.38389259576797485,0.021979467943310738,0.34018373489379883
1761379818545804000,3.924803955078125,0.31430041790008545,0.054887790232896805,0.24610766768455505
1761379818555887000,3.93488720703125,0.26512566208839417,0.12409348785877228,0.16351771354675293
1761379818565970000,3.944969970703125,0.24213892221450806,0.21826376020908356,0.09669648855924606
1761379818576053000,3.955052978515625,0.2310790866613388,0.3031935393810272,0.01838996633887291
1761379818586135800,3.9651357421875,0.22777977585792542,0.3880443871021271,-0.0834113359451294
1761379818596219000,3.975218994140625,0.23742948472499847,0.48047444224357605,-0.2013331800699234
1761379818606302000,3.985302001953125,0.2529391646385193,0.5802127718925476,-0.3058728873729706
1761379818616385000,3.995385009765625,0.26613327860832214,0.6589549779891968,-0.38039401173591614
1761379818626467800,4.0054677734375,0.28957274556159973,0.7219988703727722,-0.41628798842430115
1761379818636551000,4.015551025390625,0.3169170320034027,0.7655266523361206,-0.4256388545036316
1761379818646634000,4.025634033203125,0.3470434248447418,0.7725011110305786,-0.427834689617157
1761379818656716800,4.035716796875,0.3858416974544525,0.7278015613555908,-0.4312419593334198
1761379818666800000,4.045800048828125,0.42621129751205444,0.6294227242469788,-0.4407254755496979
1761379818676883000,4.055883056640625,0.4520988166332245,0.4882088303565979,-0.4440232813358307
1761379818686966000,4.065966064453125,0.4677528738975525,0.319768488407135,-0.45587772130966187
1761379818697048800,4.076048828125,0.4768720865249634,0.11295031756162643,-0.4521666169166565
1761379818707132000,4.0861318359375,0.5085786581039429,-0.0877334475517273,-0.43857330083847046
1761379818717216000,4.096216064453125,0.5328909158706665,-0.26401475071907043,-0.398297518491745
1761379818727299000,4.106299072265625,0.5334829688072205,-0.3950274884700775,-0.3420723080635071
1761379818737382000,4.1163818359375,0.529695451259613,-0.5112951993942261,-0.3002398908138275
1761379818747465000,4.12646484375,0.5346739292144775,-0.5903757810592651,-0.2891567647457123
1761379818757547800,4.1365478515625,0.5392127633094788,-0.6139538288116455,-0.28505709767341614
1761379818767630800,4.146630859375,0.5312477350234985,-0.599920392036438,-0.2745978534221649
1761379818777714000,4.1567138671875,0.5130585432052612,-0.5446350574493408,-0.26042264699935913
1761379818787797000,4.166796875,0.4977322816848755,-0.4634465277194977,-0.2403397560119629
1761379818797879800,4.1768798828125,0.4896051287651062,-0.37092509865760803,-0.21781714260578156
1761379818807963000,4.186962890625,0.47174346446990967,-0.2909899353981018,-0.19358178973197937
1761379818818046000,4.1970458984375,0.4399176239967346,-0.24202054738998413,-0.16807402670383453
1761379818828128800,4.207128662109375,0.39203840494155884,-0.24016061425209045,-0.14879024028778076
1761379818838212000,4.217212158203125,0.33705079555511475,-0.24192948639392853,-0.12798961997032166
1761379818848295000,4.227294921875,0.2810857892036438,-0.2619391679763794,-0.1020996943116188
1761379818858378000,4.2373779296875,0.22087493538856506,-0.2867875099182129,-0.06867143511772156
1761379818868460800,4.247460693359375,0.160895437002182,-0.31542471051216125,-0.03501855581998825
1761379818878544000,4.2575439453125,0.10496772825717926,-0.3268701732158661,0.016140766441822052
1761379818888626700,4.267626708984375,0.05331498757004738,-0.29926374554634094,0.07844200730323792
1761379818898710000,4.2777099609375,0.015037103556096554,-0.2228211760520935,0.14611107110977173
1761379818908793000,4.28779296875,-0.013786997646093369,-0.10479385405778885,0.1992918998003006
1761379818918876000,4.2978759765625,-0.018766842782497406,0.06427240371704102,0.22784312069416046
1761379818928959000,4.307958984375,0.006989502348005772,0.19346243143081665,0.22402247786521912
1761379818939041800,4.318041748046875,0.020900525152683258,0.2165328562259674,0.12963099777698517
1761379818949124900,4.328124755859375,0.037870362401008606,0.19832859933376312,-0.028140462934970856
1761379818959208000,4.3382080078125,0.014097390696406364,0.09899722039699554,-0.2631079852581024
1761379818969291000,4.348291015625,-0.07431009411811829,-0.05436950922012329,-0.5425364375114441
1761379818979374800,4.358374755859375,-0.18022587895393372,-0.16189837455749512,-0.7994236350059509
1761379818989458000,4.3684580078125,-0.2755701243877411,-0.18146838247776031,-0.9564169645309448
1761379818999540700,4.378540771484375,-0.3293505311012268,-0.1282283365726471,-0.9902305603027344
1761379819009624000,4.3886240234375,-0.32424795627593994,0.02705780230462551,-0.8855100274085999
1761379819019707000,4.398706787109375,-0.24293152987957,0.19903995096683502,-0.6865543127059937
1761379819029790000,4.4087900390625,-0.08682169765233994,0.3489067554473877,-0.44958460330963135
1761379819039872800,4.418872802734375,0.08827261626720428,0.4085700809955597,-0.22818855941295624
1761379819049955800,4.428955810546875,0.21038462221622467,0.36585888266563416,-0.030727829784154892
1761379819060039000,4.439038818359375,0.29149866104125977,0.2513083219528198,0.1770264208316803
1761379819070122000,4.4491220703125,0.34351620078086853,0.12841880321502686,0.4215129017829895
1761379819080205000,4.459205078125,0.3724338710308075,0.025989634916186333,0.677516520023346
1761379819090287900,4.469287841796875,0.3588384985923767,-0.08054623007774353,0.9203454256057739
1761379819100371000,4.479370849609375,0.3119186758995056,-0.26113277673721313,1.0898548364639282
1761379819110453800,4.489453857421875,0.21793122589588165,-0.46046164631843567,1.177069067955017
1761379819120536800,4.499536865234375,0.08522244542837143,-0.6388697028160095,1.190744400024414
1761379819130620000,4.509619873046875,-0.07932640612125397,-0.7677068710327148,1.121038556098938
1761379819140703000,4.519702880859375,-0.25887832045555115,-0.8289178013801575,0.968786358833313
1761379819150786000,4.5297861328125,-0.4286932945251465,-0.8079298138618469,0.7433358430862427
1761379819160868900,4.539868896484375,-0.5925469398498535,-0.7193728089332581,0.46466368436813354
1761379819170952000,4.549951904296875,-0.7256782054901123,-0.5745127201080322,0.1672372967004776
1761379819181034800,4.56003466796875,-0.8150797486305237,-0.38104233145713806,-0.09543987363576889
1761379819191118000,4.5701181640625,-0.8680223822593689,-0.17447027564048767,-0.28064200282096863
1761379819201201000,4.580200927734375,-0.9002159833908081,0.02320871129631996,-0.3909466564655304
1761379819211284000,4.590283935546875,-0.9096383452415466,0.18078173696994781,-0.43097031116485596
1761379819221366800,4.60036669921875,-0.8925853371620178,0.2868328094482422,-0.4295305907726288
1761379819231451100,4.610451171875,-0.85285884141922,0.3139951825141907,-0.3976908028125763
1761379819241534000,4.620533935546875,-0.8050273656845093,0.28053760528564453,-0.3616736829280853
1761379819251617000,4.630616943359375,-0.7364794611930847,0.20639069378376007,-0.31568264961242676
1761379819261699800,4.640699951171875,-0.6736853718757629,0.11298244446516037,-0.25619056820869446
1761379819271783000,4.650782958984375,-0.6140329241752625,0.026185641065239906,-0.1814020872116089
1761379819281865700,4.66086572265625,-0.5575840473175049,-0.04038646072149277,-0.09709891676902771
1761379819291949000,4.670948974609375,-0.5066636800765991,-0.09158430993556976,-0.017627421766519547
1761379819302032000,4.681031982421875,-0.4601829946041107,-0.1242130845785141,0.05053352192044258
1761379819312115000,4.691114990234375,-0.40610790252685547,-0.1358647495508194,0.09734944254159927
1761379819322198000,4.701197998046875,-0.3595752716064453,-0.12988995015621185,0.12711399793624878
1761379819332280800,4.71128076171875,-0.31705859303474426,-0.11595489084720612,0.1378505825996399
1761379819342364000,4.721364013671875,-0.27538198232650757,-0.10410089790821075,0.12156401574611664
1761379819352447000,4.731447021484375,-0.2401975840330124,-0.08510538935661316,0.08607063442468643
1761379819362530000,4.741530029296875,-0.21675537526607513,-0.07293953746557236,0.039582762867212296
1761379819372612900,4.75161279296875,-0.20412428677082062,-0.07755046337842941,-0.02937888726592064
1761379819382696000,4.761696044921875,-0.19686584174633026,-0.0887671634554863,-0.0991063043475151
1761379819392778800,4.77177880859375,-0.18721529841423035,-0.08226127922534943,-0.16859520971775055
1761379819402861800,4.78186181640625,-0.17154712975025177,-0.04588942229747772,-0.2018844485282898
1761379819412945200,4.791945068359375,-0.13838417828083038,0.03191918507218361,-0.18837545812129974
1761379819423028000,4.802028076171875,-0.09613233059644699,0.13977400958538055,-0.13922709226608276
1761379819433111000,4.812111083984375,-0.04744039475917816,0.22749119997024536,-0.06559973955154419
1761379819443193900,4.82219384765625,0.017707182094454765,0.2726579010486603,0.005862989462912083
1761379819453277000,4.83227685546875,0.07432059943675995,0.27243906259536743,0.060086388140916824
1761379819463359700,4.84235986328125,0.1194036453962326,0.23841585218906403,0.08863893151283264
1761379819473443000,4.852443115234375,0.1463319957256317,0.17640511691570282,0.0906311422586441
1761379819483526000,4.86252587890625,0.16595576703548431,0.09150300920009613,0.07659228891134262
1761379819493610000,4.87260986328125,0.17691077291965485,-0.0025449739769101143,0.06381172686815262
1761379819503692800,4.88269287109375,0.18447601795196533,-0.08165497332811356,0.0622929222881794
1761379819513775900,4.89277587890625,0.19352732598781586,-0.1170457974076271,0.06992298364639282
1761379819523859000,4.90285888671875,0.19304077327251434,-0.13915535807609558,0.07404263317584991
1761379819533942000,4.91294189453125,0.19507016241550446,-0.133845716714859,0.07566908001899719
1761379819544024800,4.92302490234375,0.1924743801355362,-0.08488935977220535,0.0763806700706482
1761379819554108000,4.93310791015625,0.18731825053691864,0.012303164228796959,0.07743608951568604
1761379819564191000,4.94319091796875,0.19533516466617584,0.14805753529071808,0.05156480520963669
1761379819574273800,4.953273681640625,0.22814583778381348,0.35793131589889526,0.015609466470777988
1761379819584357000,4.963357177734375,0.2973931133747101,0.5236316323280334,-0.045158274471759796
1761379819594440000,4.97343994140625,0.3601515293121338,0.5506178140640259,-0.14322608709335327
1761379819604523000,4.98352294921875,0.4200092852115631,0.47683992981910706,-0.2507339119911194
1761379819614605800,4.993605712890625,0.46580585837364197,0.3159065544605255,-0.38071784377098083
1761379819624689000,5.00368896484375,0.4721609652042389,0.10808784514665604,-0.5474147200584412
1761379819634771700,5.013771728515625,0.42788606882095337,-0.06928654760122299,-0.7012248039245605
1761379819644855000,5.02385498046875,0.34227821230888367,-0.1691865175962448,-0.7840762734413147
1761379819654937900,5.033937744140625,0.21794463694095612,-0.17997042834758759,-0.770200788974762
1761379819665021000,5.04402099609375,0.16279137134552002,-0.09792482852935791,-0.6635896563529968
1761379819675104000,5.05410400390625,0.17702080309391022,0.0510525219142437,-0.48987916111946106
1761379819685186800,5.064186767578125,0.25263193249702454,0.18447822332382202,-0.3206014633178711
1761379819695270000,5.074269775390625,0.36486953496932983,0.26163119077682495,-0.19815661013126373
1761379819705353000,5.08435302734375,0.45684555172920227,0.30457839369773865,-0.13246308267116547
1761379819715436000,5.09443603515625,0.5038822293281555,0.3365909457206726,-0.10967590659856796
1761379819725518800,5.104518798828125,0.5202231407165527,0.43706855177879333,-0.05859088897705078
1761379819735602000,5.114601806640625,0.5410428643226624,0.5773155689239502,0.025392482057213783
1761379819745684700,5.124684814453125,0.5858326554298401,0.7130973935127258,0.11814159154891968
1761379819755769000,5.13476904296875,0.6575876474380493,0.762706995010376,0.19363656640052795
1761379819765852000,5.144851806640625,0.7234460115432739,0.6934365630149841,0.2294456958770752
1761379819775935000,5.15493505859375,0.7430351376533508,0.5341988801956177,0.22203411161899567
1761379819786017800,5.165017822265625,0.7208464741706848,0.29329627752304077,0.16897089779376984
1761379819796100900,5.175100830078125,0.6586043238639832,0.009614607319235802,0.09837284684181213
1761379819806184000,5.185183837890625,0.569705605506897,-0.2677277624607086,0.041494112461805344
1761379819816267000,5.19526708984375,0.47145938873291016,-0.4556978940963745,0.019071150571107864
1761379819826350000,5.20535009765625,0.3690054416656494,-0.5490374565124512,-0.005391049198806286
1761379819836433000,5.215432861328125,0.2746078670024872,-0.5692752599716187,-0.050576478242874146
1761379819846516000,5.225515869140625,0.19500653445720673,-0.5150753855705261,-0.09579828381538391
1761379819856598800,5.235598876953125,0.13042853772640228,-0.3764204978942871,-0.14172598719596863
1761379819866681900,5.245681884765625,0.09111601114273071,-0.19729258120059967,-0.18772995471954346
1761379819876765000,5.255764892578125,0.07188450545072556,0.024978186935186386,-0.22300966084003448
1761379819886848000,5.265847900390625,0.07334418594837189,0.2520475685596466,-0.2515728771686554
1761379819896930800,5.275930908203125,0.08317278325557709,0.3943882882595062,-0.29262298345565796
1761379819907014000,5.286013916015625,0.08804184198379517,0.42089393734931946,-0.3397822380065918
1761379819917097000,5.296096923828125,0.09444817900657654,0.38547483086586,-0.37079551815986633
1761379819927179800,5.3061796875,0.09594301134347916,0.3180611729621887,-0.3914792239665985
1761379819937263000,5.31626318359375,0.10862008482217789,0.24359184503555298,-0.3965810537338257
1761379819947346000,5.326345947265625,0.11616348475217819,0.157739520072937,-0.3917732536792755
1761379819957429000,5.336428955078125,0.12393860518932343,0.08295949548482895,-0.3717220723628998
1761379819967511800,5.34651171875,0.11936596035957336,0.05515768751502037,-0.32171642780303955
1761379819977595000,5.356594970703125,0.10402150452136993,0.024740852415561676,-0.2774551510810852
1761379819987677700,5.366677734375,0.09043778479099274,0.03258572518825531,-0.25818774104118347
1761379819997761000,5.376760986328125,0.0746537446975708,0.05735692381858826,-0.29166483879089355
1761379820007844000,5.386843994140625,0.05313832685351372,0.01580948382616043,-0.36912819743156433
1761379820017927000,5.396927001953125,0.04003937914967537,-0.0749935582280159,-0.4139053523540497
1761379820028010000,5.407010009765625,0.02873985469341278,-0.15015116333961487,-0.39594313502311707
1761379820038092800,5.4170927734375,0.032757245004177094,-0.1469240039587021,-0.29215335845947266
1761379820048177000,5.427177001953125,0.05819656327366829,-0.0819476842880249,-0.15009848773479462
1761379820058260000,5.437260009765625,0.10801386088132858,-0.013531576842069626,-0.010672153905034065
1761379820068343000,5.447343017578125,0.12827253341674805,0.011496811173856258,0.09737548977136612
1761379820078425900,5.45742578125,0.10569240152835846,-0.014480804093182087,0.17607121169567108
1761379820088509000,5.467509033203125,0.06707017868757248,-0.09143576771020889,0.22669950127601624
1761379820098591700,5.477591796875,0.00719495490193367,-0.18316175043582916,0.25105494260787964
1761379820108675000,5.487675048828125,-0.047411032021045685,-0.2430517077445984,0.260895311832428
1761379820118758000,5.4977578125,-0.11055529862642288,-0.293967604637146,0.2530241310596466
1761379820128841000,5.507841064453125,-0.17908881604671478,-0.31180572509765625,0.22157329320907593
1761379820138923800,5.517923828125,-0.23782382905483246,-0.32115915417671204,0.1669090837240219
1761379820149006800,5.5280068359375,-0.29242342710494995,-0.31538328528404236,0.1142602488398552
1761379820159090000,5.53808984375,-0.3167067766189575,-0.2930634319782257,0.08255856484174728
1761379820169173000,5.548173095703125,-0.321489542722702,-0.24547673761844635,0.08626355230808258
1761379820179256000,5.558256103515625,-0.3141866624355316,-0.17011891305446625,0.13949359953403473
1761379820189339000,5.5683388671875,-0.2947021722793579,-0.1040903627872467,0.221590057015419
1761379820199422000,5.578421875,-0.2659905254840851,-0.0561077781021595,0.303509920835495
1761379820209504800,5.5885048828125,-0.23668405413627625,-0.02896856889128685,0.354017049074173
1761379820219588000,5.598588134765625,-0.20605753362178802,0.027872996404767036,0.3979146480560303
1761379820229671000,5.6086708984375,-0.17536647617816925,0.13680081069469452,0.4330611824989319
1761379820239754000,5.61875390625,-0.16796445846557617,0.08260586857795715,0.3829367756843567
1761379820249836800,5.6288369140625,-0.15457221865653992,-0.06730160117149353,0.2423410415649414
1761379820259920000,5.638919921875,-0.17948570847511292,-0.3490445017814636,-0.006532749161124229
1761379820270003000,5.6490029296875,-0.27401620149612427,-0.6209340691566467,-0.32744792103767395
1761379820280086000,5.6590859375,-0.38273143768310547,-0.7678751945495605,-0.621768593788147
1761379820290169000,5.669169189453125,-0.47099393606185913,-0.7516714334487915,-0.8083560466766357
1761379820300252000,5.679251953125,-0.5470643639564514,-0.585940420627594,-0.8472711443901062
1761379820310335000,5.6893349609375,-0.5331067442893982,-0.2272312343120575,-0.7216392159461975
1761379820320417800,5.699417724609375,-0.38725751638412476,0.226579487323761,-0.5031465291976929
1761379820330500900,5.7095009765625,-0.158024862408638,0.5886293053627014,-0.24500790238380432
1761379820340584000,5.719583984375,0.032776765525341034,0.7013866305351257,-0.010402213782072067
1761379820350667300,5.729667236328125,0.13936418294906616,0.579643189907074,0.15642672777175903
1761379820360750000,5.73975,0.16861888766288757,0.31813883781433105,0.2534102201461792
1761379820370834200,5.749834228515625,0.13362841308116913,0.00022638216614723206,0.27890464663505554
1761379820380917000,5.7599169921875,0.04784861207008362,-0.30797863006591797,0.24728497862815857
1761379820391000000,5.77,-0.05791057273745537,-0.5142444372177124,0.20883560180664062
1761379820401083100,5.780083251953125,-0.16486257314682007,-0.6153808236122131,0.1865280568599701
1761379820411166200,5.790166259765625,-0.2654637396335602,-0.6275469064712524,0.17058077454566956
1761379820421249000,5.8002490234375,-0.3322709798812866,-0.5786461234092712,0.15208032727241516
1761379820431332000,5.81033203125,-0.3808795213699341,-0.5038619041442871,0.11080773174762726
1761379820441415200,5.820415283203125,-0.43205520510673523,-0.3909650146961212,0.059124238789081573
1761379820451498000,5.830498046875,-0.4746071696281433,-0.24598999321460724,0.0005472125485539436
1761379820461581300,5.840581298828125,-0.518242359161377,-0.11743930727243423,-0.07282436639070511
1761379820471664000,5.8506640625,-0.566807210445404,-0.013296395540237427,-0.14911726117134094
1761379820481747200,5.860747314453125,-0.5894353985786438,0.057747732847929,-0.20372571051120758
1761379820491830000,5.870830078125,-0.5861133933067322,0.1377834528684616,-0.22025755047798157
1761379820501913000,5.8809130859375,-0.5743069648742676,0.2447211742401123,-0.1893836259841919
1761379820511996000,5.890995849609375,-0.5477584600448608,0.33748361468315125,-0.145347461104393
1761379820522079200,5.901079345703125,-0.5213772654533386,0.39363107085227966,-0.11811146885156631
1761379820532162300,5.911162353515625,-0.5031462907791138,0.3818897306919098,-0.1214233785867691
1761379820542245000,5.9212451171875,-0.5004321336746216,0.3170374035835266,-0.12997831404209137
1761379820552328200,5.931328125,-0.48969584703445435,0.253389447927475,-0.12275474518537521
1761379820562411000,5.941410888671875,-0.46604111790657043,0.23255226016044617,-0.09233878552913666
1761379820572494000,5.951494140625,-0.4373205304145813,0.21788543462753296,-0.06891841441392899
1761379820582577200,5.9615771484375,-0.3975571095943451,0.21849970519542694,-0.047980908304452896
1761379820592660200,5.97166015625,-0.3595505952835083,0.21701206266880035,-0.05005976930260658
1761379820602743000,5.981742919921875,-0.314044713973999,0.21748565137386322,-0.05099347606301308
1761379820612826000,5.991826171875,-0.2659895718097687,0.2324097454547882,-0.03273777663707733
1761379820622909200,6.0019091796875,-0.21513022482395172,0.2613995373249054,0.005412861704826355
1761379820632992000,6.011991943359375,-0.16711530089378357,0.27126654982566833,0.04456239566206932
1761379820643075300,6.022075439453125,-0.1267825961112976,0.2584870457649231,0.07911153137683868
1761379820653158100,6.032158203125,-0.09692030400037766,0.21967734396457672,0.09314905107021332
1761379820663241200,6.0422412109375,-0.08659295737743378,0.1556282490491867,0.08790603280067444
1761379820673324000,6.052323974609375,-0.08581718057394028,0.09773432463407516,0.07376384735107422
1761379820683407000,6.062406982421875,-0.08246175944805145,0.042164146900177,0.051607199013233185
1761379820693490000,6.072489990234375,-0.05859237536787987,0.02182718552649021,0.03943575546145439
1761379820703574300,6.08257421875,-0.011484074406325817,0.04608137160539627,0.043814096599817276
1761379820713657000,6.092656982421875,0.044568806886672974,0.10252227634191513,0.05853445455431938
1761379820723740200,6.102740234375,0.1063721552491188,0.15685880184173584,0.07886657118797302
1761379820733823000,6.112822998046875,0.15088051557540894,0.18652375042438507,0.10789503157138824
1761379820743906000,6.122906005859375,0.17617681622505188,0.19670021533966064,0.14862355589866638
1761379820753989000,6.132989013671875,0.1969822198152542,0.19931064546108246,0.20132164657115936
1761379820764072200,6.143072265625,0.21540316939353943,0.17793239653110504,0.26191529631614685
1761379820774155300,6.1531552734375,0.233444482088089,0.13164052367210388,0.3132346570491791
1761379820784238000,6.163238037109375,0.2403467446565628,0.08490756899118423,0.32828572392463684
1761379820794321200,6.173321044921875,0.22966933250427246,0.024923592805862427,0.2974766790866852
1761379820804404000,6.183404052734375,0.21486297249794006,-0.010934874415397644,0.2558087408542633
1761379820814487300,6.1934873046875,0.20693235099315643,-0.029108818620443344,0.21042315661907196
1761379820824570000,6.203570068359375,0.19360902905464172,-0.03698482736945152,0.18696801364421844
1761379820834653200,6.213653076171875,0.19453580677509308,-0.030512280762195587,0.1839274764060974
1761379820844736000,6.223736083984375,0.21083277463912964,-0.017963340505957603,0.20312529802322388
1761379820854819000,6.233819091796875,0.23811499774456024,0.02767019160091877,0.2595805823802948
1761379820864902100,6.243902099609375,0.2712056040763855,0.0983910858631134,0.32217684388160706
1761379820874985200,6.253985107421875,0.3055814206600189,0.19053566455841064,0.39904338121414185
1761379820885068300,6.264068359375,0.34539908170700073,0.3316822052001953,0.48184555768966675
1761379820895151000,6.274151123046875,0.39714351296424866,0.3770163953304291,0.5163572430610657
1761379820905234200,6.284234130859375,0.48104655742645264,0.3222358524799347,0.4997943043708801
1761379820915317000,6.29431689453125,0.5496240258216858,0.18515335023403168,0.43603581190109253
1761379820925400000,6.304400146484375,0.5414772629737854,-0.014787161722779274,0.2873075008392334
1761379820935483100,6.314483154296875,0.4808708429336548,-0.22045829892158508,0.10331396013498306
1761379820945566200,6.324566162109375,0.4376102685928345,-0.30954378843307495,-0.027087558060884476
1761379820955649000,6.33464892578125,0.40972697734832764,-0.24863411486148834,-0.04517468437552452
1761379820965732000,6.344732177734375,0.38890931010246277,-0.10602407902479172,0.012773570604622364
1761379820975815200,6.354815185546875,0.3752289116382599,-0.013171372935175896,0.08766858279705048
1761379820985898000,6.36489794921875,0.3463123142719269,0.010851114988327026,0.11775527894496918
1761379820995981300,6.374981201171875,0.28544098138809204,-0.0410485677421093,0.05547458678483963
1761379821006064000,6.385064208984375,0.21591785550117493,-0.12128056585788727,-0.06797054409980774
1761379821016147200,6.395147216796875,0.14464101195335388,-0.14293818175792694,-0.17433425784111023
1761379821026230000,6.40522998046875,0.11578052490949631,-0.04468095302581787,-0.2066313773393631
1761379821036313000,6.41531298828125,0.12764303386211395,0.1359519362449646,-0.15281662344932556
1761379821046396000,6.42539599609375,0.19988101720809937,0.3468635678291321,-0.031657278537750244
1761379821056479200,6.435479248046875,0.3128019869327545,0.5045469403266907,0.10256736725568771
1761379821066563000,6.44556298828125,0.4136858284473419,0.5814732909202576,0.2205025851726532
1761379821076645000,6.45564501953125,0.49002906680107117,0.5745978355407715,0.30728861689567566
1761379821086729000,6.46572900390625,0.5232663154602051,0.5222949385643005,0.38975441455841064
1761379821096812300,6.475812255859375,0.5063784122467041,0.436513215303421,0.4412362575531006
1761379821106895000,6.48589501953125,0.4370248317718506,0.26665064692497253,0.42871522903442383
1761379821116978200,6.495978271484375,0.32230144739151,0.03652449697256088,0.3519778549671173
1761379821127061200,6.506061279296875,0.19344116747379303,-0.20194929838180542,0.22467340528964996
1761379821137144000,6.51614404296875,0.07036237418651581,-0.4034011960029602,0.06910006701946259
1761379821147227100,6.52622705078125,-0.03206939995288849,-0.5199967622756958,-0.07619800418615341
1761379821157310200,6.536310302734375,-0.11900722980499268,-0.48747774958610535,-0.17208965122699738
1761379821167393300,6.546393310546875,-0.19960692524909973,-0.4506929814815521,-0.20766159892082214
1761379821177476000,6.55647607421875,-0.23415744304656982,-0.46631190180778503,-0.23886877298355103
1761379821187559200,6.56655908203125,-0.23311634361743927,-0.44927236437797546,-0.27928397059440613
1761379821197642000,6.57664208984375,-0.24223314225673676,-0.3915955126285553,-0.32018718123435974
1761379821207725000,6.58672509765625,-0.2573680281639099,-0.2881593108177185,-0.3542686104774475
1761379821217808100,6.59680810546875,-0.27757129073143005,-0.132004052400589,-0.3729986250400543
1761379821227891200,6.60689111328125,-0.27922120690345764,0.05953411012887955,-0.39218011498451233
1761379821237974300,6.616974365234375,-0.254681795835495,0.23048454523086548,-0.41898268461227417
1761379821248057000,6.62705712890625,-0.21358200907707214,0.3756537437438965,-0.4485650956630707
1761379821258140200,6.63714013671875,-0.1743754893541336,0.4735640585422516,-0.4829731285572052
1761379821268223000,6.647222900390625,-0.14676541090011597,0.5235394239425659,-0.49117085337638855
1761379821278306300,6.657306396484375,-0.08767465502023697,0.5494424104690552,-0.46185213327407837
