time,seconds_elapsed,z,y,x
1761380396314528800,0.04552880859375,-0.986297607421875,-0.034210205078125,0.0080108642578125
1761380396324610800,0.05561083984375,-0.9933929443359375,-0.037139892578125,0.0134735107421875
1761380396334692600,0.065692626953125,-1.0002288818359375,-0.0390777587890625,0.017547607421875
1761380396344774700,0.075774658203125,-0.9925994873046875,-0.0366363525390625,0.0130157470703125
1761380396354857700,0.085857666015625,-0.9880828857421875,-0.035186767578125,0.0104217529296875
1761380396364939800,0.095939697265625,-0.9961090087890625,-0.0382537841796875,0.0150909423828125
1761380396375021800,0.106021728515625,-0.998321533203125,-0.0389556884765625,0.0163116455078125
1761380396385104600,0.116104736328125,-0.9905853271484375,-0.0349273681640625,0.0110015869140625
1761380396395186700,0.126186767578125,-0.991790771484375,-0.036712646484375,0.0128173828125
1761380396405268700,0.136268798828125,-0.997650146484375,-0.0390777587890625,0.015869140625
1761380396415350800,0.146350830078125,-0.9953765869140625,-0.0378265380859375,0.0145111083984375
1761380396425433600,0.15643359375,-0.990386962890625,-0.0353851318359375,0.011627197265625
1761380396435515600,0.166515625,-0.9937286376953125,-0.0369873046875,0.0141448974609375
1761380396445597700,0.17659765625,-0.9975738525390625,-0.03814697265625,0.0157470703125
1761380396455680500,0.186680419921875,-0.9918975830078125,-0.03704833984375,0.0126953125
1761380396465762600,0.196762451171875,-0.991455078125,-0.0356292724609375,0.0126953125
1761380396475844600,0.2068447265625,-0.996429443359375,-0.037689208984375,0.0153961181640625
1761380396485927700,0.216927734375,-0.9958648681640625,-0.037353515625,0.014251708984375
1761380396496009500,0.227009521484375,-0.991241455078125,-0.0363311767578125,0.0124053955078125
1761380396506091500,0.237091552734375,-0.994110107421875,-0.0371551513671875,0.01434326171875
1761380396516173600,0.247173583984375,-0.9965667724609375,-0.0384979248046875,0.0146636962890625
1761380396526256600,0.257256591796875,-0.9930267333984375,-0.037017822265625,0.012664794921875
1761380396536338700,0.267338623046875,-0.992462158203125,-0.0361785888671875,0.01275634765625
1761380396546420500,0.27742041015625,-0.99468994140625,-0.038116455078125,0.0139312744140625
1761380396556503600,0.287503662109375,-0.9940643310546875,-0.0377349853515625,0.0135650634765625
1761380396566585600,0.297585693359375,-0.992584228515625,-0.03656005859375,0.013092041015625
1761380396576667600,0.307667724609375,-0.994110107421875,-0.0368499755859375,0.0136871337890625
1761380396586750700,0.317750732421875,-0.9954681396484375,-0.03765869140625,0.01434326171875
1761380396596832800,0.327832763671875,-0.993560791015625,-0.0368804931640625,0.013214111328125
1761380396606914800,0.337914794921875,-0.993804931640625,-0.0362091064453125,0.01385498046875
1761380396616996600,0.34799658203125,-0.9952239990234375,-0.037261962890625,0.0138702392578125
1761380396627079700,0.35807958984375,-0.995452880859375,-0.0369720458984375,0.014678955078125
1761380396637161700,0.36816162109375,-0.9933929443359375,-0.0371551513671875,0.0137176513671875
1761380396647243800,0.378243896484375,-0.99395751953125,-0.0373992919921875,0.0137939453125
1761380396657326600,0.38832666015625,-0.9951019287109375,-0.0371551513671875,0.0137786865234375
1761380396667408600,0.39840869140625,-0.99365234375,-0.0369720458984375,0.0145111083984375
1761380396677490700,0.40849072265625,-0.9934234619140625,-0.03643798828125,0.01416015625
1761380396687573800,0.41857373046875,-0.9949188232421875,-0.0375823974609375,0.0137939453125
1761380396697655600,0.428655517578125,-0.99505615234375,-0.037353515625,0.013824462890625
1761380396707737600,0.438737548828125,-0.9936676025390625,-0.0370941162109375,0.0129547119140625
1761380396717819600,0.448819580078125,-0.9939422607421875,-0.0375213623046875,0.012908935546875
1761380396727902700,0.45890283203125,-0.9943084716796875,-0.0377044677734375,0.013916015625
1761380396737984800,0.46898486328125,-0.993804931640625,-0.0375213623046875,0.013519287109375
1761380396748066600,0.479066650390625,-0.9925384521484375,-0.0369873046875,0.0137176513671875
1761380396758149600,0.489149658203125,-0.9935302734375,-0.037567138671875,0.013427734375
1761380396768231700,0.499231689453125,-0.9944000244140625,-0.0372314453125,0.013031005859375
1761380396778313700,0.509313720703125,-0.994110107421875,-0.0364837646484375,0.013458251953125
1761380396788395500,0.5193955078125,-0.9934844970703125,-0.037200927734375,0.012847900390625
1761380396798478600,0.529478515625,-0.99456787109375,-0.03778076171875,0.0133819580078125
1761380396808560600,0.539560546875,-0.9944305419921875,-0.0367889404296875,0.013580322265625
1761380396818642700,0.549642578125,-0.9927520751953125,-0.0364990234375,0.013763427734375
1761380396828725500,0.5597255859375,-0.9933929443359375,-0.03753662109375,0.013671875
1761380396838807600,0.5698076171875,-0.995758056640625,-0.037750244140625,0.0125579833984375
1761380396848889600,0.5798896484375,-0.993499755859375,-0.0374298095703125,0.014007568359375
1761380396858972700,0.58997265625,-0.9930572509765625,-0.037200927734375,0.01416015625
1761380396869054500,0.600054443359375,-0.993988037109375,-0.037139892578125,0.013275146484375
1761380396879136500,0.610136474609375,-0.9944610595703125,-0.0373077392578125,0.0134124755859375
1761380396889218600,0.620218505859375,-0.993560791015625,-0.0367584228515625,0.0133056640625
1761380396899301600,0.630301513671875,-0.9937744140625,-0.0376434326171875,0.0135345458984375
1761380396909383400,0.640383544921875,-0.99395751953125,-0.037384033203125,0.013824462890625
1761380396919465500,0.650465576171875,-0.9935760498046875,-0.0375213623046875,0.0127105712890625
1761380396929548800,0.660548828125,-0.99322509765625,-0.037353515625,0.0139007568359375
1761380396939630800,0.670630859375,-0.9945831298828125,-0.037261962890625,0.0145111083984375
1761380396949712600,0.680712646484375,-0.994232177734375,-0.0368194580078125,0.013763427734375
1761380396959795700,0.690795654296875,-0.9941864013671875,-0.03717041015625,0.013671875
1761380396969878000,0.7008779296875,-0.9954833984375,-0.037139892578125,0.01361083984375
1761380396979960000,0.7109599609375,-0.994903564453125,-0.037384033203125,0.0132293701171875
1761380396990041900,0.721041748046875,-0.9932403564453125,-0.0366363525390625,0.0133819580078125
1761380397000125000,0.731125,-0.993133544921875,-0.037506103515625,0.013885498046875
1761380397010207000,0.74120703125,-0.995086669921875,-0.0370330810546875,0.0132904052734375
1761380397020289000,0.7512890625,-0.9934234619140625,-0.036407470703125,0.0136871337890625
1761380397030371800,0.761371826171875,-0.9934539794921875,-0.037384033203125,0.0130462646484375
1761380397040454000,0.771453857421875,-0.9944610595703125,-0.037872314453125,0.0128021240234375
1761380397050536000,0.781535888671875,-0.9944610595703125,-0.0374298095703125,0.012847900390625
1761380397060618800,0.79161865234375,-0.9943695068359375,-0.036468505859375,0.0139007568359375
1761380397070700800,0.80170068359375,-0.993621826171875,-0.037506103515625,0.0137786865234375
1761380397080782800,0.811782958984375,-0.99468994140625,-0.036865234375,0.01422119140625
1761380397090866000,0.821865966796875,-0.993865966796875,-0.0367279052734375,0.013885498046875
1761380397100948000,0.831947998046875,-0.9939422607421875,-0.037689208984375,0.0141143798828125
1761380397111029800,0.84202978515625,-0.9933013916015625,-0.0369415283203125,0.0138397216796875
1761380397121111800,0.85211181640625,-0.9930572509765625,-0.0372467041015625,0.0135498046875
1761380397131195000,0.86219482421875,-0.994232177734375,-0.0373687744140625,0.013519287109375
1761380397141277000,0.87227685546875,-0.99444580078125,-0.036834716796875,0.013885498046875
1761380397151358700,0.882358642578125,-0.99365234375,-0.0369720458984375,0.0146484375
1761380397161441800,0.89244189453125,-0.994049072265625,-0.037078857421875,0.0141448974609375
1761380397171523800,0.90252392578125,-0.9933319091796875,-0.037109375,0.0134735107421875
1761380397181606000,0.91260595703125,-0.99444580078125,-0.0377197265625,0.0140380859375
1761380397191688700,0.922688720703125,-0.9938507080078125,-0.036712646484375,0.01409912109375
1761380397201770800,0.932770751953125,-0.993865966796875,-0.036834716796875,0.0138092041015625
1761380397211852800,0.942852783203125,-0.9934844970703125,-0.0376434326171875,0.0134735107421875
1761380397221934800,0.952934814453125,-0.992828369140625,-0.037322998046875,0.0134124755859375
1761380397232018000,0.963017822265625,-0.993408203125,-0.0366668701171875,0.0135040283203125
1761380397242100000,0.973099853515625,-0.992401123046875,-0.0367279052734375,0.0130615234375
1761380397252182000,0.98318212890625,-0.993743896484375,-0.0377349853515625,0.013092041015625
1761380397262265000,0.99326513671875,-0.9938812255859375,-0.03717041015625,0.0138092041015625
1761380397272347000,1.003346923828125,-0.993621826171875,-0.037506103515625,0.0139617919921875
1761380397282429000,1.013428955078125,-0.993927001953125,-0.037200927734375,0.0139007568359375
1761380397292512000,1.023511962890625,-0.9940643310546875,-0.0379638671875,0.0127716064453125
1761380397302594000,1.033593994140625,-0.994781494140625,-0.0366668701171875,0.013580322265625
1761380397312675800,1.04367578125,-0.9935455322265625,-0.0367889404296875,0.013702392578125
1761380397322758000,1.0537578125,-0.9932708740234375,-0.037322998046875,0.013336181640625
1761380397332841000,1.063841064453125,-0.9939117431640625,-0.037384033203125,0.0139617919921875
1761380397342923000,1.073923095703125,-0.9935150146484375,-0.0363922119140625,0.0137939453125
1761380397353005000,1.084005126953125,-0.9936370849609375,-0.0372314453125,0.01397705078125
1761380397363088000,1.094087890625,-0.9948883056640625,-0.03717041015625,0.01397705078125
1761380397373170000,1.104169921875,-0.99468994140625,-0.036712646484375,0.0133514404296875
1761380397383252000,1.114251953125,-0.9937591552734375,-0.0370330810546875,0.013397216796875
1761380397393334800,1.124334716796875,-0.9937591552734375,-0.03790283203125,0.0136260986328125
1761380397403416800,1.134416748046875,-0.9942779541015625,-0.037109375,0.0147552490234375
1761380397413499000,1.144498779296875,-0.9927825927734375,-0.037139892578125,0.01397705078125
1761380397423582000,1.15458203125,-0.9943695068359375,-0.0377655029296875,0.0138092041015625
1761380397433663700,1.164663818359375,-0.9952392578125,-0.037078857421875,0.013458251953125
1761380397443745800,1.174745849609375,-0.99371337890625,-0.0371856689453125,0.0143585205078125
1761380397453827800,1.184827880859375,-0.9925537109375,-0.0365142822265625,0.0145263671875
1761380397463911000,1.194910888671875,-0.994232177734375,-0.0366058349609375,0.0135650634765625
1761380397473992700,1.20499267578125,-0.9947357177734375,-0.037689208984375,0.0141143798828125
1761380397484074800,1.21507470703125,-0.9929656982421875,-0.0373992919921875,0.01361083984375
1761380397494157800,1.22515771484375,-0.9940032958984375,-0.0372772216796875,0.013885498046875
1761380397504239900,1.235239990234375,-0.9942474365234375,-0.0372772216796875,0.0138702392578125
1761380397514322000,1.245322021484375,-0.993621826171875,-0.0364837646484375,0.013702392578125
1761380397524405000,1.255405029296875,-0.9937286376953125,-0.0379486083984375,0.0136260986328125
1761380397534487000,1.265487060546875,-0.9946746826171875,-0.0377655029296875,0.0133514404296875
1761380397544568800,1.27556884765625,-0.9947052001953125,-0.0369720458984375,0.0137481689453125
1761380397554651000,1.28565087890625,-0.99310302734375,-0.037353515625,0.0132598876953125
1761380397564734000,1.29573388671875,-0.99432373046875,-0.037445068359375,0.0140533447265625
1761380397574816000,1.30581591796875,-0.9942779541015625,-0.0373687744140625,0.0133209228515625
1761380397584898000,1.31589794921875,-0.992828369140625,-0.0373077392578125,0.014007568359375
1761380397594980900,1.32598095703125,-0.993621826171875,-0.0373992919921875,0.0140533447265625
1761380397605063000,1.33606298828125,-0.994140625,-0.0378875732421875,0.01416015625
1761380397615145000,1.34614501953125,-0.9942779541015625,-0.0370941162109375,0.0133209228515625
1761380397625228000,1.35622802734375,-0.9936981201171875,-0.0366058349609375,0.012908935546875
1761380397635309800,1.366309814453125,-0.994293212890625,-0.0372161865234375,0.0130615234375
1761380397645392000,1.376391845703125,-0.994140625,-0.037322998046875,0.012939453125
1761380397655475000,1.386474853515625,-0.9935455322265625,-0.0367889404296875,0.0133056640625
1761380397665557000,1.396556884765625,-0.9937286376953125,-0.0379486083984375,0.01318359375
1761380397675639000,1.40663916015625,-0.99365234375,-0.036956787109375,0.0138702392578125
1761380397685720800,1.416720947265625,-0.9932861328125,-0.037841796875,0.0142669677734375
1761380397695804000,1.426803955078125,-0.9945526123046875,-0.037322998046875,0.013580322265625
1761380397705886000,1.436885986328125,-0.9944305419921875,-0.037567138671875,0.01409912109375
1761380397715968000,1.446968017578125,-0.9942779541015625,-0.0382232666015625,0.013641357421875
1761380397726050800,1.45705078125,-0.993408203125,-0.037445068359375,0.0129241943359375
1761380397736132900,1.4671328125,-0.9937896728515625,-0.03790283203125,0.014190673828125
1761380397746215000,1.47721484375,-0.9941253662109375,-0.0378265380859375,0.013671875
1761380397756297700,1.487297607421875,-0.99432373046875,-0.036773681640625,0.0128173828125
1761380397766379800,1.4973798828125,-0.9940338134765625,-0.0377655029296875,0.01409912109375
1761380397776461800,1.5074619140625,-0.993743896484375,-0.0377197265625,0.0144500732421875
1761380397786545000,1.517544921875,-0.9936981201171875,-0.0363311767578125,0.0140380859375
1761380397796626700,1.527626708984375,-0.9931488037109375,-0.0380859375,0.0139923095703125
1761380397806708700,1.537708740234375,-0.9943389892578125,-0.0374603271484375,0.013916015625
1761380397816790800,1.547790771484375,-0.993743896484375,-0.03680419921875,0.013641357421875
1761380397826873900,1.557873779296875,-0.9944915771484375,-0.0365753173828125,0.0132904052734375
1761380397836956000,1.567955810546875,-0.994293212890625,-0.037261962890625,0.013763427734375
1761380397847037700,1.57803759765625,-0.9941864013671875,-0.0373992919921875,0.0137786865234375
1761380397857121000,1.58812109375,-0.993194580078125,-0.0370941162109375,0.0137939453125
1761380397867203000,1.598203125,-0.9937744140625,-0.03765869140625,0.01318359375
1761380397877285000,1.60828515625,-0.99462890625,-0.037109375,0.0139923095703125
1761380397887368000,1.618367919921875,-0.9943084716796875,-0.037109375,0.0139007568359375
1761380397897450000,1.628449951171875,-0.9935455322265625,-0.0374298095703125,0.013153076171875
1761380397907532000,1.638531982421875,-0.995025634765625,-0.0375518798828125,0.01458740234375
1761380397917614800,1.64861474609375,-0.9940338134765625,-0.03741455078125,0.0137939453125
1761380397927697000,1.65869677734375,-0.994598388671875,-0.0373992919921875,0.013671875
1761380397937779000,1.668779052734375,-0.9932403564453125,-0.037628173828125,0.013397216796875
1761380397947862000,1.678862060546875,-0.9931640625,-0.037750244140625,0.01373291015625
1761380397957943800,1.68894384765625,-0.9945068359375,-0.0370635986328125,0.014129638671875
1761380397968025000,1.699025146484375,-0.9945831298828125,-0.0369720458984375,0.0134735107421875
1761380397978107000,1.70910693359375,-0.9944915771484375,-0.037628173828125,0.0138702392578125
1761380397988190000,1.71918994140625,-0.9925994873046875,-0.03704833984375,0.0138397216796875
1761380397998272000,1.72927197265625,-0.9948883056640625,-0.0360870361328125,0.014068603515625
1761380398008354000,1.73935400390625,-0.9931640625,-0.0371856689453125,0.013031005859375
1761380398018436900,1.749436767578125,-0.9938507080078125,-0.03692626953125,0.0137939453125
1761380398028519000,1.759518798828125,-0.994384765625,-0.03790283203125,0.014373779296875
1761380398038601000,1.76960107421875,-0.9937286376953125,-0.0374298095703125,0.013275146484375
1761380398048684000,1.77968408203125,-0.9933624267578125,-0.0374603271484375,0.0145721435546875
1761380398058766000,1.78976611328125,-0.9936370849609375,-0.0373077392578125,0.0139312744140625
1761380398068848000,1.79984814453125,-0.99432373046875,-0.0371856689453125,0.013153076171875
1761380398078931200,1.80993115234375,-0.9945068359375,-0.037139892578125,0.01422119140625
1761380398089013000,1.820012939453125,-0.994140625,-0.037384033203125,0.01470947265625
1761380398099095000,1.830094970703125,-0.9952392578125,-0.037261962890625,0.0133819580078125
1761380398109178000,1.84017822265625,-0.993255615234375,-0.03656005859375,0.0139617919921875
1761380398119260200,1.85026025390625,-0.9941253662109375,-0.0373992919921875,0.014007568359375
1761380398129342000,1.860342041015625,-0.995086669921875,-0.0375213623046875,0.0139007568359375
1761380398139424000,1.870424072265625,-0.9938812255859375,-0.0365142822265625,0.0135040283203125
1761380398149507000,1.880507080078125,-0.9936065673828125,-0.037017822265625,0.0139312744140625
1761380398159589000,1.890589111328125,-0.9933929443359375,-0.037200927734375,0.0140228271484375
1761380398169671200,1.900671142578125,-0.993621826171875,-0.036956787109375,0.0129852294921875
1761380398179754000,1.91075390625,-0.993927001953125,-0.0372161865234375,0.014190673828125
1761380398189836000,1.9208359375,-0.9940338134765625,-0.037506103515625,0.0130767822265625
1761380398199918000,1.93091796875,-0.9950408935546875,-0.037261962890625,0.013671875
1761380398210001000,1.9410009765625,-0.9942474365234375,-0.037017822265625,0.0145721435546875
1761380398220083000,1.9510830078125,-0.9935760498046875,-0.0373077392578125,0.0130462646484375
1761380398230165000,1.9611650390625,-0.9935455322265625,-0.037933349609375,0.0140838623046875
1761380398240248000,1.971248046875,-0.9926300048828125,-0.037384033203125,0.013702392578125
1761380398250329900,1.981329833984375,-0.9950714111328125,-0.03765869140625,0.0139617919921875
1761380398260412000,1.991411865234375,-0.9951934814453125,-0.0373992919921875,0.0132293701171875
1761380398270495000,2.001494873046875,-0.9935455322265625,-0.036773681640625,0.0140533447265625
1761380398280577000,2.011576904296875,-0.9930877685546875,-0.0373077392578125,0.014739990234375
1761380398290659000,2.0216591796875,-0.99267578125,-0.037841796875,0.0142059326171875
1761380398300740900,2.031740966796875,-0.9940643310546875,-0.037689208984375,0.01348876953125
1761380398310824000,2.041823974609375,-0.993499755859375,-0.0369873046875,0.0133056640625
1761380398320906000,2.051906005859375,-0.993438720703125,-0.037445068359375,0.013946533203125
1761380398330988000,2.061988037109375,-0.9932403564453125,-0.03778076171875,0.013763427734375
1761380398341071000,2.072071044921875,-0.993438720703125,-0.0383758544921875,0.013092041015625
1761380398351153200,2.082153076171875,-0.993865966796875,-0.0377960205078125,0.0142059326171875
1761380398361235000,2.09223486328125,-0.994384765625,-0.03765869140625,0.0137481689453125
1761380398371318000,2.102318115234375,-0.994354248046875,-0.0378265380859375,0.013092041015625
1761380398381400000,2.112400146484375,-0.9931793212890625,-0.0370635986328125,0.0144195556640625
1761380398391482000,2.122482177734375,-0.993194580078125,-0.036712646484375,0.0142059326171875
1761380398401565200,2.132565185546875,-0.9947357177734375,-0.037506103515625,0.0134735107421875
1761380398411647000,2.14264697265625,-0.9936676025390625,-0.0372772216796875,0.0142364501953125
1761380398421729000,2.15272900390625,-0.9934844970703125,-0.0365753173828125,0.0125732421875
1761380398431812000,2.16281201171875,-0.99383544921875,-0.036834716796875,0.0144195556640625
1761380398441894100,2.17289404296875,-0.994384765625,-0.0368804931640625,0.0139312744140625
1761380398451976000,2.182975830078125,-0.994171142578125,-0.0368194580078125,0.0136871337890625
1761380398462058000,2.19305810546875,-0.99359130859375,-0.0374755859375,0.014190673828125
1761380398472141000,2.20314111328125,-0.9946746826171875,-0.0367279052734375,0.0132904052734375
1761380398482223000,2.21322314453125,-0.993927001953125,-0.037017822265625,0.013427734375
1761380398492305200,2.22330517578125,-0.993255615234375,-0.0371856689453125,0.014129638671875
1761380398502388000,2.233387939453125,-0.993896484375,-0.03753662109375,0.014007568359375
1761380398512470000,2.243469970703125,-0.99346923828125,-0.0384368896484375,0.0136871337890625
1761380398522552000,2.253552001953125,-0.9929962158203125,-0.0376739501953125,0.0135650634765625
1761380398532635000,2.263634765625,-0.99371337890625,-0.036895751953125,0.013519287109375
1761380398542717000,2.273717041015625,-0.9950714111328125,-0.0380859375,0.0135040283203125
1761380398552799000,2.283799072265625,-0.993255615234375,-0.037567138671875,0.01361083984375
1761380398562882000,2.293882080078125,-0.9943084716796875,-0.037445068359375,0.013580322265625
1761380398572963800,2.3039638671875,-0.993682861328125,-0.0378570556640625,0.0139923095703125
1761380398583046000,2.3140458984375,-0.9945526123046875,-0.0373382568359375,0.014434814453125
1761380398593129000,2.32412890625,-0.993896484375,-0.0366973876953125,0.0138092041015625
1761380398603211000,2.3342109375,-0.994110107421875,-0.0373687744140625,0.014373779296875
1761380398613293000,2.34429296875,-0.99542236328125,-0.0366668701171875,0.013214111328125
1761380398623376100,2.354376220703125,-0.994964599609375,-0.037200927734375,0.0129547119140625
1761380398633458000,2.3644580078125,-0.9938507080078125,-0.037200927734375,0.0140838623046875
1761380398643540000,2.3745400390625,-0.9944610595703125,-0.0384063720703125,0.015106201171875
1761380398653622000,2.3846220703125,-0.9937286376953125,-0.0374755859375,0.0131988525390625
1761380398663705000,2.394705078125,-0.993011474609375,-0.03662109375,0.0129547119140625
1761380398673787100,2.404787109375,-0.9941558837890625,-0.0374603271484375,0.0142822265625
1761380398683869200,2.414869140625,-0.9954376220703125,-0.037017822265625,0.013763427734375
1761380398693952000,2.424951904296875,-0.99383544921875,-0.036468505859375,0.0134124755859375
1761380398704034000,2.435033935546875,-0.993499755859375,-0.037567138671875,0.0135650634765625
1761380398714116000,2.4451162109375,-0.994964599609375,-0.0375518798828125,0.0137176513671875
1761380398724199200,2.45519921875,-0.9951629638671875,-0.0371551513671875,0.01397705078125
1761380398734281000,2.465281005859375,-0.993865966796875,-0.0362701416015625,0.0135955810546875
1761380398744363000,2.475363037109375,-0.9939422607421875,-0.037628173828125,0.014312744140625
1761380398754446000,2.485446044921875,-0.9945220947265625,-0.03790283203125,0.0142669677734375
1761380398764528000,2.495528076171875,-0.9933929443359375,-0.0367279052734375,0.0133819580078125
1761380398774610000,2.50560986328125,-0.9943695068359375,-0.03680419921875,0.0139007568359375
1761380398784693000,2.51569287109375,-0.9942779541015625,-0.0377960205078125,0.0134735107421875
1761380398794775000,2.525775146484375,-0.9936065673828125,-0.0373992919921875,0.0135345458984375
1761380398804857000,2.535857177734375,-0.9942474365234375,-0.037200927734375,0.0134735107421875
1761380398814939100,2.545939208984375,-0.9948272705078125,-0.0381011962890625,0.0142669677734375
1761380398825022000,2.55602197265625,-0.9944915771484375,-0.037628173828125,0.0139617919921875
1761380398835104000,2.56610400390625,-0.9926605224609375,-0.035736083984375,0.0137786865234375
1761380398845186000,2.57618603515625,-0.9933624267578125,-0.03717041015625,0.014678955078125
1761380398855268900,2.586268798828125,-0.99462890625,-0.0379180908203125,0.0139617919921875
1761380398865351000,2.596350830078125,-0.991912841796875,-0.03656005859375,0.0133056640625
1761380398875433000,2.606432861328125,-0.993072509765625,-0.0367431640625,0.014129638671875
1761380398885516000,2.61651611328125,-0.995819091796875,-0.037139892578125,0.0143890380859375
1761380398895597800,2.626597900390625,-0.9952392578125,-0.0372161865234375,0.014068603515625
1761380398905680000,2.636679931640625,-0.992767333984375,-0.03643798828125,0.0131378173828125
1761380398915763000,2.646762939453125,-0.99359130859375,-0.0371856689453125,0.0134735107421875
1761380398925845000,2.656844970703125,-0.9942474365234375,-0.03765869140625,0.013702392578125
1761380398935927000,2.666927001953125,-0.9947052001953125,-0.036712646484375,0.0123291015625
1761380398946010000,2.677010009765625,-0.9938812255859375,-0.0367431640625,0.0146026611328125
1761380398956092200,2.687092041015625,-0.994415283203125,-0.037567138671875,0.013671875
1761380398966174500,2.697174560546875,-0.9936981201171875,-0.0372772216796875,0.012969970703125
1761380398976257300,2.70725732421875,-0.9944305419921875,-0.0366058349609375,0.013153076171875
1761380398986339300,2.71733935546875,-0.9940338134765625,-0.0371246337890625,0.0141754150390625
1761380398996421400,2.72742138671875,-0.9940032958984375,-0.0374603271484375,0.0138092041015625
1761380399006504200,2.737504150390625,-0.9942169189453125,-0.036468505859375,0.013275146484375
1761380399016586200,2.747586181640625,-0.99420166015625,-0.0378570556640625,0.0142059326171875
1761380399026668300,2.757668212890625,-0.9947967529296875,-0.0376739501953125,0.0133209228515625
1761380399036751600,2.767751708984375,-0.99359130859375,-0.0371246337890625,0.013397216796875
1761380399046833200,2.777833251953125,-0.9941253662109375,-0.0368499755859375,0.0135498046875
1761380399056915200,2.787915283203125,-0.9936676025390625,-0.0374908447265625,0.0136871337890625
1761380399066997200,2.797997314453125,-0.9944305419921875,-0.03704833984375,0.01397705078125
1761380399077080600,2.80808056640625,-0.9937591552734375,-0.0368499755859375,0.014129638671875
1761380399087162400,2.818162353515625,-0.9937286376953125,-0.0369873046875,0.014312744140625
1761380399097244400,2.828244384765625,-0.9947052001953125,-0.03741455078125,0.0135955810546875
1761380399107327500,2.838327392578125,-0.9935760498046875,-0.03759765625,0.0132598876953125
1761380399117409500,2.848409423828125,-0.99383544921875,-0.0369415283203125,0.0135955810546875
1761380399127491600,2.85849169921875,-0.9944305419921875,-0.0370941162109375,0.0132598876953125
1761380399137574400,2.868574462890625,-0.994110107421875,-0.03680419921875,0.0135650634765625
1761380399147656400,2.878656494140625,-0.9919281005859375,-0.037322998046875,0.0129547119140625
1761380399157738500,2.888738525390625,-0.99346923828125,-0.0378570556640625,0.0131683349609375
1761380399167821300,2.8988212890625,-0.9944305419921875,-0.03765869140625,0.014129638671875
1761380399177903400,2.9089033203125,-0.9930419921875,-0.0368194580078125,0.0135040283203125
1761380399187985400,2.9189853515625,-0.992889404296875,-0.037506103515625,0.01373291015625
1761380399198068500,2.929068359375,-0.9947357177734375,-0.037628173828125,0.013763427734375
1761380399208150300,2.939150390625,-0.9939422607421875,-0.03759765625,0.014190673828125
1761380399218232300,2.949232421875,-0.9935150146484375,-0.036346435546875,0.0145111083984375
1761380399228315400,2.9593154296875,-0.9944305419921875,-0.037322998046875,0.014068603515625
1761380399238397400,2.9693974609375,-0.99462890625,-0.037200927734375,0.0146026611328125
1761380399248479500,2.9794794921875,-0.994171142578125,-0.0365447998046875,0.0136566162109375
1761380399258561300,2.989561279296875,-0.993316650390625,-0.0369415283203125,0.0133514404296875
1761380399268644400,2.999644287109375,-0.9953765869140625,-0.037384033203125,0.01312255859375
1761380399278726400,3.009726318359375,-0.9940643310546875,-0.0377197265625,0.0140533447265625
1761380399288808400,3.019808349609375,-0.993408203125,-0.037384033203125,0.01409912109375
1761380399298891300,3.029891357421875,-0.9943084716796875,-0.0369873046875,0.014007568359375
1761380399308973300,3.039973388671875,-0.9942626953125,-0.0372314453125,0.0135498046875
1761380399319055400,3.050055419921875,-0.993865966796875,-0.03704833984375,0.013214111328125
1761380399329138200,3.06013818359375,-0.9932403564453125,-0.03717041015625,0.0138397216796875
1761380399339220200,3.07022021484375,-0.9947509765625,-0.037841796875,0.0139617919921875
1761380399349302300,3.08030224609375,-0.994415283203125,-0.037994384765625,0.0139617919921875
1761380399359385600,3.090385498046875,-0.9945526123046875,-0.037200927734375,0.0137786865234375
1761380399369467400,3.10046728515625,-0.993682861328125,-0.0362548828125,0.013458251953125
1761380399379549400,3.110549560546875,-0.993194580078125,-0.0372314453125,0.0141143798828125
1761380399389632500,3.120632568359375,-0.9932861328125,-0.0375213623046875,0.0135650634765625
1761380399399714600,3.130714599609375,-0.99395751953125,-0.0378875732421875,0.013336181640625
1761380399409796400,3.14079638671875,-0.9932861328125,-0.037445068359375,0.0131072998046875
1761380399419879400,3.15087939453125,-0.9940185546875,-0.038116455078125,0.013702392578125
1761380399429961500,3.16096142578125,-0.99420166015625,-0.0375213623046875,0.0130157470703125
1761380399440043500,3.17104345703125,-0.9945068359375,-0.03692626953125,0.0142669677734375
1761380399450126300,3.181126220703125,-0.993743896484375,-0.037933349609375,0.0134124755859375
1761380399460208400,3.19120849609375,-0.9942169189453125,-0.0372314453125,0.0133056640625
1761380399470290400,3.20129052734375,-0.993408203125,-0.037078857421875,0.012847900390625
1761380399480373500,3.21137353515625,-0.9945831298828125,-0.03692626953125,0.0135345458984375
1761380399490455300,3.221455322265625,-0.994598388671875,-0.0370330810546875,0.014373779296875
1761380399500537300,3.231537353515625,-0.994140625,-0.0367584228515625,0.013397216796875
1761380399510620400,3.241620361328125,-0.9937591552734375,-0.037445068359375,0.0128936767578125
1761380399520702500,3.251702392578125,-0.994964599609375,-0.036895751953125,0.0145721435546875
1761380399530784300,3.2617841796875,-0.9945068359375,-0.0370635986328125,0.013671875
1761380399540866300,3.2718662109375,-0.9931640625,-0.036590576171875,0.0135650634765625
1761380399550949400,3.281949462890625,-0.9931640625,-0.0375823974609375,0.01434326171875
1761380399561031400,3.292031494140625,-0.9944305419921875,-0.037353515625,0.014068603515625
1761380399571113500,3.302113525390625,-0.9940032958984375,-0.0373382568359375,0.0135345458984375
1761380399581196300,3.3121962890625,-0.9945831298828125,-0.037567138671875,0.0137176513671875
1761380399591278300,3.3222783203125,-0.9942779541015625,-0.037567138671875,0.01422119140625
1761380399601360400,3.3323603515625,-0.9942626953125,-0.0377349853515625,0.0146026611328125
1761380399611443200,3.342443115234375,-0.9921875,-0.0373992919921875,0.0138702392578125
1761380399621525200,3.352525146484375,-0.99298095703125,-0.03759765625,0.014068603515625
1761380399631607300,3.362607177734375,-0.9948577880859375,-0.0379638671875,0.013824462890625
1761380399641690400,3.3726904296875,-0.9947509765625,-0.03729248046875,0.0134124755859375
1761380399651772400,3.3827724609375,-0.993804931640625,-0.037139892578125,0.0141754150390625
1761380399661854500,3.3928544921875,-0.994293212890625,-0.038787841796875,0.014007568359375
1761380399671937500,3.4029375,-0.994659423828125,-0.037933349609375,0.013336181640625
1761380399682019600,3.41301953125,-0.993438720703125,-0.037445068359375,0.0134735107421875
1761380399692101400,3.423101318359375,-0.993927001953125,-0.0375823974609375,0.0139617919921875
1761380399702184400,3.433184326171875,-0.99395751953125,-0.0364227294921875,0.0143890380859375
1761380399712266500,3.4432666015625,-0.9929351806640625,-0.0368194580078125,0.013519287109375
1761380399722348500,3.4533486328125,-0.994537353515625,-0.0371551513671875,0.0138397216796875
1761380399732431400,3.463431396484375,-0.994293212890625,-0.03790283203125,0.0135040283203125
1761380399742513400,3.473513427734375,-0.993743896484375,-0.036895751953125,0.0135955810546875
1761380399752595500,3.483595458984375,-0.9940032958984375,-0.036712646484375,0.013641357421875
1761380399762677500,3.493677490234375,-0.994384765625,-0.0368804931640625,0.0139923095703125
1761380399772760300,3.50376025390625,-0.9942169189453125,-0.03692626953125,0.014007568359375
1761380399782842400,3.51384228515625,-0.9940338134765625,-0.037017822265625,0.0137786865234375
1761380399792924400,3.52392431640625,-0.9932861328125,-0.0367431640625,0.0140228271484375
1761380399803007500,3.534007568359375,-0.99444580078125,-0.0376739501953125,0.0138092041015625
1761380399813089300,3.54408935546875,-0.9943389892578125,-0.03765869140625,0.013763427734375
1761380399823171300,3.55417138671875,-0.99365234375,-0.0369873046875,0.0130157470703125
1761380399833254400,3.56425439453125,-0.99462890625,-0.0370941162109375,0.013946533203125
1761380399843336400,3.57433642578125,-0.9947052001953125,-0.037353515625,0.014617919921875
1761380399853418200,3.584418212890625,-0.9940185546875,-0.0374755859375,0.01318359375
1761380399863501300,3.594501220703125,-0.9931793212890625,-0.0374603271484375,0.0145416259765625
1761380399873583400,3.604583251953125,-0.9941558837890625,-0.0374298095703125,0.01397705078125
1761380399883665400,3.61466552734375,-0.9937896728515625,-0.0369873046875,0.012908935546875
1761380399893748200,3.624748291015625,-0.992889404296875,-0.0367431640625,0.0137786865234375
1761380399903830300,3.634830322265625,-0.9944000244140625,-0.0378265380859375,0.0132904052734375
1761380399913912300,3.644912353515625,-0.995330810546875,-0.037322998046875,0.01287841796875
1761380399923995400,3.654995361328125,-0.99249267578125,-0.036651611328125,0.0135498046875
1761380399934077400,3.665077392578125,-0.99322509765625,-0.03814697265625,0.0138092041015625
1761380399944159500,3.675159423828125,-0.994293212890625,-0.0378570556640625,0.01513671875
1761380399954242600,3.68524267578125,-0.993499755859375,-0.0373992919921875,0.01348876953125
1761380399964324600,3.69532470703125,-0.9933624267578125,-0.036346435546875,0.0133209228515625
1761380399974406700,3.70540673828125,-0.9943389892578125,-0.037200927734375,0.0137481689453125
1761380399984489700,3.71548974609375,-0.994659423828125,-0.0372467041015625,0.01300048828125
1761380399994571800,3.72557177734375,-0.9947662353515625,-0.03692626953125,0.01300048828125
1761380400004653600,3.735653564453125,-0.994537353515625,-0.0366668701171875,0.0132293701171875
1761380400014735600,3.745735595703125,-0.993865966796875,-0.03741455078125,0.014190673828125
1761380400024818700,3.755818603515625,-0.9934844970703125,-0.0368194580078125,0.012969970703125
1761380400034900700,3.765900634765625,-0.9939422607421875,-0.037506103515625,0.0135955810546875
1761380400044983600,3.775983642578125,-0.99346923828125,-0.036895751953125,0.0137939453125
1761380400055065600,3.786065673828125,-0.993927001953125,-0.037933349609375,0.0135040283203125
1761380400065147600,3.796147705078125,-0.9936065673828125,-0.03692626953125,0.013641357421875
1761380400075229700,3.806229736328125,-0.99310302734375,-0.0370635986328125,0.013671875
1761380400085312500,3.8163125,-0.9940948486328125,-0.0380096435546875,0.013275146484375
1761380400095394600,3.82639453125,-0.9940185546875,-0.0377197265625,0.0133056640625
1761380400105476600,3.8364765625,-0.992919921875,-0.0363311767578125,0.0136260986328125
1761380400115559700,3.8465595703125,-0.993560791015625,-0.0370941162109375,0.014617919921875
1761380400125641500,3.856641357421875,-0.9940338134765625,-0.0376739501953125,0.0151519775390625
1761380400135723500,3.8667236328125,-0.9935455322265625,-0.0367584228515625,0.013519287109375
1761380400145806600,3.876806640625,-0.993682861328125,-0.0369110107421875,0.0135498046875
1761380400155888600,3.886888671875,-0.9941864013671875,-0.0373992919921875,0.013916015625
1761380400165970700,3.896970703125,-0.9943084716796875,-0.0366363525390625,0.0133819580078125
1761380400176053500,3.907053466796875,-0.9934539794921875,-0.036956787109375,0.01361083984375
1761380400186135600,3.917135498046875,-0.9945831298828125,-0.037994384765625,0.014739990234375
1761380400196217600,3.927217529296875,-0.9943389892578125,-0.03741455078125,0.0137176513671875
1761380400206300700,3.93730078125,-0.993865966796875,-0.0365142822265625,0.0137176513671875
1761380400216382700,3.9473828125,-0.993896484375,-0.0374603271484375,0.01318359375
1761380400226464800,3.95746484375,-0.9946136474609375,-0.03753662109375,0.013641357421875
1761380400236547600,3.967547607421875,-0.994842529296875,-0.037353515625,0.01275634765625
1761380400246629600,3.977629638671875,-0.9934539794921875,-0.0372467041015625,0.0137176513671875
1761380400256711700,3.987711669921875,-0.9940032958984375,-0.0368804931640625,0.0142364501953125
1761380400266794800,3.997794677734375,-0.99420166015625,-0.037384033203125,0.0133819580078125
1761380400276876800,4.007876708984375,-0.9936676025390625,-0.036651611328125,0.0137786865234375
1761380400286958600,4.01795849609375,-0.9931182861328125,-0.0373992919921875,0.013153076171875
1761380400297041700,4.028041748046875,-0.9936676025390625,-0.0381622314453125,0.0137176513671875
1761380400307123700,4.038123779296875,-0.993255615234375,-0.03741455078125,0.013214111328125
1761380400317205800,4.048205810546875,-0.99383544921875,-0.036895751953125,0.01348876953125
1761380400327287600,4.05828759765625,-0.9947967529296875,-0.0384063720703125,0.013214111328125
1761380400337370600,4.06837060546875,-0.99456787109375,-0.0380706787109375,0.0131988525390625
1761380400347452700,4.07845263671875,-0.9938201904296875,-0.0374298095703125,0.013824462890625
1761380400357534700,4.08853466796875,-0.993927001953125,-0.0364990234375,0.01458740234375
1761380400367617500,4.098617431640625,-0.99517822265625,-0.037445068359375,0.014007568359375
1761380400377699600,4.108699462890625,-0.9940643310546875,-0.03790283203125,0.013671875
1761380400387781600,4.11878173828125,-0.9936676025390625,-0.036956787109375,0.0135955810546875
1761380400397864700,4.12886474609375,-0.9942169189453125,-0.0369415283203125,0.013702392578125
1761380400407946500,4.138946533203125,-0.9937744140625,-0.037353515625,0.01422119140625
1761380400418028500,4.149028564453125,-0.9935150146484375,-0.036834716796875,0.013702392578125
1761380400428111600,4.159111572265625,-0.9940948486328125,-0.0369110107421875,0.0137481689453125
1761380400438193700,4.169193603515625,-0.9933319091796875,-0.0373687744140625,0.0149993896484375
1761380400448275500,4.179275390625,-0.9937591552734375,-0.036376953125,0.01336669921875
1761380400458358500,4.189358642578125,-0.99359130859375,-0.036468505859375,0.01275634765625
1761380400468440600,4.199440673828125,-0.9940643310546875,-0.0366973876953125,0.0142364501953125
1761380400478522600,4.209522705078125,-0.9940032958984375,-0.03717041015625,0.0139923095703125
1761380400488605700,4.219605712890625,-0.9933319091796875,-0.0370330810546875,0.013641357421875
1761380400498687700,4.229687744140625,-0.9937896728515625,-0.03729248046875,0.0133819580078125
1761380400508769800,4.239769775390625,-0.9952545166015625,-0.0378875732421875,0.013702392578125
1761380400518852600,4.2498525390625,-0.993804931640625,-0.0378875732421875,0.013580322265625
1761380400528934700,4.2599345703125,-0.99432373046875,-0.03729248046875,0.0134735107421875
1761380400539016700,4.2700166015625,-0.9937591552734375,-0.0373077392578125,0.0137939453125
1761380400549099800,4.280099853515625,-0.9936981201171875,-0.03717041015625,0.0145111083984375
1761380400559181600,4.290181640625,-0.9940338134765625,-0.03759765625,0.0140838623046875
1761380400569263600,4.300263671875,-0.9936065673828125,-0.03668212890625,0.01422119140625
1761380400579346700,4.3103466796875,-0.994232177734375,-0.036712646484375,0.01483154296875
1761380400589428700,4.3204287109375,-0.9943389892578125,-0.0377655029296875,0.013031005859375
1761380400599510800,4.3305107421875,-0.994110107421875,-0.037139892578125,0.0139923095703125
1761380400609593600,4.340593505859375,-0.9930267333984375,-0.03765869140625,0.0130767822265625
1761380400619675600,4.350675537109375,-0.993927001953125,-0.0374298095703125,0.0139923095703125
1761380400629757700,4.3607578125,-0.9942169189453125,-0.037384033203125,0.0142364501953125
1761380400639840500,4.370840576171875,-0.9947357177734375,-0.037200927734375,0.0135498046875
1761380400649922600,4.380922607421875,-0.9945831298828125,-0.0378265380859375,0.0139007568359375
1761380400660004600,4.391004638671875,-0.9940948486328125,-0.0370635986328125,0.013916015625
1761380400670086700,4.401086669921875,-0.9940643310546875,-0.0367584228515625,0.0126495361328125
1761380400680169500,4.41116943359375,-0.993804931640625,-0.036895751953125,0.013946533203125
1761380400690251500,4.42125146484375,-0.9928131103515625,-0.038177490234375,0.013275146484375
1761380400700333600,4.43133349609375,-0.993499755859375,-0.03704833984375,0.0129547119140625
1761380400710416600,4.441416748046875,-0.992919921875,-0.03656005859375,0.014312744140625
1761380400720498700,4.451498779296875,-0.9939422607421875,-0.037384033203125,0.013671875
1761380400730580500,4.46158056640625,-0.99285888671875,-0.0363311767578125,0.0133056640625
1761380400740663600,4.47166357421875,-0.99407958984375,-0.037017822265625,0.0142974853515625
1761380400750745600,4.48174560546875,-0.9943389892578125,-0.037628173828125,0.0138397216796875
1761380400760827600,4.49182763671875,-0.9940032958984375,-0.0379486083984375,0.0137481689453125
1761380400770910700,4.50191064453125,-0.993743896484375,-0.0378570556640625,0.0136871337890625
1761380400780992800,4.51199267578125,-0.994354248046875,-0.0377349853515625,0.0138702392578125
1761380400791074800,4.52207470703125,-0.9939422607421875,-0.0367889404296875,0.0132904052734375
1761380400801157600,4.53215771484375,-0.9947357177734375,-0.03759765625,0.0130767822265625
1761380400811239700,4.54223974609375,-0.9937286376953125,-0.036956787109375,0.01470947265625
1761380400821321700,4.55232177734375,-0.993316650390625,-0.037261962890625,0.01416015625
1761380400831404800,4.56240478515625,-0.994659423828125,-0.0372314453125,0.0130462646484375
1761380400841486600,4.572486572265625,-0.9936981201171875,-0.0374298095703125,0.013885498046875
1761380400851568600,4.582568603515625,-0.993896484375,-0.03729248046875,0.0133514404296875
1761380400861651700,4.592651611328125,-0.994171142578125,-0.0377349853515625,0.0139007568359375
1761380400871733800,4.602733642578125,-0.99420166015625,-0.0372161865234375,0.013336181640625
1761380400881815600,4.612815673828125,-0.994415283203125,-0.0372467041015625,0.013702392578125
1761380400891898600,4.622898681640625,-0.99383544921875,-0.037567138671875,0.0146484375
1761380400901980700,4.632980712890625,-0.9940643310546875,-0.037078857421875,0.0139312744140625
1761380400912062700,4.643062744140625,-0.993927001953125,-0.0363922119140625,0.014862060546875
1761380400922145500,4.6531455078125,-0.994415283203125,-0.0374298095703125,0.0140380859375
1761380400932227600,4.6632275390625,-0.9939117431640625,-0.0373382568359375,0.013427734375
1761380400942309600,4.6733095703125,-0.99432373046875,-0.0379791259765625,0.0142364501953125
1761380400952392700,4.683392822265625,-0.993621826171875,-0.0370941162109375,0.0132598876953125
1761380400962474500,4.693474609375,-0.9941253662109375,-0.0368194580078125,0.0130767822265625
1761380400972556300,4.703556396484375,-0.9945831298828125,-0.0377655029296875,0.013916015625
1761380400982639400,4.713639404296875,-0.994171142578125,-0.036651611328125,0.013885498046875
1761380400992721400,4.723721435546875,-0.993988037109375,-0.0368499755859375,0.013916015625
1761380401002803200,4.73380322265625,-0.9937591552734375,-0.0366363525390625,0.01397705078125
1761380401012885200,4.74388525390625,-0.9937591552734375,-0.0376739501953125,0.0150909423828125
1761380401022968300,4.75396826171875,-0.994140625,-0.0372314453125,0.014007568359375
1761380401033050400,4.76405029296875,-0.993927001953125,-0.037322998046875,0.0141448974609375
1761380401043132400,4.77413232421875,-0.9935455322265625,-0.0376739501953125,0.013519287109375
1761380401053215500,4.784215576171875,-0.9948883056640625,-0.03753662109375,0.01287841796875
1761380401063297500,4.794297607421875,-0.994720458984375,-0.036895751953125,0.013763427734375
1761380401073379300,4.80437939453125,-0.994720458984375,-0.0366973876953125,0.0134124755859375
1761380401083462400,4.81446240234375,-0.99365234375,-0.0377349853515625,0.01275634765625
1761380401093544400,4.82454443359375,-0.994476318359375,-0.0369873046875,0.0132293701171875
1761380401103626500,4.83462646484375,-0.99420166015625,-0.036407470703125,0.013275146484375
1761380401113709600,4.84470947265625,-0.9937286376953125,-0.0365142822265625,0.01458740234375
1761380401123791400,4.854791259765625,-0.994140625,-0.03778076171875,0.0140838623046875
1761380401133873400,4.864873291015625,-0.99420166015625,-0.036773681640625,0.0137481689453125
1761380401143956500,4.87495654296875,-0.99407958984375,-0.0364837646484375,0.0141143798828125
1761380401154038500,4.88503857421875,-0.9948577880859375,-0.037384033203125,0.0140228271484375
1761380401164120300,4.895120361328125,-0.9950714111328125,-0.037200927734375,0.0133819580078125
1761380401174203400,4.905203369140625,-0.993255615234375,-0.0370941162109375,0.0139923095703125
1761380401184285400,4.915285400390625,-0.9941253662109375,-0.03790283203125,0.013702392578125
1761380401194367500,4.925367431640625,-0.9948577880859375,-0.0375823974609375,0.01397705078125
1761380401204450300,4.9354501953125,-0.9931640625,-0.0366668701171875,0.014068603515625
1761380401214532400,4.945532470703125,-0.993316650390625,-0.037017822265625,0.0141754150390625
1761380401224614400,4.955614501953125,-0.9940643310546875,-0.0366058349609375,0.0142059326171875
1761380401234697200,4.965697265625,-0.994049072265625,-0.03729248046875,0.0139617919921875
1761380401244779300,4.975779296875,-0.9923095703125,-0.03619384765625,0.014312744140625
1761380401254861300,4.985861328125,-0.9940338134765625,-0.037933349609375,0.014312744140625
1761380401264944400,4.9959443359375,-0.993896484375,-0.0368194580078125,0.01348876953125
1761380401275026400,5.0060263671875,-0.9936370849609375,-0.037109375,0.012786865234375
1761380401285108200,5.016108154296875,-0.9945831298828125,-0.037750244140625,0.0130462646484375
1761380401295191300,5.02619140625,-0.9943084716796875,-0.0377044677734375,0.0139923095703125
1761380401305273300,5.0362734375,-0.9931182861328125,-0.036590576171875,0.01361083984375
1761380401315355400,5.04635546875,-0.9937286376953125,-0.0366058349609375,0.01318359375
1761380401325438500,5.0564384765625,-0.994842529296875,-0.03790283203125,0.0140838623046875
1761380401335520500,5.0665205078125,-0.99407958984375,-0.037109375,0.0136566162109375
1761380401345602300,5.076602294921875,-0.9934844970703125,-0.0371551513671875,0.0139617919921875
1761380401355684400,5.086684326171875,-0.9940338134765625,-0.03680419921875,0.0134429931640625
1761380401365767400,5.096767333984375,-0.994110107421875,-0.0376129150390625,0.0141754150390625
1761380401375849500,5.106849365234375,-0.9932098388671875,-0.0365447998046875,0.0135650634765625
1761380401385931500,5.116931640625,-0.994476318359375,-0.0378875732421875,0.012908935546875
1761380401396014300,5.127014404296875,-0.9947509765625,-0.037872314453125,0.0137176513671875
1761380401406096400,5.137096435546875,-0.9936065673828125,-0.03753662109375,0.0145111083984375
1761380401416178400,5.147178466796875,-0.99420166015625,-0.0370635986328125,0.012969970703125
1761380401426261500,5.157261474609375,-0.994842529296875,-0.037109375,0.0125274658203125
1761380401436343600,5.167343505859375,-0.9942169189453125,-0.0368194580078125,0.01422119140625
1761380401446425300,5.17742529296875,-0.9940948486328125,-0.0377655029296875,0.01397705078125
1761380401456508400,5.18750830078125,-0.994232177734375,-0.0365447998046875,0.0133209228515625
1761380401466590500,5.197590576171875,-0.994659423828125,-0.0368194580078125,0.01434326171875
1761380401476672500,5.207672607421875,-0.994049072265625,-0.037139892578125,0.0141754150390625
1761380401486755300,5.21775537109375,-0.99407958984375,-0.036956787109375,0.013824462890625
1761380401496837400,5.22783740234375,-0.993621826171875,-0.03759765625,0.013336181640625
1761380401506919400,5.23791943359375,-0.993743896484375,-0.0370330810546875,0.013671875
1761380401517002200,5.248002197265625,-0.99444580078125,-0.03778076171875,0.01409912109375
1761380401527084300,5.258084228515625,-0.99420166015625,-0.038177490234375,0.0133819580078125
1761380401537166300,5.268166259765625,-0.993865966796875,-0.0372314453125,0.0140838623046875
1761380401547249400,5.27824951171875,-0.993804931640625,-0.0373077392578125,0.013671875
1761380401557331200,5.288331298828125,-0.9951324462890625,-0.0372772216796875,0.01312255859375
1761380401567413200,5.298413330078125,-0.9935150146484375,-0.03668212890625,0.0137481689453125
1761380401577496300,5.308496337890625,-0.994049072265625,-0.0369110107421875,0.0141448974609375
1761380401587578400,5.318578369140625,-0.9936065673828125,-0.037841796875,0.0133514404296875
1761380401597660400,5.328660400390625,-0.9936370849609375,-0.037628173828125,0.01361083984375
1761380401607743500,5.338743408203125,-0.993896484375,-0.037261962890625,0.0129241943359375
1761380401617825500,5.348825439453125,-0.994232177734375,-0.03753662109375,0.0143280029296875
1761380401627907300,5.3589072265625,-0.993255615234375,-0.0373687744140625,0.013824462890625
1761380401637989400,5.3689892578125,-0.9944305419921875,-0.0364990234375,0.014068603515625
1761380401648072400,5.379072509765625,-0.9937896728515625,-0.03759765625,0.0142364501953125
1761380401658154500,5.389154541015625,-0.993865966796875,-0.036834716796875,0.01361083984375
1761380401668236500,5.399236572265625,-0.993804931640625,-0.037384033203125,0.013031005859375
1761380401678319400,5.4093193359375,-0.993377685546875,-0.037628173828125,0.0137176513671875
1761380401688401400,5.4194013671875,-0.9937896728515625,-0.0380706787109375,0.0141448974609375
1761380401698483500,5.4294833984375,-0.9937286376953125,-0.0374298095703125,0.0139923095703125
1761380401708566500,5.43956640625,-0.994110107421875,-0.0372161865234375,0.0130157470703125
1761380401718648300,5.4496484375,-0.9945068359375,-0.0368804931640625,0.01385498046875
1761380401728730400,5.45973046875,-0.993743896484375,-0.0372772216796875,0.013702392578125
1761380401738813400,5.4698134765625,-0.994140625,-0.037078857421875,0.0127105712890625
1761380401748895500,5.4798955078125,-0.9937744140625,-0.0381622314453125,0.0140838623046875
1761380401758977500,5.4899775390625,-0.9944610595703125,-0.037750244140625,0.0141448974609375
1761380401769060400,5.500060302734375,-0.994293212890625,-0.036468505859375,0.0138092041015625
1761380401779142400,5.510142333984375,-0.99420166015625,-0.03631591796875,0.0145416259765625
1761380401789224400,5.520224365234375,-0.9945068359375,-0.0371551513671875,0.0140533447265625
1761380401799307300,5.530307373046875,-0.9932708740234375,-0.0368194580078125,0.013946533203125
1761380401809389300,5.540389404296875,-0.9939422607421875,-0.037109375,0.0126190185546875
1761380401819471400,5.550471435546875,-0.9923553466796875,-0.037384033203125,0.012359619140625
1761380401829554400,5.560554443359375,-0.9945220947265625,-0.037872314453125,0.0140533447265625
1761380401839636200,5.57063623046875,-0.9940338134765625,-0.037384033203125,0.014434814453125
1761380401849718300,5.58071826171875,-0.9940643310546875,-0.0370635986328125,0.0134429931640625
1761380401859801300,5.59080126953125,-0.995574951171875,-0.0374755859375,0.01397705078125
1761380401869883400,5.60088330078125,-0.994659423828125,-0.037811279296875,0.0142669677734375
1761380401879965200,5.610965087890625,-0.9941253662109375,-0.0369415283203125,0.013671875
1761380401890048500,5.621048583984375,-0.994415283203125,-0.0367431640625,0.013702392578125
1761380401900130600,5.631130615234375,-0.9945526123046875,-0.0366668701171875,0.0146484375
1761380401910212400,5.64121240234375,-0.9941558837890625,-0.0370330810546875,0.0136871337890625
1761380401920295400,5.65129541015625,-0.9944305419921875,-0.0374298095703125,0.01409912109375
1761380401930377500,5.66137744140625,-0.994720458984375,-0.0371551513671875,0.01361083984375
1761380401940459500,5.67145947265625,-0.9947509765625,-0.0377655029296875,0.0131072998046875
1761380401950542300,5.681542236328125,-0.99334716796875,-0.037933349609375,0.01348876953125
1761380401960624400,5.691624267578125,-0.993865966796875,-0.0372314453125,0.0132598876953125
1761380401970710300,5.701710205078125,-0.9936370849609375,-0.0365753173828125,0.0142822265625
1761380401980792300,5.711792236328125,-0.992828369140625,-0.03729248046875,0.0134735107421875
1761380401990875400,5.72187548828125,-0.9938812255859375,-0.036956787109375,0.01422119140625
1761380402000957400,5.73195751953125,-0.993865966796875,-0.03680419921875,0.0139923095703125
1761380402011039500,5.74203955078125,-0.99346923828125,-0.036956787109375,0.0139312744140625
1761380402021122600,5.75212255859375,-0.993896484375,-0.0374755859375,0.013458251953125
1761380402031204400,5.762204345703125,-0.9942626953125,-0.03759765625,0.0141754150390625
1761380402041286400,5.772286376953125,-0.9939727783203125,-0.0372772216796875,0.0135040283203125
1761380402051369500,5.782369384765625,-0.9942474365234375,-0.037841796875,0.013153076171875
1761380402061451500,5.792451416015625,-0.99395751953125,-0.0370941162109375,0.013031005859375
1761380402071533600,5.802533447265625,-0.99365234375,-0.037841796875,0.0131683349609375
1761380402081616400,5.812616455078125,-0.9938812255859375,-0.037872314453125,0.0143585205078125
1761380402091698400,5.822698486328125,-0.99407958984375,-0.0370330810546875,0.014678955078125
1761380402101780500,5.832780517578125,-0.994598388671875,-0.037445068359375,0.01361083984375
1761380402111863300,5.84286328125,-0.9939727783203125,-0.03729248046875,0.013946533203125
1761380402121945300,5.8529453125,-0.993927001953125,-0.0373992919921875,0.0133819580078125
1761380402132027400,5.86302734375,-0.9951019287109375,-0.0373077392578125,0.0131072998046875
1761380402142110500,5.8731103515625,-0.9949951171875,-0.0378570556640625,0.0133056640625
1761380402152192300,5.883192138671875,-0.9940032958984375,-0.03717041015625,0.013702392578125
1761380402162274300,5.8932744140625,-0.994598388671875,-0.037567138671875,0.014007568359375
1761380402172357400,5.903357421875,-0.99432373046875,-0.0367279052734375,0.0134735107421875
1761380402182439400,5.913439453125,-0.9944000244140625,-0.0373992919921875,0.0135650634765625
1761380402192521200,5.923521240234375,-0.994171142578125,-0.037353515625,0.01324462890625
1761380402202604300,5.933604248046875,-0.9937286376953125,-0.0379180908203125,0.0134124755859375
1761380402212686300,5.943686279296875,-0.99395751953125,-0.0379638671875,0.01397705078125
1761380402222768400,5.953768310546875,-0.993743896484375,-0.037353515625,0.013671875
1761380402232851500,5.9638515625,-0.993682861328125,-0.0377044677734375,0.0142059326171875
1761380402242933200,5.973933349609375,-0.993194580078125,-0.037322998046875,0.013671875
1761380402253015300,5.984015380859375,-0.99493408203125,-0.03753662109375,0.0133819580078125
1761380402263098400,5.994098388671875,-0.9948577880859375,-0.0373382568359375,0.0136260986328125
1761380402273180400,6.004180419921875,-0.99591064453125,-0.0373077392578125,0.0145416259765625
1761380402283262500,6.014262451171875,-0.994415283203125,-0.03668212890625,0.0144500732421875
1761380402293344500,6.024344482421875,-0.9927520751953125,-0.037628173828125,0.01336669921875
1761380402303427600,6.034427490234375,-0.993896484375,-0.03765869140625,0.0144195556640625
1761380402313509400,6.04450927734375,-0.994232177734375,-0.0372772216796875,0.0140380859375
1761380402323591400,6.05459130859375,-0.994232177734375,-0.03668212890625,0.0133056640625
1761380402333674500,6.064674560546875,-0.99395751953125,-0.0375518798828125,0.0134429931640625
1761380402343756500,6.074756591796875,-0.994842529296875,-0.037017822265625,0.0138397216796875
1761380402353838300,6.08483837890625,-0.9933929443359375,-0.0370330810546875,0.0141448974609375
1761380402363921400,6.09492138671875,-0.9933929443359375,-0.0374298095703125,0.01324462890625
1761380402374003500,6.10500341796875,-0.993743896484375,-0.0382080078125,0.013275146484375
1761380402384085500,6.11508544921875,-0.9944610595703125,-0.037353515625,0.0145416259765625
1761380402394168300,6.125168212890625,-0.993927001953125,-0.0376434326171875,0.0143585205078125
1761380402404250400,6.13525048828125,-0.994140625,-0.0372314453125,0.013885498046875
1761380402414332400,6.14533251953125,-0.9944305419921875,-0.0362396240234375,0.013824462890625
1761380402424415200,6.155415283203125,-0.993499755859375,-0.0368499755859375,0.0134429931640625
1761380402434497300,6.165497314453125,-0.9939117431640625,-0.03680419921875,0.0133209228515625
1761380402444579300,6.175579345703125,-0.9945831298828125,-0.0381011962890625,0.014190673828125
1761380402454662400,6.185662353515625,-0.9951171875,-0.037445068359375,0.01434326171875
1761380402464744400,6.195744384765625,-0.9939727783203125,-0.0370635986328125,0.0133056640625
1761380402474826200,6.205826171875,-0.994781494140625,-0.0374755859375,0.014190673828125
1761380402484909300,6.215909423828125,-0.993743896484375,-0.036865234375,0.0140533447265625
1761380402494991400,6.225991455078125,-0.9942169189453125,-0.0372161865234375,0.013427734375
1761380402505073400,6.236073486328125,-0.9943389892578125,-0.0369720458984375,0.01416015625
1761380402515156500,6.246156494140625,-0.9954071044921875,-0.0362701416015625,0.013916015625
1761380402525238300,6.25623828125,-0.9941864013671875,-0.0376739501953125,0.0145111083984375
1761380402535320300,6.2663203125,-0.993896484375,-0.0370330810546875,0.013824462890625
1761380402545402400,6.27640234375,-0.9943389892578125,-0.0373382568359375,0.0128326416015625
1761380402555485400,6.2864853515625,-0.9945831298828125,-0.037841796875,0.0134429931640625
1761380402565567500,6.2965673828125,-0.9941558837890625,-0.036834716796875,0.0145721435546875
1761380402575649500,6.3066494140625,-0.99359130859375,-0.0364990234375,0.01361083984375
1761380402585732400,6.316732421875,-0.99334716796875,-0.037841796875,0.0128173828125
1761380402595814400,6.326814453125,-0.994537353515625,-0.0380401611328125,0.0143280029296875
1761380402605896400,6.336896484375,-0.9940338134765625,-0.0374298095703125,0.0142669677734375
1761380402615979500,6.3469794921875,-0.9937744140625,-0.0372772216796875,0.01361083984375
1761380402626061300,6.357061279296875,-0.9942626953125,-0.03741455078125,0.01324462890625
1761380402636143400,6.367143310546875,-0.994415283203125,-0.0371856689453125,0.0139923095703125
1761380402646226400,6.377226318359375,-0.993408203125,-0.0371551513671875,0.013092041015625
1761380402656308500,6.38730859375,-0.993621826171875,-0.037872314453125,0.013580322265625
1761380402666390500,6.397390625,-0.9937286376953125,-0.03680419921875,0.01373291015625
1761380402676473300,6.407473388671875,-0.994903564453125,-0.0368804931640625,0.0130462646484375
1761380402686555400,6.417555419921875,-0.9938507080078125,-0.0374908447265625,0.01434326171875
1761380402696637400,6.427637451171875,-0.99322509765625,-0.0364990234375,0.013916015625
1761380402706720300,6.43772021484375,-0.9940185546875,-0.0374603271484375,0.0145263671875
1761380402716802300,6.44780224609375,-0.9951019287109375,-0.0376129150390625,0.013580322265625
1761380402726884400,6.45788427734375,-0.9940185546875,-0.0370941162109375,0.013153076171875
1761380402736967400,6.467967529296875,-0.994049072265625,-0.0368804931640625,0.0141143798828125
1761380402747049200,6.47804931640625,-0.994842529296875,-0.0373992919921875,0.0133819580078125
1761380402757131300,6.48813134765625,-0.9948272705078125,-0.037109375,0.0135345458984375
1761380402767214300,6.49821435546875,-0.993408203125,-0.0367279052734375,0.0146026611328125
1761380402777296400,6.50829638671875,-0.994537353515625,-0.037933349609375,0.0137176513671875
1761380402787378400,6.51837841796875,-0.9938507080078125,-0.037933349609375,0.0138702392578125
1761380402797461500,6.52846142578125,-0.9940032958984375,-0.037261962890625,0.014007568359375
1761380402807543300,6.538543212890625,-0.98468017578125,-0.0346832275390625,0.008758544921875
1761380402817625300,6.548625244140625,-0.9861602783203125,-0.0355987548828125,0.0098419189453125
1761380402827707400,6.558707275390625,-0.9955902099609375,-0.0381317138671875,0.014678955078125
1761380402837790500,6.56879052734375,-0.996795654296875,-0.0394287109375,0.01715087890625
1761380402847872500,6.57887255859375,-0.9990692138671875,-0.0408935546875,0.019256591796875
1761380402857954600,6.58895458984375,-1.007904052734375,-0.044952392578125,0.0257110595703125
1761380402868037400,6.599037353515625,-1.0227508544921875,-0.0477294921875,0.0318450927734375
1761380402878119400,6.609119384765625,-0.99908447265625,-0.0395660400390625,0.017120361328125
1761380402888201500,6.619201416015625,-0.936737060546875,-0.0177154541015625,-0.015594482421875
