time,seconds_elapsed,z,y,x
1761392263810866700,0.07186669921875,-1.0233001708984375,-0.0837249755859375,0.02642822265625
1761392263820948500,0.081948486328125,-1.0342559814453125,-0.077392578125,0.02471923828125
1761392263831030500,0.092030517578125,-1.0089874267578125,-0.0840606689453125,0.031982421875
1761392263841113600,0.102113525390625,-0.9878997802734375,-0.0892333984375,0.0445098876953125
1761392263851195600,0.112195556640625,-0.9852294921875,-0.10223388671875,0.074981689453125
1761392263861277700,0.122277587890625,-1.0133209228515625,-0.1235198974609375,0.09661865234375
1761392263871359500,0.132359375,-0.9850311279296875,-0.1608123779296875,0.1013031005859375
1761392263881441500,0.142441650390625,-0.9442138671875,-0.1980438232421875,0.0955352783203125
1761392263891523600,0.152523681640625,-0.9285888671875,-0.2125091552734375,0.07635498046875
1761392263901605600,0.162605712890625,-0.9130096435546875,-0.218414306640625,0.0641632080078125
1761392263911688400,0.1726884765625,-0.90277099609375,-0.2255859375,0.04974365234375
1761392263921770500,0.1827705078125,-0.8931732177734375,-0.22998046875,0.032806396484375
1761392263931852500,0.1928525390625,-0.9044342041015625,-0.2293243408203125,0.01324462890625
1761392263941934600,0.2029345703125,-0.9100799560546875,-0.2115020751953125,-0.0015869140625
1761392263952016600,0.2130166015625,-0.92095947265625,-0.1919708251953125,-0.0137481689453125
1761392263962098700,0.2230986328125,-0.941070556640625,-0.1851806640625,-0.0085601806640625
1761392263972180500,0.233180419921875,-0.9936981201171875,-0.186859130859375,0.0021209716796875
1761392263982263600,0.243263671875,-1.0613555908203125,-0.197021484375,0.0122528076171875
1761392263992345600,0.253345703125,-1.109283447265625,-0.203521728515625,0.012664794921875
1761392264002427600,0.263427734375,-1.128662109375,-0.1974945068359375,0.003997802734375
1761392264012509700,0.273509765625,-1.1220550537109375,-0.19879150390625,0.0101318359375
1761392264022591500,0.283591552734375,-1.0976104736328125,-0.21893310546875,0.0253143310546875
1761392264032673500,0.293673583984375,-1.072967529296875,-0.2450408935546875,0.027099609375
1761392264042755600,0.303755615234375,-1.0781707763671875,-0.262054443359375,0.032257080078125
1761392264052838700,0.313838623046875,-1.056549072265625,-0.2741546630859375,0.0162353515625
1761392264062920400,0.32392041015625,-1.0039520263671875,-0.2881317138671875,0.0167694091796875
1761392264073002500,0.33400244140625,-0.9780426025390625,-0.3091583251953125,0.0165252685546875
1761392264083084500,0.34408447265625,-0.9474945068359375,-0.3216552734375,0.0006866455078125
1761392264093166600,0.35416650390625,-0.9254913330078125,-0.3121185302734375,-0.022918701171875
1761392264103248600,0.36424853515625,-0.90924072265625,-0.3028106689453125,-0.035430908203125
1761392264113330700,0.37433056640625,-0.9012603759765625,-0.300628662109375,-0.050567626953125
1761392264123413500,0.38441357421875,-0.90576171875,-0.289398193359375,-0.0807037353515625
1761392264133495600,0.39449560546875,-0.8944244384765625,-0.2609405517578125,-0.091461181640625
1761392264143577600,0.40457763671875,-0.8914642333984375,-0.2384033203125,-0.066741943359375
1761392264153659600,0.41465966796875,-0.898193359375,-0.206298828125,-0.0699462890625
1761392264163741700,0.42474169921875,-0.91107177734375,-0.178192138671875,-0.0511627197265625
1761392264173823500,0.434823486328125,-0.8965606689453125,-0.1649627685546875,-0.050994873046875
1761392264183905500,0.444905517578125,-0.8491668701171875,-0.161590576171875,-0.0159912109375
1761392264193988600,0.454988525390625,-0.7559967041015625,-0.1895294189453125,0.0771484375
1761392264204070700,0.465070556640625,-0.7269134521484375,-0.2667083740234375,0.166595458984375
1761392264214152400,0.47515234375,-0.807769775390625,-0.3488616943359375,0.1781768798828125
1761392264224234500,0.485234375,-0.8441314697265625,-0.40130615234375,0.142791748046875
1761392264234316500,0.495316650390625,-0.8465576171875,-0.428955078125,0.121002197265625
1761392264244398600,0.505398681640625,-0.8589019775390625,-0.436370849609375,0.1074981689453125
1761392264254480600,0.515480712890625,-0.9079742431640625,-0.3543548583984375,0.0746612548828125
1761392264264562700,0.525562744140625,-0.95159912109375,-0.2120513916015625,0.0059967041015625
1761392264274645500,0.5356455078125,-0.930755615234375,-0.1278228759765625,-0.02813720703125
1761392264284727600,0.5457275390625,-0.9115447998046875,-0.129669189453125,-0.0059356689453125
1761392264294809600,0.5558095703125,-0.9598388671875,-0.180145263671875,0.03253173828125
1761392264304891600,0.5658916015625,-1.0043792724609375,-0.2125701904296875,0.0545654296875
1761392264314973700,0.5759736328125,-0.994110107421875,-0.2061614990234375,0.0818328857421875
1761392264325055500,0.586055419921875,-0.96728515625,-0.169464111328125,0.1053466796875
1761392264335137500,0.596137451171875,-1.005126953125,-0.137115478515625,0.119354248046875
1761392264345220600,0.606220703125,-1.0258026123046875,-0.126251220703125,0.1303558349609375
1761392264355302700,0.616302734375,-0.996307373046875,-0.14752197265625,0.159942626953125
1761392264365384700,0.626384765625,-0.9968414306640625,-0.188385009765625,0.1880645751953125
1761392264375466500,0.636466552734375,-1.0059661865234375,-0.211181640625,0.2165985107421875
1761392264385548500,0.646548583984375,-0.99334716796875,-0.2139892578125,0.23748779296875
1761392264395630600,0.656630615234375,-0.9658050537109375,-0.22149658203125,0.24639892578125
1761392264405712600,0.666712646484375,-0.9482879638671875,-0.2434234619140625,0.25787353515625
1761392264415795500,0.67679541015625,-0.9366455078125,-0.2598876953125,0.25958251953125
1761392264425877500,0.68687744140625,-0.9325714111328125,-0.2430267333984375,0.2335052490234375
1761392264435959600,0.69695947265625,-0.9398956298828125,-0.2159423828125,0.2025146484375
1761392264446041600,0.70704150390625,-0.9447479248046875,-0.2119140625,0.1734619140625
1761392264456123600,0.71712353515625,-0.9487152099609375,-0.22027587890625,0.1727142333984375
1761392264466205700,0.727205810546875,-0.948455810546875,-0.2381744384765625,0.1915283203125
1761392264476287500,0.73728759765625,-0.939453125,-0.2583770751953125,0.2100677490234375
1761392264486369500,0.74736962890625,-0.9299163818359375,-0.2639617919921875,0.2178802490234375
1761392264496452600,0.75745263671875,-0.9338836669921875,-0.2582550048828125,0.2156219482421875
1761392264506534700,0.76753466796875,-0.934478759765625,-0.24920654296875,0.2083892822265625
1761392264516616700,0.77761669921875,-0.933746337890625,-0.242919921875,0.1968231201171875
1761392264526698500,0.787698486328125,-0.921173095703125,-0.2412261962890625,0.189849853515625
1761392264536780500,0.797780517578125,-0.915191650390625,-0.236572265625,0.1944732666015625
1761392264546862600,0.807862548828125,-0.92193603515625,-0.230926513671875,0.191741943359375
1761392264556944600,0.817944580078125,-0.92730712890625,-0.2266693115234375,0.1752166748046875
1761392264567027500,0.82802734375,-0.92755126953125,-0.220733642578125,0.1541748046875
1761392264577109500,0.838109619140625,-0.9355926513671875,-0.2143707275390625,0.1385498046875
1761392264587191600,0.848191650390625,-0.940216064453125,-0.211669921875,0.129058837890625
1761392264597273600,0.858273681640625,-0.9350738525390625,-0.2140350341796875,0.126617431640625
1761392264607355600,0.868355712890625,-0.9344482421875,-0.214111328125,0.1288909912109375
1761392264617437700,0.878437744140625,-0.9441375732421875,-0.2072296142578125,0.1324005126953125
1761392264627519500,0.88851953125,-0.9530181884765625,-0.1995697021484375,0.1358642578125
1761392264637602600,0.8986025390625,-0.9521484375,-0.19818115234375,0.1329803466796875
1761392264647684600,0.9086845703125,-0.942169189453125,-0.202972412109375,0.13531494140625
1761392264657766700,0.9187666015625,-0.9376678466796875,-0.209014892578125,0.1418914794921875
1761392264667848700,0.9288486328125,-0.9421844482421875,-0.2055206298828125,0.1454315185546875
1761392264677930500,0.938930419921875,-0.9577789306640625,-0.196136474609375,0.1348419189453125
1761392264688012500,0.949012451171875,-0.9713287353515625,-0.1796722412109375,0.114593505859375
1761392264698094600,0.959094482421875,-0.989166259765625,-0.1532745361328125,0.1050567626953125
1761392264708176600,0.9691767578125,-1.0057830810546875,-0.1516876220703125,0.1130218505859375
1761392264718259500,0.979259521484375,-1.0013580322265625,-0.1692657470703125,0.12811279296875
1761392264728341500,0.989341552734375,-0.9970855712890625,-0.1877288818359375,0.1406097412109375
1761392264738423600,0.999423583984375,-0.9919281005859375,-0.20111083984375,0.1524505615234375
1761392264748505600,1.009505615234375,-1.008392333984375,-0.209320068359375,0.153961181640625
1761392264758587600,1.019587646484375,-0.9740447998046875,-0.224365234375,0.1494140625
1761392264768669700,1.029669677734375,-0.9790802001953125,-0.21466064453125,0.1399688720703125
1761392264778751500,1.03975146484375,-0.9509429931640625,-0.186767578125,0.1208648681640625
1761392264788833500,1.04983349609375,-0.9198455810546875,-0.1731109619140625,0.095489501953125
1761392264798916600,1.05991650390625,-0.9366912841796875,-0.179473876953125,0.082000732421875
1761392264808998400,1.069998291015625,-0.9463043212890625,-0.1998138427734375,0.0646820068359375
1761392264819080400,1.08008056640625,-0.964324951171875,-0.208160400390625,0.048309326171875
1761392264829162200,1.090162353515625,-0.97613525390625,-0.1988983154296875,0.0275421142578125
1761392264839244300,1.100244384765625,-0.9711456298828125,-0.18682861328125,0.0020599365234375
1761392264849326300,1.110326416015625,-0.9642791748046875,-0.1748046875,-0.016815185546875
1761392264859408400,1.120408447265625,-0.9458160400390625,-0.17523193359375,-0.031890869140625
1761392264869491500,1.130491455078125,-0.9411773681640625,-0.1726837158203125,-0.0373992919921875
1761392264879573200,1.1405732421875,-0.952056884765625,-0.1614532470703125,-0.02117919921875
1761392264889655300,1.1506552734375,-0.9623870849609375,-0.173370361328125,-0.01806640625
1761392264899737300,1.1607373046875,-0.9744110107421875,-0.173858642578125,-0.0155487060546875
1761392264909819400,1.1708193359375,-0.9694061279296875,-0.1586151123046875,-0.012664794921875
1761392264919901400,1.1809013671875,-0.9687652587890625,-0.1611328125,-0.005279541015625
1761392264929983500,1.1909833984375,-0.9678955078125,-0.1702423095703125,0.00323486328125
1761392264940065300,1.201065185546875,-0.967254638671875,-0.164764404296875,0.0004425048828125
1761392264950148400,1.2111484375,-0.9665679931640625,-0.1571502685546875,-0.0081939697265625
1761392264960230400,1.22123046875,-0.9727630615234375,-0.150482177734375,-0.015289306640625
1761392264970312400,1.2313125,-0.9876708984375,-0.1488037109375,-0.039764404296875
1761392264980394200,1.241394287109375,-0.9799957275390625,-0.144134521484375,-0.0540313720703125
1761392264990476300,1.251476318359375,-0.9857940673828125,-0.1350250244140625,-0.0657501220703125
1761392265000558300,1.261558349609375,-0.9835205078125,-0.1434173583984375,-0.07684326171875
1761392265010640400,1.271640380859375,-0.978546142578125,-0.1540374755859375,-0.07415771484375
1761392265020723500,1.281723388671875,-0.97772216796875,-0.153594970703125,-0.073150634765625
1761392265030805200,1.29180517578125,-0.966033935546875,-0.156402587890625,-0.0767974853515625
1761392265040887300,1.30188720703125,-0.9652862548828125,-0.1605224609375,-0.084564208984375
1761392265050969300,1.31196923828125,-0.973663330078125,-0.163360595703125,-0.0872650146484375
1761392265061051400,1.322051513671875,-0.964935302734375,-0.16778564453125,-0.0853729248046875
1761392265071133400,1.332133544921875,-0.9630889892578125,-0.170562744140625,-0.07464599609375
1761392265081215500,1.342215576171875,-0.9615325927734375,-0.177520751953125,-0.048919677734375
1761392265091297300,1.35229736328125,-0.9558563232421875,-0.1891937255859375,-0.0233917236328125
1761392265101380400,1.36238037109375,-0.9591064453125,-0.19964599609375,-0.0204925537109375
1761392265111462400,1.37246240234375,-0.9453125,-0.204742431640625,-0.0047454833984375
1761392265121544400,1.38254443359375,-0.939788818359375,-0.2055511474609375,0.0197906494140625
1761392265131626200,1.392626220703125,-0.9355010986328125,-0.23712158203125,0.0334320068359375
1761392265141708300,1.402708251953125,-0.94635009765625,-0.2613677978515625,0.030792236328125
1761392265151790300,1.412790283203125,-0.9611663818359375,-0.2847442626953125,0.0116424560546875
1761392265161872400,1.422872314453125,-0.973968505859375,-0.3055267333984375,-0.0103302001953125
1761392265171955500,1.43295556640625,-0.99542236328125,-0.33013916015625,-0.0245819091796875
1761392265182037200,1.443037353515625,-1.0053558349609375,-0.3575897216796875,-0.022674560546875
1761392265192119300,1.453119384765625,-1.005523681640625,-0.3945770263671875,-0.0213470458984375
1761392265202201300,1.463201416015625,-1.012969970703125,-0.4384765625,-0.033355712890625
1761392265212283400,1.473283447265625,-1.033538818359375,-0.4840240478515625,-0.04736328125
1761392265222365400,1.483365478515625,-1.0550689697265625,-0.52490234375,-0.05950927734375
1761392265232447500,1.493447509765625,-1.0777130126953125,-0.56414794921875,-0.0652313232421875
1761392265242529300,1.503529296875,-1.0902252197265625,-0.6204986572265625,-0.050689697265625
1761392265252612400,1.5136123046875,-1.114288330078125,-0.6999359130859375,-0.032806396484375
1761392265262694400,1.5236943359375,-1.14385986328125,-0.7690277099609375,-0.0208282470703125
1761392265272776400,1.5337763671875,-1.18597412109375,-0.817108154296875,-0.0039520263671875
1761392265282858500,1.5438583984375,-1.20294189453125,-0.8639984130859375,0.0086212158203125
1761392265292940300,1.553940185546875,-1.18621826171875,-0.913360595703125,0.0124664306640625
1761392265303022300,1.564022216796875,-1.1493988037109375,-0.964202880859375,0.028961181640625
1761392265313104400,1.5741044921875,-1.11328125,-1.0164642333984375,0.061370849609375
1761392265323186400,1.5841865234375,-1.072601318359375,-1.0706024169921875,0.09234619140625
1761392265333269200,1.594269287109375,-1.0239410400390625,-1.115814208984375,0.116455078125
1761392265343351300,1.604351318359375,-0.9906463623046875,-1.148895263671875,0.1505126953125
1761392265353433300,1.614433349609375,-0.9948272705078125,-1.1506195068359375,0.2118988037109375
1761392265363515400,1.624515380859375,-1.051239013671875,-1.1465911865234375,0.3200531005859375
1761392265373597400,1.634597412109375,-1.126373291015625,-1.1849365234375,0.4530487060546875
1761392265383679500,1.644679443359375,-1.1380462646484375,-1.1916961669921875,0.5567474365234375
1761392265393761300,1.65476123046875,-1.103790283203125,-1.1458892822265625,0.6228790283203125
1761392265403843300,1.66484326171875,-1.058074951171875,-1.101806640625,0.69049072265625
1761392265413926400,1.674926513671875,-0.9818115234375,-1.081939697265625,0.7592010498046875
1761392265424008400,1.685008544921875,-1.0182342529296875,-1.0139923095703125,0.86962890625
1761392265434090500,1.695090576171875,-1.239044189453125,-0.9376220703125,1.01666259765625
1761392265444172300,1.70517236328125,-1.574371337890625,-0.8262176513671875,1.08642578125
1761392265454254300,1.71525439453125,-1.8378753662109375,-0.6196746826171875,1.0609588623046875
1761392265464336400,1.72533642578125,-2.0334625244140625,-0.4113922119140625,0.9331512451171875
1761392265474418400,1.73541845703125,-2.15557861328125,-0.1794891357421875,0.729949951171875
1761392265484500500,1.74550048828125,-2.1063690185546875,0.0247650146484375,0.454620361328125
1761392265494583300,1.755583251953125,-1.9101104736328125,0.1318817138671875,0.2427215576171875
1761392265504665300,1.765665283203125,-1.6514892578125,0.135772705078125,0.1255950927734375
1761392265514747400,1.775747314453125,-1.358062744140625,0.15411376953125,0.0652008056640625
1761392265524829400,1.785829345703125,-1.0896148681640625,0.1706695556640625,0.0176849365234375
1761392265534911500,1.795911376953125,-0.8683013916015625,0.1954345703125,-0.025726318359375
1761392265544993300,1.8059931640625,-0.693572998046875,0.28399658203125,-0.1177825927734375
1761392265555075300,1.816075439453125,-0.6108856201171875,0.431121826171875,-0.286376953125
1761392265565157400,1.826157470703125,-0.6042633056640625,0.5070648193359375,-0.4470977783203125
1761392265575240400,1.836240478515625,-0.6124420166015625,0.49908447265625,-0.5767669677734375
1761392265585322500,1.846322509765625,-0.6791534423828125,0.5012664794921875,-0.672882080078125
1761392265595404300,1.856404296875,-0.73858642578125,0.5327911376953125,-0.7641143798828125
1761392265605486300,1.866486328125,-0.7629547119140625,0.5680389404296875,-0.8038177490234375
1761392265615568400,1.876568359375,-0.7859039306640625,0.5458831787109375,-0.79083251953125
1761392265625650400,1.886650390625,-0.7484588623046875,0.5194091796875,-0.785369873046875
1761392265635732500,1.896732421875,-0.7315826416015625,0.4886932373046875,-0.79486083984375
1761392265645814500,1.906814453125,-0.6767578125,0.4269866943359375,-0.8181915283203125
1761392265655897300,1.9168974609375,-0.5709228515625,0.37677001953125,-0.8515472412109375
1761392265665979400,1.9269794921875,-0.4497222900390625,0.333892822265625,-0.8968353271484375
1761392265676061400,1.9370615234375,-0.3052825927734375,0.2783203125,-0.922821044921875
1761392265686143500,1.9471435546875,-0.191009521484375,0.211700439453125,-0.9208221435546875
1761392265696225300,1.957225341796875,-0.1544189453125,0.1226348876953125,-0.8796539306640625
1761392265706307300,1.967307373046875,-0.235748291015625,0.0324859619140625,-0.84716796875
1761392265716389400,1.977389404296875,-0.377349853515625,-0.0604095458984375,-0.851593017578125
1761392265726471400,1.987471435546875,-0.5092620849609375,-0.129180908203125,-0.9060821533203125
1761392265736554500,1.997554443359375,-0.5570831298828125,-0.1890869140625,-1.0064697265625
1761392265746636300,2.00763623046875,-0.4890289306640625,-0.309173583984375,-1.10430908203125
1761392265756718300,2.01771826171875,-0.4908599853515625,-0.443603515625,-1.165802001953125
1761392265766800400,2.02780029296875,-0.5219573974609375,-0.497406005859375,-1.2910003662109375
1761392265776882400,2.03788232421875,-0.5309906005859375,-0.37640380859375,-1.481536865234375
1761392265786964500,2.047964599609375,-0.3940582275390625,-0.2475738525390625,-1.66607666015625
1761392265797046500,2.058046630859375,-0.2640228271484375,-0.2544403076171875,-1.7224273681640625
1761392265807128300,2.06812841796875,-0.2007293701171875,-0.335052490234375,-1.6776885986328125
1761392265817211400,2.07821142578125,-0.2733001708984375,-0.507720947265625,-1.51806640625
1761392265827293400,2.08829345703125,-0.4945068359375,-0.7336273193359375,-1.4039764404296875
1761392265837375500,2.09837548828125,-0.778472900390625,-0.926177978515625,-1.427459716796875
1761392265847457500,2.10845751953125,-0.9024200439453125,-1.06634521484375,-1.6114959716796875
1761392265857539300,2.118539306640625,-0.9287872314453125,-1.1056060791015625,-1.8353271484375
1761392265867621400,2.128621337890625,-1.009674072265625,-1.1841278076171875,-1.89599609375
1761392265877703400,2.138703369140625,-0.9088897705078125,-1.3316497802734375,-1.6917724609375
1761392265887785500,2.148785400390625,-0.80523681640625,-1.51153564453125,-1.3052825927734375
1761392265897868300,2.158868408203125,-0.635284423828125,-1.7752838134765625,-0.876953125
1761392265907950300,2.168950439453125,-0.5244598388671875,-2.0480194091796875,-0.638275146484375
1761392265918032400,2.179032470703125,-0.5767822265625,-2.30694580078125,-0.63006591796875
1761392265928114400,2.189114501953125,-0.8553009033203125,-2.487396240234375,-0.726806640625
1761392265938196500,2.199196533203125,-1.2722625732421875,-2.5279083251953125,-0.8316650390625
1761392265948278500,2.209278564453125,-1.527984619140625,-2.4963531494140625,-1.053070068359375
1761392265958360300,2.2193603515625,-1.4077606201171875,-2.485443115234375,-1.3683319091796875
1761392265968442400,2.2294423828125,-1.0739898681640625,-2.5294342041015625,-1.4443511962890625
1761392265978525400,2.239525390625,-0.819244384765625,-2.7481842041015625,-1.1497344970703125
1761392265988607500,2.249607421875,-0.90875244140625,-2.8833160400390625,-0.69061279296875
1761392265998689500,2.259689453125,-1.4613800048828125,-2.8065032958984375,-0.250762939453125
1761392266008771300,2.269771240234375,-2.318206787109375,-2.584259033203125,0.075653076171875
1761392266018853400,2.279853271484375,-2.944061279296875,-2.2590789794921875,0.17987060546875
1761392266028935400,2.289935302734375,-3.0977783203125,-1.9202880859375,0.1415863037109375
1761392266039017500,2.300017578125,-2.9584503173828125,-1.698089599609375,-0.0406341552734375
1761392266049099500,2.310099609375,-2.7169647216796875,-1.49591064453125,-0.281036376953125
1761392266059182300,2.320182373046875,-2.5102081298828125,-1.2590484619140625,-0.4832763671875
1761392266069264400,2.330264404296875,-2.419342041015625,-1.055419921875,-0.5372772216796875
1761392266079346400,2.340346435546875,-2.4472198486328125,-0.8281707763671875,-0.482635498046875
1761392266089428500,2.350428466796875,-2.5750274658203125,-0.60345458984375,-0.4026031494140625
1761392266099510500,2.360510498046875,-2.7743988037109375,-0.380126953125,-0.4263916015625
1761392266109592300,2.37059228515625,-2.939544677734375,-0.1639556884765625,-0.5060882568359375
1761392266119674400,2.38067431640625,-3.018829345703125,0.0045013427734375,-0.583160400390625
1761392266129756400,2.39075634765625,-2.90771484375,0.1534423828125,-0.6507110595703125
1761392266139839500,2.400839599609375,-2.669097900390625,0.2317657470703125,-0.6481170654296875
1761392266149921500,2.410921630859375,-2.4295654296875,0.3275299072265625,-0.61358642578125
1761392266160003300,2.42100341796875,-2.204345703125,0.454559326171875,-0.5680389404296875
1761392266170085400,2.43108544921875,-2.010986328125,0.57598876953125,-0.56195068359375
1761392266180167400,2.44116748046875,-1.8394775390625,0.7297515869140625,-0.63153076171875
1761392266190249500,2.45124951171875,-1.641357421875,0.899993896484375,-0.73199462890625
1761392266200331500,2.46133154296875,-1.483154296875,1.055572509765625,-0.84698486328125
1761392266210413600,2.47141357421875,-1.37841796875,1.1605987548828125,-0.935577392578125
1761392266220495400,2.481495361328125,-1.28228759765625,1.2812957763671875,-1.0473175048828125
1761392266230578400,2.491578369140625,-1.1701812744140625,1.453857421875,-1.2130584716796875
1761392266240660500,2.501660400390625,-1.0146636962890625,1.6309051513671875,-1.397369384765625
1761392266250742500,2.511742431640625,-0.823089599609375,1.8090362548828125,-1.585113525390625
1761392266260824300,2.52182421875,-0.6588287353515625,1.878692626953125,-1.6760101318359375
1761392266270906400,2.53190625,-0.5359039306640625,1.805633544921875,-1.779205322265625
1761392266280988400,2.541988525390625,-0.3988189697265625,1.685943603515625,-1.8788909912109375
1761392266291070500,2.552070556640625,-0.36883544921875,1.5381927490234375,-2.028839111328125
1761392266301152500,2.562152587890625,-0.4315032958984375,1.4114227294921875,-2.317230224609375
1761392266311235300,2.5722353515625,-0.4647216796875,1.2521820068359375,-2.601593017578125
1761392266321317400,2.5823173828125,-0.4386749267578125,1.13372802734375,-2.8531341552734375
1761392266331399400,2.5923994140625,-0.3748321533203125,0.9990997314453125,-3.001983642578125
1761392266341481500,2.6024814453125,-0.180328369140625,0.768585205078125,-3.0686798095703125
1761392266351563500,2.6125634765625,-0.0045928955078125,0.4585723876953125,-2.911712646484375
1761392266361645600,2.6226455078125,-0.1452178955078125,0.07403564453125,-2.6204681396484375
1761392266371727400,2.632727294921875,-0.6484832763671875,-0.187164306640625,-2.385345458984375
1761392266381809400,2.642809326171875,-1.4326324462890625,-0.3758392333984375,-2.3199310302734375
1761392266391891500,2.652891357421875,-2.189666748046875,-0.6504058837890625,-2.4285736083984375
1761392266401974500,2.662974609375,-2.5765838623046875,-1.0428924560546875,-2.5860748291015625
1761392266412056300,2.673056396484375,-2.639739990234375,-1.5626373291015625,-2.6460418701171875
1761392266422138400,2.683138427734375,-2.5179901123046875,-2.1022491455078125,-2.64752197265625
1761392266432220400,2.693220458984375,-2.4796600341796875,-2.5304107666015625,-2.4809722900390625
1761392266442302500,2.703302490234375,-2.7095794677734375,-2.886932373046875,-2.2276458740234375
1761392266452384500,2.713384521484375,-2.932037353515625,-2.9763641357421875,-2.037994384765625
1761392266462466600,2.723466552734375,-3.1793212890625,-3.09375,-1.70843505859375
1761392266472548600,2.733548583984375,-3.364532470703125,-3.1143951416015625,-1.302337646484375
1761392266482631400,2.74363134765625,-3.4626007080078125,-2.946014404296875,-0.9339599609375
1761392266492713500,2.75371337890625,-3.3494720458984375,-2.669189453125,-0.63525390625
1761392266502795500,2.76379541015625,-3.0537872314453125,-2.417388916015625,-0.354248046875
1761392266512877600,2.773877685546875,-2.660491943359375,-2.1456298828125,-0.1194610595703125
1761392266522959400,2.78395947265625,-2.3886566162109375,-1.883270263671875,0.0600738525390625
1761392266533041400,2.79404150390625,-2.238616943359375,-1.526947021484375,0.1255950927734375
1761392266543123500,2.80412353515625,-2.13739013671875,-1.125335693359375,0.1573333740234375
1761392266553205500,2.81420556640625,-2.0772705078125,-0.7917633056640625,0.3059234619140625
1761392266563288600,2.82428857421875,-2.0780487060546875,-0.5011444091796875,0.5905609130859375
1761392266573370400,2.834370361328125,-2.1770477294921875,-0.2244415283203125,0.9136962890625
1761392266583452400,2.844452392578125,-2.415679931640625,0.0625762939453125,1.2335968017578125
1761392266593534500,2.854534423828125,-2.7347412109375,0.3206024169921875,1.4807891845703125
1761392266603616500,2.864616455078125,-2.8945159912109375,0.5240936279296875,1.5203857421875
1761392266613698600,2.874698486328125,-2.83416748046875,0.65679931640625,1.3380584716796875
1761392266623780600,2.884780517578125,-2.6539764404296875,0.73681640625,1.061981201171875
1761392266633862400,2.8948623046875,-2.5044708251953125,0.852874755859375,0.81085205078125
1761392266643944400,2.9049443359375,-2.52508544921875,1.0319671630859375,0.680999755859375
1761392266654026500,2.915026611328125,-2.592498779296875,1.2247314453125,0.5711212158203125
1761392266664109600,2.925109619140625,-2.4943084716796875,1.3883209228515625,0.483795166015625
1761392266674191400,2.93519140625,-2.3750762939453125,1.2796173095703125,0.5565032958984375
1761392266684273400,2.9452734375,-2.3245391845703125,1.073974609375,0.595428466796875
1761392266694355500,2.95535546875,-2.3041534423828125,1.2444000244140625,0.291717529296875
1761392266704437500,2.9654375,-2.32611083984375,1.5830230712890625,-0.127716064453125
1761392266714519600,2.97551953125,-2.4544677734375,1.6824951171875,-0.5146636962890625
1761392266724601600,2.9856015625,-2.5266265869140625,1.7011566162109375,-1.0168304443359375
1761392266734683400,2.995683349609375,-2.4650726318359375,1.643524169921875,-1.41949462890625
1761392266744765400,3.005765380859375,-2.177581787109375,1.463531494140625,-1.5465850830078125
1761392266754848500,3.0158486328125,-1.7823333740234375,1.3306732177734375,-1.5847015380859375
1761392266764930600,3.0259306640625,-1.46392822265625,1.2978057861328125,-1.6780242919921875
1761392266775012600,3.0360126953125,-1.2761383056640625,1.20654296875,-1.7506561279296875
1761392266785094400,3.046094482421875,-1.1662445068359375,1.110260009765625,-1.8363800048828125
1761392266795176400,3.056176513671875,-1.00885009765625,1.024169921875,-1.9446258544921875
1761392266805258500,3.066258544921875,-0.824127197265625,0.92437744140625,-2.035125732421875
1761392266815341600,3.076341552734375,-0.60003662109375,0.8681488037109375,-2.1065216064453125
1761392266825423400,3.08642333984375,-0.3976287841796875,0.838348388671875,-2.143280029296875
1761392266835506400,3.09650634765625,-0.227935791015625,0.8203277587890625,-2.1707305908203125
1761392266845588500,3.10658837890625,-0.0991058349609375,0.730712890625,-2.1903076171875
1761392266855670500,3.11667041015625,0.01275634765625,0.61444091796875,-2.245025634765625
1761392266865752600,3.126752685546875,0.1993865966796875,0.51788330078125,-2.317962646484375
1761392266875834400,3.13683447265625,0.3802947998046875,0.42724609375,-2.344635009765625
1761392266885916400,3.14691650390625,0.404510498046875,0.3098297119140625,-2.3162841796875
1761392266895998500,3.15699853515625,0.2627105712890625,0.227142333984375,-2.3155975341796875
1761392266906080500,3.16708056640625,0.028533935546875,0.1624298095703125,-2.35595703125
1761392266916162300,3.177162353515625,-0.2377471923828125,0.0425872802734375,-2.4132843017578125
1761392266926244400,3.187244384765625,-0.3932037353515625,-0.0312957763671875,-2.4789581298828125
1761392266936327400,3.197327392578125,-0.341766357421875,-0.0619964599609375,-2.51214599609375
1761392266946409500,3.207409423828125,-0.245086669921875,-0.208038330078125,-2.43194580078125
1761392266956491500,3.217491455078125,-0.1871185302734375,-0.2925262451171875,-2.2836456298828125
1761392266966573600,3.227573486328125,-0.3297271728515625,-0.4863433837890625,-2.033233642578125
1761392266976655400,3.2376552734375,-0.8514251708984375,-0.723724365234375,-1.8052825927734375
1761392266986737200,3.247737060546875,-1.6561126708984375,-0.8262481689453125,-1.7413177490234375
1761392266996819200,3.257819091796875,-2.5319061279296875,-0.884063720703125,-1.7764739990234375
1761392267006901200,3.2679013671875,-3.2329254150390625,-1.006439208984375,-1.7848052978515625
1761392267016983300,3.2779833984375,-3.55999755859375,-1.1660003662109375,-1.7386474609375
1761392267027066400,3.28806640625,-3.4670257568359375,-1.346405029296875,-1.5307769775390625
1761392267037148400,3.2981484375,-3.25970458984375,-1.6258697509765625,-1.1298065185546875
1761392267047230500,3.30823046875,-3.0113067626953125,-1.8491668701171875,-0.7248992919921875
1761392267057312500,3.3183125,-2.8246307373046875,-2.0119476318359375,-0.45977783203125
1761392267067394300,3.328394287109375,-2.657867431640625,-2.1645355224609375,-0.3672637939453125
1761392267077476400,3.338476318359375,-2.498077392578125,-2.199798583984375,-0.36834716796875
1761392267087558100,3.34855810546875,-2.354278564453125,-2.141265869140625,-0.3198699951171875
1761392267097640200,3.35864013671875,-2.1839599609375,-2.05572509765625,-0.174713134765625
1761392267107722200,3.36872216796875,-2.0340118408203125,-2.012603759765625,0.0091705322265625
1761392267117805600,3.3788056640625,-1.9261322021484375,-1.9512481689453125,0.1378021240234375
1761392267127887400,3.388887451171875,-1.8187103271484375,-1.807647705078125,0.1825103759765625
1761392267137969200,3.39896923828125,-1.6814117431640625,-1.6527252197265625,0.1343841552734375
1761392267148051200,3.40905126953125,-1.474029541015625,-1.4537811279296875,0.0140380859375
1761392267158133200,3.41913330078125,-1.3307037353515625,-1.2059783935546875,-0.144287109375
1761392267168215300,3.42921533203125,-1.31512451171875,-0.9088897705078125,-0.2956390380859375
1761392267178297300,3.43929736328125,-1.410430908203125,-0.584564208984375,-0.3399658203125
1761392267188379400,3.44937939453125,-1.606170654296875,-0.267425537109375,-0.2192840576171875
1761392267198461200,3.459461181640625,-1.8005523681640625,-0.0371551513671875,0.0252685546875
1761392267208543200,3.469543212890625,-1.951995849609375,0.16290283203125,0.2299346923828125
1761392267218626300,3.479626220703125,-2.0259552001953125,0.36041259765625,0.2909698486328125
1761392267228708400,3.489708251953125,-2.0693359375,0.5496978759765625,0.273284912109375
1761392267238790400,3.499790283203125,-2.0377960205078125,0.7147216796875,0.2280426025390625
1761392267248872200,3.5098720703125,-1.88458251953125,0.8311767578125,0.214202880859375
1761392267258954200,3.519954345703125,-1.6286163330078125,0.858367919921875,0.2643890380859375
1761392267269036300,3.530036376953125,-1.2288970947265625,0.8350677490234375,0.3609619140625
1761392267279118300,3.540118408203125,-0.97296142578125,0.852081298828125,0.52728271484375
1761392267289200400,3.550200439453125,-0.947021484375,0.8987884521484375,0.78009033203125
1761392267299282400,3.560282470703125,-1.1380462646484375,1.2066802978515625,0.8760833740234375
1761392267309365200,3.570365234375,-1.5271453857421875,1.63232421875,0.6568145751953125
1761392267319447300,3.580447265625,-1.971893310546875,1.866241455078125,0.274749755859375
1761392267329529300,3.590529296875,-2.3504486083984375,1.9885711669921875,-0.28387451171875
1761392267339611400,3.600611328125,-2.376007080078125,2.1070556640625,-0.9461517333984375
1761392267349693200,3.610693115234375,-1.958465576171875,2.0650177001953125,-1.446685791015625
1761392267359775200,3.620775146484375,-1.347930908203125,1.912811279296875,-1.7264556884765625
1761392267369857300,3.630857177734375,-0.850830078125,1.86688232421875,-1.94952392578125
1761392267379939300,3.640939208984375,-0.6243743896484375,1.8227386474609375,-2.08380126953125
1761392267390021400,3.651021484375,-0.570343017578125,1.7327880859375,-2.1360321044921875
1761392267400104200,3.661104248046875,-0.5134124755859375,1.6224822998046875,-2.1269073486328125
1761392267410186200,3.671186279296875,-0.401702880859375,1.4369964599609375,-2.06268310546875
1761392267420268300,3.681268310546875,-0.349334716796875,1.1495513916015625,-2.0296783447265625
1761392267430350300,3.691350341796875,-0.3426361083984375,0.826263427734375,-2.1501312255859375
1761392267440432400,3.701432373046875,-0.300018310546875,0.6160430908203125,-2.437652587890625
1761392267450514400,3.711514404296875,-0.1623687744140625,0.3777923583984375,-2.7217864990234375
1761392267460596200,3.72159619140625,0.106689453125,0.249114990234375,-2.8067474365234375
1761392267470678300,3.73167822265625,0.4139556884765625,0.2378692626953125,-2.6880950927734375
1761392267480760300,3.74176025390625,0.5226593017578125,0.319854736328125,-2.48992919921875
1761392267490843400,3.751843505859375,0.28228759765625,0.4664154052734375,-2.277557373046875
1761392267500925200,3.76192529296875,-0.2829437255859375,0.499053955078125,-2.1798248291015625
1761392267511007200,3.77200732421875,-0.9167022705078125,0.5073089599609375,-2.2583160400390625
1761392267521089300,3.78208935546875,-1.51507568359375,0.4380035400390625,-2.4360198974609375
1761392267531171300,3.79217138671875,-1.934478759765625,0.38238525390625,-2.6208648681640625
1761392267541253400,3.80225341796875,-2.0091094970703125,0.38970947265625,-2.760467529296875
1761392267551335400,3.81233544921875,-1.81103515625,0.4455413818359375,-2.7386627197265625
1761392267561417200,3.822417236328125,-1.7377166748046875,0.41278076171875,-2.4582672119140625
1761392267571499300,3.832499267578125,-1.94830322265625,0.3429107666015625,-2.1757354736328125
1761392267581581300,3.842581298828125,-2.6058502197265625,0.3514862060546875,-1.9693756103515625
1761392267591664400,3.852664306640625,-3.589324951171875,0.4041290283203125,-1.799560546875
1761392267601746400,3.862746337890625,-4.4907379150390625,0.386260986328125,-1.575225830078125
1761392267611828200,3.872828125,-4.967193603515625,0.258453369140625,-1.2619781494140625
1761392267621910300,3.88291015625,-4.9854736328125,0.053253173828125,-0.9336090087890625
1761392267631992300,3.892992431640625,-4.7412872314453125,-0.25225830078125,-0.565887451171875
1761392267642074400,3.903074462890625,-4.4048004150390625,-0.4967193603515625,-0.1520843505859375
1761392267652156400,3.913156494140625,-4.207275390625,-0.6295166015625,0.30035400390625
1761392267662238500,3.923238525390625,-4.2098236083984375,-0.559661865234375,0.7717132568359375
1761392267672320300,3.9333203125,-4.1491851806640625,-0.3120880126953125,1.1466827392578125
1761392267682402300,3.94340234375,-3.94879150390625,-0.0444793701171875,1.4531097412109375
1761392267692485400,3.9534853515625,-3.6462249755859375,0.1639556884765625,1.6019744873046875
1761392267702567400,3.9635673828125,-3.247283935546875,0.31683349609375,1.5947418212890625
1761392267712649500,3.9736494140625,-2.833526611328125,0.3984832763671875,1.5289154052734375
1761392267722731300,3.983731201171875,-2.4006195068359375,0.45318603515625,1.3612060546875
1761392267732812300,3.993812255859375,-1.9593505859375,0.51373291015625,1.1099853515625
1761392267742894300,4.003894287109375,-1.51727294921875,0.5353546142578125,0.880218505859375
1761392267752976400,4.013976318359375,-1.12506103515625,0.5637054443359375,0.701873779296875
1761392267763058400,4.024058349609375,-0.844146728515625,0.6076202392578125,0.5691680908203125
1761392267773141500,4.0341416015625,-0.62799072265625,0.6623992919921875,0.4568328857421875
1761392267783223300,4.044223388671875,-0.4009857177734375,0.8280487060546875,0.325958251953125
1761392267793305300,4.054305419921875,-0.17022705078125,1.017547607421875,0.28143310546875
1761392267803387400,4.064387451171875,0.0801544189453125,1.1106414794921875,0.3046417236328125
1761392267813469400,4.074469482421875,0.3216094970703125,1.1382598876953125,0.2939300537109375
1761392267823554800,4.084554931640625,0.4909210205078125,1.1478424072265625,0.23748779296875
1761392267833636900,4.094636962890625,0.538818359375,1.2641754150390625,0.1691131591796875
1761392267843718700,4.10471875,0.3733062744140625,1.4651031494140625,0.1585845947265625
1761392267853800700,4.11480078125,0.0507049560546875,1.7266387939453125,0.11083984375
1761392267863883800,4.1248837890625,-0.196044921875,2.0518646240234375,-0.1216278076171875
1761392267873965800,4.1349658203125,-0.366180419921875,2.45684814453125,-0.5923004150390625
1761392267884048000,4.1450478515625,-0.5207061767578125,2.4853057861328125,-1.0492095947265625
1761392267894129700,4.155129638671875,-0.6133270263671875,2.4758148193359375,-1.5050201416015625
1761392267904211700,4.165211669921875,-0.64276123046875,2.359375,-1.81121826171875
1761392267914293800,4.175293701171875,-0.715911865234375,2.062591552734375,-1.9458160400390625
1761392267924375800,4.185375732421875,-0.8089447021484375,1.84393310546875,-2.0639190673828125
1761392267934457900,4.195457763671875,-0.9657135009765625,1.6261444091796875,-2.1402740478515625
1761392267944540000,4.205539794921875,-1.2125091552734375,1.398681640625,-2.172515869140625
1761392267954621700,4.21562158203125,-1.4213409423828125,1.1173553466796875,-2.1138763427734375
1761392267964704800,4.225704833984375,-1.4499359130859375,0.805938720703125,-2.0082855224609375
1761392267974786800,4.235786865234375,-1.350921630859375,0.5354156494140625,-1.91461181640625
1761392267984868900,4.245868896484375,-1.2887420654296875,0.2652435302734375,-1.8070526123046875
1761392267994950700,4.25595068359375,-1.3411102294921875,0.101806640625,-1.7646636962890625
1761392268005032700,4.26603271484375,-1.485107421875,0.0518035888671875,-1.8603057861328125
1761392268015114800,4.27611474609375,-1.6216583251953125,0.03692626953125,-1.9857635498046875
1761392268025196800,4.28619677734375,-1.721160888671875,-0.0251617431640625,-1.991790771484375
1761392268035278800,4.29627880859375,-1.8130645751953125,-0.1291046142578125,-1.8253021240234375
1761392268045361000,4.30636083984375,-1.9976654052734375,-0.174896240234375,-1.56781005859375
1761392268055442700,4.316442626953125,-2.3477935791015625,-0.16107177734375,-1.3184356689453125
1761392268065525800,4.32652587890625,-2.7938995361328125,-0.096038818359375,-1.1133880615234375
1761392268075607800,4.33660791015625,-3.1181182861328125,0.1255645751953125,-0.90509033203125
1761392268085689900,4.34668994140625,-3.375244140625,0.171875,-0.703033447265625
1761392268095772000,4.35677197265625,-3.4896240234375,0.104461669921875,-0.5616912841796875
1761392268105853700,4.366853759765625,-3.4439239501953125,-0.023773193359375,-0.38543701171875
1761392268115935700,4.376935791015625,-3.19219970703125,-0.224945068359375,-0.08935546875
1761392268126017800,4.387017822265625,-2.9541168212890625,-0.490142822265625,0.297515869140625
1761392268136099800,4.397099853515625,-2.760986328125,-0.7331085205078125,0.6570281982421875
1761392268146182000,4.407181884765625,-2.6959075927734375,-0.8268280029296875,0.7820281982421875
1761392268156264000,4.417263916015625,-2.791107177734375,-0.8608551025390625,0.75823974609375
1761392268166346800,4.4273466796875,-2.8004913330078125,-0.8331146240234375,0.6486968994140625
1761392268176428800,4.4374287109375,-2.7519989013671875,-0.926422119140625,0.57025146484375
1761392268186510800,4.4475107421875,-2.900482177734375,-1.0312957763671875,0.5743255615234375
1761392268196593000,4.457593017578125,-3.2700347900390625,-0.9264068603515625,0.5283355712890625
1761392268206674700,4.4676748046875,-3.6557464599609375,-0.6808013916015625,0.45623779296875
1761392268216756700,4.4777568359375,-3.8050994873046875,-0.4118194580078125,0.4806976318359375
1761392268226838800,4.4878388671875,-3.59332275390625,-0.2078399658203125,0.62933349609375
1761392268236920800,4.4979208984375,-3.1826019287109375,-0.158111572265625,0.8158416748046875
1761392268247003000,4.5080029296875,-2.7489013671875,-0.15484619140625,0.8872222900390625
1761392268257085000,4.5180849609375,-2.3984527587890625,-0.11859130859375,0.81610107421875
1761392268267167700,4.528167724609375,-2.103179931640625,-0.039398193359375,0.6810150146484375
1761392268277249800,4.538249755859375,-1.82659912109375,0.0393218994140625,0.563018798828125
1761392268287331800,4.548331787109375,-1.5622711181640625,0.1109771728515625,0.4865570068359375
1761392268297414000,4.558413818359375,-1.329071044921875,0.1923828125,0.445404052734375
1761392268307496000,4.568495849609375,-1.115631103515625,0.2587432861328125,0.4473114013671875
1761392268317577700,4.57857763671875,-0.8892059326171875,0.346466064453125,0.4778289794921875
1761392268327660800,4.588660888671875,-0.6272125244140625,0.42913818359375,0.540771484375
1761392268337742800,4.598742919921875,-0.390380859375,0.5389862060546875,0.564544677734375
1761392268347825000,4.608824951171875,-0.204864501953125,0.646759033203125,0.536773681640625
1761392268357907000,4.618906982421875,-0.0660552978515625,0.79290771484375,0.4648590087890625
1761392268367988700,4.62898876953125,0.0210723876953125,1.0176239013671875,0.3863372802734375
1761392268378070800,4.63907080078125,-0.00177001953125,1.1924896240234375,0.34942626953125
1761392268388152800,4.64915283203125,-0.119384765625,1.3172454833984375,0.322723388671875
1761392268398235000,4.65923486328125,-0.2704620361328125,1.44964599609375,0.247406005859375
1761392268408317700,4.669317626953125,-0.3733673095703125,1.586700439453125,0.088897705078125
1761392268418399700,4.679399658203125,-0.42376708984375,1.8143157958984375,-0.1937103271484375
1761392268428481800,4.689481689453125,-0.4550933837890625,2.0322265625,-0.4765167236328125
1761392268438563800,4.699563720703125,-0.4303436279296875,2.1230316162109375,-0.718475341796875
1761392268448646000,4.70964599609375,-0.35699462890625,2.1500396728515625,-0.913421630859375
1761392268458728000,4.71972802734375,-0.3342132568359375,2.070556640625,-1.0267486572265625
1761392268468809700,4.729809814453125,-0.3628082275390625,1.987396240234375,-1.1890869140625
1761392268478891800,4.739891845703125,-0.5529022216796875,1.91668701171875,-1.44134521484375
1761392268488973800,4.749973876953125,-0.760040283203125,1.7554779052734375,-1.767913818359375
1761392268499055900,4.760055908203125,-0.831329345703125,1.516204833984375,-2.09442138671875
1761392268509139000,4.770138916015625,-0.7270355224609375,1.28839111328125,-2.4053802490234375
1761392268519220700,4.780220703125,-0.506103515625,1.066497802734375,-2.55572509765625
1761392268529302800,4.790302734375,-0.4502410888671875,0.6834869384765625,-2.4450836181640625
1761392268539384800,4.800384765625,-0.5868682861328125,0.2457733154296875,-2.2937164306640625
1761392268549467000,4.810466796875,-0.953155517578125,-0.0625762939453125,-2.2538909912109375
1761392268559549000,4.820548828125,-1.4077606201171875,-0.351226806640625,-2.214874267578125
1761392268569631000,4.830630859375,-1.6381683349609375,-0.66943359375,-2.1915740966796875
1761392268579712500,4.84071240234375,-1.545196533203125,-0.8959808349609375,-2.157257080078125
1761392268589795800,4.8507958984375,-1.374298095703125,-1.1805267333984375,-2.075347900390625
1761392268599878000,4.8608779296875,-1.539276123046875,-1.586212158203125,-1.947662353515625
1761392268609960000,4.8709599609375,-2.163177490234375,-1.920989990234375,-1.850799560546875
1761392268620041700,4.881041748046875,-3.0810394287109375,-1.910308837890625,-1.9571990966796875
1761392268630123800,4.891123779296875,-3.9549102783203125,-1.5938262939453125,-2.1435089111328125
1761392268640205800,4.901205810546875,-4.4304351806640625,-1.42022705078125,-2.1934051513671875
1761392268650287600,4.91128759765625,-4.2914276123046875,-1.5389556884765625,-1.9814453125
1761392268660369700,4.92136962890625,-4.1157379150390625,-1.7402191162109375,-1.4376983642578125
1761392268670451700,4.93145166015625,-4.14239501953125,-1.705780029296875,-0.7365875244140625
1761392268680533800,4.94153369140625,-4.087921142578125,-1.571136474609375,0.0284271240234375
1761392268690616800,4.951616943359375,-3.7737579345703125,-1.6179656982421875,0.8081512451171875
1761392268700699000,4.961698974609375,-3.2873687744140625,-1.6436004638671875,1.3385009765625
1761392268710781000,4.971781005859375,-2.800445556640625,-1.5384979248046875,1.5431976318359375
1761392268720862700,4.98186279296875,-2.41094970703125,-1.368438720703125,1.5281524658203125
1761392268730944500,4.991944580078125,-2.1267547607421875,-1.148529052734375,1.406463623046875
1761392268741026600,5.002026611328125,-1.9842529296875,-0.868316650390625,1.2058258056640625
1761392268751108600,5.012108642578125,-1.9930572509765625,-0.51544189453125,0.9038543701171875
1761392268761190700,5.022190673828125,-1.981597900390625,-0.17779541015625,0.585540771484375
1761392268771272700,5.032272705078125,-1.9202728271484375,0.0647735595703125,0.396209716796875
1761392268781355800,5.042355712890625,-1.8237152099609375,0.2952117919921875,0.3409881591796875
1761392268791437600,5.0524375,-1.8490142822265625,0.4901885986328125,0.3733367919921875
1761392268801519600,5.06251953125,-1.9052276611328125,0.683990478515625,0.40118408203125
1761392268811601700,5.0726015625,-1.9024658203125,0.90765380859375,0.4050140380859375
1761392268821680600,5.0826806640625,-1.7861328125,1.107696533203125,0.3883209228515625
1761392268831762400,5.092762451171875,-1.55535888671875,1.274505615234375,0.3502044677734375
1761392268841844500,5.102844482421875,-1.2599639892578125,1.341217041015625,0.35589599609375
1761392268851926500,5.112926513671875,-0.9385986328125,1.3420257568359375,0.4100494384765625
1761392268862008600,5.123008544921875,-0.6365814208984375,1.3330841064453125,0.459320068359375
1761392268872091600,5.133091552734375,-0.4273529052734375,1.3882293701171875,0.497314453125
1761392268882173700,5.143173583984375,-0.3488922119140625,1.38165283203125,0.5410919189453125
1761392268892255500,5.15325537109375,-0.4427490234375,1.2962799072265625,0.5142974853515625
1761392268902337500,5.163337646484375,-0.674560546875,1.2605743408203125,0.3494720458984375
1761392268912419600,5.173419677734375,-0.8848876953125,1.2410888671875,0.0826263427734375
1761392268922501600,5.183501708984375,-0.988250732421875,1.2395782470703125,-0.2143707275390625
1761392268932583700,5.193583740234375,-0.941650390625,1.186004638671875,-0.4424591064453125
1761392268942665500,5.20366552734375,-0.8323211669921875,0.999603271484375,-0.5969390869140625
1761392268952747500,5.21374755859375,-0.739990234375,0.7312164306640625,-0.73004150390625
1761392268962830600,5.22383056640625,-0.64239501953125,0.5087432861328125,-0.9193267822265625
1761392268972912600,5.23391259765625,-0.5452728271484375,0.3568267822265625,-1.1890411376953125
1761392268982994400,5.243994384765625,-0.428924560546875,0.2244720458984375,-1.4174652099609375
1761392268993076500,5.254076416015625,-0.359710693359375,0.0273284912109375,-1.5356903076171875
1761392269003158500,5.264158447265625,-0.4236297607421875,-0.2430267333984375,-1.637115478515625
1761392269013240600,5.274240478515625,-0.6198577880859375,-0.4582977294921875,-1.7855224609375
1761392269023322600,5.284322509765625,-0.9033355712890625,-0.6362457275390625,-1.98748779296875
1761392269033404700,5.29440478515625,-1.06597900390625,-0.8347015380859375,-2.2470855712890625
1761392269043487500,5.304487548828125,-1.0090484619140625,-1.081146240234375,-2.357757568359375
1761392269053569500,5.314569580078125,-0.8148345947265625,-1.407745361328125,-2.268463134765625
1761392269063651600,5.324651611328125,-0.6300506591796875,-1.80157470703125,-2.0063934326171875
1761392269073733600,5.334733642578125,-0.6841278076171875,-2.160186767578125,-1.7139739990234375
1761392269083815700,5.344815673828125,-0.9579010009765625,-2.4194793701171875,-1.5124969482421875
1761392269093897500,5.3548974609375,-1.2427520751953125,-2.6214752197265625,-1.4033203125
1761392269103979500,5.3649794921875,-1.2456817626953125,-2.6957244873046875,-1.3350372314453125
1761392269114061600,5.3750615234375,-1.1173553466796875,-2.724365234375,-1.160247802734375
1761392269124144600,5.38514453125,-1.0692901611328125,-2.7672576904296875,-0.8477630615234375
1761392269134226700,5.395226806640625,-1.1712646484375,-2.72088623046875,-0.5163421630859375
1761392269144308500,5.40530859375,-1.434234619140625,-2.6414947509765625,-0.1071624755859375
1761392269154390500,5.415390625,-1.7044677734375,-2.4487457275390625,0.2922515869140625
1761392269164472600,5.42547265625,-1.9382171630859375,-2.150787353515625,0.6715850830078125
1761392269174554600,5.4355546875,-2.19061279296875,-1.86328125,1.0048675537109375
1761392269184636700,5.44563671875,-2.4531707763671875,-1.5590362548828125,1.116943359375
1761392269194718700,5.45571875,-2.59783935546875,-1.332427978515625,1.020416259765625
1761392269204800500,5.465800537109375,-2.609649658203125,-1.130584716796875,0.8708343505859375
1761392269214883600,5.475883544921875,-2.5870208740234375,-0.953582763671875,0.729156494140625
1761392269224965600,5.485965576171875,-2.65966796875,-0.8364105224609375,0.622467041015625
1761392269235047700,5.496047607421875,-2.7803802490234375,-0.750885009765625,0.5278472900390625
1761392269245129500,5.50612939453125,-2.810150146484375,-0.6684417724609375,0.403594970703125
1761392269255211500,5.51621142578125,-2.6341705322265625,-0.5605316162109375,0.2204437255859375
1761392269265293600,5.52629345703125,-2.373138427734375,-0.353485107421875,0.0397186279296875
1761392269275375600,5.536375732421875,-2.1439361572265625,-0.066070556640625,-0.113433837890625
1761392269285457700,5.546457763671875,-1.913482666015625,0.2608642578125,-0.215576171875
1761392269295540500,5.55654052734375,-1.7148590087890625,0.5149383544921875,-0.216094970703125
1761392269305622500,5.56662255859375,-1.530517578125,0.680145263671875,-0.1219635009765625
1761392269315704600,5.57670458984375,-1.287841796875,0.8411407470703125,-0.018341064453125
1761392269325786600,5.58678662109375,-1.0456085205078125,0.9448699951171875,0.09552001953125
1761392269335868700,5.59686865234375,-0.8469696044921875,0.9832916259765625,0.1878204345703125
1761392269345950700,5.60695068359375,-0.660308837890625,1.0445404052734375,0.24078369140625
1761392269356032500,5.617032470703125,-0.535308837890625,1.097564697265625,0.23138427734375
1761392269366114600,5.627114501953125,-0.50042724609375,1.1171112060546875,0.1579437255859375
1761392269376197600,5.63719775390625,-0.534698486328125,1.114471435546875,0.060333251953125
1761392269386279700,5.64727978515625,-0.5366668701171875,1.083343505859375,-0.0472259521484375
1761392269396361500,5.657361572265625,-0.51873779296875,1.07830810546875,-0.20513916015625
1761392269406443500,5.667443603515625,-0.449676513671875,1.0814208984375,-0.395263671875
1761392269416525600,5.677525634765625,-0.37353515625,1.025665283203125,-0.5298614501953125
1761392269426607600,5.687607666015625,-0.330596923828125,0.95806884765625,-0.6725616455078125
1761392269436689700,5.697689697265625,-0.3058013916015625,0.940704345703125,-0.8546905517578125
1761392269446771700,5.707771728515625,-0.3034515380859375,0.921173095703125,-0.96307373046875
1761392269456854500,5.7178544921875,-0.3586273193359375,0.8616485595703125,-1.0308380126953125
1761392269466936600,5.7279365234375,-0.3697052001953125,0.80322265625,-1.1053009033203125
1761392269477018600,5.7380185546875,-0.3970184326171875,0.75238037109375,-1.190643310546875
1761392269487100700,5.7481005859375,-0.4033203125,0.7335662841796875,-1.2848358154296875
1761392269497182700,5.7581826171875,-0.4311676025390625,0.663787841796875,-1.349212646484375
1761392269507264500,5.768264404296875,-0.520294189453125,0.599212646484375,-1.43463134765625
1761392269517346600,5.7783466796875,-0.673309326171875,0.485198974609375,-1.469024658203125
1761392269527429600,5.7884296875,-0.901519775390625,0.25689697265625,-1.44561767578125
1761392269537511700,5.79851171875,-1.246856689453125,0.0718536376953125,-1.5100860595703125
1761392269547593500,5.808593505859375,-1.7684326171875,-0.02886962890625,-1.647674560546875
1761392269557675500,5.818675537109375,-2.397552490234375,-0.1144866943359375,-1.7913665771484375
1761392269567757600,5.828757568359375,-2.95989990234375,-0.2308502197265625,-1.8919677734375
1761392269577839600,5.838839599609375,-3.3073272705078125,-0.4003448486328125,-1.90460205078125
1761392269587921700,5.848921630859375,-3.3189697265625,-0.6497802734375,-1.8363037109375
1761392269598003700,5.859003662109375,-3.134063720703125,-1.0211181640625,-1.67279052734375
1761392269608086500,5.86908642578125,-2.926971435546875,-1.3686065673828125,-1.4969635009765625
1761392269618168600,5.87916845703125,-2.7975311279296875,-1.627593994140625,-1.339324951171875
1761392269628250600,5.889250732421875,-2.720184326171875,-1.786346435546875,-1.2132415771484375
1761392269638332700,5.899332763671875,-2.6117095947265625,-1.8283538818359375,-1.0811767578125
1761392269648414700,5.909414794921875,-2.4528045654296875,-1.795318603515625,-0.912811279296875
1761392269658496500,5.91949658203125,-2.270111083984375,-1.7101898193359375,-0.750335693359375
1761392269668578600,5.92957861328125,-2.1176300048828125,-1.6076202392578125,-0.588470458984375
1761392269678661600,5.93966162109375,-1.958343505859375,-1.5121917724609375,-0.4140167236328125
1761392269688743700,5.94974365234375,-1.8174896240234375,-1.4572906494140625,-0.21099853515625
1761392269698825500,5.959825439453125,-1.672607421875,-1.4073638916015625,-0.04632568359375
1761392269708907500,5.969907470703125,-1.5319976806640625,-1.3458709716796875,0.100830078125
1761392269718989600,5.979989501953125,-1.4008026123046875,-1.263916015625,0.214263916015625
1761392269729071600,5.990071533203125,-1.286590576171875,-1.1536712646484375,0.2867431640625
1761392269739153700,6.000153564453125,-1.2330322265625,-1.0238189697265625,0.349395751953125
1761392269749236500,6.010236572265625,-1.2423248291015625,-0.8960418701171875,0.3897552490234375
1761392269759318500,6.020318603515625,-1.2981109619140625,-0.7605438232421875,0.4248199462890625
1761392269769400600,6.030400634765625,-1.348052978515625,-0.6205902099609375,0.458160400390625
1761392269779482600,6.040482666015625,-1.3361358642578125,-0.4989471435546875,0.4705963134765625
1761392269789564700,6.050564697265625,-1.312255859375,-0.3799896240234375,0.52294921875
1761392269799646700,6.060646728515625,-1.3768463134765625,-0.2916412353515625,0.6153717041015625
1761392269809728500,6.070728515625,-1.563201904296875,-0.1678009033203125,0.643463134765625
1761392269819809300,6.080809326171875,-1.7222747802734375,0.0333251953125,0.55340576171875
1761392269829891300,6.090891357421875,-1.7315521240234375,0.15228271484375,0.482025146484375
1761392269839974400,6.100974365234375,-1.707061767578125,0.0487060546875,0.5142669677734375
1761392269850056200,6.11105615234375,-1.680755615234375,-0.06597900390625,0.5559234619140625
1761392269860138200,6.12113818359375,-1.606842041015625,-0.0856781005859375,0.5110931396484375
1761392269870220300,6.13122021484375,-1.5701446533203125,-0.11358642578125,0.4128875732421875
1761392269880302000,6.141302001953125,-1.4534149169921875,-0.038116455078125,0.2942657470703125
1761392269890384100,6.151384033203125,-1.2487030029296875,0.12213134765625,0.186370849609375
1761392269900466200,6.161466064453125,-1.0584564208984375,0.34332275390625,0.0325164794921875
1761392269910549500,6.171549560546875,-0.94500732421875,0.6115875244140625,-0.0584259033203125
1761392269920631300,6.18163134765625,-0.9375,0.750457763671875,0.011566162109375
1761392269930713000,6.191713134765625,-1.0485076904296875,0.840576171875,0.1063385009765625
1761392269940795100,6.201795166015625,-1.1681060791015625,0.938751220703125,0.14825439453125
1761392269950877200,6.211877197265625,-1.2151031494140625,1.0322113037109375,0.0992889404296875
1761392269960959200,6.221959228515625,-1.1720733642578125,1.111541748046875,-0.0395965576171875
1761392269971041300,6.232041259765625,-1.114501953125,1.1316680908203125,-0.2199249267578125
1761392269981124400,6.242124267578125,-0.974151611328125,1.06817626953125,-0.4011688232421875
1761392269991206100,6.2522060546875,-0.830780029296875,1.0177764892578125,-0.6134490966796875
1761392270001288200,6.2622880859375,-0.7145843505859375,1.0135040283203125,-0.8291778564453125
1761392270011370200,6.272370361328125,-0.6439971923828125,1.029693603515625,-1.041015625
1761392270021452300,6.282452392578125,-0.6174163818359375,0.9958343505859375,-1.2068939208984375
1761392270031534000,6.2925341796875,-0.68023681640625,0.885711669921875,-1.34686279296875
1761392270041616100,6.3026162109375,-0.787567138671875,0.7509918212890625,-1.465118408203125
1761392270051699500,6.312699462890625,-0.851837158203125,0.5474853515625,-1.545196533203125
1761392270061781200,6.32278125,-0.7662200927734375,0.3343658447265625,-1.591461181640625
1761392270071863300,6.33286328125,-0.6589202880859375,0.1324310302734375,-1.5843048095703125
1761392270081945000,6.342945068359375,-0.672943115234375,-0.079376220703125,-1.631866455078125
1761392270092027100,6.353027099609375,-0.8270416259765625,-0.198577880859375,-1.7375030517578125
1761392270102109200,6.363109130859375,-1.014251708984375,-0.2994842529296875,-1.9079742431640625
1761392270112191200,6.373191162109375,-1.0728912353515625,-0.424835205078125,-2.1142120361328125
1761392270122274300,6.3832744140625,-0.9486236572265625,-0.539947509765625,-2.1938018798828125
1761392270132356400,6.3933564453125,-0.7236175537109375,-0.7878875732421875,-2.0786895751953125
1761392270142438100,6.403438232421875,-0.572296142578125,-1.1099395751953125,-1.8916778564453125
1761392270152520200,6.413520263671875,-0.759796142578125,-1.3348388671875,-1.7587890625
1761392270162602200,6.423602294921875,-1.35516357421875,-1.400421142578125,-1.69329833984375
1761392270172684300,6.433684326171875,-2.146331787109375,-1.4157562255859375,-1.64178466796875
1761392270182767400,6.443767333984375,-2.8279571533203125,-1.4216156005859375,-1.4818878173828125
1761392270192849400,6.453849365234375,-3.2210693359375,-1.4122772216796875,-1.260162353515625
1761392270202931500,6.463931396484375,-3.3265228271484375,-1.4364013671875,-1.00994873046875
1761392270213013200,6.47401318359375,-3.221954345703125,-1.5036163330078125,-0.7385101318359375
1761392270223095300,6.48409521484375,-3.1148834228515625,-1.5563507080078125,-0.5048980712890625
1761392270233177000,6.494177001953125,-3.0928802490234375,-1.580413818359375,-0.24774169921875
1761392270243259100,6.504259033203125,-3.0837554931640625,-1.51165771484375,-0.016265869140625
1761392270253341200,6.514341064453125,-3.0059661865234375,-1.3701171875,0.155487060546875
1761392270263424500,6.524424560546875,-2.8254852294921875,-1.2185516357421875,0.2918853759765625
1761392270273506300,6.53450634765625,-2.614654541015625,-1.0300750732421875,0.3933868408203125
1761392270283588000,6.544588134765625,-2.392791748046875,-0.8149871826171875,0.4647369384765625
1761392270293670100,6.554670166015625,-2.1691741943359375,-0.5917205810546875,0.567718505859375
1761392270303752200,6.564752197265625,-1.9348602294921875,-0.3936004638671875,0.71783447265625
1761392270313834200,6.574834228515625,-1.6830291748046875,-0.2287139892578125,0.8707427978515625
1761392270323917300,6.584917236328125,-1.4309539794921875,-0.10833740234375,0.9743499755859375
1761392270333999400,6.594999267578125,-1.202484130859375,0.00555419921875,1.0177001953125
1761392270344081400,6.605081298828125,-1.0874176025390625,0.128143310546875,1.0491943359375
1761392270354163200,6.6151630859375,-0.9944610595703125,0.237213134765625,1.0382537841796875
1761392270364245200,6.625245361328125,-0.91082763671875,0.3278350830078125,0.980499267578125
1761392270374327300,6.635327392578125,-0.81976318359375,0.3912200927734375,0.8636932373046875
1761392270384409000,6.6454091796875,-0.7150726318359375,0.4908447265625,0.6942901611328125
1761392270394492400,6.655492431640625,-0.53466796875,0.6483917236328125,0.495513916015625
1761392270404574500,6.665574462890625,-0.324554443359375,0.852630615234375,0.317626953125
1761392270414656500,6.675656494140625,-0.15802001953125,1.1245269775390625,0.1518707275390625
1761392270424738000,6.685738037109375,-0.02008056640625,1.416748046875,0.0351104736328125
1761392270434820000,6.695820068359375,0.0796356201171875,1.600311279296875,-0.0518035888671875
1761392270444902100,6.705902099609375,0.0771484375,1.778594970703125,-0.1702880859375
1761392270454984200,6.715984130859375,0.0584259033203125,1.889556884765625,-0.267059326171875
1761392270465067300,6.7260673828125,-0.0253448486328125,1.6941070556640625,-0.3352508544921875
1761392270475149300,6.7361494140625,-0.2314605712890625,1.526947021484375,-0.5232696533203125
1761392270485231400,6.7462314453125,-0.5041961669921875,1.5105438232421875,-0.794830322265625
1761392270495313200,6.756313232421875,-0.7260284423828125,1.4040985107421875,-1.014251708984375
1761392270505395200,6.766395263671875,-0.87078857421875,1.21240234375,-1.158355712890625
1761392270515477200,6.776477294921875,-0.9474945068359375,0.937408447265625,-1.216400146484375
1761392270525560300,6.786560302734375,-1.0163726806640625,0.599151611328125,-1.201904296875
1761392270535642400,6.796642333984375,-1.052581787109375,0.2673797607421875,-1.1543426513671875
1761392270545724400,6.806724365234375,-1.0417938232421875,-0.0196075439453125,-1.1180267333984375
1761392270555806500,6.816806396484375,-1.052459716796875,-0.250885009765625,-1.1085357666015625
1761392270565888500,6.826888427734375,-1.130950927734375,-0.483154296875,-1.1096343994140625
1761392270575970000,6.836969970703125,-1.236175537109375,-0.701507568359375,-1.1240081787109375
1761392270586053400,6.847053466796875,-1.2723388671875,-0.8140411376953125,-1.174560546875
1761392270596135400,6.857135498046875,-1.2810516357421875,-0.9206085205078125,-1.2042999267578125
1761392270606217500,6.867217529296875,-1.3571624755859375,-1.1507415771484375,-1.1470947265625
1761392270616299300,6.87729931640625,-1.5360260009765625,-1.3901214599609375,-1.0467987060546875
1761392270626381300,6.88738134765625,-1.775482177734375,-1.57122802734375,-0.900970458984375
1761392270636463400,6.89746337890625,-2.07958984375,-1.7320098876953125,-0.6869659423828125
1761392270646545200,6.907545166015625,-2.33905029296875,-1.8657073974609375,-0.4478759765625
1761392270656628500,6.91762841796875,-2.4420928955078125,-1.9252471923828125,-0.2554168701171875
1761392270666710300,6.927710205078125,-2.299346923828125,-1.95220947265625,-0.1138763427734375
1761392270676792300,6.937792236328125,-2.0163116455078125,-1.970733642578125,0.01837158203125
1761392270686874400,6.947874267578125,-1.7064056396484375,-1.9463043212890625,0.1515045166015625
1761392270696956400,6.957956298828125,-1.4785308837890625,-1.8310089111328125,0.3232879638671875
1761392270707038500,6.96803857421875,-1.3909912109375,-1.6672515869140625,0.5182952880859375
1761392270717121300,6.978121337890625,-1.311798095703125,-1.4354400634765625,0.6797027587890625
1761392270727203300,6.988203369140625,-1.3400115966796875,-1.2126312255859375,0.8191070556640625
1761392270737285400,6.998285400390625,-1.442169189453125,-0.995880126953125,0.8756866455078125
1761392270747367400,7.008367431640625,-1.5261688232421875,-0.7435455322265625,0.934844970703125
1761392270757449500,7.018449462890625,-1.6073150634765625,-0.55474853515625,1.0484619140625
1761392270767531500,7.028531494140625,-1.6672821044921875,-0.4227142333984375,1.16943359375
1761392270777613300,7.03861328125,-1.636322021484375,-0.408203125,1.30804443359375
1761392270787696400,7.0486962890625,-1.6262664794921875,-0.4196014404296875,1.3563232421875
1761392270797778400,7.0587783203125,-1.6679840087890625,-0.2972869873046875,1.1976470947265625
1761392270807860500,7.068860595703125,-1.719329833984375,-0.1138916015625,0.933685302734375
1761392270817946600,7.078946533203125,-1.63311767578125,0.14453125,0.645050048828125
1761392270828028700,7.089028564453125,-1.39697265625,0.384674072265625,0.3588714599609375
1761392270838110700,7.09911083984375,-1.180145263671875,0.501922607421875,0.1114044189453125
1761392270848193800,7.10919384765625,-1.033294677734375,0.5325775146484375,-0.1165924072265625
1761392270858275800,7.11927587890625,-0.964599609375,0.540924072265625,-0.343597412109375
1761392270868358000,7.12935791015625,-0.94329833984375,0.6220550537109375,-0.5801544189453125
1761392270878440000,7.13943994140625,-0.909454345703125,0.652801513671875,-0.7462310791015625
1761392270888521700,7.149521728515625,-0.82452392578125,0.5560302734375,-0.8295440673828125
1761392270898603800,7.159603759765625,-0.716339111328125,0.3867950439453125,-0.8473968505859375
1761392270908686800,7.169686767578125,-0.5816650390625,0.2150115966796875,-0.855010986328125
1761392270918769000,7.179768798828125,-0.419677734375,0.07513427734375,-0.8741455078125
1761392270928851000,7.189850830078125,-0.28936767578125,-0.087158203125,-0.879425048828125
1761392270938933000,7.19993310546875,-0.1872100830078125,-0.231781005859375,-0.858673095703125
1761392270949014800,7.210014892578125,-0.0841064453125,-0.408355712890625,-0.828857421875
1761392270959096600,7.2200966796875,-0.0209503173828125,-0.5921630859375,-0.765228271484375
1761392270969180000,7.230179931640625,0.0331268310546875,-0.78826904296875,-0.6493072509765625
1761392270979262000,7.240261962890625,0.0194854736328125,-0.9882354736328125,-0.5314483642578125
1761392270989344000,7.250343994140625,-0.1096649169921875,-1.091583251953125,-0.4120635986328125
1761392270999425800,7.26042578125,-0.2956390380859375,-1.1576995849609375,-0.292572021484375
1761392271009507800,7.2705078125,-0.4548797607421875,-1.2146759033203125,-0.1940765380859375
1761392271019590000,7.28058984375,-0.5222625732421875,-1.2061614990234375,-0.11175537109375
1761392271029673000,7.2906728515625,-0.542816162109375,-1.1444244384765625,-0.02911376953125
1761392271039754800,7.300754638671875,-0.5759429931640625,-1.076568603515625,0.0564727783203125
1761392271049836800,7.3108369140625,-0.5999603271484375,-1.013092041015625,0.174041748046875
1761392271059918800,7.3209189453125,-0.6094512939453125,-0.9597015380859375,0.301910400390625
1761392271070001000,7.3310009765625,-0.6208953857421875,-0.912261962890625,0.4004669189453125
1761392271080083000,7.3410830078125,-0.625396728515625,-0.807342529296875,0.48236083984375
1761392271090165800,7.351165771484375,-0.724853515625,-0.6689605712890625,0.622100830078125
1761392271100247800,7.361247802734375,-0.9482879638671875,-0.59149169921875,0.80877685546875
1761392271110329900,7.371329833984375,-1.1603546142578125,-0.5396881103515625,0.921539306640625
1761392271120412000,7.381411865234375,-1.2599334716796875,-0.460968017578125,0.90435791015625
1761392271130494000,7.391493896484375,-1.2574005126953125,-0.3804779052734375,0.7821502685546875
1761392271140576000,7.401575927734375,-1.218963623046875,-0.37139892578125,0.5991973876953125
1761392271150658800,7.411658935546875,-1.2044525146484375,-0.33050537109375,0.391082763671875
1761392271160740900,7.421740966796875,-1.2451324462890625,-0.257110595703125,0.2342529296875
1761392271170823000,7.431822998046875,-1.308135986328125,-0.2146453857421875,0.1735382080078125
1761392271180905000,7.441905029296875,-1.357391357421875,-0.2269744873046875,0.16156005859375
1761392271190986800,7.45198681640625,-1.2342681884765625,-0.2996673583984375,0.1365203857421875
1761392271201068800,7.46206884765625,-1.069183349609375,-0.403961181640625,0.0549468994140625
1761392271211152000,7.47215185546875,-1.02923583984375,-0.471160888671875,-0.2108001708984375
1761392271221234000,7.48223388671875,-1.0825347900390625,-0.417327880859375,-0.428985595703125
1761392271231316000,7.49231591796875,-1.2073974609375,-0.35797119140625,-0.5686187744140625
1761392271241397800,7.502397705078125,-1.15557861328125,-0.3771209716796875,-0.6553955078125
1761392271251479800,7.512479736328125,-1.0184783935546875,-0.446136474609375,-0.6821136474609375
1761392271261563000,7.52256298828125,-0.9446563720703125,-0.4562225341796875,-0.640106201171875
1761392271271645000,7.53264501953125,-0.86651611328125,-0.4618377685546875,-0.597930908203125
1761392271281726700,7.542726806640625,-0.75848388671875,-0.45721435546875,-0.536376953125
1761392271291808800,7.552808837890625,-0.7572021484375,-0.4268798828125,-0.465301513671875
1761392271301890800,7.562890869140625,-0.731903076171875,-0.430633544921875,-0.3967742919921875
1761392271311972900,7.572972900390625,-0.6142730712890625,-0.4374542236328125,-0.3464813232421875
1761392271322056000,7.583055908203125,-0.4904327392578125,-0.411407470703125,-0.331146240234375
1761392271332137700,7.5931376953125,-0.383514404296875,-0.3693695068359375,-0.33258056640625
1761392271342219800,7.6032197265625,-0.3411712646484375,-0.336639404296875,-0.349029541015625
1761392271352301800,7.6133017578125,-0.3253326416015625,-0.302215576171875,-0.37890625
1761392271362384000,7.6233837890625,-0.3670806884765625,-0.253692626953125,-0.39447021484375
1761392271372466000,7.6334658203125,-0.49755859375,-0.2005462646484375,-0.3869781494140625
1761392271382548700,7.643548828125,-0.5972900390625,-0.194915771484375,-0.3946380615234375
1761392271392630800,7.653630859375,-0.7178802490234375,-0.177032470703125,-0.4005889892578125
1761392271402712800,7.663712890625,-0.8810272216796875,-0.1334686279296875,-0.420135498046875
1761392271412795000,7.673794921875,-0.9015655517578125,-0.070281982421875,-0.444580078125
1761392271422877000,7.683876953125,-1.0203094482421875,-0.164215087890625,-0.36395263671875
1761392271432959700,7.693959716796875,-1.1287841796875,-0.2404022216796875,-0.248992919921875
1761392271443041800,7.704041748046875,-1.1356964111328125,-0.182403564453125,-0.1805877685546875
1761392271453123800,7.714123779296875,-1.132843017578125,-0.073974609375,-0.140350341796875
1761392271463206000,7.724205810546875,-1.2368316650390625,0.0791778564453125,-0.1349639892578125
1761392271473288000,7.734287841796875,-1.53607177734375,0.2561492919921875,-0.1024169921875
1761392271483369700,7.74436962890625,-1.8653564453125,0.3928680419921875,-0.0208282470703125
1761392271493452800,7.754452880859375,-1.8112945556640625,0.397186279296875,0.025238037109375
1761392271503534800,7.764534912109375,-1.5919342041015625,0.3173370361328125,0.0325775146484375
1761392271513617000,7.774616943359375,-1.465667724609375,0.242645263671875,-0.0503082275390625
1761392271523698700,7.78469873046875,-1.4451751708984375,0.1969146728515625,-0.1580047607421875
1761392271533780700,7.79478076171875,-1.4046173095703125,0.1113433837890625,-0.232391357421875
1761392271543863800,7.80486376953125,-1.3207550048828125,-0.0471649169921875,-0.2512054443359375
1761392271553945900,7.81494580078125,-1.1767425537109375,-0.2157440185546875,-0.2367706298828125
1761392271564028000,7.82502783203125,-1.1757049560546875,-0.3323974609375,-0.2157440185546875
1761392271574109700,7.835109619140625,-1.237884521484375,-0.397735595703125,-0.185150146484375
1761392271584191700,7.845191650390625,-1.100189208984375,-0.410491943359375,-0.1725921630859375
1761392271594273800,7.855273681640625,-0.9711456298828125,-0.4003753662109375,-0.182586669921875
1761392271604356900,7.86535693359375,-0.9276123046875,-0.3963165283203125,-0.1940460205078125
1761392271614438700,7.875438720703125,-0.9005889892578125,-0.392333984375,-0.180633544921875
1761392271624520700,7.885520751953125,-0.8373870849609375,-0.3821868896484375,-0.1610870361328125
1761392271634602800,7.895602783203125,-0.7951507568359375,-0.348419189453125,-0.16693115234375
1761392271644684800,7.905684814453125,-0.7634429931640625,-0.3130950927734375,-0.170654296875
1761392271654767900,7.915767822265625,-0.70098876953125,-0.258209228515625,-0.1632080078125
1761392271664849700,7.925849609375,-0.722869873046875,-0.130462646484375,-0.06292724609375
1761392271674931700,7.935931640625,-0.821014404296875,0.0348358154296875,0.124176025390625
1761392271685013800,7.946013671875,-1.325958251953125,-0.1551361083984375,0.15240478515625
1761392271695095800,7.956095703125,-1.1436767578125,-0.3287811279296875,0.093017578125
1761392271705177900,7.966177734375,-1.036865234375,-0.1674652099609375,0.012420654296875
1761392271715260700,7.9762607421875,-0.904632568359375,-0.035980224609375,-0.0776214599609375
1761392271725342700,7.9863427734375,-0.8111419677734375,-0.0537567138671875,-0.1032867431640625
1761392271735424800,7.9964248046875,-0.7055816650390625,-0.10198974609375,-0.1449432373046875
1761392271745506800,8.0065068359375,-0.69183349609375,-0.095947265625,-0.1787567138671875
