time,seconds_elapsed,z,y,x
1761392263810866700,0.07186669921875,-0.5139586329460144,0.19887661933898926,1.1244186162948608
1761392263820948500,0.081948486328125,-0.6440902948379517,0.19901269674301147,1.375250220298767
1761392263831030500,0.092030517578125,-0.7560767531394958,0.1931082010269165,1.5985374450683594
1761392263841113600,0.102113525390625,-0.8480410575866699,0.1203642264008522,1.7441412210464478
1761392263851195600,0.112195556640625,-0.9453350901603699,-0.09984057396650314,1.7279763221740723
1761392263861277700,0.122277587890625,-1.0139732360839844,-0.37701624631881714,1.600575566291809
1761392263871359500,0.132359375,-1.0333001613616943,-0.521760106086731,1.4530739784240723
1761392263881441500,0.142441650390625,-1.0228980779647827,-0.5597988367080688,1.2835946083068848
1761392263891523600,0.152523681640625,-1.0057283639907837,-0.5022303462028503,1.0871926546096802
1761392263901605600,0.162605712890625,-0.997171938419342,-0.431196928024292,0.8737152218818665
1761392263911688400,0.1726884765625,-0.9967175722122192,-0.3325539827346802,0.6636160612106323
1761392263921770500,0.1827705078125,-0.9863200783729553,-0.19934293627738953,0.4497511684894562
1761392263931852500,0.1928525390625,-0.9673357605934143,-0.02299346588551998,0.24596743285655975
1761392263941934600,0.2029345703125,-0.9312664270401001,0.1870279461145401,0.09677208214998245
1761392263952016600,0.2130166015625,-0.8674056529998779,0.4172403812408447,0.005233910400420427
1761392263962098700,0.2230986328125,-0.7857515811920166,0.5997851490974426,-0.017490310594439507
1761392263972180500,0.233180419921875,-0.7173743844032288,0.6442335844039917,0.024111460894346237
1761392263982263600,0.243263671875,-0.6899824142456055,0.5421045422554016,0.13177773356437683
1761392263992345600,0.253345703125,-0.7249417304992676,0.31972792744636536,0.28653615713119507
1761392264002427600,0.263427734375,-0.8032588958740234,0.021685054525732994,0.47323599457740784
1761392264012509700,0.273509765625,-0.901616096496582,-0.30358490347862244,0.6641889214515686
1761392264022591500,0.283591552734375,-0.9647314548492432,-0.599837601184845,0.8406571745872498
1761392264032673500,0.293673583984375,-1.0306854248046875,-0.9162464737892151,0.981109619140625
1761392264042755600,0.303755615234375,-1.1015305519104004,-1.203097939491272,1.0813086032867432
1761392264052838700,0.313838623046875,-1.1431632041931152,-1.3573570251464844,1.1491636037826538
1761392264062920400,0.32392041015625,-1.184342384338379,-1.410125732421875,1.163486123085022
1761392264073002500,0.33400244140625,-1.2198678255081177,-1.396181344985962,1.0724149942398071
1761392264083084500,0.34408447265625,-1.2292728424072266,-1.2671693563461304,0.8674091100692749
1761392264093166600,0.35416650390625,-1.2027759552001953,-1.0567880868911743,0.5885492563247681
1761392264103248600,0.36424853515625,-1.175162434577942,-0.7536357045173645,0.3138071894645691
1761392264113330700,0.37433056640625,-1.1722524166107178,-0.3802935481071472,0.09307694435119629
1761392264123413500,0.38441357421875,-1.1796914339065552,-0.018487397581338882,-0.04060202091932297
1761392264133495600,0.39449560546875,-1.2170957326889038,0.2321176528930664,-0.09033975005149841
1761392264143577600,0.40457763671875,-1.3322830200195312,0.1924184411764145,-0.16131591796875
1761392264153659600,0.41465966796875,-1.5332177877426147,-0.12704770267009735,-0.2715212404727936
1761392264163741700,0.42474169921875,-1.730315923690796,-0.5878885388374329,-0.37930232286453247
1761392264173823500,0.434823486328125,-1.881520390510559,-1.0114542245864868,-0.4688630998134613
1761392264183905500,0.444905517578125,-1.9953163862228394,-1.1509300470352173,-0.4886293411254883
1761392264193988600,0.454988525390625,-2.044631004333496,-0.900861918926239,-0.4075520634651184
1761392264204070700,0.465070556640625,-2.009223222732544,-0.5937190055847168,-0.31246840953826904
1761392264214152400,0.47515234375,-1.8700122833251953,-0.41312873363494873,-0.229362353682518
1761392264224234500,0.485234375,-1.6379539966583252,-0.25952398777008057,-0.16551971435546875
1761392264234316500,0.495316650390625,-1.3682589530944824,-0.025644643232226372,-0.10768571496009827
1761392264244398600,0.505398681640625,-1.1465201377868652,0.20590868592262268,-0.09557153284549713
1761392264254480600,0.515480712890625,-1.0781253576278687,0.24256470799446106,-0.1611233800649643
1761392264264562700,0.525562744140625,-1.1288317441940308,0.1407533884048462,-0.29861944913864136
1761392264274645500,0.5356455078125,-1.2483479976654053,0.09869648516178131,-0.4726570248603821
1761392264284727600,0.5457275390625,-1.3619307279586792,0.10149919241666794,-0.6396646499633789
1761392264294809600,0.5558095703125,-1.4066492319107056,0.08096515387296677,-0.7252607941627502
1761392264304891600,0.5658916015625,-1.3744326829910278,0.19939379394054413,-0.6384468078613281
1761392264314973700,0.5759736328125,-1.3289847373962402,0.45449161529541016,-0.4153450131416321
1761392264325055500,0.586055419921875,-1.3011829853057861,0.6812371611595154,-0.1614948809146881
1761392264335137500,0.596137451171875,-1.3016340732574463,0.677914023399353,0.02761271968483925
1761392264345220600,0.606220703125,-1.3069177865982056,0.5708988904953003,0.16163817048072815
1761392264355302700,0.616302734375,-1.2994824647903442,0.42876601219177246,0.28510019183158875
1761392264365384700,0.626384765625,-1.2630198001861572,0.226321280002594,0.40343374013900757
1761392264375466500,0.636466552734375,-1.2272125482559204,-0.042695797979831696,0.4834774434566498
1761392264385548500,0.646548583984375,-1.183443307876587,-0.3023854196071625,0.5204309225082397
1761392264395630600,0.656630615234375,-1.134342074394226,-0.5140731930732727,0.5038905739784241
1761392264405712600,0.666712646484375,-1.0663392543792725,-0.6207610368728638,0.4630584716796875
1761392264415795500,0.67679541015625,-0.9780123233795166,-0.6056017875671387,0.40675657987594604
1761392264425877500,0.68687744140625,-0.9201807379722595,-0.5395175218582153,0.3409717082977295
1761392264435959600,0.69695947265625,-0.9062020778656006,-0.41829073429107666,0.3037625551223755
1761392264446041600,0.70704150390625,-0.922453761100769,-0.30090072751045227,0.28667783737182617
1761392264456123600,0.71712353515625,-0.9513700604438782,-0.24794642627239227,0.24440787732601166
1761392264466205700,0.727205810546875,-0.9888634085655212,-0.273689866065979,0.1651143878698349
1761392264476287500,0.73728759765625,-1.0196588039398193,-0.3253703713417053,0.07089228183031082
1761392264486369500,0.74736962890625,-1.0360921621322632,-0.392904669046402,0.003751861397176981
1761392264496452600,0.75745263671875,-1.0408775806427002,-0.443932443857193,-0.030011162161827087
1761392264506534700,0.76753466796875,-1.0304014682769775,-0.49675676226615906,-0.037996917963027954
1761392264516616700,0.77761669921875,-0.9937252402305603,-0.5172953605651855,-0.036543894559144974
1761392264526698500,0.787698486328125,-0.9258567094802856,-0.4860468804836273,-0.056422796100378036
1761392264536780500,0.797780517578125,-0.8442545533180237,-0.4450501799583435,-0.10374423861503601
1761392264546862600,0.807862548828125,-0.7704548835754395,-0.35179266333580017,-0.15264227986335754
1761392264556944600,0.817944580078125,-0.7173323035240173,-0.23749138414859772,-0.17050676047801971
1761392264567027500,0.82802734375,-0.6756873726844788,-0.12225640565156937,-0.17591030895709991
1761392264577109500,0.838109619140625,-0.6604812741279602,-0.0442766509950161,-0.18356849253177643
1761392264587191600,0.848191650390625,-0.6651479005813599,-0.005848567932844162,-0.20995935797691345
1761392264597273600,0.858273681640625,-0.6835240125656128,-0.012308597564697266,-0.24164031445980072
1761392264607355600,0.868355712890625,-0.718102216720581,0.0012604740913957357,-0.25262773036956787
1761392264617437700,0.878437744140625,-0.759954035282135,0.03735402971506119,-0.23317493498325348
1761392264627519500,0.88851953125,-0.7921782732009888,0.08093000203371048,-0.19848060607910156
1761392264637602600,0.8986025390625,-0.8146442174911499,0.1356329321861267,-0.18166859447956085
1761392264647684600,0.9086845703125,-0.8166378140449524,0.18355758488178253,-0.2195669710636139
1761392264657766700,0.9187666015625,-0.8265320062637329,0.2268296778202057,-0.29294079542160034
1761392264667848700,0.9288486328125,-0.8535202145576477,0.2297474443912506,-0.38141393661499023
1761392264677930500,0.938930419921875,-0.9190132021903992,0.21763698756694794,-0.44600915908813477
1761392264688012500,0.949012451171875,-1.0348225831985474,0.23623676598072052,-0.4526172876358032
1761392264698094600,0.959094482421875,-1.1630098819732666,0.21445797383785248,-0.4307652413845062
1761392264708176600,0.9691767578125,-1.244588851928711,0.1929694563150406,-0.37814411520957947
1761392264718259500,0.979259521484375,-1.261000394821167,0.15341618657112122,-0.3092651665210724
1761392264728341500,0.989341552734375,-1.2157775163650513,0.09912418574094772,-0.24055029451847076
1761392264738423600,0.999423583984375,-1.0951991081237793,-0.1315614879131317,-0.10818213224411011
1761392264748505600,1.009505615234375,-0.9059333801269531,-0.4309130311012268,0.11506320536136627
1761392264758587600,1.019587646484375,-0.7829853296279907,-0.5982674360275269,0.20437657833099365
1761392264768669700,1.029669677734375,-0.759427547454834,-0.6759909987449646,0.16504567861557007
1761392264778751500,1.03975146484375,-0.7919865250587463,-0.6398417353630066,0.10311999171972275
1761392264788833500,1.04983349609375,-0.8302394151687622,-0.60887610912323,0.074643075466156
1761392264798916600,1.05991650390625,-0.8445536494255066,-0.6307433247566223,0.06570205092430115
1761392264808998400,1.069998291015625,-0.8456220626831055,-0.6935427784919739,0.04050854593515396
1761392264819080400,1.08008056640625,-0.8555607199668884,-0.753894031047821,0.009943444281816483
1761392264829162200,1.090162353515625,-0.8734998106956482,-0.7462430596351624,-0.009155947715044022
1761392264839244300,1.100244384765625,-0.8735818266868591,-0.6649513840675354,-0.0174450371414423
1761392264849326300,1.110326416015625,-0.838780403137207,-0.5012974739074707,-0.04301857203245163
1761392264859408400,1.120408447265625,-0.7517637610435486,-0.22637295722961426,-0.14215926826000214
1761392264869491500,1.130491455078125,-0.6811543107032776,-0.06955564022064209,-0.18288885056972504
1761392264879573200,1.1405732421875,-0.637870192527771,-0.026205237954854965,-0.17893646657466888
1761392264889655300,1.1506552734375,-0.6388012766838074,-0.0654517114162445,-0.18281827867031097
1761392264899737300,1.1607373046875,-0.6909299492835999,-0.14127510786056519,-0.18085819482803345
1761392264909819400,1.1708193359375,-0.7628891468048096,-0.24377112090587616,-0.1816590130329132
1761392264919901400,1.1809013671875,-0.8136579990386963,-0.37463513016700745,-0.18107791244983673
1761392264929983500,1.1909833984375,-0.8554491400718689,-0.5108020305633545,-0.16656607389450073
1761392264940065300,1.201065185546875,-0.8711415529251099,-0.6280457973480225,-0.12080924212932587
1761392264950148400,1.2111484375,-0.8797686100006104,-0.7285143733024597,-0.05565447360277176
1761392264960230400,1.22123046875,-0.8984522819519043,-0.8375380635261536,0.020506074652075768
1761392264970312400,1.2313125,-0.9141473770141602,-0.9053069949150085,0.11181601136922836
1761392264980394200,1.241394287109375,-0.9433656930923462,-0.9638288617134094,0.17717024683952332
1761392264990476300,1.251476318359375,-0.9717667102813721,-1.016386866569519,0.19765502214431763
1761392265000558300,1.261558349609375,-0.9808456897735596,-1.0419708490371704,0.1788957118988037
1761392265010640400,1.271640380859375,-0.9974116086959839,-1.0699462890625,0.10993661731481552
1761392265020723500,1.281723388671875,-1.0481536388397217,-1.0835843086242676,0.013892379589378834
1761392265030805200,1.29180517578125,-1.1060150861740112,-1.0581541061401367,-0.07900853455066681
1761392265040887300,1.30188720703125,-1.1581182479858398,-1.0318156480789185,-0.17035043239593506
1761392265050969300,1.31196923828125,-1.1744707822799683,-0.9573858976364136,-0.2341320663690567
1761392265061051400,1.322051513671875,-1.142066478729248,-0.853197455406189,-0.27323445677757263
1761392265071133400,1.332133544921875,-1.0837010145187378,-0.7785120010375977,-0.30680227279663086
1761392265081215500,1.342215576171875,-1.022719383239746,-0.7429822683334351,-0.3164815306663513
1761392265091297300,1.35229736328125,-0.9520012736320496,-0.7478225231170654,-0.28703176975250244
1761392265101380400,1.36238037109375,-0.8493366837501526,-0.7615529894828796,-0.2143935263156891
1761392265111462400,1.37246240234375,-0.8055364489555359,-0.7944819331169128,-0.1355098932981491
1761392265121544400,1.38254443359375,-0.7817205786705017,-0.8774127960205078,-0.05662865936756134
1761392265131626200,1.392626220703125,-0.7260474562644958,-0.993289053440094,0.014791995286941528
1761392265141708300,1.402708251953125,-0.6907685995101929,-1.1383394002914429,0.07196207344532013
1761392265151790300,1.412790283203125,-0.6983609795570374,-1.2331786155700684,0.14878201484680176
1761392265161872400,1.422872314453125,-0.7135095596313477,-1.2872974872589111,0.2243279069662094
1761392265171955500,1.43295556640625,-0.7255904674530029,-1.287074327468872,0.2820471227169037
1761392265182037200,1.443037353515625,-0.7178084850311279,-1.2246031761169434,0.3095780909061432
1761392265192119300,1.453119384765625,-0.6817077398300171,-1.1251293420791626,0.31102126836776733
1761392265202201300,1.463201416015625,-0.6484312415122986,-1.0413089990615845,0.3143012225627899
1761392265212283400,1.473283447265625,-0.6523224115371704,-0.9684587717056274,0.35751792788505554
1761392265222365400,1.483365478515625,-0.6931441426277161,-0.9232457876205444,0.4235629737377167
1761392265232447500,1.493447509765625,-0.7409603595733643,-0.906618058681488,0.47766509652137756
1761392265242529300,1.503529296875,-0.758747398853302,-0.9681717157363892,0.5340300798416138
1761392265252612400,1.5136123046875,-0.7156321406364441,-1.1161736249923706,0.6104926466941833
1761392265262694400,1.5236943359375,-0.6591970920562744,-1.334831714630127,0.7452688217163086
1761392265272776400,1.5337763671875,-0.6133028268814087,-1.5225435495376587,0.9717267751693726
1761392265282858500,1.5438583984375,-0.5827755331993103,-1.6299978494644165,1.25762939453125
1761392265292940300,1.553940185546875,-0.5547322034835815,-1.615755319595337,1.540813684463501
1761392265303022300,1.564022216796875,-0.5097527503967285,-1.566817045211792,1.7534250020980835
1761392265313104400,1.5741044921875,-0.42838597297668457,-1.5190050601959229,1.873931646347046
1761392265323186400,1.5841865234375,-0.3302881717681885,-1.4666600227355957,1.9286913871765137
1761392265333269200,1.594269287109375,-0.25343039631843567,-1.4109784364700317,1.9260390996932983
1761392265343351300,1.604351318359375,-0.18648944795131683,-1.4286242723464966,1.889959692955017
1761392265353433300,1.614433349609375,-0.14802248775959015,-1.551270604133606,1.957229733467102
1761392265363515400,1.624515380859375,-0.08907128870487213,-1.8013304471969604,2.2132885456085205
1761392265373597400,1.634597412109375,0.0436319001019001,-2.035599946975708,2.6717798709869385
1761392265383679500,1.644679443359375,0.1826172173023224,-2.1337637901306152,3.155045509338379
1761392265393761300,1.65476123046875,0.20919130742549896,-2.1114494800567627,3.44587779045105
1761392265403843300,1.66484326171875,0.06267563253641129,-1.7965476512908936,3.449239492416382
1761392265413926400,1.674926513671875,-0.171288400888443,-1.293678641319275,3.0961287021636963
1761392265424008400,1.685008544921875,-0.2780289649963379,-0.9424945712089539,2.531541585922241
1761392265434090500,1.695090576171875,-0.04790840297937393,-0.8914716243743896,2.0913772583007812
1761392265444172300,1.70517236328125,0.44504085183143616,-0.9813492894172668,2.0250930786132812
1761392265454254300,1.71525439453125,0.9990167021751404,-0.9632014632225037,2.3648200035095215
1761392265464336400,1.72533642578125,1.4684134721755981,-0.8536328673362732,3.0311708450317383
1761392265474418400,1.73541845703125,1.662401556968689,-0.5124251842498779,3.9049124717712402
1761392265484500500,1.74550048828125,1.6390568017959595,0.21929161250591278,4.622797012329102
1761392265494583300,1.755583251953125,1.6031478643417358,0.981711208820343,4.888561248779297
1761392265504665300,1.765665283203125,1.5903412103652954,1.627560019493103,4.805216312408447
1761392265514747400,1.775747314453125,1.5683139562606812,2.1281299591064453,4.492778778076172
1761392265524829400,1.785829345703125,1.5886099338531494,2.4643561840057373,3.9643821716308594
1761392265534911500,1.795911376953125,1.664270281791687,2.6849253177642822,3.2714693546295166
1761392265544993300,1.8059931640625,1.7774144411087036,2.817941427230835,2.481205463409424
1761392265555075300,1.816075439453125,1.913817286491394,2.768564224243164,1.5725691318511963
1761392265565157400,1.826157470703125,2.021322250366211,2.7006821632385254,0.6098687052726746
1761392265575240400,1.836240478515625,2.0238730907440186,2.6313486099243164,-0.29601380228996277
1761392265585322500,1.846322509765625,1.931816816329956,2.5746634006500244,-1.025571346282959
1761392265595404300,1.856404296875,1.782015323638916,2.6929855346679688,-1.4865626096725464
1761392265605486300,1.866486328125,1.6862454414367676,2.879955768585205,-1.6757680177688599
1761392265615568400,1.876568359375,1.7452269792556763,3.0965468883514404,-1.6441895961761475
1761392265625650400,1.886650390625,1.8947900533676147,3.1514456272125244,-1.4790022373199463
1761392265635732500,1.896732421875,1.986594557762146,2.9178695678710938,-1.227235198020935
1761392265645814500,1.906814453125,1.9788283109664917,2.4817609786987305,-0.9446647763252258
1761392265655897300,1.9168974609375,1.8736547231674194,1.9522302150726318,-0.7413321733474731
1761392265665979400,1.9269794921875,1.6831859350204468,1.6035486459732056,-0.6948213577270508
1761392265676061400,1.9370615234375,1.485543966293335,1.530062198638916,-0.8675050139427185
1761392265686143500,1.9471435546875,1.3569825887680054,1.6393638849258423,-1.2023818492889404
1761392265696225300,1.957225341796875,1.3326897621154785,1.7771550416946411,-1.4899145364761353
1761392265706307300,1.967307373046875,1.4650787115097046,1.8120774030685425,-1.4761286973953247
1761392265716389400,1.977389404296875,1.6684386730194092,1.6480813026428223,-1.0596935749053955
1761392265726471400,1.987471435546875,1.7421640157699585,1.1684224605560303,-0.348143070936203
1761392265736554500,1.997554443359375,1.7370433807373047,0.6521199941635132,0.3900742530822754
1761392265746636300,2.00763623046875,1.8404605388641357,0.12954626977443695,0.9497221112251282
1761392265756718300,2.01771826171875,2.1197845935821533,-0.4056164622306824,1.5108435153961182
1761392265766800400,2.02780029296875,2.4992737770080566,-0.9623902440071106,2.272517442703247
1761392265776882400,2.03788232421875,2.5970091819763184,-1.3604031801223755,3.0260915756225586
1761392265786964500,2.047964599609375,2.4249613285064697,-1.5728837251663208,3.3266594409942627
1761392265797046500,2.058046630859375,2.095099925994873,-1.7061793804168701,3.0633020401000977
1761392265807128300,2.06812841796875,1.9570926427841187,-1.7229288816452026,2.528775930404663
1761392265817211400,2.07821142578125,2.2117085456848145,-1.9334418773651123,1.9184714555740356
1761392265827293400,2.08829345703125,2.748011589050293,-2.555833578109741,1.377102255821228
1761392265837375500,2.09837548828125,3.1415953636169434,-3.268005132675171,0.9564775228500366
1761392265847457500,2.10845751953125,3.10917592048645,-3.3734912872314453,0.6189194321632385
1761392265857539300,2.118539306640625,2.6405465602874756,-2.971581220626831,0.5767030119895935
1761392265867621400,2.128621337890625,2.138490915298462,-2.0484187602996826,0.8830650448799133
1761392265877703400,2.138703369140625,1.9910833835601807,-1.3279088735580444,1.2263209819793701
1761392265887785500,2.148785400390625,2.3240411281585693,-1.305245280265808,1.4648504257202148
1761392265897868300,2.158868408203125,2.790616989135742,-1.9591478109359741,1.5241976976394653
1761392265907950300,2.168950439453125,3.0579681396484375,-3.2688114643096924,1.397351861000061
1761392265918032400,2.179032470703125,2.9984638690948486,-4.899969100952148,1.2735086679458618
1761392265928114400,2.189114501953125,2.8645617961883545,-6.537784576416016,1.5655901432037354
1761392265938196500,2.199196533203125,2.75849986076355,-7.476288795471191,2.5005171298980713
1761392265948278500,2.209278564453125,2.391065835952759,-7.087528228759766,3.665379047393799
1761392265958360300,2.2193603515625,1.5071609020233154,-5.194501876831055,4.072207450866699
1761392265968442400,2.2294423828125,0.4287415146827698,-2.8251616954803467,3.4669559001922607
1761392265978525400,2.239525390625,-0.5430824756622314,-0.9060060381889343,2.283324956893921
1761392265988607500,2.249607421875,-1.1855913400650024,-0.050092726945877075,1.343625783920288
1761392265998689500,2.259689453125,-1.689795970916748,-0.5592014789581299,1.4798469543457031
1761392266008771300,2.269771240234375,-2.0354771614074707,-1.844685673713684,2.8257133960723877
1761392266018853400,2.279853271484375,-2.3537960052490234,-2.772221803665161,4.73681116104126
1761392266028935400,2.289935302734375,-2.6807329654693604,-2.8532512187957764,6.255764961242676
1761392266039017500,2.300017578125,-3.1269612312316895,-2.202714443206787,6.708247661590576
1761392266049099500,2.310099609375,-3.865751028060913,-1.1730870008468628,6.3910369873046875
1761392266059182300,2.320182373046875,-4.65500545501709,0.01732812449336052,5.750204563140869
1761392266069264400,2.330264404296875,-5.26507568359375,1.1258076429367065,4.936318874359131
1761392266079346400,2.340346435546875,-5.595898151397705,2.047314167022705,4.038783073425293
1761392266089428500,2.350428466796875,-5.630309104919434,2.6933670043945312,3.1605019569396973
1761392266099510500,2.360510498046875,-5.475235462188721,3.368166446685791,2.5574772357940674
1761392266109592300,2.37059228515625,-5.150203227996826,4.14183235168457,2.3730790615081787
1761392266119674400,2.38067431640625,-4.619283676147461,5.011549472808838,2.4304659366607666
1761392266129756400,2.39075634765625,-3.9545350074768066,5.865133762359619,2.4359378814697266
1761392266139839500,2.400839599609375,-3.2609214782714844,6.385397434234619,2.244584083557129
1761392266149921500,2.410921630859375,-2.5838353633880615,6.603392601013184,1.9235237836837769
1761392266160003300,2.42100341796875,-1.8917149305343628,6.897547245025635,1.5856058597564697
1761392266170085400,2.43108544921875,-1.167008876800537,7.246691703796387,1.3267163038253784
1761392266180167400,2.44116748046875,-0.45047155022621155,7.708625316619873,1.1459102630615234
1761392266190249500,2.45124951171875,0.20824028551578522,8.206792831420898,0.9604466557502747
1761392266200331500,2.46133154296875,0.7151356935501099,8.483829498291016,0.7558906078338623
1761392266210413600,2.47141357421875,1.1284064054489136,8.494623184204102,0.5593977570533752
1761392266220495400,2.481495361328125,1.465815544128418,8.296686172485352,0.3191998302936554
1761392266230578400,2.491578369140625,1.7186847925186157,8.08271312713623,0.03333451971411705
1761392266240660500,2.501660400390625,1.9839061498641968,8.051681518554688,-0.2992902994155884
1761392266250742500,2.511742431640625,2.2825369834899902,8.314836502075195,-0.7029567956924438
1761392266260824300,2.52182421875,2.6983017921447754,8.410375595092773,-1.1619148254394531
1761392266270906400,2.53190625,3.0729260444641113,8.1132230758667,-1.6301437616348267
1761392266280988400,2.541988525390625,3.3271963596343994,7.188037872314453,-2.135572671890259
1761392266291070500,2.552070556640625,3.3584184646606445,5.814277172088623,-2.5783424377441406
1761392266301152500,2.562152587890625,3.128434419631958,4.59302282333374,-2.823166608810425
1761392266311235300,2.5722353515625,2.950331211090088,3.992506504058838,-3.0165798664093018
1761392266321317400,2.5823173828125,2.899932384490967,4.016849517822266,-3.2982800006866455
1761392266331399400,2.5923994140625,2.7550861835479736,4.371356964111328,-3.7493159770965576
1761392266341481500,2.6024814453125,2.1789536476135254,4.74919319152832,-4.766060829162598
1761392266351563500,2.6125634765625,1.493241548538208,4.642903804779053,-6.3112921714782715
1761392266361645600,2.6226455078125,1.0919634103775024,3.8539910316467285,-7.698896884918213
1761392266371727400,2.632727294921875,1.0650510787963867,2.3299496173858643,-8.201089859008789
1761392266381809400,2.642809326171875,1.3441373109817505,0.2305746227502823,-7.516536712646484
1761392266391891500,2.652891357421875,1.6143893003463745,-1.5108387470245361,-6.021200656890869
1761392266401974500,2.662974609375,1.731287956237793,-2.4322874546051025,-4.664124488830566
1761392266412056300,2.673056396484375,1.6837220191955566,-2.535794258117676,-3.93743634223938
1761392266422138400,2.683138427734375,1.2638741731643677,-2.2525408267974854,-3.7318174839019775
1761392266432220400,2.693220458984375,0.7199270129203796,-2.4415483474731445,-3.780704975128174
1761392266442302500,2.703302490234375,0.13292476534843445,-2.6823134422302246,-3.3661704063415527
1761392266452384500,2.713384521484375,-0.5652250647544861,-2.8718416690826416,-2.571751832962036
1761392266462466600,2.723466552734375,-1.0886493921279907,-2.987025737762451,-1.500028371810913
1761392266472548600,2.733548583984375,-1.3865466117858887,-3.187253475189209,-0.08803185075521469
1761392266482631400,2.74363134765625,-1.6425855159759521,-3.370488166809082,1.587874412536621
1761392266492713500,2.75371337890625,-1.841698169708252,-3.468208074569702,3.119774580001831
1761392266502795500,2.76379541015625,-2.0523719787597656,-3.4653728008270264,4.216339111328125
1761392266512877600,2.773877685546875,-2.433527708053589,-3.5358364582061768,4.744519233703613
1761392266522959400,2.78395947265625,-2.9304637908935547,-3.5765488147735596,4.952859401702881
1761392266533041400,2.79404150390625,-3.5498294830322266,-3.1597707271575928,5.095853328704834
1761392266543123500,2.80412353515625,-4.202414035797119,-2.360152006149292,5.092816352844238
1761392266553205500,2.81420556640625,-4.692615509033203,-1.3858458995819092,4.922293663024902
1761392266563288600,2.82428857421875,-4.940126895904541,-0.452342689037323,4.750777721405029
1761392266573370400,2.834370361328125,-4.988247871398926,0.1897803246974945,4.886816024780273
1761392266583452400,2.844452392578125,-4.811074733734131,0.196583092212677,5.492973327636719
1761392266593534500,2.854534423828125,-4.542211055755615,-0.10321346670389175,6.362189292907715
1761392266603616500,2.864616455078125,-4.332123756408691,-0.06081914156675339,6.988063335418701
1761392266613698600,2.874698486328125,-4.338264465332031,0.72132807970047,6.990887641906738
1761392266623780600,2.884780517578125,-4.512706279754639,2.2860333919525146,6.245702743530273
1761392266633862400,2.8948623046875,-4.627307415008545,4.310786247253418,5.156778812408447
1761392266643944400,2.9049443359375,-4.451343059539795,6.285650730133057,4.2582550048828125
1761392266654026500,2.915026611328125,-3.8706917762756348,7.8719096183776855,3.825172185897827
1761392266664109600,2.925109619140625,-3.0013506412506104,8.557756423950195,3.420875310897827
1761392266674191400,2.93519140625,-2.001389741897583,8.279488563537598,2.5689666271209717
1761392266684273400,2.9452734375,-0.9401051998138428,7.477076053619385,1.4385671615600586
1761392266694355500,2.95535546875,0.13936828076839447,6.973893642425537,0.4286714494228363
1761392266704437500,2.9654375,1.4607081413269043,6.688645362854004,-0.4270176291465759
1761392266714519600,2.97551953125,2.644055128097534,6.489090442657471,-0.7515003681182861
1761392266724601600,2.9856015625,3.195666790008545,6.204783916473389,-0.46924418210983276
1761392266734683400,2.995683349609375,3.4462766647338867,5.783996105194092,-0.07802103459835052
1761392266744765400,3.005765380859375,3.7874650955200195,5.348841667175293,-0.06558194011449814
1761392266754848500,3.0158486328125,4.051059246063232,4.877102375030518,-0.4768371284008026
1761392266764930600,3.0259306640625,4.240035057067871,4.40181827545166,-0.9743542075157166
1761392266775012600,3.0360126953125,4.49008321762085,3.9394569396972656,-1.2278985977172852
1761392266785094400,3.046094482421875,4.654641628265381,3.6366615295410156,-1.2380822896957397
1761392266795176400,3.056176513671875,4.707801818847656,3.4737043380737305,-1.1313774585723877
1761392266805258500,3.066258544921875,4.595475196838379,3.41202712059021,-1.0704317092895508
1761392266815341600,3.076341552734375,4.414238452911377,3.343634605407715,-1.1547690629959106
1761392266825423400,3.08642333984375,4.321813106536865,3.162902593612671,-1.276186227798462
1761392266835506400,3.09650634765625,4.323454856872559,2.7642292976379395,-1.3029379844665527
1761392266845588500,3.10658837890625,4.349640369415283,2.1213667392730713,-1.2155532836914062
1761392266855670500,3.11667041015625,4.164898872375488,1.4653918743133545,-1.1673189401626587
1761392266865752600,3.126752685546875,3.7827863693237305,1.138704776763916,-1.5039054155349731
1761392266875834400,3.13683447265625,3.439598560333252,1.101702094078064,-2.2455403804779053
1761392266885916400,3.14691650390625,3.2727222442626953,1.102238655090332,-2.9340598583221436
1761392266895998500,3.15699853515625,3.077009916305542,0.9318256974220276,-3.2616608142852783
1761392266906080500,3.16708056640625,2.7721810340881348,0.3877996504306793,-3.237978935241699
1761392266916162300,3.177162353515625,2.4683663845062256,-0.37479090690612793,-2.915782928466797
1761392266926244400,3.187244384765625,2.1243607997894287,-0.9302642941474915,-2.5573720932006836
1761392266936327400,3.197327392578125,1.6402758359909058,-1.0357669591903687,-2.7007997035980225
1761392266946409500,3.207409423828125,1.0453546047210693,-0.864175021648407,-3.499957323074341
1761392266956491500,3.217491455078125,0.5964404940605164,-0.5008910894393921,-4.756898403167725
1761392266966573600,3.227573486328125,0.302606463432312,-0.5016143918037415,-6.191761016845703
1761392266976655400,3.2376552734375,0.02027864009141922,-1.2092617750167847,-7.162824630737305
1761392266986737200,3.247737060546875,-0.2151850163936615,-2.321653366088867,-7.2222514152526855
1761392266996819200,3.257819091796875,-0.31801071763038635,-3.128716230392456,-6.219102382659912
1761392267006901200,3.2679013671875,-0.2523832619190216,-3.3390066623687744,-4.614832878112793
1761392267016983300,3.2779833984375,-0.24630165100097656,-3.000028371810913,-3.155734062194824
1761392267027066400,3.28806640625,-0.23838913440704346,-2.752018451690674,-2.172203302383423
1761392267037148400,3.2981484375,-0.14891012012958527,-2.817843437194824,-1.4888982772827148
1761392267047230500,3.30823046875,-0.12077728658914566,-3.033163547515869,-0.9455750584602356
1761392267057312500,3.3183125,-0.2479213923215866,-3.041557788848877,-0.482109397649765
1761392267067394300,3.328394287109375,-0.5641669631004333,-2.5548694133758545,-0.12475817650556564
1761392267077476400,3.338476318359375,-1.0398107767105103,-1.6692349910736084,0.29476478695869446
1761392267087558100,3.34855810546875,-1.532219648361206,-0.6867578625679016,0.835641622543335
1761392267097640200,3.35864013671875,-1.948189377784729,0.06529085338115692,1.4117616415023804
1761392267107722200,3.36872216796875,-2.2188706398010254,0.363984078168869,2.017364501953125
1761392267117805600,3.3788056640625,-2.5168988704681396,0.3027801215648651,2.7343175411224365
1761392267127887400,3.388887451171875,-2.925196409225464,0.0022394522093236446,3.390751600265503
1761392267137969200,3.39896923828125,-3.480360269546509,-0.05452209711074829,3.6950085163116455
1761392267148051200,3.40905126953125,-4.135438442230225,0.361331045627594,3.5625672340393066
1761392267158133200,3.41913330078125,-4.845486164093018,1.3168902397155762,3.116551160812378
1761392267168215300,3.42921533203125,-5.518723964691162,2.7796473503112793,2.6687424182891846
1761392267178297300,3.43929736328125,-5.927836894989014,4.222831726074219,2.5637073516845703
1761392267188379400,3.44937939453125,-5.922713279724121,5.1041975021362305,2.8673551082611084
1761392267198461200,3.459461181640625,-5.584346294403076,5.33831262588501,3.438973903656006
1761392267208543200,3.469543212890625,-5.0902886390686035,5.163092613220215,4.174524307250977
1761392267218626300,3.479626220703125,-4.597794055938721,4.827723026275635,4.953773021697998
1761392267228708400,3.489708251953125,-4.174716472625732,4.545100688934326,5.624504566192627
1761392267238790400,3.499790283203125,-3.740644693374634,4.672972679138184,6.0896501541137695
1761392267248872200,3.5098720703125,-3.259490966796875,5.088888645172119,6.201568126678467
1761392267258954200,3.519954345703125,-2.7605345249176025,5.96567964553833,5.939098358154297
1761392267269036300,3.530036376953125,-2.277564525604248,6.754055976867676,4.887250900268555
1761392267279118300,3.540118408203125,-1.8386725187301636,6.873972415924072,3.0283915996551514
1761392267289200400,3.550200439453125,-1.0727007389068604,6.375908851623535,1.174174189567566
1761392267299282400,3.560282470703125,0.3880385458469391,5.370004177093506,-0.4664185643196106
1761392267309365200,3.570365234375,2.2494547367095947,4.206066131591797,-1.5941812992095947
1761392267319447300,3.580447265625,3.8591694831848145,3.261773109436035,-1.617835521697998
1761392267329529300,3.590529296875,4.810472011566162,2.6072092056274414,-0.6586167812347412
1761392267339611400,3.600611328125,5.107204914093018,2.4043545722961426,0.39492228627204895
1761392267349693200,3.610693115234375,5.03679084777832,2.561584949493408,0.4444485604763031
1761392267359775200,3.620775146484375,4.93275785446167,2.7906453609466553,-0.6341583132743835
1761392267369857300,3.630857177734375,4.893982887268066,2.9708242416381836,-2.065760612487793
1761392267379939300,3.640939208984375,4.844202518463135,3.0260567665100098,-3.1871957778930664
1761392267390021400,3.651021484375,4.631523609161377,2.9409432411193848,-3.9133734703063965
1761392267400104200,3.661104248046875,4.275223731994629,2.8441615104675293,-4.483974933624268
1761392267410186200,3.671186279296875,4.01274299621582,2.4975321292877197,-5.0071282386779785
1761392267420268300,3.681268310546875,4.025332450866699,1.7185735702514648,-5.240886688232422
1761392267430350300,3.691350341796875,3.837780237197876,0.6425653696060181,-4.987098217010498
1761392267440432400,3.701432373046875,2.9722354412078857,-0.4002954661846161,-4.508640289306641
1761392267450514400,3.711514404296875,1.6755166053771973,-1.0101367235183716,-4.3590240478515625
1761392267460596200,3.72159619140625,0.2889638841152191,-0.7538847327232361,-5.056515216827393
1761392267470678300,3.73167822265625,-0.7366575002670288,0.09993751347064972,-6.450927257537842
1761392267480760300,3.74176025390625,-1.4583650827407837,1.055523157119751,-7.946280002593994
1761392267490843400,3.751843505859375,-1.9876244068145752,1.3324753046035767,-8.787321090698242
1761392267500925200,3.76192529296875,-2.5437703132629395,0.6823931932449341,-8.58731746673584
1761392267511007200,3.77200732421875,-3.2718372344970703,-0.7729960680007935,-7.405735492706299
1761392267521089300,3.78208935546875,-4.112260341644287,-2.3918941020965576,-5.732599258422852
1761392267531171300,3.79217138671875,-4.94475793838501,-3.4050838947296143,-4.357276916503906
1761392267541253400,3.80225341796875,-5.762336254119873,-3.17004132270813,-3.7273075580596924
1761392267551335400,3.81233544921875,-6.571114540100098,-2.3437650203704834,-4.157449245452881
1761392267561417200,3.822417236328125,-7.0339579582214355,-1.7211525440216064,-5.1345720291137695
1761392267571499300,3.832499267578125,-7.46556282043457,-1.763690710067749,-6.2196455001831055
1761392267581581300,3.842581298828125,-7.8430094718933105,-2.4519095420837402,-6.484426975250244
1761392267591664400,3.852664306640625,-8.065092086791992,-3.337578058242798,-5.560980796813965
1761392267601746400,3.862746337890625,-7.948770046234131,-3.7764506340026855,-3.8167905807495117
1761392267611828200,3.872828125,-7.5338664054870605,-3.529693841934204,-1.7305761575698853
1761392267621910300,3.88291015625,-7.059156894683838,-2.979203224182129,-0.04785460606217384
1761392267631992300,3.892992431640625,-6.715259552001953,-2.392331123352051,0.8628484606742859
1761392267642074400,3.903074462890625,-6.460064888000488,-1.7218796014785767,1.3478351831436157
1761392267652156400,3.913156494140625,-6.337826728820801,-1.4248998165130615,1.840147614479065
1761392267662238500,3.923238525390625,-6.179706573486328,-1.2957029342651367,2.667448043823242
1761392267672320300,3.9333203125,-5.827320098876953,-1.029754400253296,3.6827034950256348
1761392267682402300,3.94340234375,-5.240793704986572,-0.670738935470581,4.641815185546875
1761392267692485400,3.9534853515625,-4.581277370452881,-0.19915810227394104,5.45212459564209
1761392267702567400,3.9635673828125,-3.920999526977539,0.26181456446647644,6.056469917297363
1761392267712649500,3.9736494140625,-3.3640024662017822,0.5804527401924133,6.418708324432373
1761392267722731300,3.983731201171875,-2.986252784729004,0.8923517465591431,6.534903526306152
1761392267732812300,3.993812255859375,-2.7865524291992188,1.216180443763733,6.424018383026123
1761392267742894300,4.003894287109375,-2.6177570819854736,1.6306806802749634,6.0486602783203125
1761392267752976400,4.013976318359375,-2.3557727336883545,2.060763359069824,5.536109924316406
1761392267763058400,4.024058349609375,-2.0131609439849854,2.455453634262085,5.094832897186279
1761392267773141500,4.0341416015625,-1.7132333517074585,2.8221046924591064,4.759171485900879
1761392267783223300,4.044223388671875,-1.5064796209335327,3.163104295730591,4.4884257316589355
1761392267793305300,4.054305419921875,-1.3926396369934082,3.462116241455078,4.152884483337402
1761392267803387400,4.064387451171875,-1.2744719982147217,3.845421075820923,3.4840199947357178
1761392267813469400,4.074469482421875,-1.0863885879516602,4.277820110321045,2.40067982673645
1761392267823554800,4.084554931640625,-0.9230346083641052,4.701117992401123,1.022520899772644
1761392267833636900,4.094636962890625,-0.7784651517868042,4.976822853088379,-0.3831508457660675
1761392267843718700,4.10471875,-0.21421268582344055,5.162159442901611,-1.4514286518096924
1761392267853800700,4.11480078125,0.824503481388092,5.449898719787598,-2.1272294521331787
1761392267863883800,4.1248837890625,1.9009028673171997,5.939693927764893,-2.254582643508911
1761392267873965800,4.1349658203125,2.610252857208252,5.931053638458252,-1.9357095956802368
1761392267884048000,4.1450478515625,2.853214740753174,5.070271015167236,-1.5637669563293457
1761392267894129700,4.155129638671875,2.723069190979004,3.6285502910614014,-1.6627882719039917
1761392267904211700,4.165211669921875,2.6336426734924316,2.1859312057495117,-2.3940718173980713
1761392267914293800,4.175293701171875,2.6993584632873535,1.2916094064712524,-3.4890944957733154
1761392267924375800,4.185375732421875,2.7502245903015137,1.34888756275177,-4.5662922859191895
1761392267934457900,4.195457763671875,2.7784063816070557,1.9619600772857666,-5.145961284637451
1761392267944540000,4.205539794921875,2.639251232147217,2.456021547317505,-5.126079082489014
1761392267954621700,4.21562158203125,2.210482358932495,2.2640187740325928,-4.906557559967041
1761392267964704800,4.225704833984375,1.5535414218902588,1.5538763999938965,-4.898947715759277
1761392267974786800,4.235786865234375,0.8171427845954895,0.39789384603500366,-5.34280252456665
1761392267984868900,4.245868896484375,0.19432979822158813,-0.8159379363059998,-6.082892417907715
1761392267994950700,4.25595068359375,-0.3000895082950592,-1.662751317024231,-6.696070194244385
1761392268005032700,4.26603271484375,-0.8406392931938171,-1.9451749324798584,-7.107152938842773
1761392268015114800,4.27611474609375,-1.7098714113235474,-1.8116728067398071,-7.515638828277588
1761392268025196800,4.28619677734375,-2.773813486099243,-1.410535216331482,-8.048563957214355
1761392268035278800,4.29627880859375,-3.8561856746673584,-1.1067460775375366,-8.621204376220703
1761392268045361000,4.30636083984375,-4.871072292327881,-1.4191417694091797,-9.059391975402832
1761392268055442700,4.316442626953125,-5.806919574737549,-2.368903160095215,-9.161125183105469
1761392268065525800,4.32652587890625,-6.557714462280273,-3.311347246170044,-8.870798110961914
1761392268075607800,4.33660791015625,-6.849361896514893,-4.016380786895752,-7.948738098144531
1761392268085689900,4.34668994140625,-6.903627872467041,-3.8401801586151123,-6.780177116394043
1761392268095772000,4.35677197265625,-6.820190906524658,-2.776855230331421,-5.08405876159668
1761392268105853700,4.366853759765625,-6.830297470092773,-1.5096309185028076,-3.41082501411438
1761392268115935700,4.376935791015625,-6.887587070465088,-1.080769658088684,-2.2142481803894043
1761392268126017800,4.387017822265625,-6.765570163726807,-1.5793040990829468,-1.429052710533142
1761392268136099800,4.397099853515625,-6.451892375946045,-2.4640519618988037,-0.6607356071472168
1761392268146182000,4.407181884765625,-6.2287821769714355,-3.405834197998047,0.2114400714635849
1761392268156264000,4.417263916015625,-6.162403583526611,-3.883904218673706,1.1102750301361084
1761392268166346800,4.4273466796875,-6.256163597106934,-3.2971315383911133,1.6767387390136719
1761392268176428800,4.4374287109375,-6.3967604637146,-2.2187089920043945,1.5439420938491821
1761392268186510800,4.4475107421875,-6.411994934082031,-1.144981861114502,1.0118381977081299
1761392268196593000,4.457593017578125,-6.1582818031311035,-0.020009128376841545,0.909689724445343
1761392268206674700,4.4676748046875,-5.715541362762451,1.1814017295837402,1.7062885761260986
1761392268216756700,4.4777568359375,-5.042564392089844,2.2686126232147217,3.0214762687683105
1761392268226838800,4.4878388671875,-4.073948860168457,2.8596932888031006,4.199029445648193
1761392268236920800,4.4979208984375,-2.992784261703491,2.8894846439361572,4.9490885734558105
1761392268247003000,4.5080029296875,-2.105409860610962,2.5591957569122314,5.35571813583374
1761392268257085000,4.5180849609375,-1.5579545497894287,2.105494976043701,5.549351215362549
1761392268267167700,4.528167724609375,-1.2515088319778442,1.683831810951233,5.62154483795166
1761392268277249800,4.538249755859375,-1.0409457683563232,1.570719838142395,5.590317726135254
1761392268287331800,4.548331787109375,-0.8436319231987,1.7507705688476562,5.417333126068115
1761392268297414000,4.558413818359375,-0.673200249671936,2.116950511932373,5.11793851852417
1761392268307496000,4.568495849609375,-0.499149352312088,2.524040937423706,4.757608413696289
1761392268317577700,4.57857763671875,-0.29993876814842224,2.959622859954834,4.329706192016602
1761392268327660800,4.588660888671875,-0.08091109246015549,3.2956221103668213,3.779926300048828
1761392268337742800,4.598742919921875,0.11745605617761612,3.485605478286743,3.0800940990448
1761392268347825000,4.608824951171875,0.22854715585708618,3.5389952659606934,2.270026445388794
1761392268357907000,4.618906982421875,0.24293860793113708,3.5799686908721924,1.38661789894104
1761392268367988700,4.62898876953125,0.3928743004798889,3.655688524246216,0.4694649577140808
1761392268378070800,4.63907080078125,0.8104414343833923,3.7509729862213135,-0.290984183549881
1761392268388152800,4.64915283203125,1.382735013961792,3.745004892349243,-0.7568943500518799
1761392268398235000,4.65923486328125,1.9918359518051147,3.6607260704040527,-0.966461181640625
1761392268408317700,4.669317626953125,2.518725633621216,3.6147212982177734,-1.05022394657135
1761392268418399700,4.679399658203125,2.8311774730682373,3.539386510848999,-1.1720497608184814
1761392268428481800,4.689481689453125,3.067782402038574,3.553494691848755,-1.3643802404403687
1761392268438563800,4.699563720703125,3.198235511779785,3.6403465270996094,-1.6064640283584595
1761392268448646000,4.70964599609375,3.222229480743408,3.6268858909606934,-1.8904839754104614
1761392268458728000,4.71972802734375,3.3576345443725586,3.4354755878448486,-2.2637581825256348
1761392268468809700,4.729809814453125,3.494680166244507,2.7777132987976074,-2.5448553562164307
1761392268478891800,4.739891845703125,3.607633113861084,1.8115577697753906,-2.418851613998413
1761392268488973800,4.749973876953125,3.6443586349487305,1.0892512798309326,-1.997408390045166
1761392268499055900,4.760055908203125,3.4874374866485596,1.0267276763916016,-1.6273880004882812
1761392268509139000,4.770138916015625,3.0233607292175293,1.7164400815963745,-1.6826450824737549
1761392268519220700,4.780220703125,2.4199886322021484,2.524085283279419,-2.411444664001465
1761392268529302800,4.790302734375,2.047987461090088,2.8947179317474365,-3.5763461589813232
1761392268539384800,4.800384765625,1.8674192428588867,2.5839684009552,-4.611109256744385
1761392268549467000,4.810466796875,1.420003056526184,1.2327018976211548,-5.113542556762695
1761392268559549000,4.820548828125,0.9465372562408447,-0.7333373427391052,-4.921065330505371
1761392268569631000,4.830630859375,0.6050336956977844,-2.1618316173553467,-4.565810680389404
1761392268579712500,4.84071240234375,0.29858723282814026,-2.5906424522399902,-4.7814106941223145
1761392268589795800,4.8507958984375,-0.04851560294628143,-2.7070882320404053,-5.730047702789307
1761392268599878000,4.8608779296875,-0.3873429298400879,-3.3944196701049805,-7.094240188598633
1761392268609960000,4.8709599609375,-0.803284764289856,-4.618500709533691,-7.9417619705200195
1761392268620041700,4.881041748046875,-1.473705768585205,-5.800283908843994,-7.604432106018066
1761392268630123800,4.891123779296875,-2.3699047565460205,-6.174454689025879,-6.321098327636719
1761392268640205800,4.901205810546875,-3.303067922592163,-4.6181182861328125,-5.197559833526611
1761392268650287600,4.91128759765625,-3.920210361480713,-1.8918635845184326,-5.090997695922852
1761392268660369700,4.92136962890625,-4.379398822784424,0.5532474517822266,-4.875816345214844
1761392268670451700,4.93145166015625,-4.856364727020264,1.8478468656539917,-3.5877797603607178
1761392268680533800,4.94153369140625,-4.802305221557617,1.7438617944717407,-1.5461442470550537
1761392268690616800,4.951616943359375,-4.066981315612793,0.5364895462989807,0.5029837489128113
1761392268700699000,4.961698974609375,-3.1512646675109863,-1.0682945251464844,2.3590140342712402
1761392268710781000,4.971781005859375,-2.456759452819824,-2.692701578140259,3.920867681503296
1761392268720862700,4.98186279296875,-2.065765619277954,-4.008262634277344,5.012255668640137
1761392268730944500,4.991944580078125,-1.9495625495910645,-4.906853199005127,5.567440509796143
1761392268741026600,5.002026611328125,-2.095545530319214,-5.271847724914551,5.909107208251953
1761392268751108600,5.012108642578125,-2.5550122261047363,-4.944842338562012,6.255414962768555
1761392268761190700,5.022190673828125,-3.200472354888916,-4.031343936920166,6.3651933670043945
1761392268771272700,5.032272705078125,-3.760458469390869,-2.564028024673462,6.148224830627441
1761392268781355800,5.042355712890625,-4.124569892883301,-1.0994620323181152,5.744692802429199
1761392268791437600,5.0524375,-4.344407558441162,0.05482383444905281,5.4649152755737305
1761392268801519600,5.06251953125,-4.4301533699035645,0.9751957654953003,5.391473770141602
1761392268811601700,5.0726015625,-4.348817825317383,1.7732599973678589,5.463591575622559
1761392268821680600,5.0826806640625,-4.1674699783325195,2.610161304473877,5.496584892272949
1761392268831762400,5.092762451171875,-3.9439306259155273,3.4027984142303467,5.309579849243164
1761392268841844500,5.102844482421875,-3.679314136505127,4.064691543579102,4.746120452880859
1761392268851926500,5.112926513671875,-3.268221378326416,4.61366081237793,3.700287342071533
1761392268862008600,5.123008544921875,-2.638762950897217,5.124664306640625,2.313767671585083
1761392268872091600,5.133091552734375,-1.7872122526168823,5.651580333709717,0.7013146877288818
1761392268882173700,5.143173583984375,-0.6715903878211975,6.0627217292785645,-0.9274306893348694
1761392268892255500,5.15325537109375,0.4314139783382416,6.1581220626831055,-2.2120983600616455
1761392268902337500,5.163337646484375,1.309960961341858,6.02801513671875,-2.85084867477417
1761392268912419600,5.173419677734375,1.9984403848648071,5.794515609741211,-2.8422787189483643
1761392268922501600,5.183501708984375,2.5027081966400146,5.535392761230469,-2.5014760494232178
1761392268932583700,5.193583740234375,2.928402900695801,5.080126762390137,-2.2330729961395264
1761392268942665500,5.20366552734375,3.5077576637268066,4.204578399658203,-2.1495823860168457
1761392268952747500,5.21374755859375,4.163394927978516,3.126140594482422,-2.1426939964294434
1761392268962830600,5.22383056640625,4.552978515625,2.060748815536499,-2.1479849815368652
1761392268972912600,5.23391259765625,4.474643230438232,1.2749630212783813,-2.181865930557251
1761392268982994400,5.243994384765625,4.039518356323242,0.8481702208518982,-2.450688123703003
1761392268993076500,5.254076416015625,3.740379571914673,0.5740067958831787,-3.0123441219329834
1761392269003158500,5.264158447265625,3.772184133529663,0.24389202892780304,-3.4050047397613525
1761392269013240600,5.274240478515625,3.8111488819122314,-0.3164306581020355,-3.2425546646118164
1761392269023322600,5.284322509765625,3.5919344425201416,-0.9824987053871155,-2.486661672592163
1761392269033404700,5.29440478515625,2.9623332023620605,-1.335047960281372,-1.5804736614227295
1761392269043487500,5.304487548828125,2.124122381210327,-1.2878327369689941,-1.1918761730194092
1761392269053569500,5.314569580078125,1.4283983707427979,-0.7252048850059509,-1.4443219900131226
1761392269063651600,5.324651611328125,1.115289568901062,-0.19108766317367554,-1.9014562368392944
1761392269073733600,5.334733642578125,1.087661623954773,-0.24951449036598206,-1.889154076576233
1761392269083815700,5.344815673828125,1.0123205184936523,-1.048879623413086,-1.229995608329773
1761392269093897500,5.3548974609375,0.6698073744773865,-1.7617374658584595,-0.22001278400421143
1761392269103979500,5.3649794921875,0.2352500706911087,-1.87205171585083,0.6156283020973206
1761392269114061600,5.3750615234375,-0.10991425067186356,-1.4671919345855713,1.0313807725906372
1761392269124144600,5.38514453125,-0.33537134528160095,-0.9610562920570374,1.2799072265625
1761392269134226700,5.395226806640625,-0.5199512839317322,-0.8773704171180725,1.6850216388702393
1761392269144308500,5.40530859375,-0.6858052611351013,-1.384817123413086,2.4016034603118896
1761392269154390500,5.415390625,-0.8334540724754333,-2.323655605316162,3.2591521739959717
1761392269164472600,5.42547265625,-0.8997225761413574,-3.515050172805786,4.112536907196045
1761392269174554600,5.4355546875,-0.9167242050170898,-4.530969142913818,4.9826860427856445
1761392269184636700,5.44563671875,-1.0984996557235718,-4.9599127769470215,5.763836860656738
1761392269194718700,5.45571875,-1.5091776847839355,-4.478307247161865,6.160849094390869
1761392269204800500,5.465800537109375,-1.9436495304107666,-3.3444786071777344,6.057529449462891
1761392269214883600,5.475883544921875,-2.2727105617523193,-1.9669783115386963,5.74458646774292
1761392269224965600,5.485965576171875,-2.4817073345184326,-0.8815233707427979,5.54271125793457
1761392269235047700,5.496047607421875,-2.644824981689453,-0.24099157750606537,5.46317720413208
1761392269245129500,5.50612939453125,-2.759202480316162,0.18386144936084747,5.178496360778809
1761392269255211500,5.51621142578125,-2.844331741333008,0.7511051893234253,4.581821441650391
1761392269265293600,5.52629345703125,-2.9399831295013428,1.430687427520752,3.798868179321289
1761392269275375600,5.536375732421875,-3.0095462799072266,2.3691723346710205,2.862485647201538
1761392269285457700,5.546457763671875,-3.104968786239624,3.665112018585205,1.8526841402053833
1761392269295540500,5.55654052734375,-3.0740270614624023,5.246773719787598,0.9298467040061951
1761392269305622500,5.56662255859375,-2.790973663330078,6.9509758949279785,0.14182157814502716
1761392269315704600,5.57670458984375,-2.2953224182128906,8.52297306060791,-0.4901960790157318
1761392269325786600,5.58678662109375,-1.695260763168335,9.546917915344238,-0.9723155498504639
1761392269335868700,5.59686865234375,-1.0564842224121094,9.896815299987793,-1.4483412504196167
1761392269345950700,5.60695068359375,-0.39012300968170166,9.701933860778809,-1.9932982921600342
1761392269356032500,5.617032470703125,0.31879955530166626,9.054520606994629,-2.409849166870117
1761392269366114600,5.627114501953125,0.9726783037185669,7.879061698913574,-2.5477218627929688
1761392269376197600,5.63719775390625,1.5695840120315552,6.386132717132568,-2.448038101196289
1761392269386279700,5.64727978515625,2.1148948669433594,4.923496723175049,-2.2457430362701416
1761392269396361500,5.657361572265625,2.516669750213623,3.7806386947631836,-2.047297954559326
1761392269406443500,5.667443603515625,2.8094394207000732,3.0755274295806885,-1.9377373456954956
1761392269416525600,5.677525634765625,2.9903244972229004,2.712563991546631,-1.9976216554641724
1761392269426607600,5.687607666015625,3.035827398300171,2.53002667427063,-2.137777090072632
1761392269436689700,5.697689697265625,2.90822434425354,2.4923036098480225,-2.2489192485809326
1761392269446771700,5.707771728515625,2.7549102306365967,2.3132529258728027,-2.348912000656128
1761392269456854500,5.7178544921875,2.6764352321624756,2.1091532707214355,-2.412299633026123
1761392269466936600,5.7279365234375,2.674677610397339,1.9706273078918457,-2.398151159286499
1761392269477018600,5.7380185546875,2.664844036102295,1.8050740957260132,-2.411001205444336
1761392269487100700,5.7481005859375,2.560033082962036,1.5700870752334595,-2.5859053134918213
1761392269497182700,5.7581826171875,2.4813344478607178,1.115235447883606,-2.898958683013916
1761392269507264500,5.768264404296875,2.404449462890625,0.4230596423149109,-3.372756242752075
1761392269517346600,5.7783466796875,2.229698657989502,-0.38389280438423157,-4.019689083099365
1761392269527429600,5.7884296875,1.9334690570831299,-1.1338528394699097,-4.878982067108154
1761392269537511700,5.79851171875,1.5943306684494019,-1.7712079286575317,-5.800151824951172
1761392269547593500,5.808593505859375,1.2805099487304688,-2.1578621864318848,-6.447518348693848
1761392269557675500,5.818675537109375,1.090281367301941,-2.0655112266540527,-6.438107013702393
1761392269567757600,5.828757568359375,0.9751012325286865,-1.5856714248657227,-5.6435546875
1761392269577839600,5.838839599609375,0.7372969388961792,-1.0406997203826904,-4.610738754272461
1761392269587921700,5.848921630859375,0.4012148082256317,-0.6049420833587646,-3.969315528869629
1761392269598003700,5.859003662109375,0.08518519997596741,-0.3436329960823059,-3.7010083198547363
1761392269608086500,5.86908642578125,-0.27735117077827454,-0.3034570813179016,-3.6021196842193604
1761392269618168600,5.87916845703125,-0.837504506111145,-0.6393200159072876,-3.4101145267486572
1761392269628250600,5.889250732421875,-1.5639957189559937,-1.2140291929244995,-3.034536600112915
1761392269638332700,5.899332763671875,-2.230128765106201,-1.7648451328277588,-2.610105276107788
1761392269648414700,5.909414794921875,-2.735321283340454,-2.059199094772339,-2.1895806789398193
1761392269658496500,5.91949658203125,-3.0762641429901123,-2.123722553253174,-1.713733196258545
1761392269668578600,5.92957861328125,-3.2366819381713867,-2.0277092456817627,-1.1289278268814087
1761392269678661600,5.93966162109375,-3.2937605381011963,-1.9550974369049072,-0.4836343228816986
1761392269688743700,5.94974365234375,-3.295868396759033,-2.0548410415649414,0.17597076296806335
1761392269698825500,5.959825439453125,-3.254598379135132,-2.332737922668457,0.8109690546989441
1761392269708907500,5.969907470703125,-3.2292966842651367,-2.7515735626220703,1.4071093797683716
1761392269718989600,5.979989501953125,-3.1967079639434814,-3.1921963691711426,1.9208810329437256
1761392269729071600,5.990071533203125,-3.1935179233551025,-3.551302671432495,2.3303494453430176
1761392269739153700,6.000153564453125,-3.2094521522521973,-3.7772703170776367,2.724857807159424
1761392269749236500,6.010236572265625,-3.2116434574127197,-3.8778882026672363,3.123569965362549
1761392269759318500,6.020318603515625,-3.2928500175476074,-3.845890760421753,3.526989698410034
1761392269769400600,6.030400634765625,-3.425497531890869,-3.5253307819366455,3.892548084259033
1761392269779482600,6.040482666015625,-3.5233120918273926,-2.965501308441162,4.102320194244385
1761392269789564700,6.050564697265625,-3.5199973583221436,-2.3951830863952637,4.117565631866455
1761392269799646700,6.060646728515625,-3.411877155303955,-1.986807942390442,4.1773858070373535
1761392269809728500,6.070728515625,-3.387681722640991,-1.620301604270935,4.564561367034912
1761392269819809300,6.080809326171875,-3.4904136657714844,-0.8432723879814148,5.19529390335083
1761392269829891300,6.090891357421875,-3.3542656898498535,0.08234866708517075,5.661850452423096
1761392269839974400,6.100974365234375,-2.924107789993286,0.7694173455238342,5.757037162780762
1761392269850056200,6.11105615234375,-2.417621612548828,1.289099097251892,5.65411901473999
1761392269860138200,6.12113818359375,-2.05212664604187,1.5090229511260986,5.536533832550049
1761392269870220300,6.13122021484375,-1.9865809679031372,1.4226475954055786,5.301875591278076
1761392269880302000,6.141302001953125,-2.087230682373047,1.464599609375,4.565313816070557
1761392269890384100,6.151384033203125,-2.112807273864746,1.9358086585998535,3.1875438690185547
1761392269900466200,6.161466064453125,-2.108527183532715,2.8646483421325684,1.3507534265518188
1761392269910549500,6.171549560546875,-1.9860358238220215,4.272135257720947,-0.5273706316947937
1761392269920631300,6.18163134765625,-1.4805481433868408,5.736518859863281,-2.0834970474243164
1761392269930713000,6.191713134765625,-0.6088180541992188,6.884979248046875,-3.018502950668335
1761392269940795100,6.201795166015625,0.2598603367805481,7.512217998504639,-3.2688944339752197
1761392269950877200,6.211877197265625,0.8005840182304382,7.445451736450195,-3.1100504398345947
1761392269960959200,6.221959228515625,1.062568187713623,6.455795764923096,-2.924605131149292
1761392269971041300,6.232041259765625,1.1690176725387573,4.9483160972595215,-2.8549115657806396
1761392269981124400,6.242124267578125,1.3191672563552856,3.4737281799316406,-2.9236302375793457
1761392269991206100,6.2522060546875,1.517873764038086,2.4604225158691406,-3.125882625579834
1761392270001288200,6.2622880859375,1.636020541191101,2.0642073154449463,-3.460355758666992
1761392270011370200,6.272370361328125,1.6127784252166748,2.202176332473755,-3.917656898498535
1761392270021452300,6.282452392578125,1.6624665260314941,2.5106775760650635,-4.291667461395264
1761392270031534000,6.2925341796875,1.7554734945297241,2.5920891761779785,-4.266503810882568
1761392270041616100,6.3026162109375,1.6728832721710205,2.245687961578369,-3.8419148921966553
1761392270051699500,6.312699462890625,1.3421412706375122,1.6892728805541992,-3.3687782287597656
1761392270061781200,6.32278125,0.8641955256462097,1.1698004007339478,-3.205949306488037
1761392270071863300,6.33286328125,0.6194539070129395,0.5420185327529907,-3.357114791870117
1761392270081945000,6.342945068359375,0.6016482710838318,-0.2661778926849365,-3.3987815380096436
1761392270092027100,6.353027099609375,0.4759676158428192,-1.2205195426940918,-2.9807116985321045
1761392270102109200,6.363109130859375,0.20685304701328278,-2.183779716491699,-2.1630852222442627
1761392270112191200,6.373191162109375,-0.3462732434272766,-2.9386932849884033,-1.431191325187683
1761392270122274300,6.3832744140625,-1.1878039836883545,-3.278623342514038,-1.4668861627578735
1761392270132356400,6.3933564453125,-1.966854453086853,-2.9774668216705322,-2.491455078125
1761392270142438100,6.403438232421875,-2.459810495376587,-2.323694944381714,-4.144640922546387
1761392270152520200,6.413520263671875,-2.818288564682007,-1.9955006837844849,-5.545590877532959
1761392270162602200,6.423602294921875,-3.2750837802886963,-2.3146870136260986,-5.989192485809326
1761392270172684300,6.433684326171875,-3.8437812328338623,-3.1331729888916016,-5.290703296661377
1761392270182767400,6.443767333984375,-4.354283332824707,-3.9976797103881836,-3.8605587482452393
1761392270192849400,6.453849365234375,-4.635677337646484,-4.533278465270996,-2.4506869316101074
1761392270202931500,6.463931396484375,-4.622042179107666,-4.3986592292785645,-1.4429874420166016
1761392270213013200,6.47401318359375,-4.507081508636475,-3.733402967453003,-0.9056633114814758
1761392270223095300,6.48409521484375,-4.481619834899902,-3.058612823486328,-0.5872024893760681
1761392270233177000,6.494177001953125,-4.508692264556885,-2.660490036010742,-0.16718712449073792
1761392270243259100,6.504259033203125,-4.5626420974731445,-2.5263726711273193,0.4239201247692108
1761392270253341200,6.514341064453125,-4.623713970184326,-2.5087690353393555,1.068548321723938
1761392270263424500,6.524424560546875,-4.688614368438721,-2.4511818885803223,1.560320258140564
1761392270273506300,6.53450634765625,-4.74204683303833,-2.1507556438446045,1.954888105392456
1761392270283588000,6.544588134765625,-4.784493446350098,-1.5891319513320923,2.2764501571655273
1761392270293670100,6.554670166015625,-4.677188873291016,-0.906997799873352,2.5356597900390625
1761392270303752200,6.564752197265625,-4.427712440490723,-0.22622887790203094,2.682934284210205
1761392270313834200,6.574834228515625,-4.076968669891357,0.3659726679325104,2.7313060760498047
1761392270323917300,6.584917236328125,-3.67264461517334,0.7981086373329163,2.6830387115478516
1761392270333999400,6.594999267578125,-3.2335164546966553,1.0461688041687012,2.5725722312927246
1761392270344081400,6.605081298828125,-2.6044509410858154,1.2641370296478271,2.645007371902466
1761392270354163200,6.6151630859375,-1.8008124828338623,1.481947898864746,2.845202684402466
1761392270364245200,6.625245361328125,-1.0397958755493164,1.5236200094223022,3.1000149250030518
1761392270374327300,6.635327392578125,-0.4734048545360565,1.3956180810928345,3.359423875808716
1761392270384409000,6.6454091796875,-0.14480805397033691,1.369799256324768,3.538644552230835
1761392270394492400,6.655492431640625,0.009606820531189442,1.6797950267791748,3.4705984592437744
1761392270404574500,6.665574462890625,0.14757241308689117,2.236664056777954,3.060122489929199
1761392270414656500,6.675656494140625,0.3302956223487854,2.854268789291382,2.3935482501983643
1761392270424738000,6.685738037109375,0.6542486548423767,3.4842381477355957,1.5886399745941162
1761392270434820000,6.695820068359375,1.152872085571289,3.8817713260650635,0.7607471346855164
1761392270444902100,6.705902099609375,1.5788140296936035,3.922664165496826,0.05910886079072952
1761392270454984200,6.715984130859375,1.9372938871383667,3.6390645503997803,-0.6178901195526123
1761392270465067300,6.7260673828125,2.1863036155700684,2.815330743789673,-1.412970781326294
1761392270475149300,6.7361494140625,2.1231260299682617,1.5169727802276611,-2.215596914291382
1761392270485231400,6.7462314453125,1.91731858253479,0.3694816529750824,-2.8079419136047363
1761392270495313200,6.756313232421875,1.7757270336151123,-0.12664662301540375,-3.121692657470703
1761392270505395200,6.766395263671875,1.7698651552200317,0.07534322142601013,-3.257601022720337
1761392270515477200,6.776477294921875,1.8507370948791504,0.6485888957977295,-3.2270307540893555
1761392270525560300,6.786560302734375,1.808632254600525,0.9377136826515198,-3.2170019149780273
1761392270535642400,6.796642333984375,1.5536702871322632,0.793493926525116,-3.3601319789886475
1761392270545724400,6.806724365234375,1.19891357421875,0.28315579891204834,-3.64487886428833
1761392270555806500,6.816806396484375,0.6927492022514343,-0.4839237928390503,-4.02390193939209
1761392270565888500,6.826888427734375,0.17177815735340118,-1.3913652896881104,-4.369572162628174
1761392270575970000,6.836969970703125,-0.3438678979873657,-1.9735102653503418,-4.583737850189209
1761392270586053400,6.847053466796875,-0.9300594925880432,-1.905597448348999,-4.778867244720459
1761392270596135400,6.857135498046875,-1.4964746236801147,-1.4036989212036133,-5.0666069984436035
1761392270606217500,6.867217529296875,-1.9802320003509521,-0.9119275808334351,-5.3961896896362305
1761392270616299300,6.87729931640625,-2.4409263134002686,-0.6500022411346436,-5.503119468688965
1761392270626381300,6.88738134765625,-2.858293294906616,-0.7803512215614319,-5.150579929351807
1761392270636463400,6.89746337890625,-3.0664472579956055,-1.3135261535644531,-4.2053446769714355
1761392270646545200,6.907545166015625,-3.035809278488159,-2.0457916259765625,-2.7476937770843506
1761392270656628500,6.91762841796875,-2.878340721130371,-2.5758936405181885,-1.078182339668274
1761392270666710300,6.927710205078125,-2.690068244934082,-2.646479606628418,0.3549780547618866
1761392270676792300,6.937792236328125,-2.5678088665008545,-2.4679999351501465,1.2710777521133423
1761392270686874400,6.947874267578125,-2.610124111175537,-2.2535390853881836,1.6742849349975586
1761392270696956400,6.957956298828125,-2.7392661571502686,-2.287104845046997,1.8153679370880127
1761392270707038500,6.96803857421875,-2.8338050842285156,-2.3849639892578125,1.9528400897979736
1761392270717121300,6.978121337890625,-2.8898749351501465,-2.453991651535034,2.0991907119750977
1761392270727203300,6.988203369140625,-2.9282472133636475,-2.389307737350464,2.4011754989624023
1761392270737285400,6.998285400390625,-2.883714437484741,-1.7702656984329224,2.8394274711608887
1761392270747367400,7.008367431640625,-2.5952258110046387,-0.8138756155967712,3.232780933380127
1761392270757449500,7.018449462890625,-2.0419392585754395,0.015182947739958763,3.515953779220581
1761392270767531500,7.028531494140625,-1.4360840320587158,0.5674629211425781,3.7373545169830322
1761392270777613300,7.03861328125,-0.9341650009155273,0.8184200525283813,3.6674177646636963
1761392270787696400,7.0486962890625,-0.5676681995391846,0.6979823112487793,3.2370150089263916
1761392270797778400,7.0587783203125,-0.25862836837768555,0.48719894886016846,2.932945966720581
1761392270807860500,7.068860595703125,0.06271611154079437,0.45520880818367004,2.8302559852600098
1761392270817946600,7.078946533203125,0.4021887183189392,0.8856901526451111,2.6514697074890137
1761392270828028700,7.089028564453125,0.8573256134986877,1.5631448030471802,2.12241792678833
1761392270838110700,7.09911083984375,1.3481919765472412,2.1624367237091064,1.316978931427002
1761392270848193800,7.10919384765625,1.7395097017288208,2.5387704372406006,0.4894442558288574
1761392270858275800,7.11927587890625,1.872052788734436,2.6309614181518555,-0.1135215014219284
1761392270868358000,7.12935791015625,1.753089427947998,2.421896457672119,-0.37304362654685974
1761392270878440000,7.13943994140625,1.6192554235458374,2.129467010498047,-0.3133144974708557
1761392270888521700,7.149521728515625,1.6017640829086304,1.834930181503296,-0.1332738995552063
1761392270898603800,7.159603759765625,1.6786320209503174,1.5569220781326294,0.05005597695708275
1761392270908686800,7.169686767578125,1.7340552806854248,1.3536967039108276,0.17135471105575562
1761392270918769000,7.179768798828125,1.7008222341537476,1.137812614440918,0.2015933096408844
1761392270928851000,7.189850830078125,1.5235233306884766,0.8915789127349854,0.11316464096307755
1761392270938933000,7.19993310546875,1.1991513967514038,0.6496129035949707,-0.08933360874652863
1761392270949014800,7.210014892578125,0.7555699348449707,0.4618970453739166,-0.3973851799964905
1761392270959096600,7.2200966796875,0.3063354194164276,0.38592931628227234,-0.8018048405647278
1761392270969180000,7.230179931640625,-0.043886762112379074,0.5001009106636047,-1.30097496509552
1761392270979262000,7.240261962890625,-0.2839321196079254,0.7076048254966736,-1.72006356716156
1761392270989344000,7.250343994140625,-0.4582575857639313,0.7810617089271545,-1.8158806562423706
1761392270999425800,7.26042578125,-0.5717524290084839,0.6067416071891785,-1.6069793701171875
1761392271009507800,7.2705078125,-0.6234323978424072,0.30153533816337585,-1.2071353197097778
1761392271019590000,7.28058984375,-0.6002272367477417,0.04999658837914467,-0.817628800868988
1761392271029673000,7.2906728515625,-0.5772092938423157,-0.16620388627052307,-0.5300036668777466
1761392271039754800,7.300754638671875,-0.5091844201087952,-0.31915268301963806,-0.25895726680755615
1761392271049836800,7.3108369140625,-0.3595368564128876,-0.4634086787700653,-0.020862936973571777
1761392271059918800,7.3209189453125,-0.17519338428974152,-0.6100510954856873,0.12870179116725922
1761392271070001000,7.3310009765625,-0.02467578463256359,-0.5716717839241028,0.14749650657176971
1761392271080083000,7.3410830078125,0.12345881760120392,-0.3203074336051941,0.13393595814704895
1761392271090165800,7.351165771484375,0.3263770341873169,-0.26269739866256714,0.2541060447692871
1761392271100247800,7.361247802734375,0.6248646974563599,-0.6564838290214539,0.5951664447784424
1761392271110329900,7.371329833984375,0.9682707786560059,-1.3003922700881958,0.9611494541168213
1761392271120412000,7.381411865234375,1.2961347103118896,-1.8404765129089355,1.0439144372940063
1761392271130494000,7.391493896484375,1.5088000297546387,-1.9378925561904907,0.7331839799880981
1761392271140576000,7.401575927734375,1.5524263381958008,-1.4936197996139526,0.15552115440368652
1761392271150658800,7.411658935546875,1.4759246110916138,-0.5840325355529785,-0.44174864888191223
1761392271160740900,7.421740966796875,1.4201769828796387,0.5265122652053833,-0.8451749086380005
1761392271170823000,7.431822998046875,1.5144158601760864,1.3133682012557983,-0.9579217433929443
1761392271180905000,7.441905029296875,1.8511015176773071,1.5016555786132812,-1.0490201711654663
1761392271190986800,7.45198681640625,2.275270938873291,1.7437020540237427,-1.3095455169677734
1761392271201068800,7.46206884765625,2.800333261489868,1.6510688066482544,-1.5204870700836182
1761392271211152000,7.47215185546875,2.9807112216949463,1.2321420907974243,-1.6153112649917603
1761392271221234000,7.48223388671875,2.5236783027648926,0.4408644735813141,-1.704971194267273
1761392271231316000,7.49231591796875,1.8971751928329468,-0.16804812848567963,-1.7195814847946167
1761392271241397800,7.502397705078125,1.4904966354370117,-0.19887875020503998,-1.6702626943588257
1761392271251479800,7.512479736328125,1.2503530979156494,0.31567513942718506,-1.5073100328445435
1761392271261563000,7.52256298828125,1.1543711423873901,0.9752682447433472,-1.22709321975708
1761392271271645000,7.53264501953125,1.1770223379135132,1.6157097816467285,-0.8526080846786499
1761392271281726700,7.542726806640625,1.2117347717285156,1.894298791885376,-0.4371546804904938
1761392271291808800,7.552808837890625,1.1581735610961914,1.558823823928833,-0.06127667427062988
1761392271301890800,7.562890869140625,1.0200711488723755,0.9181482195854187,0.22458437085151672
1761392271311972900,7.572972900390625,0.8516839742660522,0.2212173342704773,0.3350573480129242
1761392271322056000,7.583055908203125,0.6702287197113037,-0.30815622210502625,0.2533254623413086
1761392271332137700,7.5931376953125,0.4713890850543976,-0.6151321530342102,-0.022881081327795982
1761392271342219800,7.6032197265625,0.267527312040329,-0.7338566780090332,-0.4519173800945282
1761392271352301800,7.6133017578125,0.05752135068178177,-0.7080937623977661,-1.0232222080230713
1761392271362384000,7.6233837890625,0.035044003278017044,-0.7366191744804382,-1.7325549125671387
1761392271372466000,7.6334658203125,0.21440736949443817,-0.9123741984367371,-2.5115692615509033
1761392271382548700,7.643548828125,0.3644629120826721,-0.5600172281265259,-3.215381622314453
1761392271392630800,7.653630859375,0.3957529366016388,-0.11915728449821472,-3.7687220573425293
1761392271402712800,7.663712890625,0.36066845059394836,0.35689979791641235,-4.0756306648254395
1761392271412795000,7.673794921875,0.3096449375152588,0.9610642790794373,-4.088423252105713
1761392271422877000,7.683876953125,0.4113084375858307,1.4139105081558228,-3.7990124225616455
1761392271432959700,7.693959716796875,0.5354090929031372,1.6446667909622192,-3.2835381031036377
1761392271443041800,7.704041748046875,0.6544678211212158,1.805863380432129,-2.6103410720825195
1761392271453123800,7.714123779296875,0.7267463207244873,1.822064757347107,-1.9114702939987183
1761392271463206000,7.724205810546875,0.6701480150222778,1.3794564008712769,-1.329669713973999
1761392271473288000,7.734287841796875,0.376915842294693,0.21234208345413208,-0.9263430237770081
1761392271483369700,7.74436962890625,-0.10179080814123154,-0.9557965397834778,-0.4374801218509674
1761392271493452800,7.754452880859375,-0.5638830661773682,-1.4612935781478882,0.318892240524292
1761392271503534800,7.764534912109375,-0.8459307551383972,-1.4165705442428589,1.1807947158813477
1761392271513617000,7.774616943359375,-0.9435949921607971,-1.2712277173995972,1.9073323011398315
1761392271523698700,7.78469873046875,-0.896675705909729,-1.2281877994537354,2.3781399726867676
1761392271533780700,7.79478076171875,-0.7464557886123657,-1.2278701066970825,2.613583564758301
1761392271543863800,7.80486376953125,-0.5953680276870728,-1.0502290725708008,2.631010055541992
1761392271553945900,7.81494580078125,-0.5090088844299316,-0.7037349939346313,2.404413938522339
1761392271564028000,7.82502783203125,-0.4724828600883484,-0.657368540763855,1.9279911518096924
1761392271574109700,7.835109619140625,-0.43817999958992004,-0.6349921226501465,1.324130892753601
1761392271584191700,7.845191650390625,-0.3736356496810913,-0.3483039140701294,0.7686548829078674
1761392271594273800,7.855273681640625,-0.23427535593509674,0.07708093523979187,0.29035860300064087
1761392271604356900,7.86535693359375,-0.01420237123966217,0.5186710953712463,-0.11323734372854233
1761392271614438700,7.875438720703125,0.2615218758583069,0.9747366309165955,-0.41519400477409363
1761392271624520700,7.885520751953125,0.51771479845047,1.5336580276489258,-0.6443917751312256
1761392271634602800,7.895602783203125,0.6850667595863342,2.1033880710601807,-0.8303624391555786
1761392271644684800,7.905684814453125,0.7636585235595703,2.6252646446228027,-0.996135950088501
1761392271654767900,7.915767822265625,0.7038084864616394,2.8407158851623535,-1.1502869129180908
1761392271664849700,7.925849609375,0.2729697525501251,2.7377474308013916,-0.7980638742446899
1761392271674931700,7.935931640625,-0.2980402112007141,1.1348930597305298,-0.1472456455230713
1761392271685013800,7.946013671875,-0.19652557373046875,-0.14207884669303894,0.6597241163253784
1761392271695095800,7.956095703125,0.24590830504894257,-0.8773629665374756,1.2962363958358765
1761392271705177900,7.966177734375,0.5137661099433899,-1.2430073022842407,1.7357743978500366
1761392271715260700,7.9762607421875,0.5364400148391724,-1.2398040294647217,1.8780568838119507
1761392271725342700,7.9863427734375,0.4517962336540222,-0.7681110501289368,1.771336317062378
1761392271735424800,7.9964248046875,0.3533886969089508,-0.023151924833655357,1.6308673620224
1761392271745506800,8.0065068359375,0.2875622808933258,0.6188336610794067,1.4911669492721558
