time,seconds_elapsed,z,y,x
1761392263829769700,0.090769775390625,-0.7540793418884277,0.20478183031082153,1.56990647315979
1761392263839851500,0.1008515625,-0.8503425121307373,0.14570999145507812,1.732556939125061
1761392263849934600,0.1109345703125,-0.9480917453765869,-0.05528818815946579,1.7364305257797241
1761392263860016600,0.1210166015625,-1.022313117980957,-0.33990633487701416,1.6184836626052856
1761392263870098700,0.1310986328125,-1.048021674156189,-0.5038867592811584,1.4694942235946655
1761392263880180500,0.141180419921875,-1.0369058847427368,-0.5499674677848816,1.302852749824524
1761392263890262500,0.151262451171875,-1.0219717025756836,-0.5029993653297424,1.109768271446228
1761392263900344600,0.161344482421875,-1.0088609457015991,-0.43333879113197327,0.8953025341033936
1761392263910427600,0.171427734375,-1.0093698501586914,-0.3383036255836487,0.6892462372779846
1761392263920509700,0.181509765625,-1.0022226572036743,-0.20960372686386108,0.47435635328292847
1761392263930591500,0.191591552734375,-0.9828545451164246,-0.03769615292549133,0.26561439037323
1761392263940673500,0.201673583984375,-0.9501684904098511,0.16960589587688446,0.11039656400680542
1761392263950755600,0.211755615234375,-0.8912937045097351,0.39649277925491333,0.0074668945744633675
1761392263960837600,0.221837646484375,-0.812026858329773,0.5909152626991272,-0.020672865211963654
1761392263970919700,0.231919677734375,-0.7405149936676025,0.6513130068778992,0.013453539460897446
1761392263981002500,0.24200244140625,-0.7030680179595947,0.5706754326820374,0.10954172164201736
1761392263991084500,0.25208447265625,-0.731368899345398,0.3624851703643799,0.2621445953845978
1761392264001166600,0.26216650390625,-0.806760311126709,0.0701499953866005,0.447200745344162
1761392264011248600,0.27224853515625,-0.903268039226532,-0.2573132812976837,0.6352679133415222
1761392264021330700,0.28233056640625,-0.9735275506973267,-0.5492170453071594,0.8207317590713501
1761392264031412500,0.29241259765625,-1.0368865728378296,-0.865749716758728,0.9637570381164551
1761392264041494500,0.30249462890625,-1.1066420078277588,-1.162549376487732,1.0672475099563599
1761392264051576600,0.31257666015625,-1.1506426334381104,-1.3381375074386597,1.141552448272705
1761392264061659600,0.32265966796875,-1.1920993328094482,-1.397080659866333,1.1635410785675049
1761392264071741700,0.33274169921875,-1.2326563596725464,-1.3968331813812256,1.0884103775024414
1761392264081823500,0.342823486328125,-1.243749976158142,-1.2790337800979614,0.897917628288269
1761392264091905500,0.352905517578125,-1.2199370861053467,-1.076934814453125,0.6219747066497803
1761392264101987600,0.362987548828125,-1.191398024559021,-0.7880710959434509,0.3431694805622101
1761392264112069600,0.373069580078125,-1.1838250160217285,-0.41442546248435974,0.11700336635112762
1761392264122151700,0.383151611328125,-1.19082510471344,-0.04946877807378769,-0.03105480596423149
1761392264132234500,0.393234375,-1.22443687915802,0.2192859947681427,-0.08667396008968353
1761392264142316500,0.403316650390625,-1.325165033340454,0.2234136313199997,-0.15176214277744293
1761392264152398600,0.413398681640625,-1.5207370519638062,-0.06750862300395966,-0.2579379379749298
1761392264162480600,0.423480712890625,-1.7201812267303467,-0.522372305393219,-0.3683384656906128
1761392264172562700,0.433562744140625,-1.8771613836288452,-0.9624698162078857,-0.46127861738204956
1761392264182644500,0.44364453125,-1.999709129333496,-1.1522653102874756,-0.4938264489173889
1761392264192726500,0.4537265625,-2.0571374893188477,-0.935329794883728,-0.42163947224617004
1761392264202809600,0.4638095703125,-2.0350887775421143,-0.614041805267334,-0.3225991725921631
1761392264212891600,0.4738916015625,-1.9059697389602661,-0.4226348400115967,-0.2395704984664917
1761392264222973700,0.4839736328125,-1.6842551231384277,-0.2743319272994995,-0.17507272958755493
1761392264233055500,0.494055419921875,-1.4154521226882935,-0.049686677753925323,-0.11471980065107346
1761392264243137500,0.504137451171875,-1.1813626289367676,0.19361598789691925,-0.09511999785900116
1761392264253219600,0.514219482421875,-1.0938690900802612,0.2578495442867279,-0.15138843655586243
1761392264263301600,0.524301513671875,-1.1336904764175415,0.16060583293437958,-0.27687180042266846
1761392264273384400,0.534384521484375,-1.2447336912155151,0.10802114754915237,-0.45254218578338623
1761392264283466500,0.544466552734375,-1.3610925674438477,0.11266330629587173,-0.6228470802307129
1761392264293548500,0.554548583984375,-1.4179890155792236,0.08954916894435883,-0.7207210063934326
1761392264303630600,0.564630615234375,-1.395474910736084,0.18349669873714447,-0.6607287526130676
1761392264313712600,0.574712646484375,-1.3465992212295532,0.4265880882740021,-0.44950026273727417
1761392264323794700,0.584794677734375,-1.316725730895996,0.6737443208694458,-0.19422532618045807
1761392264333876700,0.594876708984375,-1.3123360872268677,0.6967260241508484,0.005772450938820839
1761392264343959600,0.60495947265625,-1.3206385374069214,0.5924693942070007,0.14280754327774048
1761392264354041600,0.61504150390625,-1.314921259880066,0.46105462312698364,0.26582881808280945
1761392264364123600,0.62512353515625,-1.2803531885147095,0.26298415660858154,0.3894500732421875
1761392264374205700,0.635205810546875,-1.244942545890808,0.00007514934986829758,0.47197797894477844
1761392264384287500,0.64528759765625,-1.2019407749176025,-0.2629695236682892,0.5167193412780762
1761392264394369500,0.65536962890625,-1.1545039415359497,-0.4831545650959015,0.5043973922729492
1761392264404451600,0.66545166015625,-1.0903958082199097,-0.6072232127189636,0.46502870321273804
1761392264414534700,0.67553466796875,-1.0035195350646973,-0.6024925708770752,0.40950119495391846
1761392264424616400,0.685616455078125,-0.938156247138977,-0.5412138104438782,0.34673795104026794
1761392264434698500,0.695698486328125,-0.9200427532196045,-0.42570042610168457,0.30465027689933777
1761392264444780500,0.705780517578125,-0.9325470924377441,-0.30333271622657776,0.2871019244194031
1761392264454862600,0.715862548828125,-0.9626807570457458,-0.2433767020702362,0.24978972971439362
1761392264464944600,0.725944580078125,-0.996503472328186,-0.25948190689086914,0.17646144330501556
1761392264475026700,0.736026611328125,-1.03013277053833,-0.3117176294326782,0.0811401754617691
1761392264485108700,0.746108642578125,-1.0478960275650024,-0.3761637210845947,0.00747819896787405
1761392264495191600,0.756191650390625,-1.051916241645813,-0.42778822779655457,-0.030820511281490326
1761392264505273600,0.766273681640625,-1.0462394952774048,-0.48251351714134216,-0.038285352289676666
1761392264515355600,0.776355712890625,-1.0150624513626099,-0.5108262300491333,-0.04044327139854431
1761392264525437700,0.786437744140625,-0.9472378492355347,-0.48546361923217773,-0.053584106266498566
1761392264535519500,0.79651953125,-0.8672814965248108,-0.4464176595211029,-0.0985453873872757
1761392264545601500,0.8066015625,-0.7940224409103394,-0.35773998498916626,-0.14962667226791382
1761392264555683600,0.81668359375,-0.7358272671699524,-0.24308176338672638,-0.17360739409923553
1761392264565765600,0.826765625,-0.6920480728149414,-0.12713438272476196,-0.17589637637138367
1761392264575848700,0.8368486328125,-0.6722134351730347,-0.04459681361913681,-0.18293127417564392
1761392264585930500,0.846930419921875,-0.6759170889854431,0.00249266903847456,-0.20734606683254242
1761392264596012500,0.857012451171875,-0.6946527361869812,-0.0025031547993421555,-0.24054290354251862
1761392264606094600,0.867094482421875,-0.7243461608886719,0.0054964483715593815,-0.2559892535209656
1761392264616176600,0.8771767578125,-0.7673733234405518,0.03869439661502838,-0.24122367799282074
1761392264626258700,0.8872587890625,-0.8040826320648193,0.08336040377616882,-0.20615996420383453
1761392264636340700,0.8973408203125,-0.8262359499931335,0.13877169787883759,-0.18463099002838135
1761392264646423600,0.907423583984375,-0.8314570784568787,0.186223104596138,-0.21428635716438293
1761392264656505600,0.917505615234375,-0.8388035893440247,0.22986817359924316,-0.28601017594337463
1761392264666587600,0.927587646484375,-0.8635731339454651,0.23899216949939728,-0.37305983901023865
1761392264676669700,0.937669677734375,-0.9209451675415039,0.22460037469863892,-0.4428192973136902
1761392264686751500,0.94775146484375,-1.0310287475585938,0.24425877630710602,-0.45522910356521606
1761392264696833500,0.95783349609375,-1.1637978553771973,0.2263742834329605,-0.43707558512687683
1761392264706915600,0.96791552734375,-1.2502959966659546,0.20190782845020294,-0.38830485939979553
1761392264716998700,0.97799853515625,-1.2768234014511108,0.16477718949317932,-0.3210773766040802
1761392264727080700,0.988080810546875,-1.237735390663147,0.1120615154504776,-0.25132304430007935
1761392264737162500,0.99816259765625,-1.128587245941162,-0.06977516412734985,-0.13957081735134125
1761392264747244500,1.00824462890625,-0.9440065026283264,-0.39511650800704956,0.09123975783586502
1761392264757326600,1.01832666015625,-0.8046212196350098,-0.575109601020813,0.19973640143871307
1761392264767408600,1.02840869140625,-0.7702451348304749,-0.6659502983093262,0.16975612938404083
1761392264777490700,1.03849072265625,-0.7990906834602356,-0.6378670930862427,0.10618104785680771
1761392264787572700,1.04857275390625,-0.8391973376274109,-0.6017645001411438,0.07207926362752914
1761392264797655600,1.058655517578125,-0.8587740659713745,-0.6174878478050232,0.06174066662788391
1761392264807737600,1.068737548828125,-0.8565191626548767,-0.676455020904541,0.04296937584877014
1761392264817819400,1.0788193359375,-0.8679114580154419,-0.7413125038146973,0.008769704028964043
1761392264827901400,1.0889013671875,-0.8824267387390137,-0.7429847121238708,-0.008479855954647064
1761392264837983500,1.0989833984375,-0.8886632323265076,-0.6703200340270996,-0.017269056290388107
1761392264848065300,1.109065185546875,-0.859126091003418,-0.5259543061256409,-0.04087930917739868
1761392264858147300,1.119147216796875,-0.7785356044769287,-0.2526334524154663,-0.13132603466510773
1761392264868230400,1.12923046875,-0.7010650634765625,-0.0761505663394928,-0.18506568670272827
1761392264878312400,1.1393125,-0.6563429832458496,-0.018111281096935272,-0.1822785586118698
1761392264888394200,1.149394287109375,-0.6468213796615601,-0.04929530248045921,-0.1829392910003662
1761392264898476300,1.159476318359375,-0.6963066458702087,-0.12134799361228943,-0.18468371033668518
1761392264908558300,1.169558349609375,-0.7675312757492065,-0.2174510955810547,-0.18413056433200836
1761392264918640400,1.179640380859375,-0.8222312927246094,-0.3487352132797241,-0.1834990382194519
1761392264928722400,1.189722412109375,-0.8639116287231445,-0.48564618825912476,-0.17244265973567963
1761392264938804500,1.199804443359375,-0.8821642398834229,-0.6047840714454651,-0.13012893497943878
1761392264948887300,1.20988720703125,-0.8926962614059448,-0.7083626389503479,-0.06435045599937439
1761392264958969300,1.21996923828125,-0.9104015827178955,-0.815000593662262,0.008036705665290356
1761392264969051400,1.230051513671875,-0.9275057315826416,-0.8916926980018616,0.10004732012748718
1761392264979133400,1.240133544921875,-0.9506450891494751,-0.9470092058181763,0.1706710010766983
1761392264989215500,1.250215576171875,-0.9854549765586853,-1.00308096408844,0.19409243762493134
1761392264999297300,1.26029736328125,-0.9927225112915039,-1.0328657627105713,0.1823609620332718
1761392265009379300,1.27037939453125,-1.0064315795898438,-1.0588469505310059,0.11758223921060562
1761392265019462400,1.28046240234375,-1.0536284446716309,-1.0755914449691772,0.023600423708558083
1761392265029544400,1.29054443359375,-1.1149474382400513,-1.051196813583374,-0.0706123560667038
1761392265039626200,1.300626220703125,-1.1638751029968262,-1.0299471616744995,-0.16201931238174438
1761392265049708300,1.310708251953125,-1.188639521598816,-0.9616695642471313,-0.23385941982269287
1761392265059790300,1.320790283203125,-1.162015676498413,-0.8586300611495972,-0.27179935574531555
1761392265069872400,1.330872314453125,-1.105541467666626,-0.7778411507606506,-0.30599063634872437
1761392265079954400,1.340954345703125,-1.043174147605896,-0.7379326820373535,-0.3182941675186157
1761392265090036500,1.351036376953125,-0.976593017578125,-0.738409161567688,-0.2957688868045807
1761392265100119300,1.361119384765625,-0.8723673820495605,-0.7521904110908508,-0.22783847153186798
1761392265110201300,1.371201416015625,-0.8222629427909851,-0.7764260172843933,-0.14689728617668152
1761392265120283400,1.381283447265625,-0.7980994582176208,-0.8569743037223816,-0.0700831487774849
1761392265130365400,1.391365478515625,-0.748481273651123,-0.9691692590713501,0.004882169887423515
1761392265140447500,1.401447509765625,-0.7065061926841736,-1.1163917779922485,0.06107793375849724
1761392265150529300,1.411529296875,-0.7099357843399048,-1.2136118412017822,0.1338898241519928
1761392265160611300,1.421611328125,-0.727931022644043,-1.274921178817749,0.21300366520881653
1761392265170693400,1.431693359375,-0.7390502691268921,-1.2807124853134155,0.27397435903549194
1761392265180776400,1.4417763671875,-0.7316524982452393,-1.228169560432434,0.30638399720191956
1761392265190858200,1.451858154296875,-0.7012535333633423,-1.1297229528427124,0.31172841787338257
1761392265200940300,1.461940185546875,-0.6645939350128174,-1.044242262840271,0.3104320168495178
1761392265211022300,1.472022216796875,-0.6651161909103394,-0.9666217565536499,0.34822067618370056
1761392265221104400,1.4821044921875,-0.6989920735359192,-0.9193584322929382,0.41286686062812805
1761392265231186400,1.4921865234375,-0.7503899931907654,-0.8976973295211792,0.4704428017139435
1761392265241268500,1.5022685546875,-0.7723164558410645,-0.9459020495414734,0.5250493884086609
1761392265251350500,1.5123505859375,-0.7364287376403809,-1.085913896560669,0.5984242558479309
1761392265261433300,1.522433349609375,-0.6804659366607666,-1.299634337425232,0.7216626405715942
1761392265271515400,1.532515380859375,-0.6327519416809082,-1.4966800212860107,0.9369105100631714
1761392265281597400,1.542597412109375,-0.6000798344612122,-1.6169133186340332,1.2164568901062012
1761392265291679500,1.552679443359375,-0.5719168782234192,-1.6125884056091309,1.5066636800765991
1761392265301761300,1.56276123046875,-0.5305431485176086,-1.5626145601272583,1.7287225723266602
1761392265311843300,1.57284326171875,-0.4523508846759796,-1.51714026927948,1.8603284358978271
1761392265321925400,1.58292529296875,-0.3556075692176819,-1.4664428234100342,1.9238260984420776
1761392265332008400,1.593008544921875,-0.27783820033073425,-1.4047412872314453,1.9268585443496704
1761392265342090500,1.603090576171875,-0.20763637125492096,-1.4154503345489502,1.888612985610962
1761392265352172300,1.61317236328125,-0.1643219292163849,-1.5160541534423828,1.9374289512634277
1761392265362254300,1.62325439453125,-0.11174038052558899,-1.7595895528793335,2.1672613620758057
1761392265372336400,1.63333642578125,0.010293913073837757,-2.004218339920044,2.605865716934204
1761392265382418400,1.64341845703125,0.15642666816711426,-2.120098352432251,3.101140260696411
1761392265392500500,1.65350048828125,0.2023845762014389,-2.1190266609191895,3.4224324226379395
1761392265402582500,1.66358251953125,0.07683827728033066,-1.8432183265686035,3.4651079177856445
1761392265412665300,1.673665283203125,-0.15657182037830353,-1.3456982374191284,3.1560218334198
1761392265422747400,1.683747314453125,-0.29128050804138184,-0.9627715945243835,2.6013927459716797
1761392265432829400,1.693829345703125,-0.11028330773115158,-0.8735160231590271,2.1313693523406982
1761392265442911500,1.703911376953125,0.36439576745033264,-0.9673285484313965,2.008063316345215
1761392265452993300,1.7139931640625,0.9139416813850403,-0.9557754993438721,2.303884267807007
1761392265463075300,1.724075439453125,1.4087973833084106,-0.8666043877601624,2.9252219200134277
1761392265473157400,1.734157470703125,1.6409180164337158,-0.5697817802429199,3.790757179260254
1761392265483239400,1.744239501953125,1.6297873258590698,0.12689952552318573,4.552743434906006
1761392265493322500,1.754322509765625,1.593100666999817,0.9001462459564209,4.872692108154297
1761392265503404300,1.764404296875,1.5801689624786377,1.5605294704437256,4.825469017028809
1761392265513486300,1.774486328125,1.5565333366394043,2.082974910736084,4.542299747467041
1761392265523568400,1.784568359375,1.5685714483261108,2.440007448196411,4.0402116775512695
1761392265533650400,1.794650390625,1.6396887302398682,2.670044422149658,3.361851930618286
1761392265543732500,1.804732421875,1.7465612888336182,2.8177297115325928,2.582474708557129
1761392265553814500,1.814814453125,1.8842790126800537,2.789259672164917,1.690713882446289
1761392265563896300,1.824896240234375,2.000868320465088,2.7160658836364746,0.7266720533370972
1761392265573979400,1.8349794921875,2.015552043914795,2.6497561931610107,-0.19414035975933075
1761392265584061400,1.8450615234375,1.9338006973266602,2.581859588623047,-0.9470576047897339
1761392265594143500,1.8551435546875,1.786159873008728,2.6808619499206543,-1.4467965364456177
1761392265604225300,1.865225341796875,1.6775234937667847,2.8620002269744873,-1.666152834892273
1761392265614307300,1.875307373046875,1.716282606124878,3.080791711807251,-1.660993218421936
1761392265624389400,1.885389404296875,1.8635730743408203,3.1708948612213135,-1.5057425498962402
1761392265634471400,1.895471435546875,1.9678916931152344,2.9674012660980225,-1.2644542455673218
1761392265644553500,1.905553466796875,1.9716098308563232,2.551896095275879,-0.9796528816223145
1761392265654636300,1.91563623046875,1.8797688484191895,2.021350145339966,-0.762553334236145
1761392265664718300,1.92571826171875,1.6935663223266602,1.6388731002807617,-0.6877443194389343
1761392265674800400,1.93580029296875,1.494003176689148,1.531948447227478,-0.8373337984085083
1761392265684882400,1.94588232421875,1.355217456817627,1.6288596391677856,-1.1594725847244263
1761392265694964500,1.955964599609375,1.312312364578247,1.7691664695739746,-1.4690136909484863
1761392265705046500,1.966046630859375,1.4298123121261597,1.8238959312438965,-1.5041402578353882
1761392265715128300,1.97612841796875,1.6330655813217163,1.694968819618225,-1.1333684921264648
1761392265725210400,1.98621044921875,1.7295715808868408,1.2479093074798584,-0.4472190737724304
1761392265735293400,1.99629345703125,1.7185884714126587,0.7192044258117676,0.30433961749076843
1761392265745375500,2.00637548828125,1.8071610927581787,0.2056020051240921,0.8841390013694763
1761392265755457300,2.016457275390625,2.0630314350128174,-0.3291764557361603,1.4284839630126953
1761392265765539300,2.026539306640625,2.4479308128356934,-0.8847419023513794,2.1647567749023438
1761392265775621400,2.036621337890625,2.5898277759552,-1.3197673559188843,2.9471218585968018
1761392265785703400,2.046703369140625,2.445713520050049,-1.5380773544311523,3.3190529346466064
1761392265795785500,2.056785400390625,2.118468761444092,-1.6906285285949707,3.1133792400360107
1761392265805867500,2.066867431640625,1.9415830373764038,-1.709790825843811,2.6011061668395996
1761392265815950300,2.076950439453125,2.144937753677368,-1.8776328563690186,1.987257957458496
1761392265826032400,2.087032470703125,2.668548107147217,-2.447073221206665,1.4342918395996094
1761392265836114400,2.097114501953125,3.098050832748413,-3.1937005519866943,1.00456702709198
1761392265846196500,2.107196533203125,3.1317572593688965,-3.386687994003296,0.648151695728302
1761392265856278500,2.117278564453125,2.6985507011413574,-3.043058395385742,0.5583435297012329
1761392265866360300,2.1273603515625,2.1730587482452393,-2.166980028152466,0.8345295786857605
1761392265876442400,2.1374423828125,1.9656345844268799,-1.3673498630523682,1.1842002868652344
1761392265886524400,2.1475244140625,2.253451347351074,-1.267906665802002,1.439103126525879
1761392265896607500,2.157607421875,2.7254955768585205,-1.8278743028640747,1.5241930484771729
1761392265906689300,2.167689208984375,3.0306663513183594,-3.0734243392944336,1.4177742004394531
1761392265916771300,2.177771240234375,3.002937078475952,-4.676283836364746,1.2739217281341553
1761392265926853400,2.187853271484375,2.8676655292510986,-6.348651885986328,1.4922616481781006
1761392265936935400,2.197935302734375,2.7637979984283447,-7.402000427246094,2.3539650440216064
1761392265947017500,2.208017578125,2.4528510570526123,-7.233354091644287,3.5368833541870117
1761392265957099500,2.218099609375,1.6246380805969238,-5.466707706451416,4.0827155113220215
1761392265967181600,2.228181640625,0.547085702419281,-3.1076624393463135,3.581329107284546
1761392265977264400,2.238264404296875,-0.4505533277988434,-1.089021921157837,2.439115047454834
1761392265987346400,2.248346435546875,-1.1317236423492432,-0.07593169808387756,1.4114906787872314
1761392265997428500,2.258428466796875,-1.6461797952651978,-0.42095300555229187,1.3852002620697021
1761392266007510500,2.268510498046875,-2.014237642288208,-1.6743568181991577,2.610609531402588
1761392266017592300,2.27859228515625,-2.3263213634490967,-2.6845624446868896,4.495519161224365
1761392266027674400,2.28867431640625,-2.652254343032837,-2.8867599964141846,6.120229721069336
1761392266037756400,2.29875634765625,-3.0678532123565674,-2.3008627891540527,6.7041850090026855
1761392266047838500,2.30883837890625,-3.7753896713256836,-1.304373860359192,6.450169086456299
1761392266057921500,2.318921630859375,-4.575135231018066,-0.12272880971431732,5.8417067527771
1761392266068003300,2.32900341796875,-5.214840412139893,1.001798391342163,5.042356014251709
1761392266078085400,2.33908544921875,-5.587505340576172,1.9593416452407837,4.152824401855469
1761392266088167400,2.34916748046875,-5.651488780975342,2.623400926589966,3.258721351623535
1761392266098249500,2.35924951171875,-5.517496109008789,3.286430597305298,2.603804111480713
1761392266108331500,2.36933154296875,-5.215001583099365,4.046205520629883,2.3726160526275635
1761392266118413600,2.37941357421875,-4.708086013793945,4.905582904815674,2.420436143875122
1761392266128495400,2.389495361328125,-4.057082176208496,5.778806209564209,2.443002939224243
1761392266138577400,2.399577392578125,-3.360633373260498,6.350753307342529,2.274397850036621
1761392266148660500,2.409660400390625,-2.682534694671631,6.586668014526367,1.9617384672164917
1761392266158742500,2.419742431640625,-1.993288516998291,6.8649582862854,1.6236493587493896
1761392266168824300,2.42982421875,-1.2714059352874756,7.206065654754639,1.3511133193969727
1761392266178906400,2.43990625,-0.5543645620346069,7.654520034790039,1.1630648374557495
1761392266188988400,2.449988525390625,0.11832261085510254,8.160421371459961,0.9816626310348511
1761392266199070500,2.460070556640625,0.6472735404968262,8.471628189086914,0.7763097882270813
1761392266209152500,2.470152587890625,1.064916729927063,8.516789436340332,0.5817222595214844
1761392266219234600,2.480234619140625,1.416159749031067,8.335190773010254,0.3500213921070099
1761392266229316400,2.49031640625,1.6746550798416138,8.115240097045898,0.06675964593887329
1761392266239399400,2.5003994140625,1.937961220741272,8.044096946716309,-0.25710684061050415
1761392266249481500,2.5104814453125,2.226393699645996,8.287812232971191,-0.6496829390525818
1761392266259563500,2.5205634765625,2.6288881301879883,8.42393970489502,-1.1044437885284424
1761392266269645600,2.5306455078125,3.017256498336792,8.188596725463867,-1.57034432888031
1761392266279727400,2.540727294921875,3.2908079624176025,7.343634605407715,-2.0724706649780273
1761392266289809400,2.550809326171875,3.3608570098876953,5.9992523193359375,-2.5397934913635254
1761392266299891500,2.560891357421875,3.148890495300293,4.725110054016113,-2.8009650707244873
1761392266309973500,2.570973388671875,2.9498636722564697,4.039669036865234,-2.988086700439453
1761392266320056300,2.581056396484375,2.89145565032959,3.997441530227661,-3.260145425796509
1761392266330138400,2.591138427734375,2.778707504272461,4.325473785400391,-3.6711819171905518
1761392266340220400,2.601220458984375,2.2575483322143555,4.730694770812988,-4.603390216827393
1761392266350302500,2.611302490234375,1.5534955263137817,4.702693939208984,-6.1123270988464355
1761392266360384500,2.621384521484375,1.1095476150512695,3.998037576675415,-7.5651535987854
1761392266370466600,2.631466552734375,1.0308074951171875,2.5734951496124268,-8.200480461120605
1761392266380548400,2.64154833984375,1.29176664352417,0.5004240870475769,-7.664658546447754
1761392266390630400,2.65163037109375,1.5781326293945312,-1.3265397548675537,-6.221980094909668
1761392266400713500,2.66171337890625,1.7085330486297607,-2.356816291809082,-4.8067216873168945
1761392266410795500,2.67179541015625,1.6992424726486206,-2.546447277069092,-3.994594097137451
1761392266420877600,2.681877685546875,1.3110460042953491,-2.2636630535125732,-3.7346811294555664
1761392266430959400,2.69195947265625,0.7761546969413757,-2.3935511112213135,-3.794024705886841
1761392266441041400,2.70204150390625,0.20195963978767395,-2.6514101028442383,-3.4483118057250977
1761392266451123500,2.71212353515625,-0.4967949092388153,-2.8446521759033203,-2.685805559158325
1761392266461205500,2.72220556640625,-1.0502519607543945,-2.9661123752593994,-1.6543231010437012
1761392266471287600,2.73228759765625,-1.369725227355957,-3.1490278244018555,-0.28830239176750183
1761392266481369600,2.74236962890625,-1.6212245225906372,-3.346562147140503,1.374873161315918
1761392266491452400,2.752452392578125,-1.838870882987976,-3.4527759552001953,2.9416513442993164
1761392266501534500,2.762534423828125,-2.027745008468628,-3.4612014293670654,4.106052875518799
1761392266511616500,2.772616455078125,-2.3943161964416504,-3.5085558891296387,4.702422142028809
1761392266521698600,2.782698486328125,-2.872073173522949,-3.586012840270996,4.929201602935791
1761392266531780600,2.792780517578125,-3.483133554458618,-3.225095272064209,5.081561088562012
1761392266541862400,2.8028623046875,-4.138096332550049,-2.4694998264312744,5.1004767417907715
1761392266551944400,2.8129443359375,-4.659231185913086,-1.4983171224594116,4.949265956878662
1761392266562026500,2.823026611328125,-4.936349391937256,-0.5530571937561035,4.756848335266113
1761392266572108500,2.833108642578125,-5.006691932678223,0.14963139593601227,4.84230899810791
1761392266582191400,2.84319140625,-4.853466510772705,0.22978535294532776,5.39127779006958
1761392266592273400,2.8532734375,-4.588574409484863,-0.06183414161205292,6.256354331970215
1761392266602355500,2.86335546875,-4.362964630126953,-0.09917166084051132,6.9328131675720215
1761392266612437500,2.8734375,-4.337213039398193,0.5850127935409546,7.031671524047852
1761392266622519600,2.88351953125,-4.502391815185547,2.0640206336975098,6.365307331085205
1761392266632601600,2.8936015625,-4.638079643249512,4.05900764465332,5.288896560668945
1761392266642683400,2.903683349609375,-4.509363651275635,6.060748100280762,4.340636730194092
1761392266652765400,2.913765380859375,-3.9762892723083496,7.722111701965332,3.862560510635376
1761392266662847500,2.923847412109375,-3.132155418395996,8.536336898803711,3.4875621795654297
1761392266672930600,2.9339306640625,-2.1465933322906494,8.372276306152344,2.7020769119262695
1761392266683012600,2.9440126953125,-1.0826131105422974,7.581559658050537,1.5733722448349
1761392266693094400,2.954094482421875,-0.022418027743697166,7.0266523361206055,0.5415059328079224
1761392266703176400,2.964176513671875,1.276475429534912,6.726216793060303,-0.3446180522441864
1761392266713258500,2.974258544921875,2.5127851963043213,6.5234293937683105,-0.749573290348053
1761392266723340500,2.984340576171875,3.143339157104492,6.256603240966797,-0.5276182293891907
1761392266733422600,2.994422607421875,3.400055170059204,5.846933364868164,-0.1144537478685379
1761392266743504600,3.004504638671875,3.7299141883850098,5.41500997543335,-0.03982239216566086
1761392266753586400,3.01458642578125,4.0128912925720215,4.947261810302734,-0.4105513393878937
1761392266763669500,3.02466943359375,4.198431968688965,4.469344139099121,-0.9232601523399353
1761392266773751600,3.03475146484375,4.448978900909424,4.001487731933594,-1.214284062385559
1761392266783833600,3.04483349609375,4.627158164978027,3.6759583950042725,-1.246281385421753
1761392266793915400,3.054915283203125,4.692445755004883,3.4965248107910156,-1.1469911336898804
1761392266803997400,3.06499755859375,4.604854106903076,3.426208972930908,-1.072092056274414
1761392266814080500,3.07508056640625,4.419868469238281,3.360825538635254,-1.1435526609420776
1761392266824162600,3.08516259765625,4.3129777908325195,3.2025511264801025,-1.2688966989517212
1761392266834244400,3.095244384765625,4.306220054626465,2.838618278503418,-1.3089162111282349
1761392266844326100,3.105326171875,4.338500022888184,2.219834327697754,-1.232761263847351
1761392266854409500,3.115409423828125,4.189138889312744,1.5414323806762695,-1.1619415283203125
1761392266864491500,3.125491455078125,3.8210630416870117,1.1669349670410156,-1.436139702796936
1761392266874573600,3.135573486328125,3.4596474170684814,1.1074755191802979,-2.1445508003234863
1761392266884655400,3.1456552734375,3.277109146118164,1.1170594692230225,-2.8677821159362793
1761392266894737400,3.1557373046875,3.095853328704834,0.9793806076049805,-3.2451276779174805
1761392266904819500,3.1658193359375,2.7961432933807373,0.4837021231651306,-3.260835647583008
1761392266914901200,3.1759013671875,2.4915060997009277,-0.27125391364097595,-2.970421314239502
1761392266924983300,3.1859833984375,2.1596791744232178,-0.8817772269248962,-2.5882723331451416
1761392266935066400,3.19606640625,1.6988648176193237,-1.0244419574737549,-2.642672538757324
1761392266945148400,3.2061484375,1.1040738821029663,-0.8917363286018372,-3.375260829925537
1761392266955230500,3.21623046875,0.6287643909454346,-0.5332426428794861,-4.582540035247803
1761392266965312500,3.2263125,0.32285961508750916,-0.45309722423553467,-6.025803565979004
1761392266975394600,3.23639453125,0.04533656686544418,-1.0789014101028442,-7.088013648986816
1761392266985476400,3.246476318359375,-0.20430974662303925,-2.176032066345215,-7.27571964263916
1761392266995558100,3.25655810546875,-0.3293083608150482,-3.0512421131134033,-6.397913455963135
1761392267005640200,3.26664013671875,-0.2745087742805481,-3.3373985290527344,-4.821640968322754
1761392267015722200,3.27672216796875,-0.25639286637306213,-3.0489683151245117,-3.3127951622009277
1761392267025805600,3.2868056640625,-0.25839370489120483,-2.751483201980591,-2.2759079933166504
1761392267035887400,3.296887451171875,-0.173139750957489,-2.7900333404541016,-1.5703227519989014
1761392267045969400,3.306969482421875,-0.1302759051322937,-3.001187801361084,-1.012044072151184
1761392267056051200,3.31705126953125,-0.23610597848892212,-3.056579351425171,-0.5345953702926636
1761392267066133200,3.32713330078125,-0.5274430513381958,-2.637493848800659,-0.1711617112159729
1761392267076215300,3.33721533203125,-0.9897192716598511,-1.781579852104187,0.2333543300628662
1761392267086297300,3.34729736328125,-1.487194299697876,-0.7963373064994812,0.7601688504219055
1761392267096379400,3.35737939453125,-1.917932152748108,0.004875379614531994,1.3359160423278809
1761392267106461200,3.367461181640625,-2.2012367248535156,0.35608425736427307,1.932163119316101
1761392267116543200,3.377543212890625,-2.488492727279663,0.3365592360496521,2.638615608215332
1761392267126626300,3.387626220703125,-2.8792178630828857,0.04690772294998169,3.3206653594970703
1761392267136708400,3.397708251953125,-3.4174203872680664,-0.06161369010806084,3.682737350463867
1761392267146790100,3.4077900390625,-4.063264846801758,0.28794538974761963,3.5967111587524414
1761392267156872200,3.4178720703125,-4.768599987030029,1.1753485202789307,3.1779229640960693
1761392267166954200,3.427954345703125,-5.455432415008545,2.590827226638794,2.7103991508483887
1761392267177036300,3.438036376953125,-5.91234016418457,4.075092792510986,2.5488593578338623
1761392267187118300,3.448118408203125,-5.956542015075684,5.040823459625244,2.8102402687072754
1761392267197200400,3.458200439453125,-5.650346279144287,5.346959114074707,3.355579137802124
1761392267207282400,3.468282470703125,-5.1676740646362305,5.203922271728516,4.072116851806641
1761392267217365200,3.478365234375,-4.666102886199951,4.884906768798828,4.8596601486206055
1761392267227447300,3.488447265625,-4.2418060302734375,4.571207046508789,5.5476460456848145
1761392267237529300,3.498529296875,-3.8125717639923096,4.646259307861328,6.048101425170898
1761392267247611400,3.508611328125,-3.3336284160614014,5.023223876953125,6.205057144165039
1761392267257693200,3.518693115234375,-2.8386623859405518,5.845016002655029,5.999839782714844
1761392267267775200,3.528775146484375,-2.3458898067474365,6.701117515563965,5.074615955352783
1761392267277857300,3.538857177734375,-1.917044997215271,6.900552749633789,3.2719273567199707
1761392267287939300,3.548939208984375,-1.2182472944259644,6.477385520935059,1.390085220336914
1761392267298021400,3.559021484375,0.1567143201828003,5.5261969566345215,-0.27703505754470825
1761392267308104200,3.569104248046875,2.0054783821105957,4.345699310302734,-1.5102699995040894
1761392267318186200,3.579186279296875,3.6788275241851807,3.379869222640991,-1.6801867485046387
1761392267328268300,3.589268310546875,4.7164082527160645,2.6714704036712646,-0.8106989860534668
1761392267338350300,3.599350341796875,5.0831780433654785,2.416530132293701,0.29909902811050415
1761392267348432400,3.609432373046875,5.039599418640137,2.53719425201416,0.5063244104385376
1761392267358514400,3.619514404296875,4.9284749031066895,2.7728824615478516,-0.4627980887889862
1761392267368596200,3.62959619140625,4.882430076599121,2.9614369869232178,-1.8954823017120361
1761392267378678300,3.63967822265625,4.8438520431518555,3.035378932952881,-3.0750107765197754
1761392267388760300,3.64976025390625,4.653990268707275,2.966139554977417,-3.83796763420105
1761392267398842400,3.65984228515625,4.310434341430664,2.8680341243743896,-4.415058135986328
1761392267408925200,3.66992529296875,4.015653610229492,2.569234848022461,-4.955606460571289
1761392267419007200,3.68000732421875,4.005300045013428,1.844382882118225,-5.239100933074951
1761392267429089300,3.69008935546875,3.8866755962371826,0.7903248071670532,-5.047078609466553
1761392267439171300,3.70017138671875,3.096363067626953,-0.26989519596099854,-4.561814785003662
1761392267449253400,3.71025341796875,1.8448412418365479,-0.9731404185295105,-4.336015701293945
1761392267459335400,3.72033544921875,0.4290413558483124,-0.8183711767196655,-4.923160076141357
1761392267469417200,3.730417236328125,-0.6359295845031738,-0.01606888324022293,-6.260444164276123
1761392267479499300,3.740499267578125,-1.398872971534729,0.9679556488990784,-7.783472537994385
1761392267489581300,3.750581298828125,-1.9350653886795044,1.3582309484481812,-8.737709999084473
1761392267499664400,3.760664306640625,-2.4771547317504883,0.8276519179344177,-8.672318458557129
1761392267509746400,3.770746337890625,-3.187434196472168,-0.5594544410705566,-7.600100994110107
1761392267519828200,3.780828125,-4.015923500061035,-2.1914563179016113,-5.938449859619141
1761392267529910300,3.79091015625,-4.858490943908691,-3.339031934738159,-4.4988627433776855
1761392267539992300,3.800992431640625,-5.667736530303955,-3.244426727294922,-3.7492260932922363
1761392267550074400,3.811074462890625,-6.503602981567383,-2.437782049179077,-4.062768459320068
1761392267560156400,3.821156494140625,-6.995858192443848,-1.7667698860168457,-4.99172306060791
1761392267570238500,3.831238525390625,-7.425686836242676,-1.7024872303009033,-6.113884925842285
1761392267580320300,3.8413203125,-7.812216758728027,-2.3404955863952637,-6.52433967590332
1761392267590403300,3.8514033203125,-8.067198753356934,-3.2326886653900146,-5.73108434677124
1761392267600485400,3.8614853515625,-7.993983745574951,-3.752951145172119,-4.066577434539795
1761392267610567400,3.8715673828125,-7.610899925231934,-3.580868721008301,-1.988516926765442
1761392267620649200,3.881649169921875,-7.121292591094971,-3.039766788482666,-0.21361300349235535
1761392267630731300,3.891731201171875,-6.768652439117432,-2.4652798175811768,0.777458667755127
1761392267640813300,3.901813232421875,-6.498132705688477,-1.785597801208496,1.296981692314148
1761392267650895400,3.911895263671875,-6.361487865447998,-1.4380491971969604,1.7571369409561157
1761392267660977400,3.921977294921875,-6.221560478210449,-1.3091617822647095,2.547090768814087
1761392267671059500,3.9320595703125,-5.897958755493164,-1.0607831478118896,3.5522403717041016
1761392267681141500,3.9421416015625,-5.33756160736084,-0.7146403193473816,4.526400566101074
1761392267691224300,3.952224365234375,-4.677026271820068,-0.2550838887691498,5.3567795753479
1761392267701306400,3.962306396484375,-4.013185024261475,0.22287146747112274,5.990111827850342
1761392267711388400,3.972388427734375,-3.4398109912872314,0.5487949848175049,6.3841142654418945
1761392267721470500,3.982470458984375,-3.034607410430908,0.8643814325332642,6.533127784729004
1761392267731552300,3.99255224609375,-2.8184680938720703,1.1766690015792847,6.448214530944824
1761392267741634300,4.00263427734375,-2.652838706970215,1.586435079574585,6.107787132263184
1761392267751716400,4.01271630859375,-2.408644914627075,2.0208966732025146,5.5951972007751465
1761392267761798400,4.02279833984375,-2.0662343502044678,2.4187166690826416,5.140376567840576
1761392267771880400,4.03288037109375,-1.7616571187973022,2.7856061458587646,4.794895648956299
1761392267781962500,4.04296240234375,-1.5400807857513428,3.1364216804504395,4.519140720367432
1761392267792045300,4.05304541015625,-1.417352557182312,3.4310462474823,4.204400539398193
1761392267802127400,4.06312744140625,-1.3085521459579468,3.8019161224365234,3.588766574859619
1761392267812209400,4.07320947265625,-1.124351143836975,4.23129415512085,2.555284261703491
1761392267822294800,4.083294677734375,-0.9525051712989807,4.667696475982666,1.203155755996704
1761392267832376800,4.093376953125,-0.8222385048866272,4.954409122467041,-0.22410738468170166
1761392267842458600,4.103458740234375,-0.3333038091659546,5.150403022766113,-1.3418525457382202
1761392267852540700,4.113540771484375,0.6710983514785767,5.401133060455322,-2.071638584136963
1761392267862622700,4.123622802734375,1.764756679534912,5.897640705108643,-2.267242670059204
1761392267872704800,4.133704833984375,2.5318667888641357,5.982546806335449,-1.9924280643463135
1761392267882786800,4.143786865234375,2.8341317176818848,5.231629371643066,-1.5970749855041504
1761392267892869600,4.15386962890625,2.7314445972442627,3.821380376815796,-1.6153138875961304
1761392267902951700,4.16395166015625,2.6196608543395996,2.3608291149139404,-2.2798852920532227
1761392267913033700,4.17403369140625,2.677766799926758,1.363741397857666,-3.3462181091308594
1761392267923115800,4.18411572265625,2.7323012351989746,1.3075813055038452,-4.447259902954102
1761392267933197800,4.19419775390625,2.7662477493286133,1.8867253065109253,-5.113400459289551
1761392267943279600,4.204279541015625,2.657634735107422,2.437305212020874,-5.153619289398193
1761392267953361700,4.214361572265625,2.2669878005981445,2.3275561332702637,-4.929673194885254
1761392267963443700,4.224443603515625,1.6322762966156006,1.6819326877593994,-4.878801345825195
1761392267973525800,4.23452587890625,0.8939343690872192,0.5597805380821228,-5.269680976867676
1761392267983608800,4.24460888671875,0.24837687611579895,-0.6653585433959961,-5.990396022796631
1761392267993690600,4.254690673828125,-0.2555435299873352,-1.5788673162460327,-6.636172294616699
1761392268003772700,4.264772705078125,-0.7702834606170654,-1.9273295402526855,-7.062415599822998
1761392268013854700,4.274854736328125,-1.5976704359054565,-1.8383333683013916,-7.457377910614014
1761392268023936800,4.284936767578125,-2.649364471435547,-1.4572871923446655,-7.978692054748535
1761392268034018800,4.295018798828125,-3.7356598377227783,-1.1105127334594727,-8.554516792297363
1761392268044100900,4.305100830078125,-4.7614922523498535,-1.333417296409607,-9.020392417907715
1761392268054182700,4.3151826171875,-5.716655731201172,-2.2195539474487305,-9.169645309448242
1761392268064264700,4.3252646484375,-6.491464614868164,-3.206359386444092,-8.949877738952637
1761392268074346800,4.3353466796875,-6.840850830078125,-3.9517393112182617,-8.07797908782959
1761392268084428800,4.3454287109375,-6.923699855804443,-3.910388946533203,-6.9622392654418945
1761392268094511900,4.355511962890625,-6.839795112609863,-2.931931257247925,-5.3082594871521
1761392268104593700,4.36559375,-6.834413051605225,-1.6335792541503906,-3.6022820472717285
1761392268114675700,4.37567578125,-6.899553298950195,-1.0649070739746094,-2.335634469985962
1761392268124757800,4.3857578125,-6.811081886291504,-1.4768891334533691,-1.5250810384750366
1761392268134839800,4.39583984375,-6.50146484375,-2.3405697345733643,-0.7663595080375671
1761392268144921900,4.405921875,-6.264529228210449,-3.287189245223999,0.09372083097696304
1761392268155004000,4.41600390625,-6.173232078552246,-3.879086494445801,0.9986059069633484
1761392268165085700,4.426085693359375,-6.255736827850342,-3.404409646987915,1.6410243511199951
1761392268175167700,4.436167724609375,-6.389713764190674,-2.352694272994995,1.5930986404418945
1761392268185249800,4.446249755859375,-6.438993453979492,-1.2668395042419434,1.071563720703125
1761392268195332900,4.456332763671875,-6.213833808898926,-0.15808463096618652,0.869552493095398
1761392268205414700,4.46641455078125,-5.7947893142700195,1.0437554121017456,1.5619934797286987
1761392268215496700,4.47649658203125,-5.156023025512695,2.155362129211426,2.850797414779663
1761392268225578800,4.486578857421875,-4.219372272491455,2.8308887481689453,4.074547290802002
1761392268235660800,4.496660888671875,-3.137948989868164,2.9194140434265137,4.875973701477051
1761392268245742800,4.506742919921875,-2.2100841999053955,2.618257999420166,5.317051410675049
1761392268255825000,4.516824951171875,-1.6229808330535889,2.176011323928833,5.531714916229248
1761392268265906700,4.52690673828125,-1.2932960987091064,1.7291309833526611,5.616983890533447
1761392268275988700,4.53698876953125,-1.078299880027771,1.5741384029388428,5.598721027374268
1761392268286071800,4.54707177734375,-0.8808529376983643,1.724392056465149,5.442990779876709
1761392268296153900,4.55715380859375,-0.7085131406784058,2.074807643890381,5.160058975219727
1761392268306236000,4.56723583984375,-0.5346094369888306,2.4788944721221924,4.801632404327393
1761392268316317700,4.577317626953125,-0.34160664677619934,2.914848566055298,4.386021137237549
1761392268326400800,4.58740087890625,-0.12261679768562317,3.269059896469116,3.850879430770874
1761392268336482800,4.59748291015625,0.08160744607448578,3.4766855239868164,3.1744160652160645
1761392268346564900,4.60756494140625,0.20991095900535583,3.5429952144622803,2.372718095779419
1761392268356646700,4.617646728515625,0.22501987218856812,3.5818088054656982,1.498246192932129
1761392268366728700,4.627728759765625,0.34345459938049316,3.6503515243530273,0.5784673094749451
1761392268376810800,4.637810791015625,0.7329850792884827,3.7515854835510254,-0.21420638263225555
1761392268386892800,4.647892822265625,1.2929983139038086,3.7621607780456543,-0.7160505056381226
1761392268396974800,4.657974853515625,1.9037379026412964,3.6768367290496826,-0.9510736465454102
1761392268407057700,4.6680576171875,2.4508392810821533,3.6333446502685547,-1.0427793264389038
1761392268417139700,4.6781396484375,2.7855050563812256,3.5507028102874756,-1.1561915874481201
1761392268427221800,4.6882216796875,3.028080701828003,3.557204246520996,-1.3407328128814697
1761392268437303800,4.6983037109375,3.178464412689209,3.638578176498413,-1.5794154405593872
1761392268447385900,4.7083857421875,3.2039408683776855,3.6451704502105713,-1.8514357805252075
1761392268457468000,4.718468017578125,3.3222155570983887,3.4864706993103027,-2.214144229888916
1761392268467549700,4.7285498046875,3.466097116470337,2.89440655708313,-2.5309267044067383
1761392268477631700,4.7386318359375,3.5817413330078125,1.9397079944610596,-2.4563934803009033
1761392268487713800,4.7487138671875,3.63325834274292,1.1570571660995483,-2.056318521499634
1761392268497795800,4.7587958984375,3.507219076156616,0.9992720484733582,-1.659529209136963
1761392268507878700,4.768878662109375,3.082639694213867,1.6102348566055298,-1.6406164169311523
1761392268517960700,4.778960693359375,2.478250741958618,2.452986717224121,-2.288496732711792
1761392268528042800,4.789042724609375,2.0569634437561035,2.88875412940979,-3.4297916889190674
1761392268538124800,4.799124755859375,1.8880153894424438,2.6812682151794434,-4.5093207359313965
1761392268548206800,4.809206787109375,1.4737759828567505,1.4658557176589966,-5.091078281402588
1761392268558289000,4.819288818359375,0.9843420386314392,-0.48363977670669556,-4.976967811584473
1761392268568371000,4.829370849609375,0.6302555799484253,-2.032900810241699,-4.586140155792236
1761392268578452700,4.83945263671875,0.3260078430175781,-2.5734236240386963,-4.717759609222412
1761392268588535800,4.849535888671875,-0.02240847796201706,-2.6630353927612305,-5.57824182510376
1761392268598617900,4.859617919921875,-0.35907360911369324,-3.2586286067962646,-6.932939529418945
1761392268608700000,4.869699951171875,-0.7531073093414307,-4.4457807540893555,-7.900167465209961
1761392268618781700,4.87978173828125,-1.390975832939148,-5.661404132843018,-7.710760593414307
1761392268628863700,4.88986376953125,-2.2642626762390137,-6.214068412780762,-6.505169868469238
1761392268638945800,4.89994580078125,-3.212510108947754,-4.900742053985596,-5.281923770904541
1761392268649027800,4.91002783203125,-3.874119997024536,-2.237034559249878,-5.076999187469482
1761392268659110000,4.92010986328125,-4.3297624588012695,0.31159907579421997,-4.959514617919922
1761392268669192000,4.93019189453125,-4.826686859130859,1.7674802541732788,-3.809509515762329
1761392268679273700,4.940273681640625,-4.865527629852295,1.8357082605361938,-1.8172075748443604
1761392268689356800,4.950356689453125,-4.195127487182617,0.7303547859191895,0.25463923811912537
1761392268699438800,4.96043896484375,-3.2695376873016357,-0.8527189493179321,2.1364102363586426
1761392268709521000,4.97052099609375,-2.5416219234466553,-2.494952917098999,3.7446746826171875
1761392268719603000,4.98060302734375,-2.1115715503692627,-3.8527374267578125,4.90482234954834
1761392268729684700,4.990684814453125,-1.9655003547668457,-4.815671920776367,5.518188953399658
1761392268739766800,5.000766845703125,-2.0707130432128906,-5.25065279006958,5.8629655838012695
1761392268749848800,5.010848876953125,-2.495788097381592,-5.012384414672852,6.220352649688721
1761392268759931000,5.020930908203125,-3.134626865386963,-4.17080020904541,6.3684468269348145
1761392268770013000,5.031012939453125,-3.7141075134277344,-2.753706693649292,6.187978744506836
1761392268780095700,5.041095703125,-4.101411819458008,-1.2545878887176514,5.791152000427246
1761392268790177800,5.051177734375,-4.338370323181152,-0.06737132370471954,5.48842716217041
1761392268800259800,5.061259765625,-4.442361354827881,0.8817742466926575,5.390529632568359
1761392268810342000,5.071341796875,-4.380180835723877,1.6849998235702515,5.450698375701904
1761392268820420900,5.0814208984375,-4.206627368927002,2.5134878158569336,5.498549938201904
1761392268830502700,5.091502685546875,-3.987191677093506,3.316084861755371,5.344233512878418
1761392268840584700,5.101584716796875,-3.730281352996826,3.9996988773345947,4.841034412384033
1761392268850666800,5.111666748046875,-3.343855857849121,4.556982517242432,3.8510890007019043
1761392268860748800,5.121748779296875,-2.7414846420288086,5.066676139831543,2.4997899532318115
1761392268870831600,5.13183154296875,-1.9235608577728271,5.597535610198975,0.9080525636672974
1761392268880913700,5.14191357421875,-0.8309985995292664,6.034036159515381,-0.7382499575614929
1761392268890995700,5.15199560546875,0.2915951609611511,6.174369812011719,-2.0844290256500244
1761392268901077800,5.162077880859375,1.2009327411651611,6.06043004989624,-2.8130486011505127
1761392268911159800,5.172159912109375,1.9120151996612549,5.8338422775268555,-2.8704819679260254
1761392268921241900,5.182241943359375,2.4345357418060303,5.581852912902832,-2.551124095916748
1761392268931323600,5.19232373046875,2.858036518096924,5.166724681854248,-2.255821466445923
1761392268941405700,5.20240576171875,3.414422035217285,4.340236663818359,-2.1581311225891113
1761392268951487700,5.21248779296875,4.0729899406433105,3.2724335193634033,-2.1427903175354004
1761392268961570800,5.22257080078125,4.515109062194824,2.190721273422241,-2.1497135162353516
1761392268971652900,5.23265283203125,4.49721097946167,1.3596422672271729,-2.172762870788574
1761392268981734700,5.242734619140625,4.085019588470459,0.897275447845459,-2.398582696914673
1761392268991816700,5.252816650390625,3.743597984313965,0.6159974336624146,-2.9424984455108643
1761392269001898800,5.262898681640625,3.748650312423706,0.3008860647678375,-3.38556170463562
1761392269011980800,5.272980712890625,3.8031463623046875,-0.22207100689411163,-3.2980847358703613
1761392269022062800,5.283062744140625,3.626307249069214,-0.904710054397583,-2.607288360595703
1761392269032144600,5.29314453125,3.0468342304229736,-1.3027012348175049,-1.677539348602295
1761392269042227700,5.303227783203125,2.2141833305358887,-1.3143600225448608,-1.2063350677490234
1761392269052309800,5.313309814453125,1.4838942289352417,-0.8033642172813416,-1.3898957967758179
1761392269062391800,5.323391845703125,1.1211488246917725,-0.22981469333171844,-1.8591514825820923
1761392269072473900,5.333473876953125,1.074122667312622,-0.18499229848384857,-1.9309667348861694
1761392269082555600,5.3435556640625,1.0212186574935913,-0.9260602593421936,-1.3464686870574951
1761392269092637700,5.3536376953125,0.7107140421867371,-1.6926361322402954,-0.35050326585769653
1761392269102719500,5.363719482421875,0.27097129821777344,-1.8813642263412476,0.5317018032073975
1761392269112801500,5.373801513671875,-0.08676379173994064,-1.5224807262420654,0.9951719045639038
1761392269122884900,5.383884765625,-0.32332921028137207,-1.0031815767288208,1.2459220886230469
1761392269132966700,5.393966552734375,-0.5103042721748352,-0.8445032835006714,1.6186307668685913
1761392269143048700,5.404048583984375,-0.6795486807823181,-1.290309190750122,2.295429229736328
1761392269153130800,5.414130859375,-0.829627513885498,-2.173337697982788,3.152215003967285
1761392269163212800,5.424212890625,-0.9080602526664734,-3.3596086502075195,4.003178596496582
1761392269173294600,5.434294677734375,-0.9228861331939697,-4.414167404174805,4.87605094909668
1761392269183376600,5.444376708984375,-1.0721977949142456,-4.949246883392334,5.677989482879639
1761392269193458400,5.45445849609375,-1.4647574424743652,-4.5692572593688965,6.139254570007324
1761392269203540500,5.46454052734375,-1.9078725576400757,-3.505655527114868,6.08748722076416
1761392269213623800,5.474623779296875,-2.254549741744995,-2.119994878768921,5.780599594116211
1761392269223705900,5.484705810546875,-2.4734463691711426,-0.9879242777824402,5.552867889404297
1761392269233787600,5.49478759765625,-2.6423847675323486,-0.28619903326034546,5.477989196777344
1761392269243869400,5.504869384765625,-2.7631614208221436,0.13260489702224731,5.229609966278076
1761392269253951500,5.514951416015625,-2.845573902130127,0.6845881938934326,4.6706342697143555
1761392269264033500,5.525033447265625,-2.9442875385284424,1.3409892320632935,3.9008569717407227
1761392269274115600,5.535115478515625,-3.013688802719116,2.2441670894622803,2.9867055416107178
1761392269284197600,5.54519775390625,-3.1078922748565674,3.49192214012146,1.9745291471481323
1761392269294280700,5.55528076171875,-3.1054623126983643,5.045200347900391,1.037054419517517
1761392269304362800,5.56536279296875,-2.8543381690979004,6.747234344482422,0.2302205115556717
1761392269314444500,5.575444580078125,-2.3783926963806152,8.35873031616211,-0.4238993227481842
1761392269324526600,5.585526611328125,-1.7872647047042847,9.468550682067871,-0.9168182015419006
1761392269334608600,5.595608642578125,-1.14954674243927,9.893150329589844,-1.3849351406097412
1761392269344690700,5.605690673828125,-0.49167296290397644,9.761918067932129,-1.9328172206878662
1761392269354772500,5.6157724609375,0.21875230967998505,9.16967487335205,-2.374011516571045
1761392269364854500,5.6258544921875,0.8813358545303345,8.059443473815918,-2.5496509075164795
1761392269374937900,5.635937744140625,1.4854962825775146,6.581242561340332,-2.471701145172119
1761392269385020000,5.64602001953125,2.039360761642456,5.108448505401611,-2.273852586746216
1761392269395101400,5.656101318359375,2.4636762142181396,3.9058549404144287,-2.074148654937744
1761392269405183500,5.66618359375,2.763063430786133,3.148747444152832,-1.9434963464736938
1761392269415265500,5.676265625,2.9596481323242188,2.7538275718688965,-1.985695242881775
1761392269425347600,5.68634765625,3.0280656814575195,2.5521411895751953,-2.123126745223999
1761392269435429600,5.6964296875,2.9164843559265137,2.5061819553375244,-2.2352497577667236
1761392269445511700,5.70651171875,2.7555665969848633,2.3545899391174316,-2.339554786682129
1761392269455594800,5.7165947265625,2.6686644554138184,2.1376147270202637,-2.408535957336426
1761392269465676500,5.726676513671875,2.6582303047180176,1.9990419149398804,-2.4040229320526123
1761392269475758600,5.736758544921875,2.662635326385498,1.8330330848693848,-2.404315948486328
1761392269485840600,5.746840576171875,2.5594894886016846,1.6202709674835205,-2.5572240352630615
1761392269495922700,5.756922607421875,2.476372003555298,1.1940557956695557,-2.852112293243408
1761392269506004500,5.76700439453125,2.4065349102020264,0.5284900665283203,-3.304759979248047
1761392269516086500,5.77708642578125,2.247133255004883,-0.277915358543396,-3.9274721145629883
1761392269526169900,5.787169921875,1.9605464935302734,-1.0376092195510864,-4.764164447784424
1761392269536251600,5.797251708984375,1.624112844467163,-1.6962114572525024,-5.695179462432861
1761392269546333400,5.80733349609375,1.3018819093704224,-2.123889684677124,-6.395603656768799
1761392269556415500,5.81741552734375,1.0937365293502808,-2.099946975708008,-6.491082668304443
1761392269566497500,5.82749755859375,0.9824174046516418,-1.6428285837173462,-5.774688243865967
1761392269576579600,5.83757958984375,0.7610629200935364,-1.096705675125122,-4.730194091796875
1761392269586661600,5.84766162109375,0.4284346103668213,-0.6419999599456787,-4.027627944946289
1761392269596743700,5.85774365234375,0.10874812304973602,-0.35819700360298157,-3.7268660068511963
1761392269606826500,5.867826416015625,-0.237680122256279,-0.2820287346839905,-3.6160004138946533
1761392269616908500,5.877908447265625,-0.7675573825836182,-0.5706466436386108,-3.4470443725585938
1761392269626990600,5.887990478515625,-1.4838056564331055,-1.1299262046813965,-3.089064121246338
1761392269637072600,5.89807275390625,-2.1692264080047607,-1.7012311220169067,-2.664989948272705
1761392269647154700,5.90815478515625,-2.6947643756866455,-2.0276918411254883,-2.24479341506958
1761392269657236500,5.918236572265625,-3.054288148880005,-2.118422746658325,-1.7807731628417969
1761392269667318500,5.928318603515625,-3.2413320541381836,-2.0376718044281006,-1.2098833322525024
1761392269677401600,5.938401611328125,-3.3024251461029053,-1.9468554258346558,-0.5683032274246216
1761392269687483600,5.948483642578125,-3.3133370876312256,-2.024203300476074,0.09128879010677338
1761392269697565400,5.9585654296875,-3.273422956466675,-2.2789602279663086,0.7300675511360168
1761392269707647500,5.9686474609375,-3.2440743446350098,-2.686307430267334,1.3342561721801758
1761392269717729500,5.9787294921875,-3.2139596939086914,-3.1326839923858643,1.8593716621398926
1761392269727811600,5.9888115234375,-3.2044951915740967,-3.5042388439178467,2.2790019512176514
1761392269737893600,5.9988935546875,-3.22080135345459,-3.74758243560791,2.671801805496216
1761392269747976700,6.008976806640625,-3.222698926925659,-3.862265110015869,3.070387363433838
1761392269758058500,6.01905859375,-3.292412042617798,-3.853317975997925,3.474989891052246
1761392269768140500,6.029140625,-3.4257924556732178,-3.5773425102233887,3.8496999740600586
1761392269778222600,6.03922265625,-3.5272998809814453,-3.03521990776062,4.085405349731445
1761392269788304600,6.0493046875,-3.5401549339294434,-2.4505653381347656,4.118616104125977
1761392269798386700,6.05938671875,-3.4392809867858887,-2.019441843032837,4.153419017791748
1761392269808468500,6.069468505859375,-3.39068341255188,-1.676966905593872,4.495234966278076
1761392269818549500,6.079549560546875,-3.49665904045105,-0.9455981850624084,5.115965843200684
1761392269828631300,6.08963134765625,-3.40478515625,-0.01979554444551468,5.620312690734863
1761392269838714400,6.09971435546875,-2.998514413833618,0.7083786725997925,5.762482166290283
1761392269848796400,6.10979638671875,-2.491326332092285,1.2418122291564941,5.6641998291015625
1761392269858878500,6.11987841796875,-2.099571943283081,1.5146747827529907,5.551649570465088
1761392269868960300,6.129960205078125,-1.9904372692108154,1.446158528327942,5.347024917602539
1761392269879042300,6.140042236328125,-2.0937929153442383,1.4439491033554077,4.691512584686279
1761392269889124400,6.150124267578125,-2.1250498294830322,1.8655706644058228,3.3852016925811768
1761392269899206400,6.160206298828125,-2.1254327297210693,2.729787588119507,1.5891529321670532
1761392269909289500,6.17028955078125,-2.031776189804077,4.0918354988098145,-0.3054605722427368
1761392269919371300,6.180371337890625,-1.582450270652771,5.576175212860107,-1.9191772937774658
1761392269929453300,6.190453369140625,-0.7404199838638306,6.77324914932251,-2.9441699981689453
1761392269939535400,6.200535400390625,0.1523430049419403,7.479902744293213,-3.269841432571411
1761392269949617400,6.210617431640625,0.7356301546096802,7.506372928619385,-3.141615390777588
1761392269959699500,6.220699462890625,1.0306859016418457,6.630659580230713,-2.9432976245880127
1761392269969781500,6.230781494140625,1.1411898136138916,5.151630878448486,-2.8584954738616943
1761392269979864300,6.2408642578125,1.2845876216888428,3.6465601921081543,-2.909442186355591
1761392269989946400,6.2509462890625,1.4811723232269287,2.5587666034698486,-3.095470428466797
1761392270000028400,6.2610283203125,1.6171537637710571,2.0902202129364014,-3.412233352661133
1761392270010110500,6.2711103515625,1.6018089056015015,2.1748709678649902,-3.8597586154937744
1761392270020192500,6.281192626953125,1.6345250606536865,2.4856045246124268,-4.263382911682129
1761392270030274300,6.2912744140625,1.7352588176727295,2.611339807510376,-4.300559997558594
1761392270040356400,6.3013564453125,1.6854643821716309,2.320298910140991,-3.9080376625061035
1761392270050439400,6.311439453125,1.3830890655517578,1.7645184993743896,-3.418952703475952
1761392270060521500,6.321521484375,0.9059237241744995,1.247846245765686,-3.2049965858459473
1761392270070603300,6.331603271484375,0.6161686182022095,0.6380665898323059,-3.3360822200775146
1761392270080685300,6.341685302734375,0.5900334715843201,-0.14873148500919342,-3.4181060791015625
1761392270090767400,6.351767333984375,0.48623141646385193,-1.0890952348709106,-3.060696601867676
1761392270100849400,6.361849365234375,0.23805469274520874,-2.0613319873809814,-2.276848077774048
1761392270110931500,6.371931396484375,-0.27055367827415466,-2.851062059402466,-1.4985060691833496
1761392270121014300,6.38201416015625,-1.0904489755630493,-3.263409376144409,-1.4075363874435425
1761392270131096300,6.392096435546875,-1.8992081880569458,-3.0398573875427246,-2.317823886871338
1761392270141178400,6.402178466796875,-2.4241490364074707,-2.393523693084717,-3.9303789138793945
1761392270151260400,6.412260498046875,-2.7826640605926514,-1.9899612665176392,-5.416634559631348
1761392270161342500,6.422342529296875,-3.2273261547088623,-2.230139970779419,-6.000765800476074
1761392270171424500,6.432424560546875,-3.78423810005188,-3.013399124145508,-5.43494176864624
1761392270181507300,6.44250732421875,-4.313944339752197,-3.8887524604797363,-4.055673599243164
1761392270191589400,6.45258935546875,-4.631947040557861,-4.489143371582031,-2.6104838848114014
1761392270201671400,6.46267138671875,-4.649100303649902,-4.447727203369141,-1.5449094772338867
1761392270211753500,6.47275341796875,-4.530855178833008,-3.816676378250122,-0.9547202587127686
1761392270221835300,6.482835205078125,-4.497127056121826,-3.1205008029937744,-0.6296867728233337
1761392270231917300,6.492917236328125,-4.515181064605713,-2.683135747909546,-0.23060591518878937
1761392270241999400,6.502999267578125,-4.568694114685059,-2.523008108139038,0.33755314350128174
1761392270252081400,6.513081298828125,-4.629288673400879,-2.5014772415161133,0.993320882320404
1761392270262164500,6.52316455078125,-4.696454048156738,-2.459548234939575,1.5047072172164917
1761392270272246300,6.533246337890625,-4.749143123626709,-2.1969847679138184,1.911384105682373
1761392270282328300,6.543328369140625,-4.795213222503662,-1.6608284711837769,2.236027956008911
1761392270292410400,6.553410400390625,-4.714554786682129,-0.9862824082374573,2.509234666824341
1761392270302492400,6.563492431640625,-4.479814052581787,-0.2990570068359375,2.6671783924102783
1761392270312574500,6.573574462890625,-4.139233589172363,0.31047263741493225,2.7288095951080322
1761392270322657300,6.5836572265625,-3.738629102706909,0.7613247036933899,2.6918904781341553
1761392270332739300,6.5937392578125,-3.3071439266204834,1.0302488803863525,2.5775575637817383
1761392270342821400,6.6038212890625,-2.7110440731048584,1.2411308288574219,2.6217570304870605
1761392270352903400,6.6139033203125,-1.9169480800628662,1.4718049764633179,2.8131890296936035
1761392270362985500,6.6239853515625,-1.1385372877120972,1.5366772413253784,3.0642447471618652
1761392270373067300,6.6340673828125,-0.5468249320983887,1.4253997802734375,3.327511787414551
1761392270383149300,6.6441494140625,-0.185092493891716,1.3617932796478271,3.524430990219116
1761392270393232400,6.654232421875,-0.017976999282836914,1.632357120513916,3.496894121170044
1761392270403314400,6.664314453125,0.11403917521238327,2.172029495239258,3.126116991043091
1761392270413396500,6.674396484375,0.28902724385261536,2.7809627056121826,2.485244035720825
1761392270423478300,6.684478271484375,0.588043749332428,3.4194438457489014,1.693084716796875
1761392270433560300,6.694560302734375,1.074492335319519,3.864701986312866,0.8551363348960876
1761392270443642400,6.704642333984375,1.5177885293960571,3.940497636795044,0.14122919738292694
1761392270453724400,6.714724365234375,1.8801685571670532,3.7058193683624268,-0.5304927229881287
1761392270463807200,6.72480712890625,2.1581227779388428,2.9619243144989014,-1.3134671449661255
1761392270473889300,6.73488916015625,2.1322200298309326,1.6954220533370972,-2.1239261627197266
1761392270483971300,6.744971435546875,1.929281234741211,0.4911732077598572,-2.7529447078704834
1761392270494053400,6.755053466796875,1.7738449573516846,-0.09556858241558075,-3.0961060523986816
1761392270504135400,6.765135498046875,1.7496023178100586,0.02473573014140129,-3.2527246475219727
1761392270514217500,6.775217529296875,1.8304822444915771,0.5935581922531128,-3.236318349838257
1761392270524300300,6.78530029296875,1.812156319618225,0.93605637550354,-3.215270519256592
1761392270534382300,6.79538232421875,1.5786887407302856,0.840334415435791,-3.33793306350708
1761392270544464400,6.80546435546875,1.2392858266830444,0.3714069426059723,-3.602832317352295
1761392270554546400,6.81554638671875,0.743692934513092,-0.36781787872314453,-3.9778525829315186
1761392270564628500,6.82562841796875,0.2204325646162033,-1.27767014503479,-4.3354291915893555
1761392270574710300,6.835710205078125,-0.2884463965892792,-1.9290838241577148,-4.561210632324219
1761392270584793300,6.84579345703125,-0.8695510029792786,-1.9380308389663696,-4.753496170043945
1761392270594875400,6.85587548828125,-1.4420791864395142,-1.4658331871032715,-5.026157379150391
1761392270604957400,6.86595751953125,-1.937808871269226,-0.9526261687278748,-5.363415718078613
1761392270615039200,6.876039306640625,-2.39861798286438,-0.6563630700111389,-5.510336875915527
1761392270625121300,6.886121337890625,-2.827979564666748,-0.735992968082428,-5.228020668029785
1761392270635203300,6.896203369140625,-3.0693676471710205,-1.2223657369613647,-4.360365867614746
1761392270645285400,6.906285400390625,-3.060415267944336,-1.9467378854751587,-2.953388214111328
1761392270655368400,6.916368408203125,-2.912383794784546,-2.5288913249969482,-1.287161111831665
1761392270665450200,6.9264501953125,-2.7251110076904297,-2.6469693183898926,0.19536738097667694
1761392270675532300,6.9365322265625,-2.5871005058288574,-2.4907312393188477,1.184121012687683
1761392270685614300,6.9466142578125,-2.61000657081604,-2.261254072189331,1.6450183391571045
1761392270695696400,6.9566962890625,-2.7365407943725586,-2.263123035430908,1.7996257543563843
1761392270705778400,6.9667783203125,-2.8393499851226807,-2.369781970977783,1.9312907457351685
1761392270715861200,6.976861328125,-2.898498773574829,-2.4327399730682373,2.07161021232605
1761392270725943300,6.986943359375,-2.9395346641540527,-2.4220221042633057,2.346230983734131
1761392270736025300,6.997025390625,-2.9132943153381348,-1.8630363941192627,2.783430814743042
1761392270746107400,7.007107421875,-2.6628923416137695,-0.9272969365119934,3.1852574348449707
1761392270756189400,7.017189453125,-2.1328213214874268,-0.059205248951911926,3.4878921508789062
1761392270766271200,7.027271240234375,-1.521091103553772,0.5161056518554688,3.709122657775879
1761392270776353300,7.037353271484375,-1.0012580156326294,0.8233998417854309,3.704298496246338
1761392270786436400,7.047436279296875,-0.6210547089576721,0.7301203012466431,3.2885403633117676
1761392270796518400,7.057518310546875,-0.3123543858528137,0.5207929611206055,2.9550349712371826
1761392270806600400,7.067600341796875,0.00950597133487463,0.4453775882720947,2.837445020675659
1761392270816686800,7.077686767578125,0.3422120213508606,0.8182553648948669,2.6879000663757324
1761392270826769000,7.087768798828125,0.7827486991882324,1.4859249591827393,2.205289840698242
1761392270836851000,7.097850830078125,1.2791630029678345,2.1042323112487793,1.4229843616485596
1761392270846933800,7.107933837890625,1.6860038042068481,2.514647960662842,0.5825304388999939
1761392270857015800,7.118015869140625,1.8576511144638062,2.6490185260772705,-0.05566095560789108
1761392270867097900,7.128097900390625,1.7600150108337402,2.465043067932129,-0.36399397253990173
1761392270877180000,7.138179931640625,1.6152925491333008,2.174586534500122,-0.3329963684082031
1761392270887262000,7.148261962890625,1.5852525234222412,1.8791950941085815,-0.16081175208091736
1761392270897344000,7.158343994140625,1.6543128490447998,1.5996530055999756,0.025667576119303703
1761392270907426800,7.1684267578125,1.7181745767593384,1.3834208250045776,0.15961746871471405
1761392270917508900,7.1785087890625,1.7002818584442139,1.1738415956497192,0.20267227292060852
1761392270927591000,7.1885908203125,1.5413058996200562,0.9355610013008118,0.1299150139093399
1761392270937673000,7.1986728515625,1.2322771549224854,0.6823692321777344,-0.061078380793333054
1761392270947754800,7.208754638671875,0.8006147742271423,0.4912107586860657,-0.3563782274723053
1761392270957836800,7.2188369140625,0.34594765305519104,0.3938458561897278,-0.7453485727310181
1761392270967919900,7.228919921875,-0.019854405894875526,0.48354071378707886,-1.241384744644165
1761392270978002000,7.239001953125,-0.270883172750473,0.6937192678451538,-1.6853712797164917
1761392270988083700,7.249083740234375,-0.45158085227012634,0.7960258722305298,-1.8236175775527954
1761392270998165800,7.259165771484375,-0.5725381970405579,0.6486880779266357,-1.6504075527191162
1761392271008247800,7.269247802734375,-0.6359664797782898,0.34545132517814636,-1.2596240043640137
1761392271018329900,7.279329833984375,-0.6177278161048889,0.08751673996448517,-0.8623719811439514
1761392271028413000,7.289412841796875,-0.5924261212348938,-0.13625290989875793,-0.5658233761787415
1761392271038494700,7.29949462890625,-0.5387205481529236,-0.2934763431549072,-0.29789844155311584
1761392271048576800,7.30957666015625,-0.39651402831077576,-0.4377417266368866,-0.05113925784826279
1761392271058658800,7.319658935546875,-0.21272501349449158,-0.5860086679458618,0.11638928949832916
1761392271068740900,7.329740966796875,-0.057248201221227646,-0.5852120518684387,0.14695464074611664
1761392271078823000,7.339822998046875,0.0904400572180748,-0.3408670127391815,0.12947924435138702
1761392271088905700,7.34990576171875,0.2842947840690613,-0.23876681923866272,0.22396934032440186
1761392271098987800,7.35998779296875,0.5704588890075684,-0.5780879259109497,0.5428096055984497
1761392271109069800,7.37006982421875,0.9136565923690796,-1.210273027420044,0.9235720634460449
1761392271119151900,7.38015185546875,1.2463603019714355,-1.7809453010559082,1.052754521369934
1761392271129234000,7.39023388671875,1.4748655557632446,-1.9489498138427734,0.7882153391838074
1761392271139316000,7.40031591796875,1.5465365648269653,-1.5666170120239258,0.23256036639213562
1761392271149398800,7.410398681640625,1.4704285860061646,-0.7067202925682068,-0.3737402856349945
1761392271159480800,7.420480712890625,1.410774827003479,0.4010407030582428,-0.8155504465103149
1761392271169563000,7.43056298828125,1.4777718782424927,1.2687335014343262,-0.9601702094078064
1761392271179645000,7.44064501953125,1.7898203134536743,1.4865052700042725,-1.021700382232666
1761392271189726700,7.450726806640625,2.1975364685058594,1.734572172164917,-1.2800495624542236
1761392271199808800,7.460808837890625,2.727928638458252,1.6895450353622437,-1.502445936203003
1761392271209891800,7.470891845703125,2.9824044704437256,1.3169209957122803,-1.6087828874588013
1761392271219974000,7.480973876953125,2.59364914894104,0.5506458282470703,-1.7022196054458618
1761392271230056000,7.491055908203125,1.9497942924499512,-0.11024288088083267,-1.7245105504989624
1761392271240137700,7.5011376953125,1.516739010810852,-0.22463683784008026,-1.6823312044143677
1761392271250219800,7.5112197265625,1.2574896812438965,0.24860301613807678,-1.5345648527145386
1761392271260302800,7.521302734375,1.1465163230895996,0.8970305919647217,-1.269372820854187
1761392271270385000,7.531385009765625,1.1569257974624634,1.5545164346694946,-0.9042264819145203
1761392271280466700,7.541466796875,1.1976048946380615,1.904692530632019,-0.49265891313552856
1761392271290548700,7.551548828125,1.1546905040740967,1.6339807510375977,-0.10488766431808472
1761392271300630800,7.561630859375,1.0285744667053223,1.012384295463562,0.1946047842502594
1761392271310712800,7.571712890625,0.8596460819244385,0.31788763403892517,0.3311394453048706
1761392271320795600,7.581795654296875,0.6790826916694641,-0.2508693039417267,0.27326229214668274
1761392271330877700,7.591877685546875,0.48296499252319336,-0.5746873021125793,0.019416768103837967
1761392271340959700,7.601959716796875,0.2781546115875244,-0.720414400100708,-0.39297398924827576
1761392271351041800,7.612041748046875,0.06639213114976883,-0.702308714389801,-0.9459021091461182
1761392271361123800,7.622123779296875,0.011365103535354137,-0.7029497027397156,-1.6433261632919312
1761392271371206000,7.632205810546875,0.1726803183555603,-0.9107975959777832,-2.419954299926758
1761392271381288700,7.642288818359375,0.34550854563713074,-0.6299251914024353,-3.1393215656280518
1761392271391370800,7.652370849609375,0.38007524609565735,-0.14751675724983215,-3.7150726318359375
1761392271401452800,7.662452880859375,0.3567313253879547,0.28957483172416687,-4.054505825042725
1761392271411534800,7.672534912109375,0.2894573211669922,0.8963391780853271,-4.109635353088379
1761392271421617000,7.682616943359375,0.3833358883857727,1.374807357788086,-3.852277994155884
1761392271431699700,7.69269970703125,0.5075722932815552,1.6350959539413452,-3.359916925430298
1761392271441781800,7.70278173828125,0.6293631792068481,1.7951782941818237,-2.7025671005249023
1761392271451863800,7.71286376953125,0.7102011442184448,1.8426012992858887,-1.9997196197509766
1761392271461945900,7.72294580078125,0.6768937706947327,1.4818392992019653,-1.3926177024841309
1761392271472028000,7.73302783203125,0.4142041802406311,0.39204394817352295,-0.9755715727806091
1761392271482109700,7.743109619140625,-0.05137231945991516,-0.8369220495223999,-0.5160391330718994
1761392271492192800,7.75319287109375,-0.5286797881126404,-1.4259470701217651,0.212387815117836
1761392271502274800,7.76327490234375,-0.835930585861206,-1.4286763668060303,1.0740175247192383
1761392271512356900,7.77335693359375,-0.9538460969924927,-1.2785604000091553,1.8253175020217896
1761392271522438700,7.783438720703125,-0.9227041602134705,-1.2186208963394165,2.3303003311157227
1761392271532520700,7.793520751953125,-0.7805032134056091,-1.2210361957550049,2.5930306911468506
1761392271542603800,7.803603759765625,-0.6228480935096741,-1.0837310552597046,2.6389527320861816
1761392271552685800,7.813685791015625,-0.5306143760681152,-0.7253614664077759,2.444667339324951
1761392271562768000,7.823767822265625,-0.48981577157974243,-0.6415600776672363,1.9965629577636719
1761392271572849700,7.833849609375,-0.4547041058540344,-0.6451557874679565,1.3965015411376953
1761392271582931700,7.843931640625,-0.3987950086593628,-0.3845928907394409,0.828728437423706
1761392271593013800,7.854013671875,-0.2725139558315277,0.026179075241088867,0.3432559370994568
1761392271603096800,7.864096923828125,-0.06228456273674965,0.47485432028770447,-0.06960461288690567
1761392271613178600,7.8741787109375,0.21084783971309662,0.9209185838699341,-0.38395771384239197
1761392271623260700,7.8842607421875,0.4774113595485687,1.4679665565490723,-0.6216374039649963
1761392271633342700,7.8943427734375,0.6563616394996643,2.039482593536377,-0.8127802610397339
1761392271643424800,7.9044248046875,0.744103729724884,2.578824758529663,-0.9748855233192444
1761392271653507600,7.914507568359375,0.7144778966903687,2.8436014652252197,-1.1371655464172363
1761392271663589600,7.924589599609375,0.34221407771110535,2.806029796600342,-0.9051278233528137
1761392271673671700,7.934671630859375,-0.270024836063385,1.381006121635437,-0.2428932785987854
1761392271683753700,7.944753662109375,-0.2554280757904053,-0.023624364286661148,0.560073733329773
1761392271693835800,7.954835693359375,0.17949527502059937,-0.7907711863517761,1.228358507156372
1761392271703917800,7.964917724609375,0.48235127329826355,-1.2068095207214355,1.6894875764846802
1761392271714000600,7.975000732421875,0.5303627252578735,-1.2569023370742798,1.8772461414337158
1761392271724082700,7.985082763671875,0.4483749568462372,-0.8382366895675659,1.7890334129333496
1761392271734164700,7.995164794921875,0.352449506521225,-0.10675739496946335,1.6444746255874634
1761392271744246800,8.005246826171875,0.28124189376831055,0.5574229955673218,1.5088942050933838
