time,seconds_elapsed,z,y,x
1761379822992430300,0.070430419921875,-0.04852057754099369,-0.20330869593173265,0.23004107390418646
1761379823002513400,0.080513427734375,-0.01380523799061775,-0.1617708168849349,0.12534962326474486
1761379823012596500,0.090596435546875,0.17824761217236518,-0.20611440100222825,0.1820687778957188
1761379823022679300,0.10067919921875,0.305139131116867,-0.3248269974052906,0.3464627098258585
1761379823032762400,0.110762451171875,0.4202209698021412,-0.37077801671922206,0.504790911976248
1761379823042845200,0.12084521484375,0.4415039963275194,-0.38563919350355863,0.6189975021969527
1761379823052928300,0.13092822265625,0.3706564361661672,-0.3941737976148724,0.6304315540768206
1761379823063011300,0.14101123046875,0.2905067946523428,-0.3578878477469086,0.5890234388895332
1761379823073094400,0.151094482421875,0.2585807935595512,-0.30975042430460453,0.5618487970422953
1761379823083177200,0.16117724609375,0.3053589113473892,-0.2992138327211141,0.5617376648180187
1761379823093260300,0.17126025390625,0.328947876727581,-0.3042801761999726,0.5976226326696574
1761379823103343400,0.18134326171875,0.45238604034781454,-0.4080027087420225,0.6092709848873317
1761379823113426200,0.19142626953125,0.5753355436682701,-0.41648236779570574,0.592432955072075
1761379823123509500,0.201509521484375,0.648287382632494,-0.4566127181321382,0.617783231036365
1761379823133592300,0.21159228515625,0.6850193227022886,-0.6089025899663567,0.7090758325289934
1761379823143675400,0.22167529296875,0.6431365757405757,-0.7273582889989018,0.7524697877712547
1761379823153758200,0.23175830078125,0.6067717154175043,-0.7215019641861319,0.7394809076648206
1761379823163841300,0.24184130859375,0.4923030401945114,-0.7107339019343256,0.7060107458699494
1761379823173924000,0.251924072265625,0.38525136322975156,-0.6966226667344569,0.6872667363028973
1761379823184007400,0.26200732421875,0.3270551948487758,-0.6335293739616871,0.6094529173254967
1761379823194090200,0.27209033203125,0.21080781951546668,-0.5730617535173893,0.488669798258692
1761379823204173300,0.28217333984375,0.10136895515322684,-0.5284747160330414,0.40308994838967915
1761379823214256400,0.29225634765625,0.10523790554106235,-0.5199231607869267,0.40877471602782606
1761379823224339200,0.302339111328125,0.13006839541494847,-0.5201201446637511,0.4362149500086903
1761379823234422300,0.31242236328125,0.09781623110771179,-0.5060813901782035,0.4609386915724724
1761379823244505300,0.32250537109375,0.06720949591994285,-0.47347120621353384,0.4657816746242344
1761379823254588400,0.33258837890625,0.1171259117335081,-0.46124797671735285,0.4535346989262849
1761379823264671200,0.342671142578125,0.1920236240684986,-0.48465077187567945,0.46004430001601576
1761379823274754300,0.35275439453125,0.2957353429555893,-0.5310545033931732,0.46571438154168426
1761379823284837000,0.362837158203125,0.3945879313737154,-0.5780313586235046,0.4551627385195344
1761379823294920200,0.372920166015625,0.4894967506021261,-0.5914724394768476,0.4273222531747073
1761379823305004300,0.38300439453125,0.6047504387229681,-0.635635114069283,0.4242373658366501
1761379823315087400,0.39308740234375,0.710807843953371,-0.7046539974987507,0.3959821622110903
1761379823325170200,0.403170166015625,0.6928676981151104,-0.7553902052626014,0.3871984056442976
1761379823335253200,0.413253173828125,0.7100035418331623,-0.7902510907635092,0.4096304560743272
1761379823345336300,0.42333642578125,0.6824228764683008,-0.7952122203022242,0.3674569825377315
1761379823355423700,0.433423828125,0.729062462568283,-0.8068307619035243,0.27556349254250523
1761379823365506600,0.443506591796875,0.8232610877007246,-0.7926324329420924,0.27322175172194835
1761379823375589600,0.453589599609375,0.8077706731021403,-0.8499977034568786,0.33537622927464544
1761379823385672400,0.46367236328125,0.8143751859337091,-0.8965282762244343,0.37068821954391895
1761379823395755500,0.473755615234375,0.7853133421003818,-0.8594982299908995,0.34144473553337157
1761379823405838600,0.483838623046875,0.6906131971865892,-0.8416182899072766,0.2987614858437329
1761379823415921700,0.493921630859375,0.508833319234848,-0.8783341556251049,0.2770421867929399
1761379823426004700,0.504004638671875,0.36896482981741424,-0.8431453533440828,0.16986483762189744
1761379823436087600,0.514087646484375,0.29275486584007737,-0.763082221069932,0.10281856943964958
1761379823446170600,0.524170654296875,0.19334639710485935,-0.6958294705301523,0.06653057374507189
1761379823456253400,0.53425341796875,0.0986129344433546,-0.6439461385577917,0.0686335373736918
1761379823466336500,0.54433642578125,0.037707507103681565,-0.6146642222329973,0.05261003881171345
1761379823476419600,0.554419677734375,-0.007079729127883911,-0.5460092036798596,0.023955606735497712
1761379823486502700,0.564502685546875,-0.08878887504339218,-0.49674482203423975,0.02238338898271322
1761379823496585700,0.574585693359375,-0.09871814838349818,-0.5581374483689665,0.08559840843901037
1761379823506668500,0.58466845703125,-0.08890344133377075,-0.6460983481556177,0.18811288036555052
1761379823516751600,0.594751708984375,-0.19318390001952648,-0.6601610680386424,0.23627616890147327
1761379823526834700,0.604834716796875,-0.3598386895537376,-0.5391036620751023,0.2029641202777624
1761379823536917800,0.614917724609375,-0.6762532479226588,-0.3376318261817097,0.06334514864198863
1761379823547000600,0.62500048828125,-0.9548369650691747,-0.21256752266436815,-0.15898104003593325
1761379823557083600,0.635083740234375,-0.9772282450973987,-0.091209964710474,-0.43218350253552196
1761379823567166500,0.64516650390625,-0.835151431980729,0.07174450900107622,-0.676718381216377
1761379823577249500,0.65524951171875,-0.6665776570826768,0.20889175676107405,-0.713392599749565
1761379823587332600,0.66533251953125,-0.5463929423004389,0.21044044750779867,-0.5433113428980112
1761379823597415700,0.675415771484375,-0.3982862013697624,0.1356084938853979,-0.29757768288664516
1761379823607498800,0.685498779296875,-0.2942664394468069,0.017576573222875595,-0.14336751051433383
1761379823617581600,0.69558154296875,-0.24071722008883953,-0.059391515645384786,-0.14643720028325916
1761379823627664600,0.70566455078125,-0.40837855631709097,-0.0948918680936098,-0.07257358023636043
1761379823637748700,0.715748779296875,-0.6009340953052044,-0.07279694066345692,-0.05676869286112487
1761379823647831600,0.72583154296875,-0.7151824057757854,-0.10956862822175026,-0.13784545915722846
1761379823657914600,0.73591455078125,-0.7418681681275368,-0.06453092436045407,-0.39761626621894536
1761379823667997700,0.745997802734375,-0.6887152546107769,0.0943672596976161,-0.6783221631512045
1761379823678080500,0.75608056640625,-0.6804074449926615,0.2509004681900143,-0.8283458436191081
1761379823688163600,0.76616357421875,-0.597400660482049,0.32112054410278795,-0.8506532447561621
1761379823698246700,0.77624658203125,-0.42153263692259785,0.3896522285372019,-0.8530901165142655
1761379823708329700,0.786329833984375,-0.17199731960594652,0.4127148319557309,-0.7842084495984017
1761379823718412500,0.79641259765625,0.1317564946323633,0.36344314378648995,-0.5982093830490485
1761379823728495600,0.80649560546875,0.40966333543062206,0.28002427134364843,-0.3824047416269779
1761379823738578400,0.816578369140625,0.6644879913270473,0.2130316330447793,-0.2016799987513572
1761379823748661500,0.82666162109375,0.8048597540915012,0.15078823509961367,-0.10028474011309445
1761379823758744800,0.836744873046875,0.8004828541815281,0.05125672450661659,-0.012392521648481487
1761379823768827600,0.84682763671875,0.839198661544919,0.07648527378737927,0.03490582062117755
1761379823778910700,0.85691064453125,0.603573796159029,0.05121054727733135,0.03706504448167979
1761379823788993500,0.86699365234375,0.3618956220835447,-0.07824526919722556,0.04085515747964382
1761379823799076600,0.87707666015625,0.26792612953186035,-0.021793314135074616,-0.11782952995821833
1761379823809159400,0.887159423828125,0.1962497173309326,0.09855097512304782,-0.33727735018823296
1761379823819242800,0.89724267578125,0.1785907265216112,0.146484984947741,-0.45523050652611996
1761379823829325600,0.90732568359375,0.17899930732250213,0.179680275323987,-0.43348936096969987
1761379823839408600,0.91740869140625,0.24095804310739039,0.17954495850652455,-0.3309881138509139
1761379823849491700,0.92749169921875,0.33992110616266724,0.14456570732295512,-0.20299904546067118
1761379823859574500,0.937574462890625,0.4584130455523729,0.08917699757814407,-0.06917085912078619
1761379823869657600,0.94765771484375,0.5538508570909499,0.01866904463469982,0.04319989397488534
1761379823879740700,0.95774072265625,0.6506710628986359,-0.07349778240919112,0.12530885286293922
1761379823889823700,0.96782373046875,0.7563321622878313,-0.15769085409492253,0.14447539869099854
1761379823899906600,0.977906494140625,0.8259919739693403,-0.20860329520851373,0.12834712458029388
1761379823909989600,0.98798974609375,0.8369207797408104,-0.269353531986475,0.12812734434977174
1761379823920072400,0.998072509765625,0.8804331737309694,-0.30870617594867944,0.09338248644396663
1761379823930155500,1.008155517578125,0.9099562053352593,-0.3513566924124956,0.06856346781216562
1761379823940238600,1.018238525390625,0.8907844718754291,-0.42793315161466594,0.055749213620275254
1761379823950321700,1.02832177734375,0.9271814809024334,-0.47814212063401934,0.004043064845725894
1761379823960404700,1.03840478515625,0.9157289435178041,-0.5107148951977492,-0.016795505847781896
1761379823970488600,1.048488525390625,0.8459715166807175,-0.5520490683659911,-0.03131115713007748
1761379823980571400,1.0585712890625,0.7435030758529901,-0.5612459357783198,-0.09252316620089113
1761379823990654700,1.06865478515625,0.6631254708021879,-0.5174783979833125,-0.14292904603183268
1761379824000737800,1.07873779296875,0.606772299939394,-0.4935428111225366,-0.1863954819884151
1761379824010820600,1.088820556640625,0.5530769501090049,-0.48276101260632276,-0.23264321922659872
1761379824020903700,1.098903564453125,0.480690343812108,-0.44818595830947155,-0.2325896624084562
1761379824030986500,1.108986572265625,0.4272288027375936,-0.448936776676774,-0.21501732696928083
1761379824041069600,1.119069580078125,0.36005496265292164,-0.4892711251527071,-0.18856793065667152
1761379824051152600,1.129152587890625,0.309921104696393,-0.5540525171428918,-0.15464344922304152
1761379824061235700,1.139235595703125,0.2533352941215038,-0.6140647950351238,-0.12750022542737424
1761379824071318500,1.149318603515625,0.2058054811835289,-0.6849211230248212,-0.1217192308731377
1761379824081401600,1.159401611328125,0.15916121890842913,-0.7339578333944082,-0.16396386994980275
1761379824091484700,1.169484619140625,0.11657470759153366,-0.7354521636053919,-0.1964745390627533
1761379824101567500,1.1795673828125,0.08102467078268527,-0.7480892345994711,-0.21215704216733575
1761379824111650800,1.18965087890625,0.045424949613213535,-0.7539768313333391,-0.22206593030653893
1761379824121733600,1.199733642578125,0.038166356787085534,-0.7469038242071867,-0.2534082132272422
1761379824131816700,1.209816650390625,0.04994622642993927,-0.7435518834307789,-0.2518018740091473
1761379824141899500,1.2198994140625,0.026021160963177678,-0.7702899604916572,-0.21902269015312192
1761379824151982600,1.229982666015625,0.004251812225580215,-0.7962772191852331,-0.20199637122415004
1761379824162065400,1.2400654296875,-0.056285950845479965,-0.795087424878776,-0.1877759034961462
1761379824172148700,1.250148681640625,-0.11283961271643637,-0.7854451517865061,-0.18678630793690681
1761379824182231600,1.2602314453125,-0.17768354854881763,-0.7576540585413575,-0.19072656999528406
1761379824192314600,1.270314697265625,-0.25392799931764604,-0.6917056685984134,-0.1812828882150352
1761379824202397700,1.280397705078125,-0.30395898142158984,-0.6328501595258712,-0.15836926481314004
1761379824212480500,1.29048046875,-0.37680034574866295,-0.5673860459685325,-0.12696093091890215
1761379824222563600,1.3005634765625,-0.4470955327242613,-0.4882856212466955,-0.09004092093110085
1761379824232646700,1.310646728515625,-0.5150596464037895,-0.41741468020975586,-0.0837852215372026
1761379824242729700,1.320729736328125,-0.6179635560393333,-0.3365700421690941,-0.08524732997901738
1761379824252812500,1.3308125,-0.7006839248239993,-0.2490861122444272,-0.07009601114168763
1761379824262895600,1.3408955078125,-0.7516805370897054,-0.16633564058244227,-0.0537647618047893
1761379824272978400,1.350978515625,-0.7683756513029336,-0.09100392074435949,-0.02613499660119414
1761379824283061500,1.3610615234375,-0.6719388918548822,-0.11551964558064937,0.06671484427079558
1761379824293144600,1.37114453125,-0.4575070366233587,-0.26020781023949385,0.2483664927329868
1761379824303228700,1.381228759765625,-0.3795663033306598,-0.36343233013153076,0.3605091361612081
1761379824313311500,1.3913115234375,-0.33807927768826485,-0.41922582128494973,0.372050593938306
1761379824323394600,1.40139453125,-0.31414427534937855,-0.3766664902359247,0.20778401471488175
1761379824333477400,1.411477294921875,-0.6129460201382637,-0.5308996050924062,0.2869303244050592
1761379824343560700,1.421560791015625,-0.6562883182585239,-0.6167290458083152,0.1781984392683953
1761379824353643800,1.431643798828125,-0.5194271939635277,-0.5398287614792585,-0.011012465466931461
1761379824363722000,1.441721923828125,-0.47354456371068954,-0.4741203177720308,-0.1163299390502274
1761379824373805000,1.45180517578125,-0.5926303773403168,-0.3783130883991718,-0.04386917153857648
1761379824383888100,1.46188818359375,-0.7048562420725822,-0.26105419793576,0.013034399748593568
1761379824393971000,1.471970947265625,-0.7945067023813724,-0.05787906525582075,-0.05427819121964275
1761379824404054000,1.482053955078125,-0.8871089982330799,0.1666045206516981,-0.08127163128107785
1761379824414136800,1.49213671875,-0.904962634831667,0.38174130928218364,-0.11062785495109856
1761379824424220200,1.50222021484375,-0.8237672836571931,0.5900570197209716,-0.16368782948739827
1761379824434303000,1.512302978515625,-0.525972670084238,0.8266083523020148,-0.1763481352265924
1761379824444386000,1.522385986328125,-0.10202595775723457,0.8989461510211229,-0.08949870381318033
1761379824454468900,1.53246875,0.3136696435749531,0.7759624531701207,0.04717603106424212
1761379824464552000,1.542552001953125,0.6324298882871866,0.768602445796132,0.21720906485989688
1761379824474635000,1.552635009765625,0.8366384556680917,0.7380082778289914,0.27508615735433994
1761379824484718000,1.562718017578125,0.9185989459961652,0.5766416578307747,0.31980069367587566
1761379824494801200,1.57280126953125,0.8544757256537675,0.403190047763288,0.4155835923250764
1761379824504884000,1.582884033203125,0.6643348465919494,0.4484343801125884,0.46722515143081544
1761379824514967000,1.592967041015625,0.42658290604948995,0.433388202150166,0.449424048737064
1761379824525049900,1.6030498046875,0.18662439537346362,0.4010001365035772,0.2948424127038568
1761379824535133000,1.6131328125,-0.09436521387100219,0.46377544936835763,0.010847776424512267
1761379824545216000,1.623216064453125,-0.37069910626411434,0.550945198777318,-0.2982523672778159
1761379824555299000,1.633299072265625,-0.6605114889115095,0.6351672042965889,-0.5394545944046228
1761379824565382000,1.6433818359375,-0.7911509622126818,0.7125862518027425,-0.6595435206621885
1761379824575465000,1.65346484375,-0.7617126862823963,0.773259331691265,-0.6835461814098059
1761379824585548000,1.663548095703125,-0.6315004984825849,0.7925722271874547,-0.5625836141228675
1761379824595630800,1.673630859375,-0.5150900415420532,0.8085615312188863,-0.36159736978933216
1761379824605714200,1.683714111328125,-0.3750198920726776,0.8048796278357505,-0.11757730876281856
1761379824615797000,1.693796875,-0.22144962503910062,0.7572013463377952,0.06724741677753628
1761379824625880800,1.703880859375,-0.06010638591647148,0.6836620628744363,0.1702898581009358
1761379824635964000,1.7139638671875,0.11529518917500972,0.5984814414560794,0.2028068838894367
1761379824646047000,1.724046875,0.3553255960434675,0.45552726098299023,0.19686478048935532
1761379824656130000,1.734130126953125,0.5749205331265926,0.3046063394144177,0.18354747214615344
1761379824666213000,1.744213134765625,0.8549562026470899,0.3666165131255984,0.20235555992536244
1761379824676296000,1.7542958984375,1.0266296971261502,0.3308697847008705,0.20546580090038477
1761379824686379000,1.76437890625,1.1036316882640123,0.1828504297927022,0.2204846524644643
1761379824696461800,1.7744619140625,1.17389063488245,0.19320669637322424,0.15989355177097023
1761379824706545000,1.784544921875,1.1845897235512732,0.19769523996412752,0.08350121696405112
1761379824716628000,1.7946279296875,1.1111866336882115,0.11146043331772089,0.027325448494777083
1761379824726711000,1.8047109375,0.9914771352022885,0.051363984273374075,-0.06616437078118324
1761379824736794000,1.814794189453125,0.8772878614425659,0.04296148210912942,-0.17744594040066003
1761379824746877000,1.824876953125,0.7272340780973434,0.04224719635993242,-0.2562403679132461
1761379824756960000,1.8349599609375,0.6166688400536775,0.05175444489568472,-0.32495895322188734
1761379824767042800,1.845042724609375,0.5358247865349054,0.05356207883954048,-0.3843542682595551
1761379824777126100,1.855126220703125,0.4834206455588341,0.04709492865204811,-0.42045916247218845
1761379824787209000,1.865208984375,0.41158933505713935,-0.010704933887720107,-0.4289431323748082
1761379824797292000,1.8752919921875,0.364427770909667,-0.07020283251702784,-0.44219833526723085
1761379824807374800,1.885374755859375,0.3833680337011814,-0.10687982752919196,-0.45113370219916105
1761379824817458000,1.8954580078125,0.41691900564730167,-0.11967998013049364,-0.443690035129711
1761379824827541000,1.905541015625,0.4202624708563089,-0.12921850058734416,-0.39870559582561255
1761379824837624000,1.9156240234375,0.4052823438674211,-0.12386515686064958,-0.34655550267584617
1761379824847707100,1.92570703125,0.3245341519385576,-0.11198124232143163,-0.2876919564273208
1761379824857790000,1.9357900390625,0.2351239301264286,-0.07300766080468893,-0.2545578947190195
1761379824867873000,1.945873046875,0.12915361865758895,-0.03240852391272783,-0.2566612967390567
1761379824877955800,1.955955810546875,0.07316226684451103,-0.0013338789522647856,-0.2541526018537581
1761379824888039000,1.966038818359375,0.03856149358451366,0.006081365740299225,-0.25529775330089033
1761379824898122000,1.9761220703125,-0.008581950384378433,0.016880407652258872,-0.2648920225329697
1761379824908205000,1.986205078125,-0.0824701934158802,0.0061412792339920995,-0.28507739001475274
1761379824918288000,1.996287841796875,-0.11410276452004908,0.010559387937188148,-0.31645905509777367
1761379824928371000,2.006370849609375,-0.14500526778399944,0.053122810639441014,-0.37555436427555977
1761379824938454800,2.016454833984375,-0.11741232745945453,0.07874269732534885,-0.4280353698801249
1761379824948538000,2.0265380859375,-0.07584405327439307,0.049940673471987246,-0.4187865530848503
1761379824958621000,2.036620849609375,0.07487725406885147,-0.18810411253720521,-0.20195611227899787
1761379824968704000,2.0467041015625,-0.0033019641548395155,-0.4773641219988465,0.1059356054816395
1761379824978787000,2.056787109375,-0.5386626403093338,-0.46550037346482276,0.3067725775375962
1761379824988870000,2.066869873046875,-0.8751011650532483,-0.28065000202655793,0.07653590799607336
1761379824998953000,2.076952880859375,-1.3123778990745543,0.030815117241442203,-0.3918837139163166
1761379825009036000,2.0870361328125,-1.6483002909898756,0.27543518998771904,-0.7079545734141022
1761379825019119000,2.097119140625,-1.47617086943686,0.18889117126166818,-0.6503907846525311
1761379825029202000,2.107201904296875,-1.0621072532206772,-0.20081512555032968,-0.35993703536167737
1761379825039285000,2.117284912109375,-1.1720622504115104,-0.18806056565642357,0.012340280004590748
1761379825049367800,2.127367919921875,-1.4893758034467697,-0.16491525239050386,0.1678824316330254
1761379825059451000,2.137450927734375,-1.742182105258107,0.003977963720262051,-0.220554210569337
1761379825069534000,2.147533935546875,-1.9063298804074524,0.32945787207633254,-0.7939348207775503
1761379825079617000,2.157616943359375,-2.1350153019189833,0.6903527926847338,-1.3627894049286842
1761379825089700000,2.1677001953125,-2.1978508205384015,1.049576857471466,-1.484826469579339
1761379825099783000,2.177782958984375,-1.7899316984266043,1.390351073332131,-1.359783501110971
1761379825109866000,2.187865966796875,-1.1026993758499621,1.632183853447437,-1.111580528376624
1761379825119948800,2.19794873046875,-0.40715749008953567,1.6908970314398406,-0.7581740638274699
1761379825130032000,2.2080322265625,-0.10580430725216865,1.494182911467552,-0.31789763653352854
1761379825140115000,2.218114990234375,-0.0038712884753942488,1.161257363280654,-0.057604924489557736
1761379825150198000,2.228197998046875,0.11944295650422572,1.017405649445951,-0.05873115204051137
1761379825160280800,2.23828076171875,0.14423837506473064,1.0335755707412957,-0.16092939762473105
1761379825170364000,2.248364013671875,0.10903554425835608,1.0436977363049984,-0.3115776397317648
1761379825180447000,2.258447021484375,-0.08121756300628184,1.171179037836194,-0.42308468867018817
1761379825190530000,2.268530029296875,-0.24004385087192057,1.3381760649368166,-0.5562957660250365
1761379825200613000,2.278613037109375,-0.44148821423649787,1.547897258259356,-0.7965593971274793
1761379825210696000,2.288696044921875,-0.8169669559925794,1.8387012822926043,-1.0753159866228699
1761379825220779000,2.298779052734375,-1.364265322700143,1.9785069356068967,-1.2670724841877818
1761379825230861800,2.30886181640625,-1.7095301279783248,2.0397823653027416,-1.4415043374642729
1761379825240945200,2.318945068359375,-1.7737556396514176,2.1833678294166923,-1.6124503944516182
1761379825251028000,2.329028076171875,-1.6915560798704623,2.291488304656744,-1.6685815931268035
1761379825261111000,2.339111083984375,-1.395766960901022,2.3322408785447477,-1.5993332848556339
1761379825271195000,2.34919482421875,-1.0666448966503144,2.2243524584949017,-1.39382620209679
1761379825281278000,2.35927783203125,-0.7620937945544719,2.0958821459263564,-1.0262635672274976
1761379825291361000,2.369361083984375,-0.6101467448085546,1.927552701178193,-0.7258612553741782
1761379825301444000,2.379444091796875,-0.5008657013565302,1.750455135823786,-0.7255551850996911
1761379825311527000,2.38952685546875,-0.4392945035845041,1.787703208722174,-0.9161761758286505
1761379825321610000,2.39960986328125,-0.4769862285971641,1.8418062625706195,-1.0110747659239918
1761379825331693000,2.409693115234375,-0.47782267942130563,1.7814058621436357,-0.9743347886782139
1761379825341776000,2.41977587890625,-0.3907353475987911,1.7544544345930217,-0.9097095370978117
1761379825351859200,2.429859130859375,-0.08346154254078865,1.7768126891344784,-0.8470782358136028
1761379825361945900,2.43994580078125,0.22210428955554962,1.7971639877676964,-0.7701919800098985
1761379825372029200,2.450029296875,0.36170331438183784,1.6703984332904218,-0.723483347261697
1761379825382112000,2.460112060546875,0.5404150369346141,1.485503345927596,-0.6747165398746728
1761379825392195000,2.470195068359375,0.6931207960933446,1.4351915010556577,-0.697104751162976
1761379825402278000,2.48027783203125,0.73923255892694,1.4018719997778535,-0.6571268149092793
1761379825412361000,2.49036083984375,0.7236953825771808,1.356004859355092,-0.599984393364936
1761379825422443800,2.50044384765625,0.6649269672662019,1.4105977425470948,-0.576463597850129
1761379825432527000,2.510527099609375,0.540635401687026,1.4645339153960346,-0.4991796479657292
1761379825442610000,2.52060986328125,0.3823737619668245,1.4563634684219955,-0.3990389924984425
1761379825452693000,2.53069287109375,0.21913433383405206,1.4837155857279896,-0.35065066303499043
1761379825462776000,2.540776123046875,0.1128559793293476,1.5296595907792447,-0.349864846419543
1761379825472859000,2.55085888671875,0.0043570261657238,1.5560831950634717,-0.37113304070197045
1761379825482942000,2.56094189453125,-0.02652268074452877,1.57771138176471,-0.3791690476413816
1761379825493025000,2.57102490234375,-0.031208792734146118,1.5941352778211235,-0.36612909493483603
1761379825503108000,2.581108154296875,-0.02939092965722084,1.6051152292579411,-0.2981712648656219
1761379825513191000,2.59119091796875,0.02251110701560974,1.519884631218016,-0.14753822032772004
1761379825523274000,2.60127392578125,0.1440314543157816,1.205413023610413,0.17933621112667023
1761379825533356800,2.611356689453125,-0.06957622505128383,1.0010372829690575,0.40836635442264374
1761379825543440000,2.62143994140625,-0.37506606930196285,1.0810130292207003,0.3586876198224723
1761379825553523000,2.63152294921875,-0.6660305445939302,1.1888786529168487,-0.020676731195300817
1761379825563606000,2.64160595703125,-0.9172598063468933,1.3284034434631466,-0.40935609611235557
1761379825573689000,2.651689208984375,-0.9212503372877836,1.4843629437208175,-0.5940956275872886
1761379825583772000,2.66177197265625,-0.8599421743661164,1.5004489861249923,-0.5026608411449939
1761379825593855000,2.67185498046875,-0.5554875183820724,1.5114555333077906,-0.37518976874686777
1761379825603937800,2.681937744140625,-0.18012334291636942,1.5062673170149325,-0.03668357088342309
1761379825614022100,2.692022216796875,-0.2060539029866457,1.3771578297600149,0.37328145090751347
1761379825624105000,2.70210498046875,-0.41362054862380027,1.0631541319251059,0.672790321052447
1761379825634188000,2.71218798828125,-0.6449199520260095,0.862345143854618,0.63384786532633
1761379825644270800,2.722270751953125,-0.821660082244873,0.9212190653666853,0.37003896185494956
1761379825654354200,2.732354248046875,-0.9095558078408241,0.9962129315525293,0.10058759551718831
1761379825664437000,2.74243701171875,-0.8366255961865187,1.0678791146203874,-0.020847776913270354
1761379825674520000,2.75252001953125,-0.6178618492305279,1.136734331920743,-0.0005979658931493759
1761379825684603000,2.762602783203125,-0.2899246108502149,1.1065054901346563,0.1511990078575909
1761379825694686000,2.77268603515625,-0.029146599507331845,0.9696905430689453,0.3902460297118872
1761379825704769000,2.78276904296875,0.1731055731087923,0.7386421918183564,0.6294196736205369
1761379825714852000,2.79285205078125,0.22651509173512457,0.48316199462264775,0.8063833103969693
1761379825724935200,2.80293505859375,0.07997136233747006,0.28874329211115835,0.9466568734839558
1761379825735018000,2.81301806640625,-0.15820903275012968,0.1573395564392209,1.0271926647711545
1761379825745101000,2.82310107421875,-0.4197030834078789,0.1271218205690384,1.0252679803188889
1761379825755183900,2.833183837890625,-0.6808768160700798,0.20038754778802392,0.9300047946948558
1761379825765267000,2.843266845703125,-0.8972638970226049,0.323311916667223,0.8559778007797897
1761379825775350000,2.85335009765625,-1.0402385357618331,0.4547977776646614,0.7813160891577601
1761379825785433000,2.86343310546875,-1.0718003797173499,0.576042522893846,0.6886839826896787
1761379825795516000,2.873515869140625,-0.98675595189929,0.6104746615886688,0.5812964613666758
1761379825805599000,2.883598876953125,-0.875484026890993,0.5702513722717761,0.4697351614903658
1761379825815682000,2.89368212890625,-0.7630459807127714,0.5108794381096958,0.4010439756453037
1761379825825764900,2.903764892578125,-0.6042991878241301,0.3752805888354778,0.3808033708449453
1761379825835848200,2.91384814453125,-0.41946050682365893,0.23310937543362378,0.35022019919585434
1761379825845931000,2.923930908203125,-0.29397242493629455,0.14927753827571869,0.3043909065654501
1761379825856014000,2.93401416015625,-0.18512451220452783,0.1198518295660615,0.2459354296611622
1761379825866097000,2.944096923828125,-0.0999766240119934,0.14439181206077337,0.18294618178475647
1761379825876180000,2.954179931640625,-0.003416530445218086,0.2496586514353752,0.06823175163976848
1761379825886262800,2.9642626953125,0.15749123986959457,0.34977000774294137,-0.022707725566253063
1761379825896346000,2.97434619140625,0.25577333492338655,0.41840661385655403,-0.032518523625843225
1761379825906429000,2.984428955078125,0.33630876088440415,0.4481409501239657,-0.0015768939279019831
1761379825916512000,2.994511962890625,0.4866688336998224,0.5328624295979738,-0.0018716756233945488
1761379825926595000,3.004594970703125,0.5658960996717214,0.6048603288382292,-0.06550068270806222
1761379825936678000,3.014677978515625,0.5550432817459107,0.6352817705869674,-0.02045932558495551
1761379825946762000,3.024761962890625,0.4467015649706125,0.6880158741697668,0.03264467075616121
1761379825956845000,3.034844970703125,0.42285599448084826,0.8172969185993075,0.02551321144104004
1761379825966928100,3.04492822265625,0.47655718953013415,0.9839572610914706,0.043523426840826863
1761379825977011000,3.055010986328125,0.5489432113051415,1.07624829903692,0.10781272446513175
1761379825987094000,3.065093994140625,0.6395400125533341,1.1279290941745042,0.14490947925932704
1761379825997176800,3.0751767578125,0.7526601957768201,1.1617881091564892,0.12916976607479155
1761379826007260200,3.08526025390625,0.761411072987318,1.124669215595722,0.11858794711008667
1761379826017343000,3.095343017578125,0.6820949596881866,1.0141223899915814,0.11934439150057732
1761379826027426000,3.105426025390625,0.6564911473542452,0.8467083065226674,0.19715397269427776
1761379826037508900,3.1155087890625,0.6268669934630393,0.6399862950161099,0.39537922788187857
1761379826047592000,3.125592041015625,0.4773568154752254,0.3852081086099148,0.6739803345546126
1761379826057675000,3.135675048828125,0.26046120047867294,0.20947043343186378,0.7646824228081852
1761379826067758000,3.145758056640625,-0.032445056530833245,0.2756593541324138,0.45762821531761433
1761379826077841200,3.155841064453125,-0.5636866069287061,0.5262497334599494,-0.00392064404245466
1761379826087924000,3.165924072265625,-1.1963631634533405,0.7890031365290283,-0.4405553538331762
1761379826098007000,3.176007080078125,-1.6246312461107968,1.0230801879510283,-0.8656741421468556
1761379826108089900,3.18608984375,-1.5145792182862758,1.191149520458281,-1.0320013802271335
1761379826118173000,3.1961728515625,-1.2682324678778647,1.127051142296195,-0.900170285988599
1761379826128256000,3.206256103515625,-0.7317863345742225,0.7107455923721194,-0.4871291446879506
1761379826138339000,3.216339111328125,-0.16974281867742538,0.3256818606689572,-0.06926314051412046
1761379826148422000,3.226421875,0.09824468565285205,-0.09658815061748027,0.4315132751237601
1761379826158505000,3.2365048828125,0.2586339850515127,-1.0475450593829154,0.9196295311529189
1761379826168588000,3.246588134765625,0.42962826509475704,-1.7236445780485867,1.0996434954106806
1761379826178670800,3.2566708984375,0.25010522615909575,-1.6787848611027,0.8562249074086546
1761379826188754200,3.266754150390625,-0.20866262418031692,-1.5563392156511544,0.4440161252789199
1761379826198837000,3.2768369140625,-0.5112240137636661,-1.5378215621858835,-0.058066112260520455
1761379826208920000,3.286920166015625,-0.7953297092020511,-1.148733689533174,-0.5841518873304128
1761379826219003000,3.2970029296875,-1.009067152428627,-0.6220394271761178,-0.8380898235201835
1761379826229086000,3.3070859375,-1.171169685485959,-0.43837592743486165,-0.7801472645740956
1761379826239168800,3.317168701171875,-1.1279413691341875,-0.5723100583672524,-0.7169607405599207
1761379826249252000,3.327252197265625,-0.656868163973093,-0.7590437593340873,-0.4648519925586879
1761379826259335200,3.337335205078125,-0.2112602394580841,-0.7141191604584455,-0.192939058412984
1761379826269418000,3.34741796875,-0.067712769266963,-0.9467828379511832,0.03898563728071749
1761379826279501000,3.3575009765625,-0.1519692615777254,-1.3987035988748073,0.1492203281957656
1761379826289583900,3.367583984375,-0.21009762541949747,-1.5579638942435383,0.09080189536623656
1761379826299667000,3.3776669921875,-0.05105097280144691,-1.5755387139007448,-0.057853711618855594
1761379826309751000,3.3877509765625,0.13326339206397533,-1.4261629759475587,-0.31678309942036864
1761379826319834000,3.397834228515625,0.30268472370207306,-1.1164508378267288,-0.6029626785233616
1761379826329917000,3.4079169921875,0.32664486048221586,-0.8220876600071787,-0.682822177984193
1761379826340000000,3.418,0.2702928586632013,-0.7088590479731559,-0.6413336179718375
1761379826350082800,3.428082763671875,0.3109054395586252,-0.701777565279603,-0.601068096948415
1761379826360162300,3.438162353515625,0.4828782092452049,-0.5667950943380594,-0.5440095542952418
1761379826370245000,3.4482451171875,0.6486702444702387,-0.4425073281511664,-0.457807261678949
1761379826380328400,3.458328369140625,0.7197749942630529,-0.3899564721807837,-0.39921887910999354
1761379826390411300,3.468411376953125,0.5308417374253273,-0.17509937727451325,-0.4028350237805396
1761379826400494300,3.478494384765625,0.2655138076931238,0.04112286850512027,-0.32663214713111516
1761379826410577400,3.488577392578125,-0.04430968184769153,0.19099515780359505,-0.18732275290116668
1761379826420660200,3.49866015625,-0.3882201499074697,0.41942689681500195,-0.13661394460089504
1761379826430743300,3.508743408203125,-0.6425994001239538,0.7346095753014087,-0.19785335313528776
1761379826440826400,3.518826416015625,-0.9724959558784961,1.0931015264213084,-0.24387736462019383
1761379826450909400,3.528909423828125,-0.9724749130904674,1.1550322051554918,-0.16445128814056514
1761379826460992300,3.5389921875,-1.0109083963811396,1.1897323471367358,-0.09982479445114731
1761379826471075300,3.549075439453125,-0.9860726458102465,1.24659785143584,0.011119871364161371
1761379826481158100,3.559158203125,-0.8736930518209933,1.2546525630757213,0.0533968052752316
1761379826491241200,3.5692412109375,-0.7407517313182354,1.155085688908398,0.11045293677560984
1761379826501324300,3.57932421875,-0.58781274792552,1.0198130028486252,0.1430918353781104
1761379826511407400,3.589407470703125,-0.39808629488348957,0.9388891620919108,0.18135719556026159
1761379826521490400,3.599490478515625,-0.15955752474963664,0.9243369051262735,0.22930033853948115
1761379826531573200,3.6095732421875,0.0802308900564909,0.9065598408952354,0.2940437000742182
1761379826541656300,3.61965625,0.3357897054463625,0.8722808469355106,0.3932131358891725
1761379826551739100,3.6297392578125,0.5697609584063291,0.8409338147744536,0.5119126901475712
1761379826561822500,3.639822509765625,0.755237937310338,0.7462170109868049,0.6242217396512627
1761379826571905300,3.6499052734375,0.8801543567895889,0.6626189825847745,0.691134371516481
1761379826581988400,3.65998828125,0.9572282441198825,0.6298375337064266,0.7682756980597972
1761379826592071200,3.6700712890625,0.9370441187471151,0.581760608279705,0.8710285087868571
1761379826602154200,3.680154296875,0.917534531635046,0.5383285860493778,0.9512634904965758
1761379826612237300,3.6902373046875,0.9394289680570364,0.5850353921666741,1.0096737400196492
1761379826622320400,3.7003203125,0.8785761476874351,0.6670750852108002,1.0725976675748825
1761379826632403500,3.710403564453125,0.797595900568366,0.7089736142635346,1.1672397986911236
1761379826642486300,3.720486328125,0.7589420525252819,0.7610445777624845,1.2623742433689533
1761379826652569300,3.7305693359375,0.6737450644940137,0.772304515184462,1.4153744554296135
1761379826662652200,3.740652099609375,0.6086772567778825,0.7260887074545025,1.616108040176332
1761379826672735200,3.7507353515625,0.5441840340793133,0.7835963090494275,1.7733432594582437
1761379826682818300,3.760818359375,0.44644729794859883,0.8271279922619461,1.8846905877903102
1761379826692901400,3.7709013671875,0.3374047394275665,0.7862477003410459,1.960124891220033
1761379826702985200,3.780985107421875,0.17477672119140625,0.7951423699364065,2.0045672595366835
1761379826713068300,3.791068359375,0.022501754665374754,0.8570555130138993,2.0496321436658502
1761379826723151000,3.801151123046875,-0.03861468507647514,0.8874722785875201,2.0952536387644707
1761379826733234400,3.811234375,-0.111518008723855,0.9660694299623369,2.100847074857354
1761379826743317200,3.821317138671875,-0.1664613127887249,1.0547282488852738,2.1739415371626616
1761379826753400300,3.831400390625,-0.1243587855964899,1.0396797328352927,2.3450711340233683
1761379826763483400,3.8414833984375,0.029974867025017737,0.9197849409103394,2.504395726799965
1761379826773566200,3.851566162109375,0.23956980361938476,0.8642305192098021,2.6262887068048117
1761379826783649300,3.861649169921875,0.306224588266015,0.7947989633262157,2.7062381495714187
1761379826793732400,3.871732421875,0.4167395574271679,0.6648501026377082,2.7398858598902818
1761379826803815400,3.8818154296875,0.5945908637583256,0.5526663234815001,2.719256913359463
1761379826813898200,3.891898193359375,0.7208978608131408,0.47205344837009905,2.7373116254881023
1761379826823981300,3.901981201171875,0.914925225919485,0.29297698415815826,3.0374706301048398
1761379826834064100,3.912064208984375,1.0660714806765317,0.062062488420307635,3.453378997404873
1761379826844147200,3.922147216796875,1.2755991972535847,-0.21948533922880886,3.88282138453871
1761379826854230500,3.93223046875,1.302397187808156,-0.47416707952320575,4.17328697039783
1761379826864313300,3.942313232421875,1.081270803374052,-0.651575318261981,4.246769262976944
1761379826874396400,3.952396484375,0.7325608260780573,-0.6864096080169081,4.103260663491487
1761379826884479200,3.962479248046875,0.14304770397543906,-0.5019119955390692,3.738109839004278
1761379826894562300,3.972562255859375,-0.3675193071842193,-0.24399872597754,3.2320793022304772
1761379826904645000,3.98264501953125,-0.7110691252380609,0.17796236549019812,2.606030639412999
1761379826914728400,3.992728515625,-0.9937935954511165,0.5936413079485297,2.306480268213898
1761379826924811300,4.002811279296875,-1.1118442208141088,0.7617492189005017,2.1871996626645327
1761379826934894300,4.012894287109375,-0.9256710763394832,0.9729247026845812,2.0886954492926595
1761379826944977400,4.022977294921875,-0.43066053075194355,1.0290072399124504,2.0245764667339623
1761379826955060200,4.033060302734375,-0.07141746900379657,0.9373851872697472,2.220620432359725
1761379826965143300,4.043143310546875,0.06349252122342586,0.6145528708130121,2.5506448522776366
1761379826975226400,4.053226318359375,0.35001579919755454,0.2158265244603157,2.7852640477523205
1761379826985309400,4.063309326171875,0.6767237880438566,-0.020399813950061796,2.8359049784481525
1761379826995392300,4.073392333984375,0.7289835521131753,-0.17868220419734715,2.8815172673270104
1761379827005475300,4.083475341796875,0.6333633697450161,-0.414782870401442,2.9916736323088404
1761379827015558100,4.09355810546875,0.4731272150814533,-0.6559954727917909,3.0462416733205315
1761379827025641200,4.10364111328125,0.19956804809868334,-0.8083242153316735,3.008582681533694
1761379827035724300,4.113724365234375,-0.08797405152916908,-0.8066568666413426,2.8862931034266945
1761379827045807400,4.123807373046875,-0.3645902679949999,-0.7866942750647664,2.7386840828850865
1761379827055890400,4.133890380859375,-0.6619125878810882,-0.7377841136842965,2.5673507801458237
1761379827065973200,4.14397314453125,-0.9572767594367265,-0.5803425581753253,2.4392256277531383
1761379827076056300,4.154056396484375,-1.056235146316886,-0.43671354718059296,2.3726383553847668
1761379827086139100,4.16413916015625,-1.0606336735367774,-0.3370964041307568,2.2926965114027262
1761379827096222500,4.174222412109375,-0.9601502690464258,-0.28837592010349034,2.2227738110013306
1761379827106305300,4.18430517578125,-0.8099789968013763,-0.22724925122857093,2.1572408699914813
1761379827116388400,4.194388427734375,-0.6466752712607383,-0.1464692028567195,2.1423969366028905
1761379827126471200,4.20447119140625,-0.5064940626323223,-0.08688537950962781,2.1837232187256217
1761379827136554200,4.21455419921875,-0.3681763097882271,0.00807312407940626,2.2414172828033565
1761379827146638300,4.224638427734375,-0.20794307773411272,0.11107961730659008,2.32664174336344
1761379827156721400,4.234721435546875,-0.09923720382153987,0.1772486642628908,2.411278759424388
1761379827166804200,4.24480419921875,-0.010687982752919196,0.28014935902804133,2.43940010753721
1761379827176887300,4.25488720703125,0.1381137547045946,0.39756227100938557,2.402314970115572
1761379827186970000,4.26497021484375,0.29395488927960395,0.5067278713881969,2.3564405231691894
1761379827197053400,4.275053466796875,0.4301800537586212,0.6371981256023049,2.3049792160011826
1761379827207136500,4.285136474609375,0.5998702654659748,0.7805249387800693,2.2640783196836707
1761379827217219300,4.29521923828125,0.7724456772208214,0.9091580406948924,2.269744090360403
1761379827227302400,4.305302490234375,0.9600912323355674,1.0286483434721827,2.2795289867937565
1761379827237385200,4.31538525390625,1.124637651413679,1.1642872324958442,2.2517916695624587
1761379827247468300,4.32546826171875,1.2955349008232355,1.2006205286368727,2.2831951080858706
1761379827257551400,4.33555126953125,1.3997890560239552,1.2161588740304112,2.3402640260025858
1761379827267634400,4.345634521484375,1.4717010305464266,1.0889715870097278,2.3953205811835825
1761379827277717200,4.35571728515625,1.4820540822565555,0.893979468524456,2.518216454620659
1761379827287800300,4.36580029296875,1.3321762400001287,0.8226882562488317,2.577165779456496
1761379827297883400,4.37588330078125,1.107114269682765,0.8781415556624531,2.5212968849793076
1761379827307966200,4.38596630859375,0.7817220396101474,0.9915148368641733,2.3391690703727304
1761379827318049500,4.396049560546875,0.486969862473011,1.2067121235102414,2.037964794486761
1761379827328132400,4.40613232421875,0.2469832947462797,1.4153732863858342,1.7632979585230348
1761379827338215400,4.41621533203125,0.21574995209276676,1.515265154723823,1.6618046463377774
1761379827348298200,4.42629833984375,0.3517091591119766,1.437011117698252,1.7576326262377202
1761379827358381600,4.436381591796875,0.3469990817248821,1.3367138834297656,1.9241132282488047
1761379827368464600,4.446464599609375,0.23490005824267862,1.2518240616515277,2.1095717947132884
1761379827378547700,4.456547607421875,0.1559077700704336,1.0338479579418898,2.2300144297793505
1761379827388630500,4.466630615234375,-0.10263035339117049,0.8807000079736113,2.2159055326670405
1761379827398713600,4.476713623046875,-0.5058814836919308,0.8050915170207619,2.1649653267636895
1761379827408796700,4.486796630859375,-0.7910966016769408,0.7329948335811496,2.155353302679211
1761379827418879500,4.49687939453125,-0.9354489585101604,0.6766089294925332,2.1436261861369013
1761379827428962800,4.506962890625,-0.9133318192481994,0.6844532132521272,1.9465376798942684
1761379827439045600,4.517045654296875,-1.0064508324503898,0.7763397620499134,1.827092093041539
1761379827449128700,4.527128662109375,-1.276288933083415,0.8793842491999267,1.6577862044766545
1761379827459211500,4.53721142578125,-1.677625169673562,0.8154989292666316,1.5356478714086115
1761379827469294600,4.547294677734375,-1.9420769010931251,0.8635667946040629,1.3779060177788138
1761379827479377400,4.55737744140625,-2.136051074707508,1.1536290603592991,1.0818538639590143
1761379827489460700,4.567460693359375,-2.2777444414645434,1.5146774179637432,0.8728359966002405
1761379827499543600,4.57754345703125,-2.2474305517435074,1.7944652502030134,0.7930910634297877
1761379827509626600,4.587626708984375,-2.0007687440365554,2.031760971410572,0.6503172079596669
1761379827519709700,4.597709716796875,-1.599270594882965,2.342451306913793,0.5029318401060998
1761379827529792500,4.60779248046875,-1.1428554451495407,2.493063893185556,0.4166431113153696
1761379827539875600,4.61787548828125,-0.7440490192979574,2.3975424950167534,0.5126176600791513
1761379827549958700,4.627958740234375,-0.23472177906632422,2.261941307654977,0.5945876488879323
1761379827560041700,4.638041748046875,0.2311725621521473,2.242134198901057,0.557449319974333
1761379827570124500,4.64812451171875,0.45343350357413287,2.2273305975228546,0.515476410511136
1761379827580207600,4.65820751953125,0.44368835462927814,2.2121695610091088,0.4626614967770874
1761379827590290400,4.66829052734375,0.3680219960093498,2.2120175853177906,0.473109094902873
1761379827600373500,4.67837353515625,0.2149415583193302,2.195820483754575,0.44623803911209103
1761379827610457600,4.68845751953125,0.025874445968866348,2.230905241139233,0.3484364210516214
1761379827620540700,4.698540771484375,-0.16938801389038563,2.289496838578582,0.20111454688832162
1761379827630623500,4.70862353515625,-0.4352490275859833,2.3492577720582486,-0.018433920704573392
1761379827640706600,4.71870654296875,-0.7231395022600888,2.420592531214654,-0.22932313489317893
1761379827650789400,4.728789306640625,-0.8734773632436991,2.4152158066123723,-0.435633642989397
1761379827660872700,4.738872802734375,-0.9034533993124961,2.355312249791622,-0.6137479841709137
1761379827670955800,4.748955810546875,-0.8734159884452819,2.250482048268616,-0.7455885038249194
1761379827681038600,4.75903857421875,-0.7982967423141002,2.14604406093359,-0.8433562196157872
1761379827691121700,4.76912158203125,-0.6646557491093874,1.9950962513580917,-0.9280432122983038
1761379827701204500,4.77920458984375,-0.5685656111419201,1.7878838259860872,-0.9586769816234707
1761379827711287600,4.78928759765625,-0.5180138200342654,1.6309455438241363,-0.9658110712870955
1761379827721370600,4.79937060546875,-0.46399581412076946,1.47908003488183,-0.9706846686728298
1761379827731453700,4.80945361328125,-0.45436756955385205,1.3195347850918768,-0.9658253920733928
1761379827741536500,4.81953662109375,-0.5677396817117929,1.203223404611647,-0.9252923061549663
1761379827751619600,4.82961962890625,-0.7020043597728014,1.1228913922682404,-0.8996854250811039
1761379827761702700,4.83970263671875,-0.8688871128439902,1.0702052194803953,-0.8696013985931873
1761379827771785500,4.849785400390625,-1.080895540320873,0.9943050521045923,-0.8724170405358076
1761379827781868800,4.859868896484375,-1.2895868060737847,0.9383917339637875,-0.9285926628746092
1761379827791951600,4.86995166015625,-1.4299831187576055,0.826921363773942,-0.9811426420621573
1761379827802034700,4.88003466796875,-1.5058365243822336,0.7189326982200145,-1.0123604948855935
1761379827812117500,4.890117431640625,-1.613726405736804,0.6478907845303415,-1.0234383537389338
1761379827822200600,4.90020068359375,-1.6755366729617118,0.7037573409199714,-1.088781325134635
1761379827832283400,4.910283447265625,-1.7056623466342686,0.7706865585938095,-1.0954138950169086
1761379827842366700,4.92036669921875,-1.7140619261890648,0.779240451927483,-0.9935254460342228
1761379827852449500,4.930449462890625,-1.7287901242434978,0.8722063203945756,-0.8332517358392476
1761379827862532600,4.94053271484375,-1.649946304631233,1.0578095560267566,-0.6664027389071882
1761379827872615700,4.95061572265625,-1.4656500599443911,1.1923515897244215,-0.40477760921567674
1761379827882698500,4.960698486328125,-1.1088865400522947,1.0694511862426996,0.046414399041980504
1761379827892781600,4.970781494140625,-0.758262838089466,0.7122837617248297,0.571353780555725
1761379827902864600,4.98086474609375,-0.7252502108037472,0.45072015296220774,0.9300713571250439
1761379827912947700,4.99094775390625,-0.9962111779868602,0.3622989421874285,0.9623622460074722
1761379827923030500,5.001030517578125,-1.2327549117833376,0.38779432571083305,0.6766758572489023
1761379827933113600,5.011113525390625,-1.537285555613041,0.6120674837380647,0.5096007964760064
1761379827943196400,5.021196533203125,-1.589814784273505,0.8377297580361366,0.4735536237999797
1761379827953279500,5.031279541015625,-1.559448872104287,1.0679507185518742,0.47076618503853673
1761379827963362800,5.04136279296875,-1.4956816255927086,1.354950966387987,0.5605214208960533
1761379827973445600,5.051445556640625,-1.4346341594338416,1.6014070223897694,0.788529235406965
1761379827983528700,5.06152880859375,-1.3931471337914465,1.7021999312207101,0.9691049982659519
1761379827993611500,5.071611572265625,-1.3460264861762523,1.7718863386482,1.0483151669725774
1761379828003694600,5.081694580078125,-1.4070710297256708,1.764084724986553,1.1557403534248472
1761379828013777400,5.09177734375,-1.592590094205737,1.8225085646435617,1.161764143759012
1761379828023860700,5.10186083984375,-1.9448551336348057,2.0456474579438564,1.1089444077193737
1761379828033943600,5.111943603515625,-2.376867663517594,2.372216622841358,0.8793661290213465
1761379828044026600,5.122026611328125,-2.805482367655635,2.827428826525807,0.5051109377108514
1761379828054109700,5.132109619140625,-3.0714211227625605,3.2326600247278807,0.27164544231593607
1761379828064192500,5.142192626953125,-3.032753830716014,3.5877670095846055,0.08588833129629492
1761379828074275600,5.152275634765625,-2.721392464083433,3.9666079212501644,-0.039605888070911165
1761379828084358700,5.162358642578125,-2.3057634982466695,4.368501791723072,-0.15644421503469347
1761379828094441700,5.172441650390625,-1.7785627476722001,4.564154712204635,-0.15782120247632264
1761379828104524500,5.182524658203125,-1.1945961537808178,4.612069140546024,0.030600597707927224
1761379828114607600,5.192607666015625,-0.7139537407636642,4.576559435747564,0.24827494199201464
1761379828124690400,5.2026904296875,-0.37977147051393984,4.521700010573864,0.2600504277206957
1761379828134773500,5.2127734375,-0.14280805000066757,4.54869381596148,0.20027341988906264
1761379828144857600,5.222857666015625,-0.0598310761064291,4.625193702796102,0.19882468238547443
1761379828154940700,5.232940673828125,-0.12157295427024364,4.742252686773241,0.30108050337582826
1761379828165023500,5.2430234375,-0.2410965747952461,4.908111065232753,0.31796719463840123
1761379828175106600,5.2531064453125,-0.3954062620192766,5.1167245895743365,0.23766389693282544
1761379828185189600,5.263189697265625,-0.5558522600412369,5.29646623969674,0.1562917278867215
1761379828195272700,5.273272705078125,-0.6137970840096474,5.4368637214243405,0.15429375900253653
1761379828205355500,5.28335546875,-0.5881517706215381,5.462253014224768,0.2102793386619538
1761379828215438600,5.2934384765625,-0.5317722962737084,5.353941108065843,0.2693895531479269
1761379828225521700,5.303521728515625,-0.4790139350324869,5.222468106549978,0.24753406049683688
1761379828235604500,5.3136044921875,-0.4939882168024778,5.120307124236226,0.2429544045563787
1761379828245687800,5.323687744140625,-0.6132669226557016,5.037326643210649,0.2530971745166927
1761379828255770600,5.3337705078125,-0.8375134849369525,4.9711517510354515,0.22393537744022904
1761379828265853700,5.343853759765625,-1.0471294643193483,4.95550877622366,0.13407638894729315
1761379828275936500,5.3539365234375,-1.2588105595380068,4.8851910851553075,0.07284662502408028
1761379828286019600,5.36401953125,-1.482032454946637,4.742707152542471,0.09420030563287436
1761379828296102400,5.374102294921875,-1.742503007775545,4.620381918600201,-0.006045929100736975
1761379828306185700,5.384185791015625,-1.9505244114428757,4.58830627990365,-0.23194449637271464
1761379828316268800,5.394268798828125,-1.9868916098535059,4.50235788898319,-0.3957620166543871
1761379828326351600,5.4043515625,-1.9732535451233386,4.353210699088871,-0.4257676441438496
1761379828336434700,5.4144345703125,-1.94850255022645,4.212750088997185,-0.38352388185001907
1761379828346517500,5.424517578125,-1.9047066631197929,4.111257507464289,-0.36827476519402114
1761379828356600600,5.4346005859375,-1.8459435085058211,3.9709079565316436,-0.40457368414141237
1761379828366683600,5.44468359375,-1.8119915545433758,3.8109573408111928,-0.49828390470240264
1761379828376767000,5.45476708984375,-1.786748392215371,3.6357922048240896,-0.5777764705469831
1761379828386849800,5.464849853515625,-1.7384347354233265,3.485498182982206,-0.6952864496946335
1761379828396932900,5.474932861328125,-1.7255577181935309,3.413947735248506,-0.832497702601552
1761379828407015700,5.485015625,-1.672557949411869,3.3301673360168933,-0.9847504572957754
1761379828417098800,5.4950986328125,-1.666543219166994,3.2696208051174875,-1.0516854471232742
1761379828427181800,5.505181884765625,-1.7562018627822398,3.23394831097275,-1.0492768516115845
1761379828437265000,5.515264892578125,-1.8355062856435775,3.2092595676571127,-1.067931283199042
1761379828447348000,5.525347900390625,-1.8445201977044343,3.2131206269994377,-1.1257700164444744
1761379828457430800,5.5354306640625,-1.7052818228840827,3.123683809441328,-1.1919929855450988
1761379828467513900,5.545513916015625,-1.5873773279935122,2.9090941332995888,-1.2037920713450758
1761379828477596700,5.5555966796875,-1.4287071074724196,2.669129777404666,-1.214271014457196
1761379828487679700,5.5656796875,-1.3913982442975044,2.442531099039316,-1.2155140002556144
1761379828497762800,5.5757626953125,-1.5298592050045727,2.2601044476166368,-1.191143967500329
1761379828507846000,5.585845947265625,-1.5957283922314642,2.0584286135837435,-1.1324671029303222
1761379828517929000,5.595928955078125,-1.6336626938283443,1.8377569871798156,-1.0368818457450717
1761379828528011800,5.60601171875,-1.6978788531512021,1.6770122984722255,-1.0471603709142654
1761379828538094800,5.6160947265625,-1.9957342570006846,1.601096349005401,-1.2212462602972984
1761379828548177700,5.626177734375,-2.5589509083300825,1.4830466004252434,-1.395308111217618
1761379828558261000,5.636260986328125,-2.7357126658588644,1.563371306245029,-1.7415972911074757
1761379828568343800,5.64634375,-2.6286428687155245,1.749347759103775,-2.1331800493158397
1761379828578427000,5.656427001953125,-2.3329198007196186,1.5382146531566976,-2.2558716323524712
1761379828588509700,5.666509765625,-1.6830980481266975,1.3557421167656778,-2.277434937123954
1761379828598592800,5.6765927734375,-1.0287515115857124,1.0353121852755547,-2.272241167873144
1761379828608675800,5.68667578125,-0.5271861375272273,0.5950894609302282,-1.9974965904980897
1761379828618759000,5.696759033203125,-0.3282774301201105,0.1904758101046085,-1.7818500987797974
1761379828628842000,5.706842041015625,-0.2690332139909267,-0.22795243106186389,-1.7662530089363455
1761379828638924800,5.7169248046875,-0.3181745537787676,-0.49590837121009823,-1.8938349943630397
1761379828649007900,5.7270078125,-0.30865386123955246,-0.5098565248027443,-1.994884654434025
1761379828659090700,5.737090576171875,-0.39243104560077186,-0.45910862660109997,-1.9903499336138366
1761379828669173800,5.747173828125,-0.443214891898632,-0.31949352742284537,-1.9510849679350852
1761379828679256800,5.7572568359375,-0.49852995188534255,-0.21187691005170345,-1.9503334189154207
1761379828689340000,5.76733984375,-0.5238181223988533,-0.2473497899711132,-2.041604466163367
1761379828699422700,5.777422607421875,-0.38870296498835083,-0.028785072718560695,-1.9876326374791562
1761379828709505800,5.787505859375,-0.27927637558579443,0.09662117610424756,-1.8153396959275006
1761379828719588900,5.7975888671875,-0.17565233498215674,-0.0244888368293643,-1.477029970484227
1761379828729673000,5.8076728515625,-0.1054495024651289,-0.1526174963533878,-1.3058484973058104
1761379828739755800,5.817755859375,-0.025708441752195357,-0.2068655116304755,-1.3647569056093691
1761379828749838800,5.8278388671875,-0.030658173114061354,-0.20176964979618786,-1.5535801262013613
1761379828759921700,5.837921630859375,-0.05025017781257629,-0.17574147457033396,-1.6532988299295306
1761379828770004700,5.848004638671875,-0.21904022580981253,-0.2226288979515433,-1.6657047225162387
1761379828780087800,5.858087890625,-0.28243396283388134,-0.18101853819042443,-1.662361841829121
1761379828790171000,5.8681708984375,-0.322207754817605,-0.10259586659967898,-1.6301915105864404
1761379828800254000,5.87825390625,-0.30083821905255315,-0.05983750584721565,-1.6389876882433891
1761379828810336800,5.888336669921875,-0.3888672156393528,-0.015396306574344635,-1.7386261663421987
1761379828820419800,5.898419921875,-0.3947264630615711,0.09712386492937802,-1.7365106354929505
1761379828830502700,5.908502685546875,-0.32937866936028004,0.20609774212837217,-1.7252382769808172
1761379828840585700,5.918585693359375,-0.00860123960673809,0.19236907650530338,-1.7304853838540613
1761379828850668800,5.928668701171875,0.3414227428972721,0.14054770385324955,-1.6663135020643471
1761379828860752000,5.938751953125,0.5236521181821823,0.15751929692029953,-1.50158149728626
1761379828870835000,5.9488349609375,0.5036684838175773,0.2716612244069576,-1.3597070748738944
1761379828880917800,5.958917724609375,0.5067974294930696,0.3281409442588687,-1.346097067194432
1761379828891000800,5.969000732421875,0.44042204630970955,0.4562538216918707,-1.3431462545648216
1761379828901083600,5.979083740234375,0.27653204531371595,0.6419467814341188,-1.3557193204119802
1761379828911167000,5.9891669921875,0.30653672295510764,0.750888802190125,-1.2343768138967455
1761379828921249800,5.999249755859375,0.3761708156734705,0.7818336832910776,-1.0361054545450954
1761379828931332900,6.009332763671875,0.5197054263830184,0.8236722988501191,-0.8872731758188456
1761379828941415700,6.019415771484375,0.7551876684278249,0.8912053276360035,-0.8746235376041382
1761379828951498800,6.029498779296875,0.9239081583201885,0.9120134301260113,-0.9145045893546193
1761379828961581800,6.039581787109375,1.051497596400976,1.0129036618515848,-0.9245173031944781
1761379828971665000,6.049664794921875,0.9905272871315479,1.0865104575932025,-0.9802596486825496
1761379828981748000,6.059748046875,0.8791700219273567,1.1479343558490276,-1.0062702151864766
1761379828991830800,6.069830810546875,0.7548802099138497,1.1726985024884342,-1.013983639108017
1761379829001913900,6.079913818359375,0.6411877797603607,1.2873995251625776,-1.1620688988592476
1761379829011996700,6.08999658203125,0.5534206489801407,1.5198577432110905,-1.4004077724441886
1761379829022079700,6.100079833984375,0.5895020161867142,1.6267130208209155,-1.4111355026856065
1761379829032162800,6.110162841796875,0.7072229712039232,1.5291042949840425,-1.3471604586422443
1761379829042246000,6.120245849609375,0.8912725476533174,1.226812077730894,-1.0646970505181699
1761379829052328700,6.13032861328125,0.7179688216239214,0.8349304827064276,-0.7358651283204555
1761379829062411800,6.140411865234375,0.6559416967779398,0.7463742473751306,-0.7027160151734948
1761379829072494800,6.150494873046875,0.45607554251551624,0.8888748388618231,-0.7897591425281018
1761379829082577700,6.16057763671875,0.043487844070792196,0.8303168514311313,-0.7866732322767377
1761379829092661000,6.170660888671875,-0.48269408484995363,0.731873136074841,-0.8243606464404613
1761379829102743800,6.180743896484375,-0.9397826038002968,0.8410092180982232,-1.046509359659627
1761379829112827000,6.190826904296875,-1.4309317977845668,1.0141726588740945,-1.1668342866301535
1761379829122909700,6.20090966796875,-1.9667203439623115,1.0903937287673353,-1.14141620612666
1761379829132992800,6.21099267578125,-1.9998884540706872,1.2950184757336973,-1.2985543947748839
1761379829143075600,6.22107568359375,-1.547729208216071,1.610633992679417,-1.4216282551273702
1761379829153159000,6.231158935546875,-1.2877560835152864,1.5826117210268973,-1.6130666266538203
1761379829163242000,6.241241943359375,-0.9145780199170112,0.9835635855987668,-1.46745184866935
1761379829173324800,6.25132470703125,-0.3828361187815666,0.8993228753790259,-0.9537851909939199
1761379829183407900,6.261407958984375,-0.12499240732491015,0.6199784029930829,-0.47548685688488185
1761379829193490700,6.27149072265625,0.40106209582388397,0.10022241546660661,-0.22157208237499
1761379829203573800,6.28157373046875,1.0279588999032974,-0.12129033793658017,-0.10307444389685988
1761379829213656800,6.29165673828125,1.3649264169573783,-0.29899522153437136,0.021557313422113655
1761379829223740000,6.301739990234375,1.442863643118739,-0.550697069235146,0.1685224831022322
1761379829233822700,6.31182275390625,1.42575994810462,-0.7139023028373718,0.21243724734820424
1761379829243905800,6.32190576171875,1.2383160530418156,-0.765168964216113,0.14076909151896833
1761379829253988900,6.33198876953125,0.8249392500460148,-0.7711690814137458,0.035152708054333924
1761379829264071700,6.34207177734375,0.33353052834272384,-0.7039493563607334,-0.156690810206905
1761379829274155000,6.352155029296875,-0.19696751021146774,-0.5463643007278443,-0.32382892627865073
1761379829284237800,6.36223779296875,-0.49647886457443235,-0.39837943261116743,-0.4777785480186343
1761379829294321000,6.37232080078125,-0.6740542765736579,-0.2962397853463888,-0.5981145078398287
1761379829304403700,6.38240380859375,-0.7116121460735797,-0.23268910419493913,-0.6569492663852871
1761379829314486800,6.39248681640625,-0.7500824542433023,-0.12187456756532192,-0.6884972279459237
1761379829324569600,6.402569580078125,-0.7571873178124428,-0.017279928363859654,-0.6769764476306737
1761379829334653000,6.41265283203125,-0.7382295193642378,0.038270693944394585,-0.6525942860461771
1761379829344735700,6.42273583984375,-0.7216986558020114,0.09940934551805257,-0.6021667058400809
1761379829354818800,6.43281884765625,-0.8029623960375786,0.1833940351501107,-0.5167388316623867
1761379829364902000,6.44290185546875,-0.8727753524541855,0.2897866636842489,-0.542757800668478
1761379829374984700,6.452984619140625,-0.8033540257036685,0.43973172595798965,-0.6017793139576911
1761379829385067800,6.46306787109375,-0.74630059761703,0.5278635983973741,-0.6592144348382949
1761379829395150800,6.47315087890625,-0.6831435919582843,0.5899900919646024,-0.713235947883129
1761379829405234000,6.48323388671875,-0.6045253977954387,0.6603665274828672,-0.7287035661280155
1761379829415316700,6.493316650390625,-0.44845629968345163,0.6737205145746469,-0.6900688611768185
1761379829425399800,6.50339990234375,-0.2544160750955343,0.6990674295380711,-0.7308965461276471
1761379829435482600,6.513482666015625,-0.028420623320341107,0.7387193487077951,-0.7614746397428214
1761379829445565700,6.523565673828125,0.09855857390761374,0.7288382984235883,-0.7065348428092897
1761379829455649800,6.53364990234375,0.24605390494167803,0.7649220037177205,-0.6913847660809755
1761379829465732900,6.54373291015625,0.39962008032202717,0.771556619426608,-0.5878606787204742
1761379829475815700,6.553815673828125,0.4975432789355516,0.7214306525155901,-0.40722894789054986
1761379829485898800,6.563898681640625,0.4784621463686228,0.619068302410841,-0.22592691658362746
1761379829495981800,6.57398193359375,0.44838440349102016,0.5490475484624505,-0.05509717945232987
1761379829506065000,6.58406494140625,0.2770031699568033,0.5142372241050005,0.10643895189389586
1761379829516148000,6.59414794921875,0.20793840155899523,0.44790275745391844,0.1286746029689908
1761379829526230800,6.604230712890625,0.1393120245784521,0.3883423149824142,0.05356529370993376
1761379829536313900,6.61431396484375,0.01280278294980526,0.38058980115950103,-0.18156404324397443
1761379829546396700,6.624396728515625,-0.1252513505220413,0.3542480299398303,-0.41378392249196766
1761379829556480000,6.63447998046875,-0.31029870583713054,0.28322131381928917,-0.6288746800236403
1761379829566562800,6.644562744140625,-0.4059013525485992,0.2695475932538509,-0.7534184667982161
1761379829576646000,6.65464599609375,-0.5111901114940643,0.32471798407286406,-0.84037391586937
1761379829586728700,6.664728759765625,-0.5729828430622815,0.30410949580818414,-0.8484422176431864
1761379829596811800,6.674811767578125,-0.47560266528427597,0.2125657690986991,-0.7416071060385555
1761379829606894800,6.684894775390625,-0.3376934932410717,0.13930676388144492,-0.42326048362851143
1761379829616978000,6.69497802734375,-0.15523030920028685,-0.17483809598982333,-0.10259623192586004
1761379829627061000,6.70506103515625,0.16723346620500087,-0.44698739617466926,0.17296433800719677
1761379829637143800,6.715143798828125,0.31059096678197384,-0.609103373235464,0.23922698153108357
1761379829647227000,6.725226806640625,0.2896855413973331,-0.884825855731964,0.2480263009931892
1761379829657309700,6.735309814453125,0.23840368244946,-1.05261900164634,0.27810060980468987
1761379829667392800,6.745392822265625,0.3389005309432745,-1.2484729976579547,0.23117468104399738
1761379829677475800,6.755475830078125,0.4914227502286434,-1.5209616127997636,0.2294863626308739
1761379829687559000,6.765558837890625,0.5361193855673074,-1.7981909927278756,0.3455781820762902
1761379829697641700,6.775641845703125,0.4424696264892816,-2.0363968145176767,0.4747940523151308
1761379829707724800,6.785724853515625,0.16880816817581654,-2.1001661068558692,0.46491110233478244
1761379829717807900,6.795807861328125,-0.16987375158071516,-2.008613027796149,0.26875271654911337
1761379829727890700,6.805890625,-0.5132482130676508,-1.8948957554623485,0.09990421636290847
1761379829737974000,6.81597412109375,-0.7742465891629458,-1.6962749250859022,-0.15748634449876844
1761379829748056800,6.826056884765625,-1.0607546695679426,-1.4908869386620818,-0.18571867870539427
1761379829758140000,6.836139892578125,-1.3445938230246304,-1.500598623728752,0.014345263151451945
1761379829768222700,6.84622265625,-1.4183938032507895,-1.597364469000697,0.1340652099661529
1761379829778305800,6.856305908203125,-1.267995151990652,-1.6917976335413754,0.2001665985137224
1761379829788388600,6.866388671875,-0.95743808747828,-1.8686540836162864,0.15107041304185986
1761379829798472000,6.876471923828125,-0.5047860896706581,-2.0175401383563876,0.06226911690831184
1761379829808555000,6.886554931640625,-0.06612754590213299,-2.1078816496692596,-0.0892838920187205
1761379829818637800,6.896637939453125,0.2917097407013178,-2.1681315357096493,-0.22924422443807124
1761379829828721000,6.906720947265625,0.6246680221140384,-2.080156315136701,-0.35062472487613555
1761379829838803700,6.9168037109375,0.9940969623118638,-2.0398076458744705,-0.4406999864682555
1761379829848886800,6.92688671875,1.186067394888401,-1.9916623313866555,-0.4369577312000096
1761379829858969900,6.936969970703125,1.1670680953860282,-1.9115815173253417,-0.4276587916526943
1761379829869053000,6.947052978515625,1.0927952369511127,-1.8845017872199414,-0.46939833075143395
1761379829879135700,6.9571357421875,0.8603221135944128,-1.8500166031636296,-0.5184590795837343
1761379829889218800,6.96721875,0.5495423462420702,-1.834283465850353,-0.537441062625125
1761379829899302000,6.977302001953125,0.30287761592566964,-1.7585446265161035,-0.579437864420563
1761379829909384700,6.987384765625,0.22886194712221622,-1.6240956779293716,-0.523508544993028
1761379829919468000,6.997468017578125,0.1825251433610916,-1.609292368812114,-0.3297367620829493
1761379829929550800,7.00755078125,0.21777064426541326,-1.622053504577279,-0.20134550609998403
1761379829939634000,7.017634033203125,0.32915538199841976,-1.6232995591156183,-0.17812478951029478
1761379829949716700,7.027716796875,0.24257775326371192,-1.654687361678481,-0.2138756095882505
1761379829959799800,7.0377998046875,0.17043138546347616,-1.6611451595157385,-0.39506570495329796
1761379829969882600,7.047882568359375,0.01580079572200775,-1.612338020118326,-0.5594782685186713
1761379829979966000,7.057966064453125,-0.22997546132206914,-1.5646147304348648,-0.5811421110551804
1761379829990048800,7.068048828125,-0.2255336794823408,-1.4989689767003058,-0.6150637429445982
1761379830000131800,7.0781318359375,-0.07704466123580932,-1.4743743414089083,-0.6268745922476053
1761379830010215000,7.08821484375,0.09979191509485244,-1.455279180316627,-0.5877923627246171
1761379830020297700,7.098297607421875,0.2501250999033451,-1.4432267773427068,-0.4922050597127527
1761379830030380800,7.108380859375,0.39945992132425306,-1.4742610902927815,-0.4275743282396346
1761379830040464000,7.1184638671875,0.5555103147357702,-1.4945190115541218,-0.36334180230386554
1761379830050547000,7.128546875,0.6308598624914884,-1.4520587569653987,-0.36267208634875714
1761379830060629800,7.138629638671875,0.5892284599423409,-1.3344716574609279,-0.38257074584364886
1761379830070712800,7.148712890625,0.5484229868233204,-1.1689672070056198,-0.3586394698318094
1761379830080795600,7.158795654296875,0.7062661088705062,-1.072076566310227,-0.2943629586238414
1761379830090878700,7.168878662109375,0.8648562498927116,-0.911825506338477,-0.1956164609286934
1761379830100962000,7.178962158203125,0.6391565661936998,-0.8414303661197423,0.08584639185070991
1761379830111044900,7.189044921875,0.8177011154860258,-0.8534896372258662,0.13700572039745748
1761379830121128000,7.1991279296875,1.1049667362600564,-0.5282727637201547,0.11958894084617495
1761379830131210800,7.209210693359375,-0.24692951873242855,-0.47593262789100405,0.506869983272627
1761379830141293800,7.2192939453125,-0.34492344449460505,-0.5932412027150392,0.6818593243014067
1761379830151376600,7.229376708984375,-0.4254524407148361,-0.14617197347581384,0.5861675380017608
1761379830161460000,7.2394599609375,-0.2790256156951189,0.18463789773136377,0.31338322784900663
1761379830171542800,7.249542724609375,-0.07967442521750927,0.25043343520015476,0.27569661740288137
1761379830181625900,7.2596259765625,0.004248305094242096,0.20185995842814444,0.47483168091177935
1761379830191709000,7.269708984375,0.21573709261119364,0.1705740088045597,0.5946808801293373
1761379830201791700,7.279791748046875,0.5539449651151895,0.11906623214632273,0.7192914485298096
1761379830211874800,7.289874755859375,0.8846551753401756,-0.04779430909305811,0.8790581590507179
1761379830221958000,7.2999580078125,0.9684627548396587,-0.10411299316436051,1.0338795221239327
