time,seconds_elapsed,z,y,x
1761379822992430300,0.070430419921875,0.8615968823432922,0.13954734802246094,0.051580462604761124
1761379823002513400,0.080513427734375,0.8376803994178772,0.27705925703048706,0.07131661474704742
1761379823012596500,0.090596435546875,0.8403627276420593,0.3845670819282532,0.027142230421304703
1761379823022679300,0.10067919921875,0.8525719046592712,0.4431547522544861,-0.055549878627061844
1761379823032762400,0.110762451171875,0.8733155131340027,0.4487617611885071,-0.1614779233932495
1761379823042845200,0.12084521484375,0.8982837200164795,0.4321824610233307,-0.2523929178714752
1761379823052928300,0.13092822265625,0.9066476821899414,0.41295284032821655,-0.2957041561603546
1761379823063011300,0.14101123046875,0.9134110808372498,0.407394677400589,-0.2935815155506134
1761379823073094400,0.151094482421875,0.9212633967399597,0.4082777798175812,-0.2599146366119385
1761379823083177200,0.16117724609375,0.9303191304206848,0.398712694644928,-0.22016455233097076
1761379823093260300,0.17126025390625,0.9348688721656799,0.3891463577747345,-0.18180304765701294
1761379823103343400,0.18134326171875,0.9283831715583801,0.4028591811656952,-0.14105406403541565
1761379823113426200,0.19142626953125,0.9216040968894958,0.413216233253479,-0.12286068499088287
1761379823123509500,0.201509521484375,0.9278281331062317,0.4067935049533844,-0.13238473236560822
1761379823133592300,0.21159228515625,0.9313440322875977,0.3768715560436249,-0.15305432677268982
1761379823143675400,0.22167529296875,0.9263319373130798,0.34078434109687805,-0.16488195955753326
1761379823153758200,0.23175830078125,0.9125927090644836,0.2922929525375366,-0.18034027516841888
1761379823163841300,0.24184130859375,0.8997014760971069,0.24207542836666107,-0.19383898377418518
1761379823173924000,0.251924072265625,0.8979142308235168,0.21237744390964508,-0.2010899782180786
1761379823184007400,0.26200732421875,0.8947956562042236,0.21366941928863525,-0.2026495337486267
1761379823194090200,0.27209033203125,0.872571587562561,0.23821498453617096,-0.19949474930763245
1761379823204173300,0.28217333984375,0.8510931730270386,0.2930358350276947,-0.19422078132629395
1761379823214256400,0.29225634765625,0.8525829315185547,0.3517662584781647,-0.2035258710384369
1761379823224339200,0.302339111328125,0.8721080422401428,0.4035360813140869,-0.23098962008953094
1761379823234422300,0.31242236328125,0.8923475742340088,0.42869630455970764,-0.2477440983057022
1761379823244505300,0.32250537109375,0.9031267166137695,0.45156097412109375,-0.24048149585723877
1761379823254588400,0.33258837890625,0.919679582118988,0.4639188349246979,-0.2190941721200943
1761379823264671200,0.342671142578125,0.9473731517791748,0.4602692425251007,-0.21030116081237793
1761379823274754300,0.35275439453125,0.9691215753555298,0.45123714208602905,-0.1958194226026535
1761379823284837000,0.362837158203125,0.986510694026947,0.43142879009246826,-0.17499393224716187
1761379823294920200,0.372920166015625,0.9884912371635437,0.40120190382003784,-0.14714312553405762
1761379823305004300,0.38300439453125,1.0020396709442139,0.3833782374858856,-0.1356479674577713
1761379823315087400,0.39308740234375,1.0164539813995361,0.34020599722862244,-0.13588419556617737
1761379823325170200,0.403170166015625,1.0172290802001953,0.2959385812282562,-0.13157807290554047
1761379823335253200,0.413253173828125,1.0152498483657837,0.2518393099308014,-0.12158641964197159
1761379823345336300,0.42333642578125,0.9969013333320618,0.2334400713443756,-0.08543272316455841
1761379823355423700,0.433423828125,0.9671583771705627,0.2513948380947113,-0.050681404769420624
1761379823365506600,0.443506591796875,0.9492148160934448,0.25435733795166016,-0.04123048856854439
1761379823375589600,0.453589599609375,0.9493447542190552,0.24718812108039856,-0.062209539115428925
1761379823385672400,0.46367236328125,0.9593119025230408,0.23285798728466034,-0.08838643878698349
1761379823395755500,0.473755615234375,0.9531565308570862,0.2115473598241806,-0.09321022033691406
1761379823405838600,0.483838623046875,0.9415305852890015,0.177161306142807,-0.09571897983551025
1761379823415921700,0.493921630859375,0.9213808178901672,0.15197525918483734,-0.08668926358222961
1761379823426004700,0.504004638671875,0.8984131813049316,0.1376226842403412,-0.0642009973526001
1761379823436087600,0.514087646484375,0.8643705248832703,0.13399812579154968,-0.03821573778986931
1761379823446170600,0.524170654296875,0.8316580057144165,0.12792420387268066,-0.014978162944316864
1761379823456253400,0.53425341796875,0.8208397626876831,0.12555798888206482,-0.0018604970537126064
1761379823466336500,0.54433642578125,0.818500280380249,0.12827181816101074,0.012092656455934048
1761379823476419600,0.554419677734375,0.8139747381210327,0.14135992527008057,0.03129538148641586
1761379823486502700,0.564502685546875,0.8222646713256836,0.16161449253559113,0.054583173245191574
1761379823496585700,0.574585693359375,0.8289220929145813,0.20715081691741943,0.08442016690969467
1761379823506668500,0.58466845703125,0.8302250504493713,0.23137544095516205,0.10188155621290207
1761379823516751600,0.594751708984375,0.8137654066085815,0.22973626852035522,0.1012895330786705
1761379823526834700,0.604834716796875,0.7727846503257751,0.14733631908893585,0.05545014142990112
1761379823536917800,0.614917724609375,0.7015155553817749,0.01280168630182743,-0.02033090591430664
1761379823547000600,0.62500048828125,0.6391540169715881,-0.059983424842357635,-0.09304659813642502
1761379823557083600,0.635083740234375,0.5994095206260681,0.02230931632220745,-0.11668508499860764
1761379823567166500,0.64516650390625,0.5868173837661743,0.21804316341876984,-0.09399596601724625
1761379823577249500,0.65524951171875,0.5977944135665894,0.42263224720954895,-0.04274928942322731
1761379823587332600,0.66533251953125,0.6208574771881104,0.547259509563446,0.010294914245605469
1761379823597415700,0.675415771484375,0.6631183624267578,0.5558167695999146,0.041926074773073196
1761379823607498800,0.685498779296875,0.7086698412895203,0.5023478269577026,0.059003014117479324
1761379823617581600,0.69558154296875,0.7367568612098694,0.38110771775245667,0.04070363566279411
1761379823627664600,0.70566455078125,0.715564489364624,0.1950468271970749,-0.004193266853690147
1761379823637748700,0.715748779296875,0.6536555886268616,-0.005807178094983101,-0.058763038367033005
1761379823647831600,0.72583154296875,0.6030170917510986,-0.17081016302108765,-0.11682873964309692
1761379823657914600,0.73591455078125,0.5680834054946899,-0.23003408312797546,-0.1429159939289093
1761379823667997700,0.745997802734375,0.5395591259002686,-0.1859673112630844,-0.14102941751480103
1761379823678080500,0.75608056640625,0.5146769285202026,-0.08982054144144058,-0.10465861856937408
1761379823688163600,0.76616357421875,0.4973074197769165,0.046642351895570755,-0.0496210977435112
1761379823698246700,0.77624658203125,0.4949057698249817,0.18409182131290436,0.016602130606770515
1761379823708329700,0.786329833984375,0.4931107461452484,0.30311647057533264,0.07064879685640335
1761379823718412500,0.79641259765625,0.5037615299224854,0.3716880679130554,0.12298710644245148
1761379823728495600,0.80649560546875,0.5192089676856995,0.4034225046634674,0.15712569653987885
1761379823738578400,0.816578369140625,0.534548819065094,0.4064212441444397,0.1856476217508316
1761379823748661500,0.82666162109375,0.5545186400413513,0.361052930355072,0.1926882565021515
1761379823758744800,0.836744873046875,0.5452753305435181,0.3272704780101776,0.19427071511745453
1761379823768827600,0.84682763671875,0.5137359499931335,0.2428368180990219,0.15538717806339264
1761379823778910700,0.85691064453125,0.4722207188606262,0.10720788687467575,0.08279526978731155
1761379823788993500,0.86699365234375,0.4287642538547516,-0.01343853771686554,-0.002888105809688568
1761379823799076600,0.87707666015625,0.3850806951522827,-0.05831066891551018,-0.05792579427361488
1761379823809159400,0.887159423828125,0.3486217260360718,-0.015769992023706436,-0.0845692828297615
1761379823819242800,0.89724267578125,0.32561734318733215,0.08283088356256485,-0.08618022501468658
1761379823829325600,0.90732568359375,0.3176831603050232,0.20380163192749023,-0.08895715326070786
1761379823839408600,0.91740869140625,0.33278489112854004,0.3115331530570984,-0.09950514137744904
1761379823849491700,0.92749169921875,0.36090943217277527,0.39015939831733704,-0.11141959577798843
1761379823859574500,0.937574462890625,0.391573041677475,0.427329957485199,-0.12868352234363556
1761379823869657600,0.94765771484375,0.41767600178718567,0.4355950355529785,-0.14714019000530243
1761379823879740700,0.95774072265625,0.4368896484375,0.4327678084373474,-0.1474829465150833
1761379823889823700,0.96782373046875,0.46138015389442444,0.41886550188064575,-0.142738476395607
1761379823899906600,0.977906494140625,0.49010103940963745,0.3870924115180969,-0.13676872849464417
1761379823909989600,0.98798974609375,0.5140911936759949,0.36014461517333984,-0.12802135944366455
1761379823920072400,0.998072509765625,0.5358513593673706,0.329939067363739,-0.1131284311413765
1761379823930155500,1.008155517578125,0.5499876141548157,0.30280259251594543,-0.10057806968688965
1761379823940238600,1.018238525390625,0.5617782473564148,0.29287219047546387,-0.09602353721857071
1761379823950321700,1.02832177734375,0.5721888542175293,0.27879929542541504,-0.1048145741224289
1761379823960404700,1.03840478515625,0.5712090730667114,0.2536976635456085,-0.13453252613544464
1761379823970488600,1.048488525390625,0.5575346350669861,0.22099071741104126,-0.17278265953063965
1761379823980571400,1.0585712890625,0.5419098734855652,0.2033667266368866,-0.2051539123058319
1761379823990654700,1.06865478515625,0.5239009261131287,0.19581392407417297,-0.2449413239955902
1761379824000737800,1.07873779296875,0.514827311038971,0.2084098756313324,-0.275369793176651
1761379824010820600,1.088820556640625,0.5158982872962952,0.23624344170093536,-0.2932880222797394
1761379824020903700,1.098903564453125,0.5273844599723816,0.26288434863090515,-0.28987517952919006
1761379824030986500,1.108986572265625,0.5436597466468811,0.2816382944583893,-0.2631858289241791
1761379824041069600,1.119069580078125,0.5571625232696533,0.2848082482814789,-0.22011587023735046
1761379824051152600,1.129152587890625,0.5612644553184509,0.26346132159233093,-0.17594005167484283
1761379824061235700,1.139235595703125,0.5548076033592224,0.22864393889904022,-0.13028894364833832
1761379824071318500,1.149318603515625,0.5477371215820312,0.18982736766338348,-0.103329598903656
1761379824081401600,1.159401611328125,0.5404863953590393,0.14425934851169586,-0.07500341534614563
1761379824091484700,1.169484619140625,0.523784875869751,0.10253062844276428,-0.039622630923986435
1761379824101567500,1.1795673828125,0.49952271580696106,0.07974249124526978,0.0005985572934150696
1761379824111650800,1.18965087890625,0.4797625243663788,0.0824020728468895,0.035231634974479675
1761379824121733600,1.199733642578125,0.45909959077835083,0.11155995726585388,0.07076858729124069
1761379824131816700,1.209816650390625,0.4476843476295471,0.13996203243732452,0.09121985733509064
1761379824141899500,1.2198994140625,0.43093547224998474,0.1587575525045395,0.09535255283117294
1761379824151982600,1.229982666015625,0.41647225618362427,0.16821764409542084,0.08658920973539352
1761379824162065400,1.2400654296875,0.39353153109550476,0.16439014673233032,0.07574082165956497
1761379824172148700,1.250148681640625,0.37032201886177063,0.16175515949726105,0.07342797517776489
1761379824182231600,1.2602314453125,0.3457237184047699,0.16417011618614197,0.08108935505151749
1761379824192314600,1.270314697265625,0.32276397943496704,0.17118819057941437,0.09549284726381302
1761379824202397700,1.280397705078125,0.31202611327171326,0.16674257814884186,0.09363236278295517
1761379824212480500,1.29048046875,0.30630162358283997,0.15698517858982086,0.08000379800796509
1761379824222563600,1.3005634765625,0.30396977066993713,0.1678793728351593,0.06414520740509033
1761379824232646700,1.310646728515625,0.302749902009964,0.18967323005199432,0.06354285031557083
1761379824242729700,1.320729736328125,0.30082789063453674,0.21170635521411896,0.06280036270618439
1761379824252812500,1.3308125,0.31015050411224365,0.24379652738571167,0.07677502930164337
1761379824262895600,1.3408955078125,0.32280051708221436,0.27035969495773315,0.09914078563451767
1761379824272978400,1.350978515625,0.34871727228164673,0.3078122138977051,0.12093551456928253
1761379824283061500,1.3610615234375,0.3837205171585083,0.37240320444107056,0.15934628248214722
1761379824293144600,1.37114453125,0.42108750343322754,0.40017151832580566,0.17778730392456055
1761379824303228700,1.381228759765625,0.46071773767471313,0.3534378409385681,0.16201366484165192
1761379824313311500,1.3913115234375,0.48556262254714966,0.31051814556121826,0.13416099548339844
1761379824323394600,1.40139453125,0.45614585280418396,0.15998055040836334,0.07123155891895294
1761379824333477400,1.411477294921875,0.40575742721557617,0.006654503755271435,-0.012892697006464005
1761379824343560700,1.421560791015625,0.34393587708473206,-0.056899167597293854,-0.10518587380647659
1761379824353643800,1.431643798828125,0.3021046817302704,-0.02428259141743183,-0.19274985790252686
1761379824363722000,1.441721923828125,0.2776432931423187,0.03970438241958618,-0.27868369221687317
1761379824373805000,1.45180517578125,0.26005256175994873,0.10258875042200089,-0.333793967962265
1761379824383888100,1.46188818359375,0.25319597125053406,0.15125349164009094,-0.36964038014411926
1761379824393971000,1.471970947265625,0.2504235804080963,0.18254885077476501,-0.36338531970977783
1761379824404054000,1.482053955078125,0.25566786527633667,0.2070712447166443,-0.31512245535850525
1761379824414136800,1.49213671875,0.2749691605567932,0.24532555043697357,-0.2132294625043869
1761379824424220200,1.50222021484375,0.3157735764980316,0.31468653678894043,-0.07062277942895889
1761379824434303000,1.512302978515625,0.3804730474948883,0.4087896943092346,0.08633146435022354
1761379824444386000,1.522385986328125,0.45714306831359863,0.4721561670303345,0.2282254844903946
1761379824454468900,1.53246875,0.5217651128768921,0.49430689215660095,0.33126580715179443
1761379824464552000,1.542552001953125,0.548366367816925,0.4482685625553131,0.38269755244255066
1761379824474635000,1.552635009765625,0.5623777508735657,0.3741523027420044,0.39066147804260254
1761379824484718000,1.562718017578125,0.5857867002487183,0.26566416025161743,0.3726893961429596
1761379824494801200,1.57280126953125,0.5982735753059387,0.12215153872966766,0.32422539591789246
1761379824504884000,1.582884033203125,0.5905551910400391,-0.06468305736780167,0.26385635137557983
1761379824514967000,1.592967041015625,0.5757706761360168,-0.25441569089889526,0.19514252245426178
1761379824525049900,1.6030498046875,0.5483686327934265,-0.42666444182395935,0.12910039722919464
1761379824535133000,1.6131328125,0.48779216408729553,-0.5443258285522461,0.07543652504682541
1761379824545216000,1.623216064453125,0.39057478308677673,-0.5929082632064819,0.036178335547447205
1761379824555299000,1.633299072265625,0.27072474360466003,-0.5615471005439758,-0.009046293795108795
1761379824565382000,1.6433818359375,0.17461048066616058,-0.4336008131504059,-0.046114303171634674
1761379824575465000,1.65346484375,0.11341945081949234,-0.22777245938777924,-0.08248237520456314
1761379824585548000,1.663548095703125,0.09894410520792007,0.008471770212054253,-0.11116248369216919
1761379824595630800,1.673630859375,0.12426664680242538,0.24064022302627563,-0.12760064005851746
1761379824605714200,1.683714111328125,0.17204803228378296,0.4150479733943939,-0.12259229272603989
1761379824615797000,1.693796875,0.23190031945705414,0.5079010725021362,-0.0938994511961937
1761379824625880800,1.703880859375,0.26914623379707336,0.5162673592567444,-0.04122105985879898
1761379824635964000,1.7139638671875,0.28516265749931335,0.4723634421825409,0.022709932178258896
1761379824646047000,1.724046875,0.30002522468566895,0.4006543755531311,0.09294441342353821
1761379824656130000,1.734130126953125,0.2953009307384491,0.33817392587661743,0.1496429443359375
1761379824666213000,1.744213134765625,0.2770226001739502,0.2686923146247864,0.19482479989528656
1761379824676296000,1.7542958984375,0.2761034369468689,0.1870737373828888,0.20807835459709167
1761379824686379000,1.76437890625,0.2892061769962311,0.12276452034711838,0.19625338912010193
1761379824696461800,1.7744619140625,0.2891955077648163,0.07214124500751495,0.17564718425273895
1761379824706545000,1.784544921875,0.2785457670688629,0.028395365923643112,0.14135205745697021
1761379824716628000,1.7946279296875,0.2566467225551605,-0.014481384307146072,0.1068926677107811
1761379824726711000,1.8047109375,0.22410848736763,-0.054405100643634796,0.07764050364494324
1761379824736794000,1.814794189453125,0.18242880702018738,-0.0876372754573822,0.05246958136558533
1761379824746877000,1.824876953125,0.1374991536140442,-0.11680075526237488,0.036513254046440125
1761379824756960000,1.8349599609375,0.10530078411102295,-0.12977677583694458,0.035258907824754715
1761379824767042800,1.845042724609375,0.0757540762424469,-0.12035930156707764,0.05032147839665413
1761379824777126100,1.855126220703125,0.041132260113954544,-0.11358065903186798,0.06865750253200531
1761379824787209000,1.865208984375,-0.0019214684143662453,-0.12011712789535522,0.0795929804444313
1761379824797292000,1.8752919921875,-0.0567631870508194,-0.12015259265899658,0.08738777786493301
1761379824807374800,1.885374755859375,-0.11741001904010773,-0.11972780525684357,0.07915674895048141
1761379824817458000,1.8954580078125,-0.1737389713525772,-0.10959514230489731,0.054330550134181976
1761379824827541000,1.905541015625,-0.22029848396778107,-0.11174271255731583,0.017432983964681625
1761379824837624000,1.9156240234375,-0.26236408948898315,-0.11030431091785431,-0.020031247287988663
1761379824847707100,1.92570703125,-0.2911560535430908,-0.10151401907205582,-0.04844211786985397
1761379824857790000,1.9357900390625,-0.30848315358161926,-0.09176629781723022,-0.056665848940610886
1761379824867873000,1.945873046875,-0.3186740279197693,-0.07156035304069519,-0.04237506166100502
1761379824877955800,1.955955810546875,-0.32535627484321594,-0.04802726209163666,-0.016683917492628098
1761379824888039000,1.966038818359375,-0.33225998282432556,-0.048427533358335495,0.013950956054031849
1761379824898122000,1.9761220703125,-0.34103772044181824,-0.08523552119731903,0.03644300252199173
1761379824908205000,1.986205078125,-0.3606388568878174,-0.11914981156587601,0.06146100535988808
1761379824918288000,1.996287841796875,-0.3779366910457611,-0.15797719359397888,0.08235227316617966
1761379824928371000,2.006370849609375,-0.389749675989151,-0.1750943958759308,0.09566621482372284
1761379824938454800,2.016454833984375,-0.393101304769516,-0.15650756657123566,0.11563843488693237
1761379824948538000,2.0265380859375,-0.38623276352882385,-0.07415810227394104,0.1587827056646347
1761379824958621000,2.036620849609375,-0.3771520256996155,0.013654237613081932,0.1974746435880661
1761379824968704000,2.0467041015625,-0.39272594451904297,-0.10062573105096817,0.149717777967453
1761379824978787000,2.056787109375,-0.42001330852508545,-0.30521804094314575,0.03909774869680405
1761379824988870000,2.066869873046875,-0.45257869362831116,-0.49939683079719543,-0.08570011705160141
1761379824998953000,2.076952880859375,-0.5046415328979492,-0.5867897272109985,-0.13060921430587769
1761379825009036000,2.0870361328125,-0.5612925291061401,-0.4777234196662903,-0.09864408522844315
1761379825019119000,2.097119140625,-0.5744269490242004,-0.14626164734363556,-0.0034324554726481438
1761379825029202000,2.107201904296875,-0.560949444770813,0.07452213764190674,0.010424237698316574
1761379825039285000,2.117284912109375,-0.5931202173233032,0.004022039473056793,-0.16571968793869019
1761379825049367800,2.127367919921875,-0.6411799192428589,-0.2313779592514038,-0.4808714985847473
1761379825059451000,2.137450927734375,-0.7196546792984009,-0.3755674660205841,-0.8030017614364624
1761379825069534000,2.147533935546875,-0.813791036605835,-0.3113437294960022,-0.9800697565078735
1761379825079617000,2.157616943359375,-0.9163910150527954,-0.07668742537498474,-0.9466240406036377
1761379825089700000,2.1677001953125,-0.9789050221443176,0.2634759843349457,-0.7443073987960815
1761379825099783000,2.177782958984375,-0.933067798614502,0.6358599662780762,-0.45524248480796814
1761379825109866000,2.187865966796875,-0.7704301476478577,0.9435206055641174,-0.1632809191942215
1761379825119948800,2.19794873046875,-0.5772705078125,1.0705690383911133,0.08156654238700867
1761379825130032000,2.2080322265625,-0.40550512075424194,0.979375422000885,0.2611062228679657
1761379825140115000,2.218114990234375,-0.2808755338191986,0.7640805244445801,0.40530866384506226
1761379825150198000,2.228197998046875,-0.256441593170166,0.4951857030391693,0.528985321521759
1761379825160280800,2.23828076171875,-0.3079840838909149,0.22754459083080292,0.6332679390907288
1761379825170364000,2.248364013671875,-0.4036959409713745,-0.07475882023572922,0.713642954826355
1761379825180447000,2.258447021484375,-0.5041743516921997,-0.4028546214103699,0.7463091611862183
1761379825190530000,2.268530029296875,-0.5765286684036255,-0.7282220125198364,0.7229061126708984
1761379825200613000,2.278613037109375,-0.6406729221343994,-1.0335677862167358,0.6342488527297974
1761379825210696000,2.288696044921875,-0.7318131923675537,-1.2876824140548706,0.47631946206092834
1761379825220779000,2.298779052734375,-0.8319671154022217,-1.4285420179367065,0.3108081817626953
1761379825230861800,2.30886181640625,-0.9330995678901672,-1.3732092380523682,0.1965910792350769
1761379825240945200,2.318945068359375,-1.0249314308166504,-1.1522668600082397,0.1472974568605423
1761379825251028000,2.329028076171875,-1.0714478492736816,-0.7992926239967346,0.15497934818267822
1761379825261111000,2.339111083984375,-1.0430731773376465,-0.41553840041160583,0.18374915421009064
1761379825271195000,2.34919482421875,-0.9625256657600403,-0.09931489825248718,0.17346802353858948
1761379825281278000,2.35927783203125,-0.8908982276916504,0.059989988803863525,0.10489007830619812
1761379825291361000,2.369361083984375,-0.8451530933380127,0.08383353799581528,0.021468155086040497
1761379825301444000,2.379444091796875,-0.8294321298599243,0.03072122484445572,-0.035816121846437454
1761379825311527000,2.38952685546875,-0.8487877249717712,-0.06392032653093338,-0.04638434574007988
1761379825321610000,2.39960986328125,-0.8672993183135986,-0.1701822429895401,-0.002318240934982896
1761379825331693000,2.409693115234375,-0.8686809539794922,-0.27031418681144714,0.10449209064245224
1761379825341776000,2.41977587890625,-0.8418903946876526,-0.3295140564441681,0.24058179557323456
1761379825351859200,2.429859130859375,-0.8192183971405029,-0.3417912423610687,0.37558862566947937
1761379825361945900,2.43994580078125,-0.795859694480896,-0.37055161595344543,0.45027661323547363
1761379825372029200,2.450029296875,-0.7808010578155518,-0.4162139296531677,0.4643365144729614
1761379825382112000,2.460112060546875,-0.780642032623291,-0.446570485830307,0.4209674596786499
1761379825392195000,2.470195068359375,-0.8104615211486816,-0.4690864384174347,0.34185320138931274
1761379825402278000,2.48027783203125,-0.8467091917991638,-0.4837035536766052,0.25182291865348816
1761379825412361000,2.49036083984375,-0.874626874923706,-0.48220711946487427,0.17540110647678375
1761379825422443800,2.50044384765625,-0.8908293843269348,-0.4775225520133972,0.11196572333574295
1761379825432527000,2.510527099609375,-0.8860676884651184,-0.4753566384315491,0.06657693535089493
1761379825442610000,2.52060986328125,-0.8750646710395813,-0.4866176247596741,0.04823680967092514
1761379825452693000,2.53069287109375,-0.8608183264732361,-0.49969345331192017,0.04087423160672188
1761379825462776000,2.540776123046875,-0.8554471731185913,-0.5185956954956055,0.03775599226355553
1761379825472859000,2.55085888671875,-0.8590746521949768,-0.5218839049339294,0.03386431559920311
1761379825482942000,2.56094189453125,-0.8625944256782532,-0.5106168389320374,0.028503160923719406
1761379825493025000,2.57102490234375,-0.8630846738815308,-0.48502862453460693,0.0066204983741045
1761379825503108000,2.581108154296875,-0.8423272967338562,-0.42966434359550476,0.0030937802512198687
1761379825513191000,2.59119091796875,-0.8010765314102173,-0.3342909514904022,0.014145366847515106
1761379825523274000,2.60127392578125,-0.733020544052124,-0.33304426074028015,0.017525026574730873
1761379825533356800,2.611356689453125,-0.6903412342071533,-0.4878562092781067,-0.02961665391921997
1761379825543440000,2.62143994140625,-0.6828243732452393,-0.6969290971755981,-0.09005144983530045
1761379825553523000,2.63152294921875,-0.7287008762359619,-0.8575707077980042,-0.13423621654510498
1761379825563606000,2.64160595703125,-0.8051123023033142,-0.8812850713729858,-0.1318131685256958
1761379825573689000,2.651689208984375,-0.8630000948905945,-0.7858706712722778,-0.09504956007003784
1761379825583772000,2.66177197265625,-0.8659244179725647,-0.5781025290489197,-0.006059718783944845
1761379825593855000,2.67185498046875,-0.8288148641586304,-0.3070659637451172,0.10930841416120529
1761379825603937800,2.681937744140625,-0.7682936787605286,-0.14265280961990356,0.16995248198509216
1761379825614022100,2.692022216796875,-0.6964751482009888,-0.1782933622598648,0.13877272605895996
1761379825624105000,2.70210498046875,-0.6474409699440002,-0.33568963408470154,0.06812215596437454
1761379825634188000,2.71218798828125,-0.6641752123832703,-0.5183230638504028,0.007577851414680481
1761379825644270800,2.722270751953125,-0.7241904139518738,-0.6316635608673096,0.0007890257984399796
1761379825654354200,2.732354248046875,-0.7979338765144348,-0.6370697617530823,0.027834758162498474
1761379825664437000,2.74243701171875,-0.8449334502220154,-0.5366243124008179,0.06661832332611084
1761379825674520000,2.75252001953125,-0.8444655537605286,-0.3743666708469391,0.07476120442152023
1761379825684603000,2.762602783203125,-0.7984593510627747,-0.20928780734539032,0.04257173463702202
1761379825694686000,2.77268603515625,-0.7318358421325684,-0.08243772387504578,-0.02180805429816246
1761379825704769000,2.78276904296875,-0.6742441654205322,-0.016499865800142288,-0.09155917167663574
1761379825714852000,2.79285205078125,-0.6434644460678101,-0.03444105014204979,-0.14118531346321106
1761379825724935200,2.80293505859375,-0.6473730206489563,-0.1360769420862198,-0.16382303833961487
1761379825735018000,2.81301806640625,-0.6788896322250366,-0.2851383090019226,-0.18053117394447327
1761379825745101000,2.82310107421875,-0.7030313611030579,-0.4406512677669525,-0.16723571717739105
1761379825755183900,2.833183837890625,-0.707193911075592,-0.56776362657547,-0.12298569083213806
1761379825765267000,2.843266845703125,-0.6970500946044922,-0.6414831876754761,-0.04176498204469681
1761379825775350000,2.85335009765625,-0.6746103763580322,-0.6515970826148987,0.050650704652071
1761379825785433000,2.86343310546875,-0.6402289271354675,-0.6078077554702759,0.13879188895225525
1761379825795516000,2.873515869140625,-0.6063657999038696,-0.5330885052680969,0.21160005033016205
1761379825805599000,2.883598876953125,-0.5872332453727722,-0.4542326033115387,0.2613414525985718
1761379825815682000,2.89368212890625,-0.5951486825942993,-0.4026644825935364,0.28796160221099854
1761379825825764900,2.903764892578125,-0.623265266418457,-0.3816108703613281,0.28586170077323914
1761379825835848200,2.91384814453125,-0.6647983193397522,-0.3867555558681488,0.2600117325782776
1761379825845931000,2.923930908203125,-0.7194269299507141,-0.4118182957172394,0.21922847628593445
1761379825856014000,2.93401416015625,-0.7773749232292175,-0.42132630944252014,0.17967601120471954
1761379825866097000,2.944096923828125,-0.8288456201553345,-0.40320414304733276,0.15241706371307373
1761379825876180000,2.954179931640625,-0.8637855052947998,-0.3312082588672638,0.1478199064731598
1761379825886262800,2.9642626953125,-0.8932642936706543,-0.23766450583934784,0.14608843624591827
1761379825896346000,2.97434619140625,-0.918815016746521,-0.16092418134212494,0.1404196321964264
1761379825906429000,2.984428955078125,-0.939323365688324,-0.12097087502479553,0.13726623356342316
1761379825916512000,2.994511962890625,-0.9575892090797424,-0.113519087433815,0.1282261312007904
1761379825926595000,3.004594970703125,-0.9813702702522278,-0.14553202688694,0.11386711150407791
1761379825936678000,3.014677978515625,-1.0194315910339355,-0.201193705201149,0.11101273447275162
1761379825946762000,3.024761962890625,-1.050217628479004,-0.2540406584739685,0.1499864012002945
1761379825956845000,3.034844970703125,-1.0711162090301514,-0.2745661735534668,0.2165750116109848
1761379825966928100,3.04492822265625,-1.0752612352371216,-0.2928851842880249,0.281916081905365
1761379825977011000,3.055010986328125,-1.0512328147888184,-0.3095445930957794,0.333359032869339
1761379825987094000,3.065093994140625,-1.0167385339736938,-0.33293473720550537,0.3604637682437897
1761379825997176800,3.0751767578125,-0.989835798740387,-0.3645065128803253,0.36955422163009644
1761379826007260200,3.08526025390625,-0.9805394411087036,-0.4122350513935089,0.3649059236049652
1761379826017343000,3.095343017578125,-0.9849275350570679,-0.4285767376422882,0.3767700493335724
1761379826027426000,3.105426025390625,-0.9968463182449341,-0.43489131331443787,0.40694138407707214
1761379826037508900,3.1155087890625,-1.0029933452606201,-0.47502782940864563,0.39960864186286926
1761379826047592000,3.125592041015625,-1.0061349868774414,-0.577282190322876,0.31580960750579834
1761379826057675000,3.135675048828125,-1.0153275728225708,-0.7249493598937988,0.15737523138523102
1761379826067758000,3.145758056640625,-1.0679545402526855,-0.89362633228302,-0.05624277889728546
1761379826077841200,3.155841064453125,-1.1661343574523926,-1.0235027074813843,-0.2871929109096527
1761379826087924000,3.165924072265625,-1.2844910621643066,-1.0315275192260742,-0.4790498912334442
1761379826098007000,3.176007080078125,-1.3802982568740845,-0.8130567073822021,-0.5652010440826416
1761379826108089900,3.18608984375,-1.4097201824188232,-0.4259592890739441,-0.5335811972618103
1761379826118173000,3.1961728515625,-1.3459047079086304,0.01191976573318243,-0.42151668667793274
1761379826128256000,3.206256103515625,-1.1918355226516724,0.4216192662715912,-0.2735813856124878
1761379826138339000,3.216339111328125,-1.049379825592041,0.6428278088569641,-0.1829196661710739
1761379826148422000,3.226421875,-0.9249880909919739,0.6791111826896667,-0.16501213610172272
1761379826158505000,3.2365048828125,-0.8435145616531372,0.5896409153938293,-0.19723771512508392
1761379826168588000,3.246588134765625,-0.889136791229248,0.33633968234062195,-0.31569385528564453
1761379826178670800,3.2566708984375,-1.037726879119873,-0.11352893710136414,-0.5867761969566345
1761379826188754200,3.266754150390625,-1.2232091426849365,-0.5739642977714539,-0.9489285349845886
1761379826198837000,3.2768369140625,-1.3732208013534546,-0.8331878781318665,-1.2637474536895752
1761379826208920000,3.286920166015625,-1.4565998315811157,-0.8559125065803528,-1.4382537603378296
1761379826219003000,3.2970029296875,-1.4511185884475708,-0.6579751968383789,-1.4266400337219238
1761379826229086000,3.3070859375,-1.3141683340072632,-0.3498435318470001,-1.2301149368286133
1761379826239168800,3.317168701171875,-1.0731996297836304,0.0036561964079737663,-0.8843111991882324
1761379826249252000,3.327252197265625,-0.8553275465965271,0.2779914438724518,-0.4622008204460144
1761379826259335200,3.337335205078125,-0.7533362507820129,0.34204474091529846,-0.08010140061378479
1761379826269418000,3.34741796875,-0.7230237126350403,0.17647285759449005,0.20228362083435059
1761379826279501000,3.3575009765625,-0.7772736549377441,-0.16235393285751343,0.3492951989173889
1761379826289583900,3.367583984375,-0.89302659034729,-0.5444014668464661,0.40583398938179016
1761379826299667000,3.3776669921875,-1.0253732204437256,-0.866881251335144,0.42924317717552185
1761379826309751000,3.3877509765625,-1.1250965595245361,-1.0448565483093262,0.4696042239665985
1761379826319834000,3.397834228515625,-1.1875602006912231,-1.080815076828003,0.5328295230865479
1761379826329917000,3.4079169921875,-1.238591194152832,-1.0205963850021362,0.5954263806343079
1761379826340000000,3.418,-1.2684886455535889,-0.9029605388641357,0.658104419708252
1761379826350082800,3.428082763671875,-1.3036861419677734,-0.7507760524749756,0.7049053907394409
1761379826360162300,3.438162353515625,-1.3740836381912231,-0.5980086326599121,0.7069046497344971
1761379826370245000,3.4482451171875,-1.4556893110275269,-0.48727166652679443,0.6423075795173645
1761379826380328400,3.458328369140625,-1.5452061891555786,-0.4468057155609131,0.5226810574531555
1761379826390411300,3.468411376953125,-1.6541067361831665,-0.5117595791816711,0.3528713285923004
1761379826400494300,3.478494384765625,-1.7679656744003296,-0.6393609642982483,0.15981611609458923
1761379826410577400,3.488577392578125,-1.8701056241989136,-0.7881649732589722,-0.02735893428325653
1761379826420660200,3.49866015625,-1.9245294332504272,-0.8332778811454773,-0.13233327865600586
1761379826430743300,3.508743408203125,-1.9560461044311523,-0.8257728815078735,-0.1814928948879242
1761379826440826400,3.518826416015625,-1.9479645490646362,-0.7437304854393005,-0.1625860631465912
1761379826450909400,3.528909423828125,-1.8893662691116333,-0.6233639717102051,-0.08897201716899872
1761379826460992300,3.5389921875,-1.8127511739730835,-0.5237401723861694,0.011892808601260185
1761379826471075300,3.549075439453125,-1.7459608316421509,-0.4657524824142456,0.13676278293132782
1761379826481158100,3.559158203125,-1.697397232055664,-0.47882914543151855,0.24767917394638062
1761379826491241200,3.5692412109375,-1.678627610206604,-0.5560509562492371,0.3207907974720001
1761379826501324300,3.57932421875,-1.6804801225662231,-0.6689490079879761,0.3770979940891266
1761379826511407400,3.589407470703125,-1.6942578554153442,-0.7616135478019714,0.41171595454216003
1761379826521490400,3.599490478515625,-1.6975713968276978,-0.8154296278953552,0.434543251991272
1761379826531573200,3.6095732421875,-1.6813918352127075,-0.8364500999450684,0.4512692093849182
1761379826541656300,3.61965625,-1.657809853553772,-0.8296284079551697,0.4562908709049225
1761379826551739100,3.6297392578125,-1.6368048191070557,-0.8168283700942993,0.4346991777420044
1761379826561822500,3.639822509765625,-1.6232829093933105,-0.7981820106506348,0.39275413751602173
1761379826571905300,3.6499052734375,-1.6245067119598389,-0.7782647013664246,0.3287322223186493
1761379826581988400,3.65998828125,-1.6408135890960693,-0.7568201422691345,0.2430197298526764
1761379826592071200,3.6700712890625,-1.6598676443099976,-0.7366794943809509,0.16020724177360535
1761379826602154200,3.680154296875,-1.6728571653366089,-0.706633448600769,0.08066314458847046
1761379826612237300,3.6902373046875,-1.6786139011383057,-0.6815075278282166,0.015043276362121105
1761379826622320400,3.7003203125,-1.6749815940856934,-0.6419873237609863,-0.032518915832042694
1761379826632403500,3.710403564453125,-1.661618709564209,-0.5877870917320251,-0.049550946801900864
1761379826642486300,3.720486328125,-1.6443252563476562,-0.5301235318183899,-0.03527640551328659
1761379826652569300,3.7305693359375,-1.6211491823196411,-0.48344138264656067,-0.0035790931433439255
1761379826662652200,3.740652099609375,-1.5840572118759155,-0.47221139073371887,0.025952165946364403
1761379826672735200,3.7507353515625,-1.538357138633728,-0.5082939863204956,0.03209565579891205
1761379826682818300,3.760818359375,-1.491445541381836,-0.5484057664871216,0.014657275751233101
1761379826692901400,3.7709013671875,-1.4547927379608154,-0.5861563682556152,-0.00814348366111517
1761379826702985200,3.780985107421875,-1.433674931526184,-0.6187481880187988,-0.033547110855579376
1761379826713068300,3.791068359375,-1.4196199178695679,-0.6335957646369934,-0.05268607661128044
1761379826723151000,3.801151123046875,-1.3891208171844482,-0.6167952418327332,-0.05460035428404808
1761379826733234400,3.811234375,-1.3440788984298706,-0.5670657753944397,-0.024755587801337242
1761379826743317200,3.821317138671875,-1.2848232984542847,-0.49453994631767273,0.04628077149391174
1761379826753400300,3.831400390625,-1.192825198173523,-0.40433579683303833,0.1446772664785385
1761379826763483400,3.8414833984375,-1.0760979652404785,-0.3109097182750702,0.23993055522441864
1761379826773566200,3.851566162109375,-0.9777122735977173,-0.28471848368644714,0.28024083375930786
1761379826783649300,3.861649169921875,-0.915264368057251,-0.30086976289749146,0.2645191252231598
1761379826793732400,3.871732421875,-0.8574979305267334,-0.28193536400794983,0.23951798677444458
1761379826803815400,3.8818154296875,-0.8111426830291748,-0.19778135418891907,0.24943827092647552
1761379826813898200,3.891898193359375,-0.762926459312439,-0.04060916602611542,0.30768436193466187
1761379826823981300,3.901981201171875,-0.6994531750679016,0.11599721759557724,0.3631039559841156
1761379826834064100,3.912064208984375,-0.6034358739852905,0.21365022659301758,0.3656705319881439
1761379826844147200,3.922147216796875,-0.4896901249885559,0.24276018142700195,0.2917899191379547
1761379826854230500,3.93223046875,-0.36539649963378906,0.14769096672534943,0.1402265876531601
1761379826864313300,3.942313232421875,-0.26868805289268494,-0.06004837900400162,-0.08252658694982529
1761379826874396400,3.952396484375,-0.22926615178585052,-0.3638744652271271,-0.35291072726249695
1761379826884479200,3.962479248046875,-0.26175832748413086,-0.6573172807693481,-0.6223443150520325
1761379826894562300,3.972562255859375,-0.28598752617836,-0.8003450632095337,-0.7967000603675842
1761379826904645000,3.98264501953125,-0.2836090624332428,-0.825509786605835,-0.8692868947982788
1761379826914728400,3.992728515625,-0.26234161853790283,-0.7574830651283264,-0.8262701034545898
1761379826924811300,4.002811279296875,-0.2130744755268097,-0.5864580273628235,-0.6847044229507446
1761379826934894300,4.012894287109375,-0.11053556203842163,-0.29899877309799194,-0.4989432990550995
1761379826944977400,4.022977294921875,0.050140131264925,0.049247875809669495,-0.34020692110061646
1761379826955060200,4.033060302734375,0.23517173528671265,0.3377803564071655,-0.29155662655830383
1761379826965143300,4.043143310546875,0.43211543560028076,0.5498630404472351,-0.3228066861629486
1761379826975226400,4.053226318359375,0.6064099669456482,0.7104089260101318,-0.3517778813838959
1761379826985309400,4.063309326171875,0.7456589341163635,0.8062326312065125,-0.35992875695228577
1761379826995392300,4.073392333984375,0.8499090075492859,0.8075385093688965,-0.36998292803764343
1761379827005475300,4.083475341796875,0.9301849603652954,0.7360113263130188,-0.3740708827972412
1761379827015558100,4.09355810546875,0.9856886863708496,0.6100724935531616,-0.3683907687664032
1761379827025641200,4.10364111328125,1.0080472230911255,0.4561212658882141,-0.35904547572135925
1761379827035724300,4.113724365234375,1.0204026699066162,0.3018821179866791,-0.3283635675907135
1761379827045807400,4.123807373046875,1.045162558555603,0.16723720729351044,-0.2720758020877838
1761379827055890400,4.133890380859375,1.0670647621154785,0.043774183839559555,-0.1860552728176117
1761379827065973200,4.14397314453125,1.0805001258850098,-0.04073644056916237,-0.07387999445199966
1761379827076056300,4.154056396484375,1.0891687870025635,-0.05459027364850044,0.0472535640001297
1761379827086139100,4.16413916015625,1.103021264076233,-0.019694607704877853,0.1343061774969101
1761379827096222500,4.174222412109375,1.1210857629776,0.0640859380364418,0.1835290640592575
1761379827106305300,4.18430517578125,1.1230559349060059,0.1679806411266327,0.1822081357240677
1761379827116388400,4.194388427734375,1.1242456436157227,0.27629512548446655,0.14836682379245758
1761379827126471200,4.20447119140625,1.1379908323287964,0.38539764285087585,0.10589046776294708
1761379827136554200,4.21455419921875,1.168558955192566,0.4906144142150879,0.08113286644220352
1761379827146638300,4.224638427734375,1.2136214971542358,0.5799610614776611,0.08726266771554947
1761379827156721400,4.234721435546875,1.2628124952316284,0.6224071383476257,0.11949262022972107
1761379827166804200,4.24480419921875,1.3060060739517212,0.6395235657691956,0.16184592247009277
1761379827176887300,4.25488720703125,1.350874662399292,0.6389744877815247,0.2006354033946991
1761379827186970000,4.26497021484375,1.4006270170211792,0.6265425682067871,0.24635842442512512
1761379827197053400,4.275053466796875,1.4488606452941895,0.6268625259399414,0.3050319254398346
1761379827207136500,4.285136474609375,1.5040498971939087,0.6334701180458069,0.37029772996902466
1761379827217219300,4.29521923828125,1.5613969564437866,0.6523938179016113,0.4379200041294098
1761379827227302400,4.305302490234375,1.6085416078567505,0.6659458875656128,0.4840528666973114
1761379827237385200,4.31538525390625,1.6558735370635986,0.6770145893096924,0.49442243576049805
1761379827247468300,4.32546826171875,1.7115615606307983,0.6783493757247925,0.46553805470466614
1761379827257551400,4.33555126953125,1.7673227787017822,0.6884933114051819,0.40647926926612854
1761379827267634400,4.345634521484375,1.8196933269500732,0.7171505689620972,0.33556514978408813
1761379827277717200,4.35571728515625,1.8567073345184326,0.6925562620162964,0.2579011917114258
1761379827287800300,4.36580029296875,1.883455514907837,0.6093037128448486,0.15840549767017365
1761379827297883400,4.37588330078125,1.883479118347168,0.49668774008750916,0.047637756913900375
1761379827307966200,4.38596630859375,1.8594236373901367,0.4004882574081421,-0.04980837181210518
1761379827318049500,4.396049560546875,1.8220632076263428,0.37994468212127686,-0.1224992424249649
1761379827328132400,4.40613232421875,1.7974822521209717,0.4927932024002075,-0.14844056963920593
1761379827338215400,4.41621533203125,1.8024684190750122,0.7435880303382874,-0.14082776010036469
1761379827348298200,4.42629833984375,1.8614391088485718,1.0192159414291382,-0.1301088035106659
1761379827358381600,4.436381591796875,1.9236780405044556,1.2347488403320312,-0.17000797390937805
1761379827368464600,4.446464599609375,1.9998644590377808,1.3870545625686646,-0.26040923595428467
1761379827378547700,4.456547607421875,2.0725221633911133,1.4894784688949585,-0.3630795478820801
1761379827388630500,4.466630615234375,2.1405160427093506,1.5513956546783447,-0.4337848722934723
1761379827398713600,4.476713623046875,2.1891846656799316,1.5666825771331787,-0.43699583411216736
1761379827408796700,4.486796630859375,2.224424362182617,1.5399821996688843,-0.41221219301223755
1761379827418879500,4.49687939453125,2.269155502319336,1.5056079626083374,-0.4003658592700958
1761379827428962800,4.506962890625,2.318458318710327,1.4357863664627075,-0.43194934725761414
1761379827439045600,4.517045654296875,2.3216476440429688,1.3099173307418823,-0.5298007130622864
1761379827449128700,4.527128662109375,2.3029751777648926,1.0878310203552246,-0.7014102935791016
1761379827459211500,4.53721142578125,2.2531394958496094,0.8534592390060425,-0.8861743807792664
1761379827469294600,4.547294677734375,2.2100672721862793,0.6933854222297668,-1.0014162063598633
1761379827479377400,4.55737744140625,2.2002816200256348,0.6403434872627258,-1.0189025402069092
1761379827489460700,4.567460693359375,2.2251625061035156,0.6543543934822083,-0.943585216999054
1761379827499543600,4.57754345703125,2.2903482913970947,0.7511172294616699,-0.7794192433357239
1761379827509626600,4.587626708984375,2.3790204524993896,0.9133317470550537,-0.5649277567863464
1761379827519709700,4.597709716796875,2.4760184288024902,1.12320876121521,-0.36342594027519226
1761379827529792500,4.60779248046875,2.564027786254883,1.308067798614502,-0.2589770257472992
1761379827539875600,4.61787548828125,2.655362129211426,1.4527971744537354,-0.2561645805835724
1761379827549958700,4.627958740234375,2.7488834857940674,1.5744549036026,-0.3225601017475128
1761379827560041700,4.638041748046875,2.8330488204956055,1.6412771940231323,-0.42567867040634155
1761379827570124500,4.64812451171875,2.8895695209503174,1.6316399574279785,-0.5302514433860779
1761379827580207600,4.65820751953125,2.9356517791748047,1.5475374460220337,-0.6172003746032715
1761379827590290400,4.66829052734375,2.971820831298828,1.4015780687332153,-0.6804709434509277
1761379827600373500,4.67837353515625,3.0097622871398926,1.216596007347107,-0.7184114456176758
1761379827610457600,4.68845751953125,3.045379877090454,1.0334211587905884,-0.7105585336685181
1761379827620540700,4.698540771484375,3.0726819038391113,0.8778132796287537,-0.6597792506217957
1761379827630623500,4.70862353515625,3.0856943130493164,0.7505559921264648,-0.5872373580932617
1761379827640706600,4.71870654296875,3.0879619121551514,0.6745051145553589,-0.4888305366039276
1761379827650789400,4.728789306640625,3.0792927742004395,0.650304913520813,-0.40685898065567017
1761379827660872700,4.738872802734375,3.0702316761016846,0.6613947749137878,-0.33575379848480225
1761379827670955800,4.748955810546875,3.0441744327545166,0.6936983466148376,-0.3044440746307373
1761379827681038600,4.75903857421875,3.007176160812378,0.7441873550415039,-0.2987266480922699
1761379827691121700,4.76912158203125,2.9620957374572754,0.8037582635879517,-0.3006518483161926
1761379827701204500,4.77920458984375,2.9055628776550293,0.8566375374794006,-0.3149978518486023
1761379827711287600,4.78928759765625,2.829369306564331,0.9001631736755371,-0.33502134680747986
1761379827721370600,4.79937060546875,2.7528600692749023,0.9327723383903503,-0.361747145652771
1761379827731453700,4.80945361328125,2.676506280899048,0.9408696889877319,-0.3843587338924408
1761379827741536500,4.81953662109375,2.6077632904052734,0.9192560315132141,-0.37998777627944946
1761379827751619600,4.82961962890625,2.5505924224853516,0.8664578199386597,-0.3400592505931854
1761379827761702700,4.83970263671875,2.495413064956665,0.7940354943275452,-0.2591570019721985
1761379827771785500,4.849785400390625,2.431753396987915,0.7194395661354065,-0.15760481357574463
1761379827781868800,4.859868896484375,2.356431484222412,0.6546805500984192,-0.042021818459033966
1761379827791951600,4.86995166015625,2.2747464179992676,0.6180530190467834,0.05724431201815605
1761379827802034700,4.88003466796875,2.1981289386749268,0.5952757000923157,0.12827305495738983
1761379827812117500,4.890117431640625,2.1244163513183594,0.6085741519927979,0.18554086983203888
1761379827822200600,4.90020068359375,2.0404210090637207,0.6632738709449768,0.22448469698429108
1761379827832283400,4.910283447265625,1.9682637453079224,0.7272523045539856,0.2497977614402771
1761379827842366700,4.92036669921875,1.9052612781524658,0.7858733534812927,0.27037540078163147
1761379827852449500,4.930449462890625,1.8580143451690674,0.8339881896972656,0.30748629570007324
1761379827862532600,4.94053271484375,1.8504793643951416,0.8751797080039978,0.3620159327983856
1761379827872615700,4.95061572265625,1.883272647857666,0.9331793785095215,0.4598918855190277
1761379827882698500,4.960698486328125,1.9565693140029907,1.0147713422775269,0.5853152275085449
1761379827892781600,4.970781494140625,2.0306124687194824,1.032678246498108,0.6790571212768555
1761379827902864600,4.98086474609375,2.0774128437042236,0.9369713664054871,0.6658501625061035
1761379827912947700,4.99094775390625,2.0938925743103027,0.794272780418396,0.5748685598373413
1761379827923030500,5.001030517578125,2.040576457977295,0.6086981892585754,0.4201504588127136
1761379827933113600,5.011113525390625,1.9150176048278809,0.46276384592056274,0.26013362407684326
1761379827943196400,5.021196533203125,1.7796248197555542,0.44629016518592834,0.15109847486019135
1761379827953279500,5.031279541015625,1.7165411710739136,0.5435807704925537,0.0980624184012413
1761379827963362800,5.04136279296875,1.711058497428894,0.6911684274673462,0.058654773980379105
1761379827973445600,5.051445556640625,1.7350597381591797,0.8295353055000305,0.007115418091416359
1761379827983528700,5.06152880859375,1.7809423208236694,0.9321795701980591,-0.06807462126016617
1761379827993611500,5.071611572265625,1.8008689880371094,0.9773262739181519,-0.16087192296981812
1761379828003694600,5.081694580078125,1.8110904693603516,0.9371057152748108,-0.2529234290122986
1761379828013777400,5.09177734375,1.8075662851333618,0.7890459895133972,-0.3341010808944702
1761379828023860700,5.10186083984375,1.7957096099853516,0.5779173970222473,-0.3906610906124115
1761379828033943600,5.111943603515625,1.773261547088623,0.38290849328041077,-0.41452887654304504
1761379828044026600,5.122026611328125,1.737125277519226,0.23026436567306519,-0.41263332962989807
1761379828054109700,5.132109619140625,1.7292777299880981,0.19327279925346375,-0.3688408434391022
1761379828064192500,5.142192626953125,1.7508124113082886,0.2840770483016968,-0.26869040727615356
1761379828074275600,5.152275634765625,1.830596923828125,0.4962223470211029,-0.11000407487154007
1761379828084358700,5.162358642578125,1.986094355583191,0.7671411633491516,0.07520663738250732
1761379828094441700,5.172441650390625,2.180967330932617,1.029354214668274,0.22358839213848114
1761379828104524500,5.182524658203125,2.339416265487671,1.2059338092803955,0.2842728793621063
1761379828114607600,5.192607666015625,2.4519641399383545,1.2818304300308228,0.2681732475757599
1761379828124690400,5.2026904296875,2.517930746078491,1.276336908340454,0.20258334279060364
1761379828134773500,5.2127734375,2.5583338737487793,1.1998250484466553,0.13217495381832123
1761379828144857600,5.222857666015625,2.582334518432617,1.0550627708435059,0.07910428196191788
1761379828154940700,5.232940673828125,2.6171746253967285,0.8740448355674744,0.05892498046159744
1761379828165023500,5.2430234375,2.6542327404022217,0.730874240398407,0.09330511093139648
1761379828175106600,5.2531064453125,2.690717935562134,0.6507154703140259,0.16943369805812836
1761379828185189600,5.263189697265625,2.7104413509368896,0.6400907039642334,0.268614262342453
1761379828195272700,5.273272705078125,2.7128374576568604,0.6674248576164246,0.34388265013694763
1761379828205355500,5.28335546875,2.7100424766540527,0.7081370949745178,0.34365367889404297
1761379828215438600,5.2934384765625,2.6956117153167725,0.7641500234603882,0.2540830671787262
1761379828225521700,5.303521728515625,2.6742117404937744,0.8333654403686523,0.10407093912363052
1761379828235604500,5.3136044921875,2.643836259841919,0.9109952449798584,-0.06445416063070297
1761379828245687800,5.323687744140625,2.5987324714660645,0.9898406267166138,-0.21449947357177734
1761379828255770600,5.3337705078125,2.5459775924682617,1.0757198333740234,-0.33085912466049194
1761379828265853700,5.343853759765625,2.5118229389190674,1.1517449617385864,-0.4154573082923889
1761379828275936500,5.3539365234375,2.500507116317749,1.1897026300430298,-0.4743911921977997
1761379828286019600,5.36401953125,2.4955666065216064,1.199755311012268,-0.49404722452163696
1761379828296102400,5.374102294921875,2.474487781524658,1.2053484916687012,-0.4838601052761078
1761379828306185700,5.384185791015625,2.4352784156799316,1.2284437417984009,-0.45905089378356934
1761379828316268800,5.394268798828125,2.405794858932495,1.2625242471694946,-0.44345754384994507
1761379828326351600,5.4043515625,2.3959155082702637,1.2839281558990479,-0.42345207929611206
1761379828336434700,5.4144345703125,2.40615177154541,1.2800521850585938,-0.40370553731918335
1761379828346517500,5.424517578125,2.4103469848632812,1.2654104232788086,-0.37896984815597534
1761379828356600600,5.4346005859375,2.4104011058807373,1.2426049709320068,-0.3595048189163208
1761379828366683600,5.44468359375,2.392274856567383,1.2089154720306396,-0.35577505826950073
1761379828376767000,5.45476708984375,2.3578007221221924,1.1786513328552246,-0.38249775767326355
1761379828386849800,5.464849853515625,2.3116908073425293,1.1494029760360718,-0.432216078042984
1761379828396932900,5.474932861328125,2.278188943862915,1.1469457149505615,-0.5138399004936218
1761379828407015700,5.485015625,2.2592155933380127,1.1689321994781494,-0.5930038690567017
1761379828417098800,5.4950986328125,2.261425733566284,1.2105084657669067,-0.6529194116592407
1761379828427181800,5.505181884765625,2.2743935585021973,1.2584556341171265,-0.6594231128692627
1761379828437265000,5.515264892578125,2.2879583835601807,1.3048572540283203,-0.622557520866394
1761379828447348000,5.525347900390625,2.289473295211792,1.346158504486084,-0.5820121765136719
1761379828457430800,5.5354306640625,2.2770001888275146,1.347273588180542,-0.5831581354141235
1761379828467513900,5.545513916015625,2.2487456798553467,1.3200656175613403,-0.6438798308372498
1761379828477596700,5.5555966796875,2.2119317054748535,1.3039857149124146,-0.7428772449493408
1761379828487679700,5.5656796875,2.1869823932647705,1.2824488878250122,-0.8338578939437866
1761379828497762800,5.5757626953125,2.1889264583587646,1.2652957439422607,-0.8804536461830139
1761379828507846000,5.585845947265625,2.19157075881958,1.2240768671035767,-0.9262692928314209
1761379828517929000,5.595928955078125,2.17726469039917,1.0927321910858154,-1.015824317932129
1761379828528011800,5.60601171875,2.1478843688964844,0.8512808084487915,-1.1643288135528564
1761379828538094800,5.6160947265625,2.0650362968444824,0.5121147036552429,-1.3202664852142334
1761379828548177700,5.626177734375,1.9231233596801758,0.2551206946372986,-1.3369262218475342
1761379828558261000,5.636260986328125,1.7594577074050903,0.17777639627456665,-1.199464201927185
1761379828568343800,5.64634375,1.7087448835372925,0.25740909576416016,-0.9802476763725281
1761379828578427000,5.656427001953125,1.748805046081543,0.48794588446617126,-0.7546254992485046
1761379828588509700,5.666509765625,1.8970584869384766,0.7473496198654175,-0.5795548558235168
1761379828598592800,5.6765927734375,2.0606040954589844,0.9536162614822388,-0.4917600154876709
1761379828608675800,5.68667578125,2.1250617504119873,1.0161775350570679,-0.4923531413078308
1761379828618759000,5.696759033203125,2.0868849754333496,0.9196137189865112,-0.5617708563804626
1761379828628842000,5.706842041015625,2.011960029602051,0.7437942028045654,-0.6728878617286682
1761379828638924800,5.7169248046875,1.9399538040161133,0.5824465751647949,-0.7491778135299683
1761379828649007900,5.7270078125,1.8780847787857056,0.4451770782470703,-0.7741270065307617
1761379828659090700,5.737090576171875,1.8319894075393677,0.34018009901046753,-0.7487902045249939
1761379828669173800,5.747173828125,1.7726596593856812,0.3118440508842468,-0.6731913685798645
1761379828679256800,5.7572568359375,1.7492557764053345,0.3698221445083618,-0.5297314524650574
1761379828689340000,5.76733984375,1.7473394870758057,0.5263296961784363,-0.37454524636268616
1761379828699422700,5.777422607421875,1.783393144607544,0.6901673674583435,-0.2464091032743454
1761379828709505800,5.787505859375,1.8509588241577148,0.7990191578865051,-0.19091874361038208
1761379828719588900,5.7975888671875,1.933280110359192,0.8058842420578003,-0.21456095576286316
1761379828729673000,5.8076728515625,1.995762586593628,0.769838273525238,-0.26012465357780457
1761379828739755800,5.817755859375,2.0172805786132812,0.7261435389518738,-0.2701876759529114
1761379828749838800,5.8278388671875,2.000290632247925,0.6798073649406433,-0.2519674599170685
1761379828759921700,5.837921630859375,1.9546602964401245,0.6128011345863342,-0.20919495820999146
1761379828770004700,5.848004638671875,1.918527603149414,0.5565969944000244,-0.12924082577228546
1761379828780087800,5.858087890625,1.906137466430664,0.5138330459594727,-0.02705107443034649
1761379828790171000,5.8681708984375,1.9259310960769653,0.5104621648788452,0.08988379687070847
1761379828800254000,5.87825390625,1.9647730588912964,0.5219388008117676,0.21202409267425537
1761379828810336800,5.888336669921875,1.9843865633010864,0.5388204455375671,0.33221113681793213
1761379828820419800,5.898419921875,1.9547998905181885,0.5453597903251648,0.4315126836299896
1761379828830502700,5.908502685546875,1.890149474143982,0.5767924189567566,0.4995305836200714
1761379828840585700,5.918585693359375,1.839954137802124,0.6516658663749695,0.4900641143321991
1761379828850668800,5.928668701171875,1.8206850290298462,0.7147170305252075,0.42042043805122375
1761379828860752000,5.938751953125,1.8072675466537476,0.7478299736976624,0.3467145264148712
1761379828870835000,5.9488349609375,1.8033641576766968,0.7609116435050964,0.2843259871006012
1761379828880917800,5.958917724609375,1.807828664779663,0.7919667959213257,0.22140081226825714
1761379828891000800,5.969000732421875,1.786162257194519,0.8131189942359924,0.19566865265369415
1761379828901083600,5.979083740234375,1.7476060390472412,0.85417240858078,0.19870464503765106
1761379828911167000,5.9891669921875,1.7347996234893799,0.94068443775177,0.21934053301811218
1761379828921249800,5.999249755859375,1.746363639831543,1.0573511123657227,0.2569795250892639
1761379828931332900,6.009332763671875,1.7777624130249023,1.1688034534454346,0.28730088472366333
1761379828941415700,6.019415771484375,1.8346086740493774,1.238486647605896,0.29237449169158936
1761379828951498800,6.029498779296875,1.8806138038635254,1.2215213775634766,0.285925954580307
1761379828961581800,6.039581787109375,1.8915165662765503,1.0819376707077026,0.24872344732284546
1761379828971665000,6.049664794921875,1.8648167848587036,0.8402665853500366,0.1738658845424652
1761379828981748000,6.059748046875,1.7965911626815796,0.5577219724655151,0.07800460606813431
1761379828991830800,6.069830810546875,1.7207913398742676,0.33378854393959045,0.01411052793264389
1761379829001913900,6.079913818359375,1.6614547967910767,0.24304480850696564,0.03172014653682709
1761379829011996700,6.08999658203125,1.6088638305664062,0.271272212266922,0.11126786470413208
1761379829022079700,6.100079833984375,1.5632803440093994,0.40008291602134705,0.23029598593711853
1761379829032162800,6.110162841796875,1.5102050304412842,0.5679788589477539,0.3171890676021576
1761379829042246000,6.120245849609375,1.4526288509368896,0.5828571319580078,0.2608591914176941
1761379829052328700,6.13032861328125,1.3946729898452759,0.46975138783454895,0.11958853900432587
1761379829062411800,6.140411865234375,1.3046146631240845,0.3110160827636719,-0.043733809143304825
1761379829072494800,6.150494873046875,1.1697254180908203,0.09921771287918091,-0.23841339349746704
1761379829082577700,6.16057763671875,0.9993025064468384,-0.10510267317295074,-0.47689706087112427
1761379829092661000,6.170660888671875,0.8114200830459595,-0.252146452665329,-0.7090287208557129
1761379829102743800,6.180743896484375,0.6411111950874329,-0.3107900619506836,-0.9093530178070068
1761379829112827000,6.190826904296875,0.5031915903091431,-0.30228450894355774,-1.0547442436218262
1761379829122909700,6.20090966796875,0.4148832857608795,-0.14991600811481476,-1.1011881828308105
1761379829132992800,6.21099267578125,0.3918347954750061,0.18156860768795013,-1.0118963718414307
1761379829143075600,6.22107568359375,0.3501153290271759,0.5622578859329224,-0.8113608956336975
1761379829153159000,6.231158935546875,0.47221165895462036,0.8378676772117615,-0.6176896691322327
1761379829163242000,6.241241943359375,0.5503925085067749,1.008405327796936,-0.47380924224853516
1761379829173324800,6.25132470703125,0.5245190858840942,1.0038460493087769,-0.40454185009002686
1761379829183407900,6.261407958984375,0.5104557275772095,0.9104623794555664,-0.3592723608016968
1761379829193490700,6.27149072265625,0.5212835073471069,0.8422272801399231,-0.32693856954574585
1761379829203573800,6.28157373046875,0.5325617790222168,0.7970951795578003,-0.3218420743942261
1761379829213656800,6.29165673828125,0.5499573349952698,0.742381751537323,-0.35500243306159973
1761379829223740000,6.301739990234375,0.5744940638542175,0.68941330909729,-0.4019715487957001
1761379829233822700,6.31182275390625,0.5990350246429443,0.635104238986969,-0.4511348605155945
1761379829243905800,6.32190576171875,0.6055437922477722,0.5706315040588379,-0.499773770570755
1761379829253988900,6.33198876953125,0.5970903635025024,0.5068895220756531,-0.5113843679428101
1761379829264071700,6.34207177734375,0.5622889399528503,0.4347844421863556,-0.47497469186782837
1761379829274155000,6.352155029296875,0.5190389752388,0.3702292740345001,-0.40897074341773987
1761379829284237800,6.36223779296875,0.4699028432369232,0.31508105993270874,-0.34740352630615234
1761379829294321000,6.37232080078125,0.41982007026672363,0.25912484526634216,-0.3140718638896942
1761379829304403700,6.38240380859375,0.3694533109664917,0.20947740972042084,-0.31317251920700073
1761379829314486800,6.39248681640625,0.32771623134613037,0.18299761414527893,-0.30442899465560913
1761379829324569600,6.402569580078125,0.29541367292404175,0.18146736919879913,-0.2914889454841614
1761379829334653000,6.41265283203125,0.280154824256897,0.18931271135807037,-0.27999305725097656
1761379829344735700,6.42273583984375,0.27023959159851074,0.19036120176315308,-0.25838497281074524
1761379829354818800,6.43281884765625,0.2643013596534729,0.19218800961971283,-0.22373078763484955
1761379829364902000,6.44290185546875,0.2625626027584076,0.20889562368392944,-0.17235735058784485
1761379829374984700,6.452984619140625,0.2676672637462616,0.23726719617843628,-0.12122471630573273
1761379829385067800,6.46306787109375,0.2852070927619934,0.2609773278236389,-0.0637691468000412
1761379829395150800,6.47315087890625,0.28922349214553833,0.24338549375534058,0.005005444400012493
1761379829405234000,6.48323388671875,0.2805953919887543,0.1873355358839035,0.06409966200590134
1761379829415316700,6.493316650390625,0.2642765939235687,0.11164476722478867,0.11686193943023682
1761379829425399800,6.50339990234375,0.23277699947357178,0.05608723685145378,0.14254680275917053
1761379829435482600,6.513482666015625,0.18871164321899414,0.030160177499055862,0.14556287229061127
1761379829445565700,6.523565673828125,0.14730480313301086,0.03153489902615547,0.1368492692708969
1761379829455649800,6.53364990234375,0.13099457323551178,0.0594090037047863,0.13188503682613373
1761379829465732900,6.54373291015625,0.1378423571586609,0.09906373918056488,0.12474510073661804
1761379829475815700,6.553815673828125,0.1712092012166977,0.12316988408565521,0.11087643355131149
1761379829485898800,6.563898681640625,0.19371530413627625,0.11056327819824219,0.11175767332315445
1761379829495981800,6.57398193359375,0.1902979016304016,0.02683205157518387,0.10904007405042648
1761379829506065000,6.58406494140625,0.17372478544712067,-0.1204703152179718,0.10042101889848709
1761379829516148000,6.59414794921875,0.16827185451984406,-0.290669709444046,0.07555476576089859
1761379829526230800,6.604230712890625,0.15881817042827606,-0.4534711241722107,0.03991394862532616
1761379829536313900,6.61431396484375,0.11317763477563858,-0.5568221211433411,-0.018955659121274948
1761379829546396700,6.624396728515625,0.06555072963237762,-0.6127157807350159,-0.10853827744722366
1761379829556480000,6.63447998046875,0.02335742861032486,-0.6214492917060852,-0.2140779048204422
1761379829566562800,6.644562744140625,-0.011494562961161137,-0.5343218445777893,-0.2914946675300598
1761379829576646000,6.65464599609375,-0.029492471367120743,-0.3642396032810211,-0.32333940267562866
1761379829586728700,6.664728759765625,-0.019934386014938354,-0.13285323977470398,-0.3063327372074127
1761379829596811800,6.674811767578125,0.003609537146985531,0.07691185176372528,-0.24795374274253845
1761379829606894800,6.684894775390625,0.0569143071770668,0.17186713218688965,-0.18411962687969208
1761379829616978000,6.69497802734375,0.15697403252124786,0.20498155057430267,-0.14929001033306122
1761379829627061000,6.70506103515625,0.2473960667848587,0.17449821531772614,-0.12365895509719849
1761379829637143800,6.715143798828125,0.3140582740306854,0.09392435848712921,-0.08045873790979385
1761379829647227000,6.725226806640625,0.3607102036476135,-0.016899364069104195,-0.02515660785138607
1761379829657309700,6.735309814453125,0.3932197690010071,-0.09943137317895889,0.040749650448560715
1761379829667392800,6.745392822265625,0.40441274642944336,-0.12063546478748322,0.10070459544658661
1761379829677475800,6.755475830078125,0.391520231962204,-0.11181572079658508,0.10606133192777634
1761379829687559000,6.765558837890625,0.35460591316223145,-0.14006094634532928,0.027032824233174324
1761379829697641700,6.775641845703125,0.28506001830101013,-0.22783441841602325,-0.13483454287052155
1761379829707724800,6.785724853515625,0.1854812204837799,-0.3427894711494446,-0.3565016984939575
1761379829717807900,6.795807861328125,0.055266670882701874,-0.40665945410728455,-0.6197537779808044
1761379829727890700,6.805890625,-0.033303409814834595,-0.333138108253479,-0.8368594646453857
1761379829737974000,6.81597412109375,-0.047440845519304276,-0.12201602756977081,-0.952720046043396
1761379829748056800,6.826056884765625,0.0034239329397678375,0.11183001101016998,-0.9389424324035645
1761379829758140000,6.836139892578125,0.13244584202766418,0.3174059987068176,-0.8001427054405212
1761379829768222700,6.84622265625,0.28396478295326233,0.42935168743133545,-0.5678223967552185
1761379829778305800,6.856305908203125,0.39991798996925354,0.4302763044834137,-0.28522467613220215
1761379829788388600,6.866388671875,0.44693291187286377,0.3339225947856903,-0.018316281959414482
1761379829798472000,6.876471923828125,0.4378141164779663,0.19065679609775543,0.20131614804267883
1761379829808555000,6.886554931640625,0.3660632371902466,0.02673550322651863,0.35256001353263855
1761379829818637800,6.896637939453125,0.24633610248565674,-0.0872851237654686,0.4238174557685852
1761379829828721000,6.906720947265625,0.13907037675380707,-0.12790818512439728,0.40492260456085205
1761379829838803700,6.9168037109375,0.07091589272022247,-0.09259237349033356,0.3367399573326111
1761379829848886800,6.92688671875,0.03580823913216591,-0.0401451401412487,0.2525119185447693
1761379829858969900,6.936969970703125,0.008659922517836094,0.025587890297174454,0.16708511114120483
1761379829869053000,6.947052978515625,-0.035287030041217804,0.08976474404335022,0.0864829421043396
1761379829879135700,6.9571357421875,-0.09162084013223648,0.12214644253253937,0.028675194829702377
1761379829889218800,6.96721875,-0.15792450308799744,0.15329396724700928,0.014498656615614891
1761379829899302000,6.977302001953125,-0.22024503350257874,0.18918901681900024,0.03584036976099014
1761379829909384700,6.987384765625,-0.24174313247203827,0.19071315228939056,0.059505220502614975
1761379829919468000,6.997468017578125,-0.23566174507141113,0.15355314314365387,0.05522727593779564
1761379829929550800,7.00755078125,-0.21737301349639893,0.11911209672689438,0.018929457291960716
1761379829939634000,7.017634033203125,-0.1918424665927887,0.08511582016944885,-0.02666710875928402
1761379829949716700,7.027716796875,-0.16433200240135193,0.07825738191604614,-0.05826258659362793
1761379829959799800,7.0377998046875,-0.14628122746944427,0.08414801955223083,-0.06585413962602615
1761379829969882600,7.047882568359375,-0.14399303495883942,0.060196083039045334,-0.029552850872278214
1761379829979966000,7.057966064453125,-0.14054632186889648,0.029884759336709976,0.04455215856432915
1761379829990048800,7.068048828125,-0.11320578306913376,0.02474299445748329,0.12444032728672028
1761379830000131800,7.0781318359375,-0.09003262221813202,0.042886752635240555,0.1918378472328186
1761379830010215000,7.08821484375,-0.08211904019117355,0.03910665959119797,0.25025027990341187
1761379830020297700,7.098297607421875,-0.07994403690099716,0.010562901385128498,0.3005877733230591
1761379830030380800,7.108380859375,-0.07033775001764297,-0.03096936270594597,0.34778696298599243
1761379830040464000,7.1184638671875,-0.07045762240886688,-0.09037501364946365,0.3638325035572052
1761379830050547000,7.128546875,-0.09691159427165985,-0.14470243453979492,0.3643805980682373
1761379830060629800,7.138629638671875,-0.1525522917509079,-0.1753912717103958,0.3559326231479645
1761379830070712800,7.148712890625,-0.19279691576957703,-0.13813550770282745,0.3315431475639343
1761379830080795600,7.158795654296875,-0.20754298567771912,-0.04693987965583801,0.27961698174476624
1761379830090878700,7.168878662109375,-0.2140355110168457,0.013713611289858818,0.21208293735980988
1761379830100962000,7.178962158203125,-0.22055086493492126,0.09544851630926132,0.15596124529838562
1761379830111044900,7.189044921875,-0.24354033172130585,0.3024166226387024,0.24237176775932312
1761379830121128000,7.1991279296875,-0.278032124042511,0.08203064650297165,0.28406935930252075
1761379830131210800,7.209210693359375,-0.2646646499633789,-0.31298431754112244,0.24679841101169586
1761379830141293800,7.2192939453125,-0.2407614141702652,-0.6914386749267578,0.1834092140197754
1761379830151376600,7.229376708984375,-0.23223450779914856,-0.8434129953384399,0.18286645412445068
1761379830161460000,7.2394599609375,-0.22337189316749573,-0.7773589491844177,0.23470431566238403
1761379830171542800,7.249542724609375,-0.19986949861049652,-0.6187682151794434,0.3036665916442871
1761379830181625900,7.2596259765625,-0.18844346702098846,-0.4203938841819763,0.3326641619205475
1761379830191709000,7.269708984375,-0.20168577134609222,-0.23420856893062592,0.2824244201183319
1761379830201791700,7.279791748046875,-0.1926451176404953,-0.0807422548532486,0.16067975759506226
1761379830211874800,7.289874755859375,-0.1682462990283966,0.011378612369298935,0.01812661625444889
1761379830221958000,7.2999580078125,-0.14547543227672577,0.07885690033435822,-0.0659138411283493
