time,seconds_elapsed,z,y,x
1761379872292099800,0.115099853515625,2.5888176388055086,-2.9531670837819575,-0.7413625566929578
1761379872302156000,0.125156005859375,1.1582067435383796,-3.7790100046694275,0.04252630556225776
1761379872312211000,0.1352109375,-0.8579188518449664,-4.0768087098956105,0.9766861010447144
1761379872322266000,0.14526611328125,-2.5740891484901307,-5.029954653137922,1.381676476228237
1761379872332322000,0.155322021484375,-3.4713352175951,-6.698984428423643,1.0191597996369004
1761379872342377200,0.165377197265625,-3.185174050931632,-7.36345429957211,0.6144567169621586
1761379872352432000,0.17543212890625,-2.0443045189023015,-7.840404872334003,0.3562807048112154
1761379872362488000,0.185488037109375,-0.8298857665374875,-8.973111848434804,-0.7454504105284809
1761379872372543000,0.19554296875,-1.0395936619870365,-9.915103360456227,-1.8744062174022196
1761379872382598100,0.20559814453125,-1.3210071957319973,-11.196323904722929,-1.728198588091135
1761379872392654000,0.215654052734375,-3.7655639553800224,-12.518022589850425,-0.4224903760388493
1761379872402709000,0.225708984375,-7.17898678997159,-14.214749350357055,1.0068781179517508
1761379872412764200,0.23576416015625,-10.239136577135325,-15.435102461206911,1.6260162707284092
1761379872422820000,0.245820068359375,-11.005032102060317,-15.446105501258373,0.8199065165758133
1761379872432875300,0.255875244140625,-9.640361705690621,-14.390139819532632,0.3389963925331831
1761379872442930000,0.265929931640625,-7.462837633866071,-13.101824348568915,-0.34032793339788914
1761379872452985000,0.275985107421875,-6.125069272947311,-11.774592579233646,-0.35559710646122694
1761379872463041000,0.286041015625,-5.970282031339407,-11.081224530380963,0.9404358070120215
1761379872473096200,0.29609619140625,-3.9537256433233616,-10.955955644202232,1.4788497332572936
1761379872483150800,0.30615087890625,-3.6666087833702563,-10.51417633806467,0.627468174226582
1761379872493207000,0.31620703125,-2.4138402804754673,-9.042136869344114,-0.48857846671342847
1761379872503262000,0.326261962890625,-2.2748381986290216,-7.0737459618210785,-0.8206044357120991
1761379872513317000,0.336317138671875,-2.438982466647029,-5.344751254916191,-0.02655570623129606
1761379872523373000,0.346373046875,-1.3221492053739725,-3.207502494856715,0.6912281142145394
1761379872533428000,0.356427978515625,-0.43164077396094797,-0.599690817245841,0.38042116659432645
1761379872543483100,0.366483154296875,-0.4832780222177505,2.1172166103780268,0.8708277255177498
1761379872553538300,0.376538330078125,-0.4597942707777023,3.78810750336051,2.0260943239510056
1761379872563593500,0.386593505859375,0.35009485578313465,5.711397286397219,3.0158813141092655
1761379872573648400,0.3966484375,-0.1680064964041114,6.660322397074103,3.563373742084205
1761379872583704600,0.40670458984375,0.4279537560112774,6.71265990255475,3.274006765116751
1761379872593759200,0.41675927734375,1.2368614703193306,7.865943802738189,1.8578239159137009
1761379872603814400,0.426814453125,2.145021732148528,9.04436682035327,0.1485451323479414
1761379872613870300,0.436870361328125,2.7914614410877228,9.900173502349853,-1.0345248342901467
1761379872623925500,0.446925537109375,2.437286768645048,10.447262610220909,-1.5124544812172651
1761379872633980400,0.45698046875,1.9491385100424288,10.442074393928051,-1.1258479039862752
1761379872644035300,0.467035400390625,1.1788625780761242,9.91483681847453,-0.2744824193075299
1761379872654091300,0.47709130859375,0.35506928319483994,9.613717444393037,0.8290762037202716
1761379872664146400,0.487146484375,0.08032850521206855,11.236329751896857,0.9188643189340829
1761379872674201600,0.49720166015625,0.9692059744223952,11.612020675098895,0.8388251520574093
1761379872684257500,0.507257568359375,3.1112527824133633,10.656496896809339,0.9679065822616219
1761379872694312400,0.5173125,4.42427891626358,10.051980851364135,0.7802686259314418
1761379872704367400,0.527367431640625,4.184557721474767,9.74210124772191,0.0991767058059573
1761379872714423300,0.53742333984375,3.754844700706005,9.673502927792072,-0.21601386372596024
1761379872724478500,0.547478515625,2.6849475242614744,10.067212322765588,-0.116232762286067
1761379872734533400,0.557533447265625,1.7504098353773354,10.370769737648963,0.00421674091219902
1761379872744589300,0.56758935546875,1.350750884349644,11.04671085088253,0.036183370842901054
1761379872754644500,0.57764453125,1.5795478034116326,11.929299156820774,-0.06549713447752874
1761379872764699400,0.587699462890625,2.3798745902486145,12.608164048546552,-0.17372312048524616
1761379872774755600,0.597755615234375,3.1667303394854067,12.850669321095943,-0.37414077115058897
1761379872784810200,0.607810302734375,4.826926819974184,12.39585283873081,-0.5846688969418407
1761379872794865400,0.617865478515625,5.877646417739987,11.668935571497679,-0.8812021122768521
1761379872804921300,0.62792138671875,6.938617944929003,10.965690271753072,-0.9925529477402567
1761379872814976500,0.6379765625,7.2275056139469145,10.389197374743222,-0.9513406473860144
1761379872825031400,0.648031494140625,6.2245268415212625,10.308412942457199,-0.821783124102652
1761379872835087400,0.65808740234375,5.51640779826045,10.335091690546273,-0.7926075907617807
1761379872845142300,0.668142333984375,4.764183071291447,10.44489178943634,-0.7493842428460716
1761379872855197400,0.678197509765625,4.075209458005428,10.748154605287313,-0.5748980290338397
1761379872865253400,0.68825341796875,3.2513825531154867,10.75103162202835,-0.4515864144027233
1761379872875308500,0.69830859375,2.5125197042837737,10.177388853752612,-0.6897448899194598
1761379872885363500,0.708363525390625,2.2161703210830686,8.883149837958813,-0.8786351843982935
1761379872895419400,0.71841943359375,1.6702672081261871,7.451378666740656,-0.8342959841951727
1761379872905474300,0.728474365234375,1.4915958175837993,6.000632161417603,-0.8485726390898227
1761379872915529500,0.738529541015625,1.9635463901013135,3.6991818501949307,-0.9134384944930672
1761379872925585400,0.74858544921875,1.9757398089811204,0.6608446663886308,-0.9833414672806858
1761379872935640300,0.758640380859375,2.171306804744899,-1.9140753799676895,-0.8836600268229842
1761379872945695500,0.768695556640625,1.6202002779260276,-3.091222970819473,-1.070795002067089
1761379872955751400,0.77875146484375,-0.2527075176119804,-4.586620518773794,-1.2772165693223476
1761379872965806600,0.788806640625,-2.006381030960381,-7.135998712116479,-1.0461495133712888
1761379872975861200,0.798861328125,-2.510937695789337,-9.347406348842382,0.26322686579972504
1761379872985916400,0.80891650390625,-2.661445652642846,-11.618568489307165,2.185318378962576
1761379872995972400,0.818972412109375,-2.5474732365041968,-13.417905729460715,3.283104556068778
1761379873006027500,0.829027587890625,-1.7909706860855221,-15.14008023495674,2.9093752883285284
1761379873016082200,0.839082275390625,-2.634737970720231,-17.24899429641366,1.09053459854275
1761379873026138400,0.849138427734375,-6.765833858859539,-19.640613538861274,-0.8511740537598729
1761379873036193300,0.859193359375,-12.529531825858355,-21.581726563358306,-1.5739692726269363
1761379873046248400,0.86924853515625,-19.02294925802946,-21.972666493618487,-0.8604366798847913
1761379873056304400,0.879304443359375,-22.510246599388122,-20.999954264640806,-0.015703477393952198
1761379873066359600,0.889359619140625,-21.825668590712546,-19.63431940715313,0.626552520686388
1761379873076414500,0.89941455078125,-17.09762884594798,-18.37441286907196,1.114462294358015
1761379873086470400,0.909470458984375,-10.659093343043327,-17.774560139262675,1.3761726181149483
1761379873096525300,0.919525390625,-4.158881136165559,-16.850204237174985,1.1367886924564838
1761379873106580500,0.92958056640625,-0.4421078074395656,-14.769863943773506,0.9581687398403882
1761379873116636400,0.939636474609375,-0.9460843342930078,-12.139114458167553,1.078479126828909
1761379873126691300,0.94969140625,-1.1594269329831004,-10.150009848439693,1.1240575134381652
1761379873136746500,0.95974658203125,-2.3723224213033913,-8.35822930727601,0.8654916251868009
1761379873146802400,0.969802490234375,-3.8628874345347284,-7.246851534929871,0.8820587291061878
1761379873156857600,0.979857666015625,-4.324749451497197,-6.069025314164161,0.8119774771422147
1761379873166912300,0.989912353515625,-3.9818671574413775,-4.742386250025033,0.1921066261768341
1761379873176968400,0.999968505859375,-2.923771770210564,-3.6040696173489093,-0.4082841194992885
1761379873187023400,1.0100234375,-1.2096478847011922,-3.1476573902249334,-0.9839794729232787
1761379873197078500,1.02007861328125,0.5398430822655558,-2.6491876440942286,-1.2561068535372615
1761379873207134500,1.030134521484375,0.8290005081355571,-1.465243817231059,-0.3579235035821795
1761379873217189400,1.040189453125,0.8540802965953945,-0.15353870285153387,1.0367108730923384
1761379873227244300,1.050244384765625,0.8777788598299026,0.7570154683768748,1.6691481409683822
1761379873237300500,1.060300537109375,-0.30092239020466804,1.9747557663798332,1.5626836162418125
1761379873247355400,1.07035546875,-1.9442770414859056,3.1518869906187055,1.407502991402149
1761379873257410300,1.080410400390625,-1.7295047022536396,4.210696371337771,1.5672048930585383
1761379873267466200,1.09046630859375,-3.2148651325792073,6.488615584847331,0.9998463196188211
1761379873277521400,1.100521484375,-3.158952691221237,8.28170896217525,0.5418780952244997
1761379873287576300,1.110576416015625,-1.0104033694684504,8.839920937085152,0.17346973024606704
1761379873297632500,1.120632568359375,0.00374444722533226,9.118748984381556,0.03649111705124378
1761379873307687400,1.1306875,0.07326572721898555,10.007759432321786,0.41413434336483473
1761379873317742300,1.140742431640625,0.5398033347770571,10.832217036330698,0.6170064014449715
1761379873327798300,1.15079833984375,1.668011245892942,11.340145515680312,0.6544982199713587
1761379873337853400,1.160853515625,2.495503395292163,11.616795049893856,0.6291060045614838
1761379873347908600,1.17090869140625,3.395321652972698,11.768531087237596,0.3004989040955901
1761379873357964500,1.180964599609375,4.233240796101093,11.985642390811442,-0.14295505725592375
1761379873368019500,1.19101953125,5.8370654010266065,11.219682568478584,-0.4761261046364903
1761379873378074400,1.201074462890625,6.807507931506633,10.535329016208648,-0.6946253554373979
1761379873388130300,1.21113037109375,6.87097999446392,11.04693530728817,-0.5955956568866968
1761379873398185500,1.221185546875,6.026030222046375,12.25866788930893,-0.3041767158254981
1761379873408240400,1.231240478515625,5.009994399648905,13.25612643700838,0.021039865419268607
1761379873418296300,1.24129638671875,4.648838197755813,14.004805454194544,0.32791005811244245
1761379873428351500,1.2513515625,4.228391017982363,14.928331335198878,0.24568331806361673
1761379873438406400,1.261406494140625,3.5609763255536553,16.07054672887921,-0.0967199603036046
1761379873448462600,1.271462646484375,4.1147669768899675,15.92006390646696,-0.7613780475005507
1761379873458517200,1.281517333984375,4.517959070479869,15.892603068089484,-0.9594564415633677
1761379873468572400,1.291572509765625,4.111114007340372,14.919837063097953,-1.1931444936677813
1761379873478628400,1.30162841796875,4.935167998984456,13.711412874972819,-1.3083783080443738
1761379873488683500,1.31168359375,5.540057553917169,12.906571825581787,-0.8212333812654018
1761379873498738200,1.32173828125,5.697334858775139,12.311954073816537,-0.6414955305352806
1761379873508794400,1.33179443359375,5.055303029406071,12.145343123424052,-1.311114455009997
1761379873518849300,1.341849365234375,3.985903281089663,11.46678335212469,-2.2513740286722776
1761379873528904400,1.351904541015625,3.6951615086376663,9.971920057177543,-2.5072569614499804
1761379873538960400,1.36196044921875,4.103253649228811,7.571659243112802,-2.0274401856020092
1761379873549015600,1.372015625,4.435771785658598,3.792030814284086,-0.879551714721322
1761379873559070500,1.382070556640625,5.445056380230188,-0.13184358839392663,0.33809155264794827
1761379873569126400,1.39212646484375,5.23501662247777,-3.0254636737078426,0.45838089684844013
1761379873579181300,1.402181396484375,4.020974594470858,-5.898838258850574,-1.232078912217915
1761379873589236500,1.412236572265625,2.333184296874702,-9.307270737808942,-2.9805855443224307
1761379873599292400,1.42229248046875,1.64910371632725,-12.731312289309502,-3.4543837905332446
1761379873609347300,1.432347412109375,1.5541948970988393,-14.990259091323614,-2.316564878246188
1761379873619402500,1.442402587890625,-2.08607416087836,-16.205733782482145,0.8132558265149593
1761379873629458400,1.45245849609375,-7.3912337023794645,-17.859098371124265,4.9752965957552195
1761379873639513600,1.462513671875,-9.027817836612462,-19.617655857121942,6.468353133541346
1761379873649568500,1.472568603515625,-8.274593577212094,-22.204791826450823,3.162025815056264
1761379873659624400,1.48262451171875,-7.597521414121985,-25.136821429657935,-2.017289086204767
1761379873669679400,1.492679443359375,-9.084954851329327,-26.874927663779257,-6.190767779782414
1761379873679734500,1.502734619140625,-12.70729194677472,-27.25502822011709,-7.794382541349529
1761379873689790500,1.51279052734375,-15.728352417087555,-26.399996614146232,-5.984879881012439
1761379873699845600,1.522845703125,-16.760597031486032,-24.994151326823232,-2.579393392378092
1761379873709900300,1.532900390625,-15.11089271891713,-22.559196800518034,0.04869918551091104
1761379873719956500,1.54295654296875,-10.811343759649992,-19.778158553767202,1.1631664117723703
1761379873730011400,1.553011474609375,-5.888616724565625,-16.137015051043033,0.6249594062760472
1761379873740066600,1.563066650390625,-1.6285563106000422,-12.43517011911869,-0.7077022791534662
1761379873750122500,1.57312255859375,2.1847022928908464,-9.857198283976317,-1.6324653007373213
1761379873760177400,1.583177490234375,2.937278609776497,-7.434302444255351,-1.1509762077629566
1761379873770232300,1.593232421875,0.750100720552355,-5.171222487959265,0.4783201075494289
1761379873780288500,1.60328857421875,-0.6497443034425378,-3.9554116967141626,0.8574614634662866
1761379873790343400,1.613343505859375,-2.591653154492378,-2.690578808146715,-0.39140959359854455
1761379873800398300,1.6233984375,-4.604683414208889,-1.806157441562414,-1.7133908950597048
1761379873810454300,1.633454345703125,-4.913026894325018,-1.1426245590031145,-1.9415902866199612
1761379873820509400,1.643509521484375,-4.335573335589468,0.309411986130476,-0.8963730856627226
1761379873830564600,1.653564697265625,-4.3873564220577475,2.138036695566773,0.3289613207310438
1761379873840620500,1.66362060546875,-3.17659005472064,4.0662265256047245,1.2834417274475096
1761379873850675500,1.673675537109375,-0.6193662624441086,6.098368313026428,2.318434179249406
1761379873860730400,1.68373046875,0.37076048106253146,8.256254202923179,3.1931539437696337
1761379873870786300,1.693786376953125,0.8373561024181544,9.52466027380228,2.5014532436072825
1761379873880841500,1.703841552734375,1.1144633172713219,10.847518650358914,0.7097583349004387
1761379873890896600,1.713896728515625,2.7422178099691865,12.162817989838123,-0.799438605825603
1761379873900952300,1.723952392578125,4.818509704762697,13.242170392370223,-2.114545929864049
1761379873911007500,1.734007568359375,6.28512539486885,13.527086235147713,-2.444407706566155
1761379873921062400,1.7440625,7.062480471441149,13.168738076412676,-1.5778709562405944
1761379873931118600,1.75411865234375,7.106071775886416,12.42507893321514,-0.7271113285005092
1761379873941173500,1.764173583984375,7.065699433487653,12.028216627168655,-0.4159013530373573
1761379873951229400,1.7742294921875,6.65633654230833,12.441906149375438,-0.03647767304778099
1761379873961284400,1.784284423828125,5.8080199238061905,12.604469870203733,0.46662060966640706
1761379873971339500,1.794339599609375,4.494985606649518,12.609666269803046,0.31728578824549913
1761379873981395500,1.8043955078125,3.4039053569227455,12.459887211745977,0.08863925570594146
1761379873991450600,1.81445068359375,2.803799529135227,12.435756979095935,-0.053013212785124775
1761379874001505300,1.82450537109375,2.3707477193325754,12.824578602027893,-0.007806015842128544
1761379874011561500,1.8345615234375,2.275146241664886,13.15550683891773,0.1330055996443145
1761379874021616400,1.844616455078125,2.1325129637092353,13.184739947664736,0.3579387011513114
1761379874031671600,1.854671630859375,1.3948270497024058,13.152121288132667,0.8365724046945572
1761379874041727500,1.8647275390625,0.9795106569461524,12.704337773144244,0.9504673716828227
1761379874051782400,1.874782470703125,1.1939280452609062,12.526119387066364,0.366859674231708
1761379874061837300,1.88483740234375,1.615717141162604,12.281669994711875,-0.5145727396696805
1761379874071893500,1.8948935546875,2.2472961117088794,11.820437800085545,-1.1609896522551775
1761379874081948400,1.904948486328125,2.5909640031844376,11.302325780373812,-1.4542720491006969
1761379874092003300,1.91500341796875,2.593880182892084,10.754372749149798,-1.6054484067350625
1761379874102059300,1.925059326171875,2.3571032248616217,10.357303522354364,-1.5721394268512725
1761379874112114400,1.935114501953125,1.5167331814497709,10.178331103038786,-1.287933778169751
1761379874122169600,1.945169677734375,0.14358897124528883,9.821927064108849,-0.7609580685228109
1761379874132225500,1.9552255859375,-0.7405176303014159,9.194657335063814,-0.3043897557879798
1761379874142280400,1.965280517578125,-0.06916209129244089,8.451550565052033,-0.34558161614239213
1761379874152335400,1.97533544921875,1.3588734005287288,7.619491838389635,-0.5191956867625936
1761379874162391600,1.9853916015625,2.953333964781463,6.293557123127579,-0.40624706071373073
1761379874172446500,1.995446533203125,4.241827422660589,4.7055929351568215,-0.14758012324068695
1761379874182501600,2.005501708984375,4.159526740592718,2.5124077683418986,0.08016567933317273
1761379874192557300,2.015557373046875,3.2185859066680074,0.22434242387115955,0.2917591693336144
1761379874202612500,2.025612548828125,1.4170786289989947,-1.055098835763335,0.39692952606379983
1761379874212668400,2.03566845703125,0.0937853681564331,-2.537888246557116,0.027872634048759937
1761379874222723600,2.0457236328125,-0.24797201352268455,-5.1698874399632215,-0.6856175808563828
1761379874232778500,2.055778564453125,-0.05345861846506595,-7.674418191319703,-0.6617699645400047
1761379874242834400,2.06583447265625,0.06292787307798862,-9.540918165642022,1.3762559124842286
1761379874252889300,2.075889404296875,-1.3213663844332098,-12.068095048570632,3.404522027516365
1761379874262944500,2.085944580078125,-3.544253154289722,-14.956075082170962,2.9762746953859924
1761379874273000400,2.09600048828125,-6.4057911711663005,-16.579907286858557,0.6547071865469217
1761379874283055600,2.1060556640625,-9.716725983446835,-18.06046265498996,-1.3815551879361272
1761379874293110300,2.1161103515625,-14.256760107612608,-20.140880105280875,-1.8881985959112644
1761379874303166500,2.12616650390625,-17.505308314085006,-22.763550329327582,-1.3083479129061102
1761379874313221400,2.136221435546875,-18.620767802786826,-24.973527056467532,-0.3338780266061425
1761379874323276500,2.146276611328125,-19.19799836642146,-25.90051096897125,0.5121630481794476
1761379874333332500,2.15633251953125,-17.45785682708025,-25.09807698072195,0.9535250056877732
1761379874343387400,2.166387451171875,-13.79132753868699,-22.973435773301123,0.762602913120389
1761379874353442300,2.1764423828125,-10.370249513167142,-19.581456416493655,0.40071196721196173
1761379874363498500,2.18649853515625,-8.246630050009488,-15.91443145353794,0.09013912060856819
1761379874373553400,2.196553466796875,-6.5963453072041265,-13.077587732934951,-0.2528890116587281
1761379874383608300,2.2066083984375,-5.731482627570629,-10.705408519494533,-0.027463181031611748
1761379874393664300,2.216664306640625,-6.414746631038189,-9.03075213649869,0.08125614145100116
1761379874403719400,2.226719482421875,-6.974030034571886,-7.964996297642588,0.023999592007696628
1761379874413774600,2.236774658203125,-6.680688893276453,-6.961085212802886,-0.16092735179811715
1761379874423830500,2.24683056640625,-5.155651993861794,-6.411326008939743,-0.4156567306265235
1761379874433885400,2.256885498046875,-3.166565504312515,-5.823084806469082,-0.45750265270918605
1761379874443941400,2.26694140625,-1.2280499489627779,-5.102087576934695,-0.049089618733758104
1761379874453996500,2.27699658203125,-0.05955357433930039,-3.966448054513335,0.5994175532624125
1761379874464051500,2.287051513671875,-0.12801248579844832,-2.0379583647459745,1.0722080837354064
1761379874474107400,2.297107421875,-0.7498994988918304,-0.2512842068105936,1.2463140660583971
1761379874484162300,2.307162353515625,-1.145825912327692,1.4510013568669557,0.6374006624370813
1761379874494217500,2.317217529296875,-1.396466049081087,3.6037335172623393,-0.3806409468248486
1761379874504273400,2.3272734375,-0.760869732652232,5.874940081390738,-0.9140303229063749
1761379874514328600,2.33732861328125,0.5073779327947646,7.929833214324712,-0.7423410463362932
1761379874524383500,2.347383544921875,1.6927420747846365,9.387957554939389,-0.5659224031567573
1761379874534439700,2.357439697265625,2.647959563603997,10.274564448869228,-0.5057651638358831
1761379874544494300,2.367494384765625,2.891583611050248,11.01910738916397,-0.4224018209725618
1761379874554550500,2.377550537109375,2.450115855079889,11.925753447037934,-0.6198752348795533
1761379874564606500,2.3876064453125,1.7767764487773179,12.369348278164862,-0.8006663940548896
1761379874574661400,2.397661376953125,1.496999137932062,12.435927659487724,-0.8180769630610942
1761379874584717600,2.407717529296875,1.6245552582651375,12.494810056567191,-0.8293070898666978
1761379874594772200,2.417772216796875,2.462671385270357,12.339689637482165,-0.8366407937556505
1761379874604827400,2.427827392578125,3.6486066782116886,12.058575525075197,-0.898509513169527
1761379874614883300,2.43788330078125,4.509482334035635,11.81624560909271,-0.9311123906105756
1761379874624938500,2.4479384765625,4.587944460853934,11.566467715191841,-0.8451625383853912
1761379874634993400,2.457993408203125,3.9791590675264596,11.67294071548581,-0.6699705143913627
1761379874645049300,2.46804931640625,3.4954584359824654,12.331633756798505,-0.5187146617799997
1761379874655104500,2.4781044921875,2.993994184210896,12.81119071266651,-0.3257929198279977
1761379874665159400,2.488159423828125,2.493525957739353,13.059360002326965,0.05677812740975059
1761379874675215400,2.49821533203125,2.2375006938815116,13.30336749613285,0.6606628800809383
1761379874685270300,2.508270263671875,2.4144804780751463,13.579907140231132,1.1828642149329185
1761379874695325400,2.518325439453125,2.5308564482241867,13.911345080208777,1.214831424818933
1761379874705381400,2.52838134765625,2.717597163453698,14.101172071015833,0.6252645267024636
1761379874715436500,2.5384365234375,3.047222501051426,14.053084624195098,-0.008209025418758393
1761379874725491200,2.5484912109375,3.5556986774116752,14.066502908694742,-0.28828473468869925
1761379874735547400,2.55854736328125,4.013380486080051,14.069501505988836,-0.2812561512261629
1761379874745602300,2.568602294921875,4.139551874056458,13.774153116524218,-0.16566110232174394
1761379874755658500,2.578658447265625,4.193862725436687,12.977007882332801,0.09984861371815204
1761379874765713400,2.58871337890625,4.112394987061619,11.896502802634238,0.3311398338139057
1761379874775768600,2.5987685546875,3.56240372800827,10.97235265225172,0.440969451059401
1761379874785824300,2.60882421875,2.8481951357007027,9.990339510965347,0.33578882866352794
1761379874795879400,2.61887939453125,2.058800661766529,8.887343197995424,-0.23815058447122572
1761379874805934300,2.628934326171875,1.7363678660213946,7.825272185131907,-0.7737006457179785
1761379874815990500,2.638990478515625,1.7576494312420485,6.376618852695822,-0.9012804391875863
1761379874826045400,2.64904541015625,2.6806542109817264,3.772545192569494,-0.7160229482531547
1761379874836101400,2.659101318359375,3.8759108744978903,0.6233119313299655,-0.39619098265618086
1761379874846156300,2.66915625,4.078993652719259,-2.1508190202504394,0.1149061898574233
1761379874856211500,2.67921142578125,2.4625544808924196,-4.133831158322096,-0.1689221499443054
1761379874866267400,2.689267333984375,-0.46326574628055095,-5.826489646476507,-0.866968712002039
1761379874876322600,2.699322509765625,-4.112192157965898,-8.242792663803696,-0.567252774977684
1761379874886377200,2.709377197265625,-6.5398764010071755,-10.177925444847345,0.15670593471080063
1761379874896433400,2.719433349609375,-6.862689135980606,-10.92666057613492,0.9406889049902558
1761379874906488300,2.72948828125,-7.641663922709226,-12.328923913317919,2.349284660065174
1761379874916543500,2.73954345703125,-8.429350423681736,-14.217909275692701,2.794485465084016
1761379874926599400,2.749599365234375,-9.040589639902114,-15.368569841635226,1.9999246944278477
1761379874936654300,2.759654296875,-11.525479871243238,-16.764397592812777,1.5167247058823703
1761379874946709500,2.76970947265625,-15.545296527850628,-18.546122019386292,1.8523174274519085
1761379874956765400,2.779765380859375,-19.361926361340284,-19.793248570871352,1.8035288466244934
1761379874966820400,2.7898203125,-21.188696382820606,-19.999661954820155,0.9668494744241237
1761379874976876500,2.79987646484375,-19.995878929150102,-19.426735810381174,-0.27209314955081787
1761379874986931200,2.80993115234375,-16.960952430570124,-18.95313980874419,-0.7436012755304574
1761379874996986400,2.819986328125,-13.652650889402627,-18.289191915643215,0.2676204428498633
1761379875007042300,2.830042236328125,-10.910241356253623,-18.213896143901348,2.0526532450526953
1761379875017097500,2.840097412109375,-7.845532298350333,-17.82250028656721,3.8009000571772456
1761379875027152400,2.85015234375,-6.459553741014004,-16.585207731354235,4.538802536544203
1761379875037208300,2.860208251953125,-6.879207140061259,-14.697435836422443,4.534242973543703
1761379875047263500,2.870263427734375,-7.075052952766418,-12.538597760367393,3.8205572360664606
1761379875057318400,2.880318359375,-6.514135810551047,-10.465913534677028,2.5912881205722686
1761379875067374600,2.89037451171875,-5.711576734617352,-8.120902314147353,1.213302315555513
1761379875077429200,2.90042919921875,-4.442140736168623,-5.757395067462324,0.27654578157812354
1761379875087485400,2.9104853515625,-3.6582863607048988,-3.4325054284632204,-0.17382745764255522
1761379875097540400,2.920540283203125,-3.24294614868164,-1.1949673251807689,-0.38627339975386854
1761379875107595500,2.930595458984375,-2.3919772621050477,0.8444652037709951,-0.7546180518463254
1761379875117651500,2.9406513671875,-1.5214602099716663,2.6239386365473267,-0.6526347641870379
1761379875127706400,2.950706298828125,-0.723411597199738,4.207230741053819,-0.21948241661936044
1761379875137761300,2.96076123046875,-0.2494609369061887,5.4450441052705045,-0.37011633794009685
1761379875147817500,2.9708173828125,-0.07911489163860679,6.438758205744624,-0.5738055576220155
1761379875157872400,2.980872314453125,0.4223240795612335,7.834067486006021,-0.4559072002112865
1761379875167927600,2.990927490234375,0.8648072961844503,9.535780802753568,-0.17398734264569357
1761379875177983500,3.0009833984375,1.2170647368289529,11.092441505444048,-0.09552959060841239
1761379875188038400,3.011038330078125,1.7556933287382124,12.117820325726269,-0.317341902346909
1761379875198094300,3.02109423828125,2.8450620983719825,12.75781451178789,-0.4905161567777395
1761379875208149500,3.0311494140625,3.9747465117812153,12.9667495231688,-0.5092720029130577
1761379875218204400,3.041204345703125,5.20717116869688,12.84539459556341,-0.39484132161289454
1761379875228260600,3.051260498046875,5.826292078077793,12.77999010323882,-0.2326143036593683
1761379875238315300,3.061315185546875,5.620557908564805,12.66797934256196,-0.12256196530759333
1761379875248370400,3.071370361328125,5.172651643979549,12.211121709758043,-0.14279546451373024
1761379875258426400,3.08142626953125,4.168862724214792,11.814912899184227,-0.3675374273627996
1761379875268481500,3.0914814453125,3.3190824629008766,12.004164720451831,-0.6545908666908741
1761379875278536200,3.1015361328125,2.3042998554348944,12.070223877292872,-0.7017240815266966
1761379875288592400,3.11159228515625,1.5760878722161054,12.2146323482275,-0.27559885611683127
1761379875298647300,3.121647216796875,1.7923177167803048,12.74647478712797,0.07905103262215853
1761379875308703500,3.131703369140625,2.277469131654501,13.200449557971954,-0.11357844838500022
1761379875318758400,3.14175830078125,2.7263550549268722,13.458363996577262,-0.46074090397804973
1761379875328813300,3.151813232421875,3.1397254281818863,13.678583787560463,-0.669138155220449
1761379875338869200,3.161869140625,3.3989632243454455,13.709805439776181,-0.6489572447180748
1761379875348924400,3.17192431640625,3.40676951418221,13.313781338119506,-0.5835989296227693
1761379875358979600,3.1819794921875,3.3209944340020416,12.872878814816474,-0.5154220499753952
1761379875369035500,3.192035400390625,3.1314965290188788,12.547026566016672,-0.393887381888926
1761379875379090400,3.20209033203125,2.9441999334722757,12.07720189961195,-0.33560675009489055
1761379875389146400,3.212146484375,2.4936270800262688,11.498616414237022,-0.5694064458802343
1761379875399201300,3.222201171875,1.9986336317040025,11.12729771476984,-0.7011807684302329
1761379875409256400,3.23225634765625,1.5163924051880835,10.686447798436879,-0.3313227891653776
1761379875419312400,3.2423125,0.9442733393482864,10.009876570606231,0.05023438658840023
1761379875429367300,3.2523671875,0.4829653030067682,9.33871801547408,0.1931172645241022
1761379875439422500,3.26242236328125,0.3427896473363042,8.329666060614585,0.29320699352174995
1761379875449478400,3.272478515625,0.6739673289425671,6.877159559881687,0.3979650065913796
1761379875459533600,3.282533447265625,1.2047387776106595,5.187181104591488,0.46391953401416536
1761379875469588500,3.29258837890625,2.0797236228078604,2.8197166447132824,0.4847375733762979
1761379875479644400,3.30264453125,3.043016281533241,0.14882336476743221,0.17868249645829198
1761379875489699300,3.31269921875,2.9275244007423518,-1.8830115486621855,-0.5144505745947361
1761379875499755300,3.32275537109375,1.565014397276938,-3.091010204851627,-1.0465662774786353
1761379875509810400,3.332810546875,0.44296705461740493,-4.937083477216959,-1.180250525303185
1761379875519865600,3.342865478515625,-0.7671075310632586,-7.320635733065009,-1.221806524528563
1761379875529921300,3.35292138671875,-2.6454429046079513,-8.95182239216864,-0.5373337297931313
1761379875539976400,3.3629765625,-3.1521485641643405,-10.442525644826889,1.0627002506777643
1761379875550031400,3.37303125,-4.283589173591137,-11.91888297674656,2.53791864169538
1761379875560087000,3.383087158203125,-5.156736281967163,-13.212738546180724,2.711160992926359
1761379875570141700,3.3931416015625,-4.643200191868841,-14.367516484314203,1.443406371693313
1761379875580198000,3.403197998046875,-5.722362917047739,-16.545242800712586,-0.09318217809889465
1761379875590252800,3.413252685546875,-9.175880738401412,-19.425608852177856,-0.41914778761267657
1761379875600308000,3.423307861328125,-12.890076617854833,-21.27387992684841,-0.5315875873565673
1761379875610364000,3.433364013671875,-15.621591832023858,-21.710279293513295,-0.9138242789402603
1761379875620418800,3.443418701171875,-16.497474502843616,-21.874272754883766,-0.6311898250982165
1761379875630473700,3.4534736328125,-15.376685343551635,-21.589393152463433,-0.029102796898223458
1761379875640530000,3.463530029296875,-13.766425737142562,-20.905416032290457,0.20757365989983081
1761379875650584800,3.473584716796875,-11.791568263953923,-19.649989269971847,0.4747907643795013
1761379875660640000,3.483639892578125,-10.60129231145978,-17.77594662518501,1.5401657872244714
1761379875670696000,3.493696044921875,-10.053101964348555,-16.01428182082176,2.4301038714036345
1761379875680750800,3.503750732421875,-9.862402866882086,-14.171179088699818,2.4826909677311777
1761379875690806800,3.513806884765625,-8.792742421802878,-12.53658934315443,1.4451830259770153
1761379875700862000,3.523862060546875,-7.153009468150138,-10.623554412150382,-0.4137298542171716
1761379875710917000,3.533917236328125,-5.01537433912158,-8.689013167259096,-2.1577435588166116
1761379875720973000,3.54397314453125,-1.5274758169993756,-6.977897231394052,-2.989814852699637
1761379875731028000,3.554028076171875,1.216722353132069,-5.61708058784306,-3.0166929227530956
1761379875741083000,3.564082763671875,2.4276903805211183,-4.016450395044684,-1.7066642171531914
1761379875751138800,3.574138916015625,2.467442252933979,-1.8716145408570766,0.0035533085674047467
1761379875761194000,3.584194091796875,1.7315394229516385,0.09016600861549377,1.0621041844807564
1761379875771250000,3.59425,-1.0854647479325532,1.8447814789891241,1.2365128030121326
1761379875781304800,3.604304931640625,-4.545231400547921,3.09214300827384,0.7723549301974475
1761379875791360000,3.614360107421875,-6.016760289397835,4.7987885207265615,0.17251133354268966
1761379875801416000,3.624416015625,-5.689773483610153,6.900692995682358,-0.25350275964289903
1761379875811471000,3.63447119140625,-3.830786369135976,8.793640247425436,-0.7325958973914385
1761379875821525800,3.64452587890625,-1.6366170135892926,9.811735340440272,-1.3393674666784703
1761379875831582000,3.65458203125,0.2231250109054148,10.47980411286354,-1.4188593749359248
1761379875841636900,3.664636962890625,2.2304607122421265,11.424391486597061,-1.1773507122084497
1761379875851692800,3.67469287109375,4.027114996922016,12.315315074682236,-0.8366607405651361
1761379875861748000,3.684748046875,5.688962167227268,12.935149100768566,-0.7088058564811944
1761379875871803000,3.694802978515625,6.906868469446897,13.227662559068202,-0.7647025888133794
1761379875881858800,3.70485888671875,7.331142514032125,13.204309740531444,-0.7242429334573447
1761379875891914000,3.7149140625,6.829737883493304,13.092331713080405,-0.5762012936521321
1761379875901969000,3.724968994140625,5.704169088709354,13.192479017484187,-0.4746110238984227
1761379875912025000,3.735025146484375,4.508893135970831,13.491779943966865,-0.7264423431977629
1761379875922079700,3.745079833984375,3.5292671820819375,13.567943146193027,-1.137350564122945
1761379875932135000,3.755135009765625,3.2537329156339165,13.73696115772724,-1.0819093935385347
1761379875942190800,3.76519091796875,3.2965146572619677,13.869764531064032,-0.8037112416435033
1761379875952246000,3.77524609375,3.5177263818919657,13.793818770980835,-0.4939388977680355
1761379875962302000,3.785302001953125,3.899624927562475,13.961515763044357,-0.14696721550673245
1761379875972356900,3.79535693359375,4.250677668592334,14.219674531799553,0.011087868790701031
1761379875982411800,3.805411865234375,4.588040906965732,14.16596982961893,-0.05491115536093712
1761379875992468000,3.815468017578125,4.417783709025382,13.833669135332107,-0.23690672188997267
1761379876002523000,3.82552294921875,3.96688586140871,13.284845166492461,-0.3718804250031709
1761379876012579000,3.8355791015625,3.355102455309033,12.695389912056923,-0.38704091352764514
1761379876022633700,3.8456337890625,2.5991642607748506,12.31142449698448,-0.3924731311768293
1761379876032689000,3.85568896484375,1.7992140521652995,11.76802021510601,-0.33611707423720505
1761379876042744800,3.865744873046875,1.3199109249278902,11.269499031049012,-0.3575681142732501
1761379876052800000,3.875800048828125,1.3670822798170148,10.80159276548624,-0.42755408916920423
1761379876062855000,3.88585498046875,1.0834691902011633,9.800573310434817,-0.5692594386249781
1761379876072910800,3.895910888671875,0.9164164873905479,8.813795731225609,-0.7414259773179889
1761379876082965800,3.9059658203125,0.7835127224192023,8.126569838389754,-0.7957146168664098
1761379876093022000,3.91602197265625,0.642675387969613,7.227002925121784,-0.7986927558943628
1761379876103076900,3.926076904296875,1.0233554977610706,5.689247413909435,-0.6540116054981947
1761379876113132000,3.936132080078125,1.7579010679155587,3.8396483055055137,-0.5074491714000702
1761379876123188000,3.94618798828125,2.4940169561266896,2.0952654753327367,-0.47096536087244745
1761379876133243000,3.956242919921875,2.988409369815886,0.13007307159006595,-0.4773310965120792
1761379876143297800,3.9662978515625,2.4765724848508834,-2.046350345516205,-0.28229601566791535
1761379876153354000,3.97635400390625,0.7039829663693904,-3.982175200477242,0.2221095502525568
1761379876163409000,3.986408935546875,-1.8953157344400882,-5.7935079988509415,0.7055278577238321
1761379876173465000,3.996465087890625,-4.236810763542354,-7.5599460089653725,0.6357888433262705
1761379876183517000,4.006516845703125,-4.5866970911413425,-9.42745837520063,-0.11480302174389362
1761379876193573000,4.016572998046875,-4.520977541518211,-10.89624322603941,-0.9415399688616395
1761379876203627800,4.026627685546875,-4.273348057822883,-12.4448498016119,-0.49268557323869316
1761379876213683000,4.036682861328125,-3.5866125788524745,-15.657414840555191,0.7741866756692528
1761379876223739000,4.04673876953125,-3.761274733753502,-19.67209588783979,0.9635998249784111
1761379876233794000,4.0567939453125,-7.67871559625268,-23.075865051162243,-0.2635094090681523
1761379876243848700,4.0668486328125,-15.029137980294227,-25.21066992520094,-1.057452413152158
1761379876253905000,4.07690478515625,-21.669472651350496,-27.009849344444273,-2.050092746914923
1761379876263959800,4.086959716796875,-26.372075172519683,-27.3541140327692,-4.9103521221578115
1761379876274016000,4.09701611328125,-25.721478928422925,-24.820391673719882,-6.885411255398393
1761379876284071000,4.10707080078125,-21.08391031270027,-21.586550037991998,-6.419790470424294
1761379876294125800,4.117125732421875,-15.115254421257973,-19.659795209193227,-4.060440051157772
1761379876304181800,4.127181640625,-9.047476476806402,-17.937092295908926,-1.613968690060079
1761379876314237000,4.13723681640625,-4.717743391677737,-15.025745415246487,-0.31717882073968645
1761379876324291800,4.147291748046875,-1.616771764782071,-12.317597048139572,0.3972548124954104
1761379876334348000,4.15734814453125,-0.8004054050311445,-10.151833556735514,0.09600249621663243
1761379876344402700,4.167402587890625,-1.4545046888127922,-8.004059895530343,-1.0588307157680392
1761379876354459000,4.177458984375,-3.638988662777841,-6.056167001634836,-1.9434066883921621
1761379876364513800,4.187513671875,-4.795903905200958,-3.810420457455516,-1.5728724173009394
1761379876374569000,4.19756884765625,-3.9592537590950725,-1.0341256058394908,-0.8367126899480819
1761379876384625000,4.207625,-2.986841974368691,0.8045639860153198,-0.6324594066426158
1761379876394679800,4.2176796875,-2.361427517801523,2.2834949678152796,-0.3937082259297371
1761379876404735000,4.22773486328125,-0.811449069353938,4.940710435542464,0.3330962285786867
1761379876414791000,4.237791015625,1.8426804150566458,7.21042939146161,0.8320306696116924
1761379876424845800,4.247845703125,4.2039831374347205,8.403021804204583,0.9567746551334857
1761379876434902000,4.257902099609375,5.460785864281654,9.141472272843123,0.999747535419464
1761379876444957000,4.26795703125,5.278611434054374,9.567093055862188,1.0958166305989026
1761379876455011800,4.27801171875,4.023327879598736,10.556706150758266,0.8491250122755766
1761379876465067800,4.28806787109375,2.820418655502796,12.135477562969923,0.36272071126345545
1761379876475123000,4.298123046875,2.4518425327420235,13.059345973801612,0.045638336635567246
1761379876485178000,4.30817822265625,2.221138172623515,13.197615795850753,-0.14092764308154582
1761379876495234000,4.318234130859375,2.5576503471255303,12.779371679079532,0.07915094933267683
1761379876505289000,4.3282890625,3.5422868226528164,12.357732659173012,0.5682698430657387
1761379876515345000,4.338344970703125,4.741885899287462,11.935306872802972,0.5497001671522855
1761379876525399800,4.34839990234375,5.724633784589171,11.545242556333541,0.0577174084207043
1761379876535455000,4.358455078125,6.394989791166782,11.107405265820026,-0.6572431347653269
1761379876545511000,4.368510986328125,6.2784384644508355,10.735975507193803,-0.9988315896183252
1761379876555566300,4.37856640625,5.31500610499382,10.648398930549622,-0.8429425242483616
1761379876565622300,4.388622314453125,3.9415842468917366,10.98262620898485,-0.5169985055118799
1761379876575677400,4.398677490234375,2.578428346738219,11.626438492029905,-0.35502369048744437
1761379876585732000,4.408732177734375,1.775491085141897,12.140178288006782,-0.3355672948673367
1761379876595788300,4.418788330078125,1.0981202313661576,12.535069586241244,-0.2783303269073367
1761379876605843200,4.42884326171875,0.40739071432352064,12.593838586074114,-0.10322072049975395
1761379876615898400,4.4388984375,0.45149647109694774,12.85761227210164,-0.17272210848284883
1761379876625954300,4.448954345703125,0.5399772300392389,13.098988248360156,-0.5752963807016611
1761379876636009200,4.45900927734375,0.8986837737578898,12.769413764166831,-0.7061410211861133
1761379876646065200,4.469065185546875,1.304362934923172,11.94592179031968,-0.26900077302604913
1761379876656120300,4.479120361328125,1.2183774268627166,10.901906074106693,0.17936463350355625
1761379876666175500,4.489175537109375,1.3510504518181086,10.243380206054448,0.1335001234292984
1761379876676231400,4.4992314453125,1.0356501850582658,10.002862307929991,-0.29139351435899735
1761379876686286300,4.509286376953125,0.39431437512934203,10.256427903676032,-0.7046706563726067
1761379876696342300,4.51934228515625,-0.34836920103430746,10.30690253789425,-0.9790525379151105
1761379876706397200,4.529397216796875,-0.6502646740548312,10.235338353896141,-1.1859949141740798
1761379876716452400,4.539452392578125,-0.766148038381338,10.331560009288788,-1.2999945105805992
1761379876726508300,4.54950830078125,-0.2311632098019123,9.080642833349108,-1.2807783534571529
1761379876736563200,4.559563232421875,1.3919219759106636,7.202120412799715,-1.348145962548256
1761379876746618400,4.569618408203125,3.1610142999261615,5.270591793727874,-1.364113639269769
1761379876756674300,4.57967431640625,4.839714989876747,2.914700282743573,-1.3171429215192794
1761379876766729500,4.5897294921875,6.037058981060982,0.9453098427891731,-1.627612892270088
1761379876776785400,4.599785400390625,4.747703061133623,-1.525823081356287,-2.0009362095579504
1761379876786840300,4.60984033203125,2.124488062685728,-4.726555059164762,-1.9846546445816755
1761379876796895200,4.619895263671875,-1.041428622329235,-8.443176704460383,-1.7350769494280218
1761379876806951200,4.629951171875,-3.6662183227479455,-11.98514437816143,-0.6711100398153066
1761379876817006300,4.64000634765625,-5.447760378491878,-13.947290838336944,1.1150731197327375
1761379876827062300,4.650062255859375,-8.039625129908323,-14.189425524008273,2.5136431553557514
1761379876837117400,4.660117431640625,-8.655763224086165,-14.632937353026866,4.230234600022435
1761379876847172400,4.67017236328125,-6.039675301039218,-14.509823014533518,4.8990547753348945
1761379876857228300,4.680228271484375,-3.232794172501564,-15.291885245883464,3.880405555568635
1761379876867283500,4.690283447265625,-2.4061145085290074,-16.804108840954303,2.7354347257003186
1761379876877338400,4.70033837890625,-4.0652644025743,-18.257139073300362,1.9774094957590103
1761379876887394300,4.710394287109375,-8.194756654909252,-18.87937665339708,1.5098311469763517
1761379876897449200,4.72044921875,-11.130309171545505,-19.23699415977001,1.5113137867495416
1761379876907505200,4.730505126953125,-12.881532076871395,-19.19643535488844,1.6146633943259716
1761379876917560300,4.740560302734375,-13.726823210072517,-18.964671256583927,1.2820458891749382
1761379876927615500,4.750615478515625,-12.664058369725941,-18.95664577103853,0.9676651747211813
1761379876937671400,4.76067138671875,-9.835067116189002,-18.56675096591711,1.0472095438182354
1761379876947726300,4.770726318359375,-7.739318825775385,-17.824265542674063,1.840851299933344
1761379876957782300,4.7807822265625,-6.695700584447383,-16.13591381180286,2.959803745317459
1761379876967837400,4.79083740234375,-5.963572304567695,-14.017474381631612,3.5198902819275855
1761379876977892400,4.800892333984375,-6.0164949164599175,-12.304485053110122,3.4953324715152383
1761379876987948500,4.810948486328125,-5.428647681742906,-10.204438188719749,3.050032882297039
1761379876998003200,4.821003173828125,-4.174913402555883,-7.840177493318915,2.0717133348315953
1761379877008058400,4.831058349609375,-3.36055429097414,-5.822800144308805,0.697489804957807
1761379877018114300,4.8411142578125,-2.2915911805093288,-4.08083840380311,-0.4347483845874667
1761379877028169500,4.85116943359375,-0.713258451975882,-2.125497531989217,-0.8004899415094405
1761379877038225400,4.861225341796875,0.7512697643317282,-0.10143675969243049,-0.7438941209971904
1761379877048280300,4.8712802734375,1.9477724823862312,1.87531924059391,-0.34251199943870303
1761379877058335200,4.881335205078125,2.8598481640934943,3.61039005254209,-0.03960402490738779
1761379877068391400,4.891391357421875,3.0141824012368916,4.907256494230031,-0.28994448459446426
1761379877078446300,4.9014462890625,2.6230174300491806,5.492659842926264,-1.0404372732043266
1761379877088502500,4.91150244140625,2.47950678473711,6.1621747225046155,-1.5813433085262774
1761379877098557200,4.92155712890625,1.6566759051471949,7.3379358274340625,-1.2305284679055213
1761379877108612400,4.9316123046875,0.5966001577541232,8.442195876729487,-0.3044744931956753
1761379877118668300,4.941668212890625,-0.3218222626313567,9.722876907292008,0.7595391416355967
1761379877128723500,4.951723388671875,-0.9409528166234493,10.690463463819027,1.6455533303692935
1761379877138779400,4.961779296875,-0.4701648581445217,10.84284832046032,1.6609233334586024
1761379877148834300,4.971834228515625,1.1523860745608805,10.786606793278455,0.8561383981689811
1761379877158889200,4.98188916015625,2.778340678229928,10.936410401254891,-0.0341027606099844
1761379877168945400,4.9919453125,3.974353713071346,11.262027672255039,-0.5588739459499716
1761379877179000300,5.002000244140625,4.647207966205477,11.387304741740227,-0.9285504311680793
1761379877189055200,5.01205517578125,5.077995338207483,11.437947718262672,-1.409685303877294
1761379877199111200,5.022111083984375,5.544207074812054,11.667903305840492,-1.3914815386667847
1761379877209166300,5.032166259765625,5.49607988050282,11.764133144539594,-0.8179968835622071
1761379877219222300,5.04222216796875,5.094307590582966,11.97921148098111,-0.08129092050343752
1761379877229277400,5.05227734375,4.747462822636962,12.440739443683624,0.6415890540376306
1761379877239332400,5.062332275390625,4.411142371314764,12.573472674393653,0.9332885656058788
1761379877249388300,5.07238818359375,4.139745935323834,12.784842803966999,0.6658528499394655
1761379877259443200,5.082443115234375,4.175363776671886,13.371392984610795,0.1101481816753745
1761379877269499400,5.09249951171875,4.233175914171338,13.928507811933756,-0.4688721879854798
1761379877279554300,5.10255419921875,4.454819015955925,14.090669381701945,-0.7855088646724819
1761379877289609500,5.112609375,4.906106739673018,13.93398127490878,-0.6935235316753388
1761379877299665200,5.1226650390625,5.278478163063526,13.527443962544202,-0.47750820664465427
1761379877309720300,5.13272021484375,5.325777089855075,13.21073246705532,-0.18906389748007058
1761379877319776300,5.1427763671875,5.107317294281721,13.10737146130204,-0.06225888777524233
1761379877329831400,5.15283154296875,4.775913256573677,12.933676105606555,-0.14841595301032065
1761379877339886300,5.16288623046875,4.355785518012941,12.541944732707739,-0.3724886200293898
1761379877349942300,5.1729423828125,4.161485181184113,11.716708545541763,-0.8575418352261185
1761379877359997200,5.1829970703125,4.319802642744779,10.485352394640445,-1.0022624408498406
1761379877370053400,5.193053466796875,3.3274586615800854,9.056628920555115,-0.7609536846086382
1761379877380108300,5.2031083984375,1.7598767519026994,7.317448335200548,-0.44209640926271676
1761379877390163500,5.21316357421875,0.9364508290290832,5.106290873843431,-0.16871259884685277
1761379877400219100,5.22321923828125,0.5596773712873458,2.8218425508260725,-0.03144844670891762
1761379877410274300,5.2332744140625,0.6725479636639357,0.23137480672597885,0.372117156368494
1761379877420330200,5.243330322265625,0.8403975159406661,-2.7431612282991407,0.45119887638986106
1761379877430385400,5.253385498046875,0.5309083729207515,-4.731383209973574,0.011406652416288852
1761379877440440300,5.2634404296875,-1.1784461062297225,-6.413988506147265,-0.6988546635702252
1761379877450496500,5.27349658203125,-3.388886066967249,-8.139549731472133,-1.744013996860385
1761379877460551200,5.28355126953125,-6.058130995184182,-9.062076080045104,-2.5502789415746925
1761379877470607400,5.293607421875,-8.68962399263382,-9.24972046611607,-2.1414777759313584
1761379877480662300,5.303662353515625,-8.635243583148718,-10.06674353621006,0.4240907969728112
1761379877490717400,5.313717529296875,-8.420248248815536,-12.405283514899015,4.087568588840961
1761379877500773400,5.3237734375,-8.760074077910184,-14.646369666051864,6.258543092891574
1761379877510828300,5.333828369140625,-9.240865544009209,-15.543436579197644,5.52938769134283
1761379877520883200,5.34388330078125,-11.459437081015109,-16.723644726663828,3.182664406198263
1761379877530939400,5.353939453125,-14.076573051810264,-17.735489527112243,0.5008765150114893
1761379877540994300,5.363994384765625,-15.582724633491038,-17.55724191493988,-2.2764327743440864
1761379877551050500,5.374050537109375,-15.102558605813979,-17.00529659920931,-3.5739617715939875
1761379877561105400,5.38410546875,-13.354125038945675,-17.477569243288038,-2.451768882983923
1761379877571160300,5.394160400390625,-12.866848887002467,-18.322478099173306,0.5611395527943969
1761379877581216300,5.40421630859375,-13.195593350112437,-18.625048841106892,4.112810582125187
1761379877591271400,5.414271484375,-12.921651321291924,-17.700449777913093,5.594208830821514
1761379877601327400,5.424327392578125,-11.828099713015556,-16.029023462879657,4.4331028587102885
1761379877611382500,5.434382568359375,-10.31840592868328,-14.061410553991793,2.204457671457529
1761379877621437200,5.444437255859375,-8.086279329055547,-11.210071859568357,0.19857845253944395
1761379877631493400,5.454493408203125,-5.538119863852859,-8.247403956991434,-1.0997563081353903
1761379877641548300,5.46454833984375,-3.0511686083287,-5.913826569145917,-1.815225129637122
1761379877651604500,5.4746044921875,-0.8180015597373247,-4.210453794753551,-2.034916512832045
1761379877661659400,5.484659423828125,0.841028215059638,-3.065240972822904,-2.0064476664558053
1761379877671714300,5.49471435546875,1.3380454242944717,-2.150581119841337,-1.749825021226704
1761379877681770200,5.504770263671875,1.1599822287783026,-1.6255214729487895,-1.2907511736780404
1761379877691825400,5.514825439453125,0.5250871194213629,-0.9473492396622896,-0.6476616519495845
1761379877701881300,5.52488134765625,0.09984802919626236,-0.004712415474653244,0.0258808757096529
1761379877711936500,5.5349365234375,-0.619068302410841,1.065625490474701,0.7056321948811412
1761379877721991400,5.544991455078125,-1.0585489762172102,2.463267597597837,1.2009416503500192
1761379877732047400,5.55504736328125,-1.184493277439475,4.3352363587200635,1.367698219758272
1761379877742102300,5.565102294921875,-0.7193132219702005,6.219450268909335,1.3183163492128251
1761379877752158500,5.575158447265625,0.19334493580013512,8.01797560815811,0.9576588175568729
1761379877762213400,5.58521337890625,1.381163558270037,9.577081365913152,0.36645481975786387
1761379877772268300,5.595268310546875,2.494003804384172,10.200324323660135,-0.4677204241344705
1761379877782324200,5.60532421875,3.114032476259768,10.231604428064822,-1.495736862911284
1761379877792379400,5.61537939453125,3.0455028376519677,10.091424388480187,-1.9473826062858104
1761379877802435300,5.625435302734375,2.63421774623841,10.169853197550774,-1.5164575793787836
1761379877812490500,5.635490478515625,1.7442539430961013,10.442852977085114,-0.6924171048033982
1761379877822545400,5.64554541015625,1.4304624267071484,10.707610997974871,0.0673746233537793
1761379877832601300,5.655601318359375,1.7414637278556824,10.647310550791024,0.32434067519307136
1761379877842656300,5.66565625,2.0446333124652503,10.302150374931097,0.27127332106791435
1761379877852712400,5.67571240234375,2.810901177833974,10.056918892288207,0.2783565573271364
1761379877862767400,5.685767333984375,4.218087942893803,10.15243912141323,0.05019136029742658
1761379877872822300,5.695822265625,5.406867227089405,10.52566570032835,-0.27117431767284866
1761379877882878200,5.705878173828125,6.418788015383481,11.21424183872938,-0.616565379679203
1761379877892933400,5.715933349609375,7.132799623814225,12.17004268039465,-1.0724556287556886
1761379877902989300,5.7259892578125,7.3360817239999765,13.0167717374444,-1.511510770626366
1761379877913044500,5.73604443359375,7.234453241127729,13.822189125418662,-1.3628577939897775
1761379877923099400,5.746099365234375,6.578029313790798,14.339257189035415,-0.84387775927186
1761379877933155300,5.7561552734375,5.859649573278427,14.375520927071571,-0.4302653939545154
1761379877943210200,5.766210205078125,5.130325244903564,13.871015407907962,-0.2720411636352539
1761379877953266400,5.776266357421875,4.417165869387984,13.745993189966677,-0.49813773769736286
1761379877963321300,5.7863212890625,4.758929096285999,13.563764983725546,-0.9570096329331398
1761379877973376500,5.79637646484375,4.707914656102657,12.521179008054732,-1.3614926431164145
1761379877983432200,5.80643212890625,4.41652961731106,11.257098983681201,-1.5456766596004365
1761379877993487400,5.8164873046875,4.781728372593224,10.641870990085602,-1.408444948427379
1761379878003543300,5.826543212890625,4.422659206107259,10.081653520572186,-1.1852657231166959
1761379878013598500,5.836598388671875,3.566250174303353,8.625288590845464,-0.8087509163111448
1761379878023653600,5.846653564453125,2.5274887253567573,6.627066024160385,-0.04792464834130369
1761379878033709300,5.856709228515625,1.5637985917463897,4.789828384679556,0.42798780441135165
1761379878043764500,5.866764404296875,1.0559393782407045,2.6013170548945665,0.25278058284819127
1761379878053820400,5.8768203125,1.0141761660054325,0.29553309838175773,-0.408458635815978
1761379878063875300,5.886875244140625,0.5013628372237086,-1.8307745809465645,-1.1124006856530904
1761379878073930500,5.896930419921875,0.41798020513802764,-4.295912648591399,-1.068627887161076
1761379878083986400,5.906986328125,-0.15686141753345728,-6.536093375337123,0.08068887209021486
1761379878094041300,5.917041259765625,-2.1579975335776806,-8.162101170498133,1.1238719277381897
1761379878104097300,5.92709716796875,-3.122646575348079,-9.97867946830988,0.9044286740854381
1761379878114152400,5.93715234375,-3.5275866816490886,-11.202253294771909,-0.8753393577232956
1761379878124207600,5.94720751953125,-4.309395522759854,-10.676018758881092,-1.9476245983481406
1761379878134263600,5.957263671875,-5.1941947827458375,-11.090110432147979,-0.2174050258234143
1761379878144318500,5.967318359375,-5.956443475601077,-12.592401831269264,2.1291645300641653
1761379878154374400,5.97737451171875,-6.313670521351694,-13.334583303129673,3.304872443501651
1761379878164429300,5.98742919921875,-7.320597739142179,-13.935441410589217,2.4972850180119273
1761379878174485500,5.997485595703125,-9.411223279714584,-15.057875414478778,0.23302608106434344
1761379878184540400,6.00754052734375,-11.940296351653338,-16.182963147747515,-1.775316020835936
1761379878194595300,6.01759521484375,-13.717943153524399,-17.397583267903325,-2.650375392574072
1761379878204651300,6.0276513671875,-15.181402425426244,-18.69717065898776,-1.6894088387086987
1761379878214706400,6.03770654296875,-15.800777017307281,-19.795549249029158,0.8435843292832375
1761379878224762400,6.047762451171875,-15.464017590045929,-20.707676953184603,3.471649105849862
1761379878234817500,6.057817626953125,-14.595001882386207,-20.99966667987108,4.429074626107513
1761379878244872400,6.06787255859375,-12.693617641687393,-19.40615713273287,3.7658810585051774
1761379878254928400,6.077928466796875,-9.657757077127695,-17.215467289865018,2.055658564348519
1761379878264983300,6.0879833984375,-6.084483580058813,-14.278552252703903,0.038165187743306156
1761379878275039500,6.09803955078125,-3.31006855084002,-11.518111388301849,-2.4239921105250715
1761379878285094400,6.108094482421875,-0.9725526545017957,-8.737504518705606,-3.8527866040199994
1761379878295149300,6.1181494140625,1.0732798046201466,-5.734767640590667,-3.915869375398755
1761379878305205200,6.128205322265625,1.6794518005788326,-3.3197166691511866,-3.3172809664368628
1761379878315260400,6.138260498046875,1.3729460572838783,-1.300807872790098,-2.3585922943755984
1761379878325316400,6.14831640625,0.6907242563456296,1.0335744016975164,-1.0987848327547312
1761379878335371500,6.15837158203125,-0.7093015310436487,3.026293110269308,0.5994418109208345
1761379878345426400,6.168426513671875,-2.783825247120857,3.5091362482011315,2.3779694872796533
1761379878355482400,6.178482421875,-3.7651398847490545,3.290888634073734,3.58529682007879
1761379878365537300,6.188537353515625,-4.141472320725024,3.9360289508521555,3.459831534545123
1761379878375593500,6.198593505859375,-3.501970594355464,5.185176779031753,2.4594343030452728
1761379878385648400,6.2086484375,-2.2509809377014633,6.575711099976301,1.0284186263695358
1761379878395703300,6.218703369140625,-0.2778042572066188,8.546971425455808,-0.7186272855326533
1761379878405759200,6.22875927734375,1.2997066335499285,10.531838251483439,-2.458857379940152
1761379878415814400,6.238814453125,2.120310777001083,11.138522873139381,-3.41414530364722
1761379878425870300,6.248870361328125,2.723835765582323,10.786831249684095,-3.025080519609153
1761379878435925500,6.258925537109375,3.2767794447004794,10.444337662684918,-1.8508645982950924
1761379878445980400,6.26898046875,3.4389708250850437,9.837911399704216,-0.7893035807803273
1761379878456036400,6.279036376953125,3.631192602074146,9.2916645878762,-0.35280250730663537
1761379878466091500,6.289091552734375,4.235733197438717,9.666303371676802,-0.37512715183943507
1761379878476147500,6.2991474609375,4.975733233606815,10.407914934694766,-0.6734288381516933
1761379878486202400,6.309202392578125,5.6561728273034095,11.42580836765766,-0.8941773291841149
1761379878496257300,6.31925732421875,6.309900939685106,12.348097400343418,-0.8319500055909156
1761379878506313200,6.329313232421875,6.9197150915384285,13.012906878709792,-0.5088061389669776
1761379878516368400,6.339368408203125,7.416901812121272,13.606855937433242,-0.20661738208830355
1761379878526424300,6.34942431640625,8.085991744285822,14.333338320380449,-0.026038404358923434
1761379878536479500,6.3594794921875,8.52309838243723,14.920296497303246,-0.14337211362421512
1761379878546534400,6.369534423828125,8.251331944090127,15.089349580150841,-0.4228656390920281
1761379878556590300,6.37959033203125,7.569564316660165,15.20241131118536,-0.4842837286615744
1761379878566645500,6.3896455078125,6.9730486223191015,15.207342337846756,-0.3706681631365791
1761379878576701700,6.39970166015625,6.775838535523414,14.976112492549419,-0.32790450515449043
1761379878586756400,6.40975634765625,6.173228031438589,14.416523968589305,-0.5581097201118246
1761379878596812500,6.4198125,5.480924981468916,13.6455395960927,-0.8350958293359726
1761379878606867500,6.429867431640625,4.8501706251785155,13.101514551967382,-1.0500112303007394
1761379878616922600,6.439922607421875,4.150355592143535,12.52700318416357,-1.0615928739577531
1761379878626978600,6.449978515625,3.6502424627199765,11.679528277182579,-0.8057266731191426
1761379878637033500,6.460033447265625,3.2102602691322564,10.579318964582681,-0.6082555242344737
1761379878647089400,6.47008935546875,2.3345593846201895,8.979168079733848,-0.7104056928932666
1761379878657144600,6.48014453125,1.7893916002005337,7.063719073325395,-1.4167121337741613
1761379878667199500,6.490199462890625,2.342367428022623,4.921068161961436,-2.356905071941018
1761379878677255700,6.500255615234375,4.177395574760436,1.9806652826845645,-2.273194523075223
1761379878687310300,6.510310302734375,5.480259795558452,-1.2968103275865315,-0.5944722058147192
1761379878697366500,6.520366455078125,4.801593349014222,-3.982189813524484,1.4667033683896065
1761379878707421400,6.53042138671875,1.7399159138917921,-5.531665573146939,2.9413395756050944
1761379878717476600,6.5404765625,-2.5708745703577995,-6.967096435916424,3.0841631154358384
1761379878727532500,6.550532470703125,-6.192318516355752,-9.209327665451168,1.7303943445697425
1761379878737587500,6.56058740234375,-8.341936344122885,-11.741246774470806,0.5715796252008527
1761379878747643400,6.570643310546875,-6.916292131352424,-12.192526899403333,0.6121995126198977
1761379878757698600,6.580698486328125,-3.878140240985155,-11.643259862971306,2.347140049251914
1761379878767754500,6.59075439453125,-3.5962674191653727,-13.030338490504025,4.769020866711437
1761379878777809700,6.6008095703125,-4.4130145949274295,-14.621592952191829,4.9302404794543975
1761379878787864300,6.6108642578125,-5.585846076145768,-15.342067619156836,2.2734634031444787
1761379878797920500,6.62092041015625,-9.079383773198723,-17.261266918009518,-0.9524863102898001
1761379878807975400,6.630975341796875,-14.130608593380451,-19.83118404151201,-2.992757628153264
1761379878818031600,6.641031494140625,-17.392843964421747,-20.835310814929006,-3.5191906092256304
1761379878828086500,6.65108642578125,-18.602515522259473,-20.536435420382023,-1.6333435448765754
1761379878838141400,6.661141357421875,-18.91101097806692,-21.280010392427442,1.6694553072214127
1761379878848197400,6.671197265625,-17.748603860229252,-21.274370925235747,4.230221448279917
1761379878858252500,6.68125244140625,-14.485112936168909,-19.174020109462738,5.1265656001091005
1761379878868308500,6.69130859375,-10.693277352195977,-16.270522188735008,4.497226371313631
1761379878878363600,6.70136376953125,-7.867729517111182,-13.500101197588442,3.60886152780056
1761379878888418600,6.71141845703125,-5.5878574159681795,-11.021672271215914,2.530112351858616
1761379878898474500,6.721474609375,-3.6698742149069905,-8.735200917938352,0.7738640195861458
1761379878908529400,6.731529296875,-1.982549781256914,-7.117995437914133,-1.1452823800355196
1761379878918585600,6.741585693359375,-1.2799287508904933,-6.034621524780988,-2.3261802633315325
1761379878928640500,6.751640625,-2.4090844642505047,-5.459943568238615,-2.161534183271229
1761379878938695400,6.7616953125,-3.973782927446067,-4.458023949477076,-0.9390014633599668
1761379878948751400,6.77175146484375,-4.931479665860533,-3.535858835431933,0.7867819533482193
1761379878958806500,6.781806640625,-5.025583598446846,-2.9471172822237013,2.4776018278986216
1761379878968862500,6.791862548828125,-4.005445601427555,-1.4780536144435406,3.4732410512164233
1761379878978917600,6.801917724609375,-2.6393440032109616,1.0393108995229006,3.573916471147537
1761379878988973600,6.8119736328125,-0.9377057975262403,3.841977625235915,3.1960952579185364
1761379878999028500,6.822028564453125,0.5016758486956358,6.401571507644653,1.9651076480686664
1761379879009083400,6.83208349609375,2.060042478521168,8.595743931931256,0.22821422380320727
1761379879019139600,6.8421396484375,4.023478978507221,9.983791696757077,-1.3194447687208652
1761379879029194500,6.852194580078125,5.4302329051077365,10.80565636166334,-2.4477280831605195
1761379879039250700,6.862250732421875,5.63067539795339,11.496823101079464,-2.5668220800966024
1761379879049305300,6.872305419921875,5.235354476130008,12.006972763609886,-1.905586368563771
1761379879059360500,6.882360595703125,4.785619827073813,12.212349205726385,-1.4164227954387665
1761379879069416400,6.89241650390625,4.799430910283327,12.596114714312552,-1.5162591341972351
1761379879079471600,6.9024716796875,4.63974362167418,12.715211049336194,-1.6605679441496728
1761379879089527600,6.912527587890625,4.16899599520564,12.360746454036235,-1.5364356607854366
1761379879099582500,6.92258251953125,3.724541916900873,11.983493688344955,-1.1724456967711447
1761379879109638400,6.932638427734375,3.3485540565788745,11.47832882848978,-0.6798153973836452
1761379879119693600,6.942693603515625,3.203563986364007,11.035307997858524,-0.29048633638620375
1761379879129748500,6.95274853515625,3.3546745852857827,10.983568458271026,-0.1455667741242796
1761379879139804700,6.9628046875,3.4212019441604613,11.137649597436189,-0.11652096811030059
1761379879149859300,6.972859375,3.3745834008485076,11.449469813752174,-0.23331315437741576
1761379879159915500,6.98291552734375,3.360621510991454,12.179427763855456,-0.36664869836214925
1761379879169970400,6.992970458984375,3.391875311911106,12.836869928324221,-0.30717706668525935
1761379879180025600,7.003025634765625,3.2769168073445556,13.24602122257948,-0.3918105756148696
1761379879190081500,7.01308154296875,3.11448518846333,13.426689924418925,-0.5545461458787322
1761379879200136400,7.023136474609375,2.843658076792955,13.636001367896794,-0.3639674599215388
1761379879210192400,7.0331923828125,2.505331546345353,13.734978459477423,0.10699087755507788
1761379879220247600,7.04324755859375,2.4742782364338636,13.346902686476707,0.1294374040350318
1761379879230303500,7.053303466796875,2.5387755507856604,12.905773368680476,-0.3251803408876061
1761379879240358700,7.063358642578125,2.6246739650845528,12.403105586338043,-0.8190954924538731
1761379879250413300,7.073413330078125,2.391668634547293,11.647421658825873,-0.906404065811634
1761379879260469500,7.083469482421875,2.3769936279848216,11.183596525096892,-0.6635676616117357
1761379879270524400,7.0935244140625,2.4661574738204477,10.95856962609291,-0.29068273574113845
1761379879280580600,7.10358056640625,2.3408517627626657,10.375217949229478,0.07568038714528083
1761379879290635500,7.113635498046875,1.9430444309510289,9.784595404580235,0.2865694369371049
1761379879300690400,7.1236904296875,2.1597917235180732,8.992738924446702,0.23450607222272082
1761379879310746400,7.133746337890625,2.93869929022938,6.760460933649539,0.07044601188944652
1761379879320801500,7.143801513671875,3.7274212717294692,3.174941118469834,-0.2753594944030046
1761379879330857500,7.153857421875,4.253299541528523,-0.3365712112128734,-0.7400424140051007
1761379879340912600,7.16391259765625,3.33959099792242,-2.31948924126029,-1.3576669473484158
1761379879350968600,7.173968505859375,0.8452744743272662,-2.831421695554256,-2.010582866564393
1761379879361023500,7.1840234375,-1.3346195414990185,-4.200051643204689,-1.996028271511197
1761379879371078400,7.194078369140625,-1.7663970935821531,-7.182926467508077,-1.206934826350212
1761379879381134600,7.204134521484375,-2.3423031306147575,-9.8998648747921,-0.73028966627568
1761379879391189500,7.214189453125,-3.034120442894101,-10.662888059151172,-0.8360910509184002
1761379879401245700,7.22424560546875,-3.0528941169470545,-9.809171627432107,0.2227335273697972
1761379879411300400,7.23430029296875,-3.670503452721238,-10.118692334634066,2.360313711340725
1761379879421355500,7.24435546875,-4.66427688216716,-11.515810710144041,3.320206790755689
1761379879431411500,7.254411376953125,-6.067955054584145,-12.76072659984231,2.6918834610044953
1761379879441466600,7.264466552734375,-8.796043216913938,-14.911148729729652,1.8500752014830708
1761379879451522600,7.2745224609375,-12.570168956673145,-17.029769361686707,0.7823249739393592
1761379879461577500,7.284577392578125,-15.535913782477378,-18.654022422134876,-0.4432552239090204
1761379879471633400,7.29463330078125,-16.28439289317727,-19.540010307383536,-1.4360405191004275
1761379879481688600,7.3046884765625,-15.283271731317042,-19.596650478494166,-0.8444739715993403
1761379879491743500,7.314743408203125,-14.842399603152273,-19.02688776652217,0.9171908327639102
1761379879501799700,7.324799560546875,-13.18022159345746,-18.378857573521135,2.5464091144040224
1761379879511854300,7.334854248046875,-10.904265204453468,-17.323227407360076,3.7613808244764804
1761379879521910500,7.34491064453125,-9.363703403648733,-15.789484054398535,3.8817759671390055
1761379879531965400,7.35496533203125,-7.912650024333596,-13.579273518502712,2.9356469169214368
1761379879542020600,7.3650205078125,-6.345965940278768,-11.312263821542262,1.9872206956773995
1761379879552076500,7.37507666015625,-5.336487868961692,-9.695077630740403,0.8226715973749756
1761379879562132200,7.38513232421875,-5.224365464603901,-8.64385709771514,-0.18856325448155403
1761379879572188200,7.395188232421875,-5.274513351085782,-7.9255743878364555,-0.2552583711385727
1761379879582243000,7.4052431640625,-5.359833088713884,-7.276371059402823,0.13489939576797186
1761379879592299000,7.415299072265625,-5.500038847261667,-6.49460342708528,0.6004149668019264
1761379879602354200,7.425354248046875,-4.379920134577155,-5.003047941511869,0.6028191783994435
1761379879612409000,7.4354091796875,-2.6849849336624145,-2.9876304943978784,0.3702966629430651
1761379879622465000,7.445465087890625,-1.1467869393795729,-1.5254893193572758,-0.16822978376597164
1761379879632520000,7.45552001953125,0.30810967136025424,-0.9931073667526245,-0.46081192338764665
1761379879642576000,7.465575927734375,0.8078504603400826,-0.6142793145686387,-0.4789150047026574
1761379879652631000,7.475631103515625,0.9055530019402503,0.7298100660651922,0.007436872002482414
1761379879662687000,7.48568701171875,0.9520224921703339,2.763786667698622,0.7354404731675982
1761379879672742100,7.4957421875,0.2383624736562371,4.29456766372323,0.7683725094977766
1761379879682797000,7.505797119140625,-1.4199261273846029,5.847267061567306,0.40125009267665446
1761379879692853000,7.51585302734375,-1.8428700924098491,7.462257788151502,-0.7008484677359461
1761379879702908200,7.525908203125,-1.446558405983448,8.67308026959002,-2.0078478886425493
1761379879712964000,7.535964111328125,-0.7379919112160801,9.356267700690031,-2.524473761449754
1761379879723019000,7.54601904296875,0.9871353066056966,9.906528424334525,-2.4502844896450635
1761379879733074000,7.556073974609375,2.944027499514818,10.22446858483553,-2.6165482340350747
1761379879743129900,7.5661298828125,4.696825691333413,10.792730244594813,-2.5751576545044776
1761379879753185000,7.57618505859375,5.716157048144936,11.568356889939308,-1.633401997065544
1761379879763241000,7.586240966796875,5.432423693150281,11.973085691577195,-0.7160405569750815
1761379879773296000,7.596296142578125,5.825320602697134,12.086261988902091,-0.09056231445670128
1761379879783352000,7.60635205078125,6.376488504314422,11.653259863460063,0.09585749825537204
1761379879793407000,7.616406982421875,6.350500661098956,11.186707350593805,-0.015465864679217338
1761379879803463000,7.626462890625,5.9621285355001685,11.087904446536301,-0.5010939571544528
1761379879813518000,7.63651806640625,7.8699612216860055,11.747274364197253,-1.5954703258171676
1761379879823573000,7.646572998046875,4.385354434585571,11.621924813997746,-1.410435245461762
1761379879833629200,7.656629150390625,2.4592273822963238,10.456014071953296,-0.49418030530847606
1761379879843683800,7.666683837890625,4.3734161595106125,11.088851371997594,-0.5220590037718414
1761379879853740000,7.676739990234375,3.2794729215681553,11.792668334150314,-0.6216416600301862
1761379879863795000,7.686794921875,2.9383222736105323,11.47728370335102,-0.5011812701117248
1761379879873851100,7.69685107421875,3.5039027314618227,11.055186418282984,-0.24392825455721467
1761379879883906000,7.706906005859375,3.748879070299864,11.064251183748244,-0.32544045312851666
1761379879893961000,7.7169609375,4.021432275110483,11.185623647010326,-0.5855021328955888
1761379879904017000,7.727016845703125,4.405001968863607,10.86561661710739,-0.7633686367958784
1761379879914072000,7.737072021484375,4.921352239599823,10.252354955148697,-0.9241095261111855
1761379879924128000,7.7471279296875,5.030716869682073,9.620835751965641,-1.1210548244908451
1761379879934183200,7.75718310546875,4.357157975409924,8.474961835777759,-0.9758218854308128
1761379879944239000,7.767239013671875,3.330016529369354,7.0499465685606,-0.39615035838484763
1761379879954294000,7.7772939453125,2.0662229207217693,5.504046913859248,0.22842472474873066
1761379879964349000,7.787348876953125,1.3296601655259728,3.2649493061751125,0.8029431068152189
1761379879974405000,7.797405029296875,1.5397776646897197,0.5396200871646404,1.4243456973925233
1761379879984460000,7.8074599609375,1.7553356013417243,-2.047186796340346,1.7965066929027438
1761379879994516200,7.81751611328125,0.9590759178131818,-3.15348273537755,1.2255015796542168
1761379880004571000,7.82757080078125,-0.9907447292745113,-2.268043131661415,-0.550143234744668
1761379880014627000,7.837626953125,-3.208227594260871,-2.175186568787694,-2.074503550072014
1761379880024682000,7.847681884765625,-5.941847379493713,-4.644444931232929,-2.223622682915628
1761379880034737200,7.857737060546875,-5.421417730489373,-7.438249136054515,-1.9444535670965908
1761379880044793000,7.86779296875,-3.3895249493926762,-6.7779661952018735,-1.7599968711510299
1761379880054848000,7.877847900390625,-2.640693956515193,-4.435511088895797,-0.4106394869863987
1761379880064904000,7.887904052734375,-2.3074580272048713,-4.9268110895276065,1.8896198608860373
1761379880074959000,7.897958984375,-2.5103505435511466,-7.182215104368328,2.9067934551417824
1761379880085015000,7.90801513671875,-3.9758728854626413,-8.130148865920305,2.700784560340643
1761379880095070200,7.9180703125,-6.238841198077798,-8.255212584915757,2.1615055416986344
1761379880105124900,7.928124755859375,-7.451267607581615,-8.689262758105993,1.6686539277106522
1761379880115181000,7.93818115234375,-8.33133370156586,-8.256258879098295,0.70185764477849
1761379880125236000,7.948236083984375,-9.046974372503161,-7.160655598989129,-0.2583952261258848
1761379880135292200,7.958292236328125,-8.25973795338571,-6.664556089121103,-0.8113754195958376
1761379880145347000,7.96834716796875,-6.535089166730642,-6.5541515945971005,-0.9028647857695817
1761379880155403300,7.9784033203125,-5.07089456629157,-6.309248613256216,-0.6743816088318825
1761379880165458000,7.9884580078125,-3.612659751039743,-6.297672741752862,-0.28304215786010023
1761379880175512000,7.998511962890625,-2.552885324680805,-6.282544730725884,0.09569353986531495
1761379880185568000,8.008568115234375,-2.0614368554890157,-6.330830330467224,0.20084172129631042
1761379880195623000,8.018622802734376,-1.9321879597634075,-6.097504974195361,0.44341037793811405
1761379880205678800,8.028678955078124,-2.0132623149067164,-5.514491150984168,0.5313838814780115
1761379880215734000,8.038734130859375,-2.0921534807920454,-4.529235082253813,0.32471940884497014
1761379880225790000,8.0487900390625,-1.7244418659061191,-3.2229227668285367,0.20118688147217034
1761379880235845000,8.05884521484375,-1.2635457713663578,-1.9345850840330123,0.24731296509206294
1761379880245900000,8.068900146484374,-0.3918021000474691,-0.8938017738699913,0.18894377823174
1761379880255956000,8.0789560546875,0.4487161196634173,-0.28441490751802917,-0.029752474712301046
1761379880266011000,8.089010986328125,1.1182637324675917,-0.091454294860363,-0.27990592392729596
1761379880276067000,8.099067138671876,1.2563655044734476,-0.05108429054915905,-0.37420799116790293
1761379880286122000,8.1091220703125,1.0255302114516496,0.1379658706665039,-0.3781371473103761
1761379880296178200,8.11917822265625,0.534652527885139,0.3697866675943136,-0.27587710680263117
1761379880306232800,8.12923291015625,-0.0709147801786661,0.4922095166921615,0.10676233862936496
1761379880316288000,8.1392880859375,-0.4857318451106548,0.5622878460466861,0.3896095584392547
1761379880326344000,8.149343994140626,-0.6478560054779052,0.7824667204976081,0.4443658154994249
1761379880336399000,8.159399169921874,-0.4595774131566286,0.9936018722712993,0.4187058890640735
1761379880346455000,8.169455078125,-0.11150865637362002,1.1488842039197682,0.31153029345870015
1761379880356510000,8.179510009765625,0.3147597768992185,1.2146855866074562,0.17895661895824594
1761379880366566000,8.18956591796875,0.8103408158510923,1.2241501650452613,0.07850859630852937
1761379880376621000,8.19962109375,1.1059329509437084,1.2884101635098457,0.027847499607503413
1761379880386676000,8.209676025390625,1.1723895826697348,1.3354583304107188,-0.04898205757290124
1761379880396732200,8.219732177734375,1.2154092247068882,1.427052326002717,-0.1621037021011114
1761379880406786800,8.229786865234376,1.2631997344076633,1.4631898073107004,-0.18929127649515867
1761379880416843000,8.239843017578124,1.359080029016733,1.3808984775930642,-0.21507340453807264
1761379880426898000,8.24989794921875,1.3300433196246624,1.3302011405348777,-0.16752013765927404
1761379880436954000,8.2599541015625,1.2370412108004092,1.2661702746510506,-0.08971943389177321
1761379880447009000,8.270009033203126,1.2808143015533684,1.1554255883872508,0.005082417830824851
1761379880457065200,8.280065185546874,1.402971193191409,0.997259810256958,0.05313011716306209
1761379880467119900,8.290119873046875,1.3681354421317578,0.6722808371603488,0.011943243511021136
1761379880477175000,8.300175048828125,1.3611720328599213,0.478508323597908,-0.03917348800301552
1761379880487231000,8.31023095703125,1.2446440870195628,0.5949637887239456,0.013950820473767816
1761379880497286100,8.3202861328125,1.013753848940134,0.8739291986644268,0.18396394399255514
1761379880507342000,8.330342041015625,0.6215349847853183,1.1708084509581327,0.376416022606194
1761379880517397000,8.34039697265625,0.31843641958534713,1.4060124605834483,0.524294215478003
1761379880527453000,8.350452880859375,0.09420037869811057,1.4486083242505787,0.618206717145443
1761379880537508000,8.360508056640626,-0.014624153158068656,1.350204648643732,0.6145303667202592
1761379880547563000,8.37056298828125,0.04633095854222774,1.2004174072802065,0.5298886379515751
1761379880557619200,8.380619140625,0.23791852928102014,1.1049608910411595,0.5022860530158505
1761379880567673300,8.39067333984375,0.23282851266562937,1.036693410500884,0.526395827399753
1761379880577729500,8.4007294921875,0.26026070947051044,0.8911948062419891,0.5567670367985964
1761379880587784200,8.4107841796875,0.07905190940499306,0.7502443668067454,0.5613518073055893
1761379880597840400,8.42084033203125,0.019195698857307434,0.6779787565410137,0.5188084775432944
1761379880607895300,8.430895263671875,0.14636369665563106,0.6418365990579128,0.39216216553151606
1761379880617951500,8.440951416015626,0.18191431798636912,0.5513175392210483,0.16658501223362981
1761379880628006400,8.45100634765625,0.2751607569605112,0.36079204475581644,-0.009153612792491913
1761379880638061300,8.461061279296874,0.2799140889674425,0.13020341997146606,-0.10107614621911197
1761379880648117200,8.4711171875,-0.049395022287964815,-0.11685878522992134,-0.2535109429493546
1761379880658172400,8.48117236328125,-0.2354804884791374,-0.12556699234247207,-0.3439069609284401
1761379880668228400,8.491228271484376,-0.2819564084500074,0.03672726389467716,-0.3740013626798987
1761379880678283500,8.501283447265624,-0.4888882633149624,0.19002280564010143,-0.3245511030733585
1761379880688339500,8.51133935546875,-0.6481190403282642,0.2785761183619499,-0.14956746113300323
1761379880698394400,8.521394287109375,-0.48162148718237874,0.21298808616399764,-0.05392155980169773
1761379880708449300,8.53144921875,0.052576574933528894,-0.03944587520360946,-0.18433796493671833
1761379880718505500,8.54150537109375,0.417104883608222,-0.3077081048220396,-0.2907195606201887
1761379880728560400,8.551560302734375,0.5152595528900623,-0.43842590405642984,-0.24370967990308998
1761379880738616600,8.561616455078125,0.5102642288208008,-0.35562896290421486,-0.08455605977922677
1761379880748671200,8.571671142578126,0.5120797538101672,-0.15395955861210822,-0.01574322031587362
1761379880758727400,8.5817275390625,0.425702616083622,0.06608078415095806,0.07780804682374
1761379880768782300,8.5917822265625,0.12472177368998527,0.08883329870700836,0.1198269873857498
1761379880778837500,8.60183740234375,-0.23729601346850393,-0.006736030256748199,0.17585742910020052
1761379880788893400,8.6118935546875,-0.2887298481076956,-0.195126266258955,0.08454524612426757
1761379880798948400,8.6219482421875,-0.12909282838106154,-0.15999883877635002,-0.05895253970623016
1761379880809004300,8.63200439453125,0.5597521900892257,0.4227279841870069,0.0004994739547371864
1761379880819059500,8.6420595703125,-0.49698564505279064,0.3854723125040531,0.19616583843976257
1761379880829115400,8.652115478515626,-0.6948498118430375,-0.042139352071285247,0.4558744669854641
1761379880839170600,8.662170654296874,-0.6473731903970241,-0.4171960690230131,0.8293418689191341
1761379880849226500,8.6722265625,-0.49919396875202654,-0.4497030848741531,0.5914011278063058
1761379880859281400,8.682281494140625,-0.3636298985302448,-0.2201402960062027,0.2502835053354502
1761379880869336300,8.69233642578125,0.10091419712305068,-0.1417699391245842,0.007150237080827355
1761379880879392500,8.702392578125,0.5897434237271547,-0.017639117065072058,-0.2249916084948927
1761379880889447400,8.712447509765624,0.7248387073934078,0.15087328303456304,-0.15635288348942994
1761379880899503400,8.72250341796875,0.7808920185267925,-0.05485387221574783,-0.21610592592358588
