time,seconds_elapsed,z,y,x
1761379872241824300,0.06482421875,-0.2649078369140625,-0.5315704345703125,0.051849365234375
1761379872251879000,0.07487890625,-0.1869354248046875,-0.6519317626953125,0.0213623046875
1761379872261935000,0.08493505859375,-0.1096343994140625,-0.821197509765625,-0.0207672119140625
1761379872271990000,0.094989990234375,-0.0243682861328125,-0.974884033203125,-0.062255859375
1761379872282045200,0.105045166015625,0.0065460205078125,-1.1323089599609375,-0.1104583740234375
1761379872292099800,0.115099853515625,-0.0285491943359375,-1.2750396728515625,-0.09820556640625
1761379872302156000,0.125156005859375,-0.1835479736328125,-1.3513336181640625,-0.0072174072265625
1761379872312211000,0.1352109375,-0.38348388671875,-1.383148193359375,0.0885162353515625
1761379872322266000,0.14526611328125,-0.5431976318359375,-1.498504638671875,0.1213531494140625
1761379872332322000,0.155322021484375,-0.614410400390625,-1.66522216796875,0.0792083740234375
1761379872342377200,0.165377197265625,-0.561614990234375,-1.721771240234375,0.0406646728515625
1761379872352432000,0.17543212890625,-0.4353179931640625,-1.782012939453125,0.0077362060546875
1761379872362488000,0.185488037109375,-0.320556640625,-1.8981170654296875,-0.117095947265625
1761379872372543000,0.19554296875,-0.3453216552734375,-1.9972381591796875,-0.220794677734375
1761379872382598100,0.20559814453125,-0.3903045654296875,-2.128204345703125,-0.1861419677734375
1761379872392654000,0.215654052734375,-0.675201416015625,-2.264984130859375,-0.0402679443359375
1761379872402709000,0.225708984375,-1.0275421142578125,-2.43817138671875,0.1039581298828125
1761379872412764200,0.23576416015625,-1.332611083984375,-2.5457305908203125,0.1574554443359375
1761379872422820000,0.245820068359375,-1.371002197265625,-2.531524658203125,0.071044921875
1761379872432875300,0.255875244140625,-1.21832275390625,-2.4184417724609375,0.0311737060546875
1761379872442930000,0.265929931640625,-0.98016357421875,-2.2855072021484375,-0.0363006591796875
1761379872452985000,0.275985107421875,-0.8707733154296875,-2.158172607421875,-0.0169219970703125
1761379872463041000,0.286041015625,-0.8159942626953125,-2.09942626953125,0.1162567138671875
1761379872473096200,0.29609619140625,-0.6088714599609375,-2.09228515625,0.1448822021484375
1761379872483150800,0.30615087890625,-0.564208984375,-2.0384674072265625,0.038238525390625
1761379872493207000,0.31620703125,-0.4185333251953125,-1.8800811767578125,-0.080841064453125
1761379872503262000,0.326261962890625,-0.4126739501953125,-1.682708740234375,-0.106842041015625
1761379872513317000,0.336317138671875,-0.406951904296875,-1.505889892578125,-0.020599365234375
1761379872523373000,0.346373046875,-0.286224365234375,-1.28265380859375,0.03662109375
1761379872533428000,0.356427978515625,-0.2133941650390625,-1.0081787109375,0.0036163330078125
1761379872543483100,0.366483154296875,-0.2373809814453125,-0.7397003173828125,0.072662353515625
1761379872553538300,0.376538330078125,-0.2346649169921875,-0.573272705078125,0.1915435791015625
1761379872563593500,0.386593505859375,-0.169036865234375,-0.373138427734375,0.2928009033203125
1761379872573648400,0.3966484375,-0.2241363525390625,-0.2993621826171875,0.3399200439453125
1761379872583704600,0.40670458984375,-0.1513671875,-0.285003662109375,0.2950592041015625
1761379872593759200,0.41675927734375,-0.063079833984375,-0.159637451171875,0.1368408203125
1761379872603814400,0.426814453125,0.0316009521484375,-0.0457305908203125,-0.0359039306640625
1761379872613870300,0.436870361328125,0.0863037109375,0.0404510498046875,-0.1490020751953125
1761379872623925500,0.446925537109375,0.0322418212890625,0.089874267578125,-0.1888427734375
1761379872633980400,0.45698046875,-0.02447509765625,0.0863800048828125,-0.141082763671875
1761379872644035300,0.467035400390625,-0.1169281005859375,0.025146484375,-0.0482940673828125
1761379872654091300,0.47709130859375,-0.2014617919921875,0.022674560546875,0.0546417236328125
1761379872664146400,0.487146484375,-0.2139129638671875,0.187835693359375,0.0565338134765625
1761379872674201600,0.49720166015625,-0.0898284912109375,0.199005126953125,0.0556640625
1761379872684257500,0.507257568359375,0.14251708984375,0.0957183837890625,0.0763702392578125
1761379872694312400,0.5173125,0.2669219970703125,0.0386199951171875,0.055267333984375
1761379872704367400,0.527367431640625,0.2415313720703125,0.00634765625,-0.008270263671875
1761379872714423300,0.53742333984375,0.190399169921875,0.00677490234375,-0.0279083251953125
1761379872724478500,0.547478515625,0.069427490234375,0.0489959716796875,-0.01470947265625
1761379872734533400,0.557533447265625,-0.02685546875,0.08270263671875,-0.0028076171875
1761379872744589300,0.56758935546875,-0.0669403076171875,0.1587066650390625,-0.0025177001953125
1761379872754644500,0.57764453125,-0.0344696044921875,0.24737548828125,-0.01544189453125
1761379872764699400,0.587699462890625,0.055267333984375,0.31158447265625,-0.0271453857421875
1761379872774755600,0.597755615234375,0.149383544921875,0.326568603515625,-0.0483551025390625
1761379872784810200,0.607810302734375,0.3332061767578125,0.2706146240234375,-0.0713348388671875
1761379872794865400,0.617865478515625,0.439605712890625,0.19647216796875,-0.100189208984375
1761379872804921300,0.62792138671875,0.5490875244140625,0.123321533203125,-0.1103057861328125
1761379872814976500,0.6379765625,0.55218505859375,0.0714569091796875,-0.1068115234375
1761379872825031400,0.648031494140625,0.43621826171875,0.0695953369140625,-0.09844970703125
1761379872835087400,0.65808740234375,0.3537139892578125,0.0743865966796875,-0.1016387939453125
1761379872845142300,0.668142333984375,0.261199951171875,0.09246826171875,-0.10052490234375
1761379872855197400,0.678197509765625,0.1788482666015625,0.1255035400390625,-0.08489990234375
1761379872865253400,0.68825341796875,0.0813446044921875,0.1219482421875,-0.07708740234375
1761379872875308500,0.69830859375,0.00286865234375,0.056915283203125,-0.1038818359375
1761379872885363500,0.708363525390625,-0.031524658203125,-0.080718994140625,-0.116302490234375
1761379872895419400,0.71841943359375,-0.0940399169921875,-0.22308349609375,-0.1057281494140625
1761379872905474300,0.728474365234375,-0.102813720703125,-0.377044677734375,-0.101348876953125
1761379872915529500,0.738529541015625,-0.059722900390625,-0.6239471435546875,-0.1009521484375
1761379872925585400,0.74858544921875,-0.065521240234375,-0.9346466064453125,-0.099700927734375
1761379872935640300,0.758640380859375,-0.0513916015625,-1.179351806640625,-0.084228515625
1761379872945695500,0.768695556640625,-0.13543701171875,-1.2861480712890625,-0.1035308837890625
1761379872955751400,0.77875146484375,-0.34356689453125,-1.4542236328125,-0.1183013916015625
1761379872965806600,0.788806640625,-0.515167236328125,-1.71331787109375,-0.08392333984375
1761379872975861200,0.798861328125,-0.556427001953125,-1.934906005859375,0.063720703125
1761379872985916400,0.80891650390625,-0.569671630859375,-2.167205810546875,0.252960205078125
1761379872995972400,0.818972412109375,-0.55291748046875,-2.342193603515625,0.3431549072265625
1761379873006027500,0.829027587890625,-0.485321044921875,-2.51922607421875,0.2767791748046875
1761379873016082200,0.839082275390625,-0.640869140625,-2.731597900390625,0.073944091796875
1761379873026138400,0.849138427734375,-1.12835693359375,-2.9596405029296875,-0.1184844970703125
1761379873036193300,0.859193359375,-1.7738189697265625,-3.1272125244140625,-0.1681365966796875
1761379873046248400,0.86924853515625,-2.4586181640625,-3.1265869140625,-0.0813751220703125
1761379873056304400,0.879304443359375,-2.767303466796875,-3.0147247314453125,0.0138702392578125
1761379873066359600,0.889359619140625,-2.6273040771484375,-2.8797454833984375,0.0874176025390625
1761379873076414500,0.89941455078125,-2.0755462646484375,-2.775665283203125,0.1420135498046875
1761379873086470400,0.909470458984375,-1.37518310546875,-2.732391357421875,0.1662445068359375
1761379873096525300,0.919525390625,-0.6943817138671875,-2.6367950439453125,0.137603759765625
1761379873106580500,0.92958056640625,-0.36932373046875,-2.4152984619140625,0.123687744140625
1761379873116636400,0.939636474609375,-0.4238128662109375,-2.1561126708984375,0.1363067626953125
1761379873126691300,0.94969140625,-0.4464263916015625,-1.957122802734375,0.1368865966796875
1761379873136746500,0.95974658203125,-0.585693359375,-1.7818450927734375,0.1103057861328125
1761379873146802400,0.969802490234375,-0.7294158935546875,-1.671142578125,0.1170196533203125
1761379873156857600,0.979857666015625,-0.7664642333984375,-1.5476226806640625,0.102294921875
1761379873166912300,0.989912353515625,-0.72607421875,-1.4101715087890625,0.036651611328125
1761379873176968400,0.999968505859375,-0.6101531982421875,-1.30194091796875,-0.021087646484375
1761379873187023400,1.0100234375,-0.4294586181640625,-1.2596435546875,-0.07635498046875
1761379873197078500,1.02007861328125,-0.2685699462890625,-1.200958251953125,-0.0888214111328125
1761379873207134500,1.030134521484375,-0.2589569091796875,-1.0692901611328125,0.0240325927734375
1761379873217189400,1.040189453125,-0.26287841796875,-0.9373779296875,0.16754150390625
1761379873227244300,1.050244384765625,-0.2805938720703125,-0.8399200439453125,0.225494384765625
1761379873237300500,1.060300537109375,-0.433380126953125,-0.704986572265625,0.2117156982421875
1761379873247355400,1.07035546875,-0.592071533203125,-0.5891876220703125,0.19940185546875
1761379873257410300,1.080410400390625,-0.583038330078125,-0.459686279296875,0.2070465087890625
1761379873267466200,1.09046630859375,-0.757720947265625,-0.2225341796875,0.1368865966796875
1761379873277521400,1.100521484375,-0.703857421875,-0.0525970458984375,0.08905029296875
1761379873287576300,1.110576416015625,-0.4874114990234375,-0.0115966796875,0.04541015625
1761379873297632500,1.120632568359375,-0.39007568359375,0.0207672119140625,0.0353546142578125
1761379873307687400,1.1306875,-0.37542724609375,0.1089630126953125,0.0712432861328125
1761379873317742300,1.140742431640625,-0.298858642578125,0.1831207275390625,0.0858001708984375
1761379873327798300,1.15079833984375,-0.16705322265625,0.2241973876953125,0.0877685546875
1761379873337853400,1.160853515625,-0.063751220703125,0.2425079345703125,0.0828094482421875
1761379873347908600,1.17090869140625,0.050506591796875,0.2511444091796875,0.044464111328125
1761379873357964500,1.180964599609375,0.16595458984375,0.260467529296875,0.0037384033203125
1761379873368019500,1.19101953125,0.35296630859375,0.1654815673828125,-0.0314178466796875
1761379873378074400,1.201074462890625,0.460174560546875,0.103271484375,-0.050933837890625
1761379873388130300,1.21113037109375,0.4757843017578125,0.1644439697265625,-0.04022216796875
1761379873398185500,1.221185546875,0.3972015380859375,0.28607177734375,-0.01141357421875
1761379873408240400,1.231240478515625,0.3174591064453125,0.3792877197265625,0.0184326171875
1761379873418296300,1.24129638671875,0.2998809814453125,0.451995849609375,0.046875
1761379873428351500,1.2513515625,0.2656402587890625,0.5517120361328125,0.0303955078125
1761379873438406400,1.261406494140625,0.2201995849609375,0.6508331298828125,-0.0067138671875
1761379873448462600,1.271462646484375,0.3074188232421875,0.6319580078125,-0.073883056640625
1761379873458517200,1.281517333984375,0.340240478515625,0.6209869384765625,-0.090972900390625
1761379873468572400,1.291572509765625,0.3125,0.50970458984375,-0.11907958984375
1761379873478628400,1.30162841796875,0.412445068359375,0.392669677734375,-0.1277923583984375
1761379873488683500,1.31168359375,0.456024169921875,0.31219482421875,-0.0810394287109375
1761379873498738200,1.32173828125,0.4655914306640625,0.2594757080078125,-0.081298828125
1761379873508794400,1.33179443359375,0.372711181640625,0.2422637939453125,-0.164794921875
1761379873518849300,1.341849365234375,0.255279541015625,0.164886474609375,-0.2620391845703125
1761379873528904400,1.351904541015625,0.22869873046875,0.004638671875,-0.28021240234375
1761379873538960400,1.36196044921875,0.2580108642578125,-0.25518798828125,-0.2208404541015625
1761379873549015600,1.372015625,0.2907257080078125,-0.651458740234375,-0.0963134765625
1761379873559070500,1.382070556640625,0.384307861328125,-1.039794921875,0.024810791015625
1761379873569126400,1.39212646484375,0.333221435546875,-1.323883056640625,0.0124664306640625
1761379873579181300,1.402181396484375,0.1892547607421875,-1.622406005859375,-0.17547607421875
1761379873589236500,1.412236572265625,-0.0045013427734375,-1.968475341796875,-0.3453369140625
1761379873599292400,1.42229248046875,-0.068603515625,-2.3066864013671875,-0.3737335205078125
1761379873609347300,1.432347412109375,-0.1189727783203125,-2.51190185546875,-0.2338104248046875
1761379873619402500,1.442402587890625,-0.542694091796875,-2.636749267578125,0.1123199462890625
1761379873629458400,1.45245849609375,-1.058380126953125,-2.808746337890625,0.521942138671875
1761379873639513600,1.462513671875,-1.1753692626953125,-2.9918670654296875,0.6053619384765625
1761379873649568500,1.472568603515625,-1.098846435546875,-3.2664642333984375,0.2091522216796875
1761379873659624400,1.48262451171875,-1.0577392578125,-3.55078125,-0.326202392578125
1761379873669679400,1.492679443359375,-1.269744873046875,-3.704803466796875,-0.7322845458984375
1761379873679734500,1.502734619140625,-1.660858154296875,-3.7187957763671875,-0.849334716796875
1761379873689790500,1.51279052734375,-1.9539031982421875,-3.6219024658203125,-0.623046875
1761379873699845600,1.522845703125,-2.0170440673828125,-3.47235107421875,-0.267730712890625
1761379873709900300,1.532900390625,-1.785736083984375,-3.2225494384765625,-0.01373291015625
1761379873719956500,1.54295654296875,-1.2973480224609375,-2.9416961669921875,0.081756591796875
1761379873730011400,1.553011474609375,-0.776214599609375,-2.566162109375,0.0108489990234375
1761379873740066600,1.563066650390625,-0.329254150390625,-2.20501708984375,-0.122589111328125
1761379873750122500,1.57312255859375,0.0570526123046875,-1.95562744140625,-0.2020721435546875
1761379873760177400,1.583177490234375,0.0760955810546875,-1.7042388916015625,-0.1246337890625
1761379873770232300,1.593232421875,-0.13946533203125,-1.48760986328125,0.0379638671875
1761379873780288500,1.60328857421875,-0.281005859375,-1.3700103759765625,0.0557098388671875
1761379873790343400,1.613343505859375,-0.4869232177734375,-1.2388458251953125,-0.079742431640625
1761379873800398300,1.6233984375,-0.681732177734375,-1.158843994140625,-0.1985015869140625
1761379873810454300,1.633454345703125,-0.68780517578125,-1.08245849609375,-0.1959381103515625
1761379873820509400,1.643509521484375,-0.6367034912109375,-0.9277496337890625,-0.0704193115234375
1761379873830564600,1.653564697265625,-0.634368896484375,-0.7383270263671875,0.0589447021484375
1761379873840620500,1.66362060546875,-0.4793548583984375,-0.5437774658203125,0.1606903076171875
1761379873850675500,1.673675537109375,-0.2151947021484375,-0.333282470703125,0.2694244384765625
1761379873860730400,1.68373046875,-0.1269378662109375,-0.1224517822265625,0.3455352783203125
1761379873870786300,1.693786376953125,-0.0703277587890625,-0.0010223388671875,0.2457275390625
1761379873880841500,1.703841552734375,-0.0291748046875,0.135833740234375,0.0550537109375
1761379873890896600,1.713896728515625,0.1692352294921875,0.2657012939453125,-0.102081298828125
1761379873900952300,1.723952392578125,0.3884735107421875,0.36700439453125,-0.236175537109375
1761379873911007500,1.734007568359375,0.547027587890625,0.383880615234375,-0.25213623046875
1761379873921062400,1.7440625,0.627349853515625,0.3389892578125,-0.1570281982421875
1761379873931118600,1.75411865234375,0.637664794921875,0.261932373046875,-0.0736083984375
1761379873941173500,1.764173583984375,0.634735107421875,0.23150634765625,-0.042205810546875
1761379873951229400,1.7742294921875,0.585968017578125,0.2779541015625,0.0078582763671875
1761379873961284400,1.784284423828125,0.48590087890625,0.289337158203125,0.0591888427734375
1761379873971339500,1.794339599609375,0.34161376953125,0.2906646728515625,0.0453033447265625
1761379873981395500,1.8043955078125,0.2308349609375,0.274139404296875,0.0287933349609375
1761379873991450600,1.81445068359375,0.1687164306640625,0.27789306640625,0.01910400390625
1761379874001505300,1.82450537109375,0.1258087158203125,0.3203582763671875,0.0272216796875
1761379874011561500,1.8345615234375,0.1183013916015625,0.3499298095703125,0.0404510498046875
1761379874021616400,1.844616455078125,0.0941162109375,0.35205078125,0.0631866455078125
1761379874031671600,1.854671630859375,0.0115966796875,0.344573974609375,0.10760498046875
1761379874041727500,1.8647275390625,-0.0257720947265625,0.2993316650390625,0.105224609375
1761379874051782400,1.874782470703125,-0.0066986083984375,0.284393310546875,0.033843994140625
1761379874061837300,1.88483740234375,0.034393310546875,0.257080078125,-0.0590667724609375
1761379874071893500,1.8948935546875,0.0918731689453125,0.20928955078125,-0.12188720703125
1761379874081948400,1.904948486328125,0.11297607421875,0.15704345703125,-0.1490936279296875
1761379874092003300,1.91500341796875,0.1016387939453125,0.103912353515625,-0.162078857421875
1761379874102059300,1.925059326171875,0.0587005615234375,0.0680694580078125,-0.1522216796875
1761379874112114400,1.935114501953125,-0.0462493896484375,0.0531768798828125,-0.11676025390625
1761379874122169600,1.945169677734375,-0.201324462890625,0.0141754150390625,-0.055755615234375
1761379874132225500,1.9552255859375,-0.278717041015625,-0.0503997802734375,-0.0102691650390625
1761379874142280400,1.965280517578125,-0.1989288330078125,-0.125152587890625,-0.01446533203125
1761379874152335400,1.97533544921875,-0.0484771728515625,-0.2152862548828125,-0.02581787109375
1761379874162391600,1.9853916015625,0.1179351806640625,-0.355865478515625,-0.006317138671875
1761379874172446500,1.995446533203125,0.2347564697265625,-0.5213470458984375,0.023162841796875
1761379874182501600,2.005501708984375,0.20758056640625,-0.753814697265625,0.04888916015625
1761379874192557300,2.015557373046875,0.091461181640625,-0.9737091064453125,0.0701446533203125
1761379874202612500,2.025612548828125,-0.1082916259765625,-1.0941009521484375,0.0755462646484375
1761379874212668400,2.03566845703125,-0.2415924072265625,-1.25616455078125,0.0280609130859375
1761379874222723600,2.0457236328125,-0.2764129638671875,-1.5311431884765625,-0.0480499267578125
1761379874232778500,2.055778564453125,-0.2539215087890625,-1.7745819091796875,-0.0271148681640625
1761379874242834400,2.06583447265625,-0.2592315673828125,-1.965179443359375,0.1924591064453125
1761379874252889300,2.075889404296875,-0.4209442138671875,-2.2353057861328125,0.3683929443359375
1761379874262944500,2.085944580078125,-0.6754608154296875,-2.51263427734375,0.2816925048828125
1761379874273000400,2.09600048828125,-0.998199462890625,-2.659027099609375,0.030975341796875
1761379874283055600,2.1060556640625,-1.38470458984375,-2.8040313720703125,-0.160125732421875
1761379874293110300,2.1161103515625,-1.884979248046875,-3.0128631591796875,-0.1885223388671875
1761379874303166500,2.12616650390625,-2.2008056640625,-3.27227783203125,-0.1123199462890625
1761379874313221400,2.136221435546875,-2.3150787353515625,-3.4818878173828125,-0.0030975341796875
1761379874323276500,2.146276611328125,-2.3474578857421875,-3.5583343505859375,0.0846710205078125
1761379874333332500,2.15633251953125,-2.1183624267578125,-3.46380615234375,0.1226806640625
1761379874343387400,2.166387451171875,-1.7149200439453125,-3.240264892578125,0.093994140625
1761379874353442300,2.1764423828125,-1.357330322265625,-2.8898162841796875,0.052947998046875
1761379874363498500,2.18649853515625,-1.1303558349609375,-2.5328826904296875,0.0166778564453125
1761379874373553400,2.196553466796875,-0.9496612548828125,-2.2562103271484375,-0.018035888671875
1761379874383608300,2.2066083984375,-0.8587799072265625,-2.0279541015625,0.0087890625
1761379874393664300,2.216664306640625,-0.9243927001953125,-1.8712921142578125,0.0152435302734375
1761379874403719400,2.226719482421875,-0.94927978515625,-1.77032470703125,0.0117950439453125
1761379874413774600,2.236774658203125,-0.8853912353515625,-1.6768341064453125,-0.0065155029296875
1761379874423830500,2.24683056640625,-0.6944122314453125,-1.627960205078125,-0.0294036865234375
1761379874433885400,2.256885498046875,-0.4710540771484375,-1.5702056884765625,-0.0294189453125
1761379874443941400,2.26694140625,-0.260009765625,-1.497283935546875,0.0153961181640625
1761379874453996500,2.27699658203125,-0.1434478759765625,-1.373260498046875,0.0772705078125
1761379874464051500,2.287051513671875,-0.15545654296875,-1.1729583740234375,0.118408203125
1761379874474107400,2.297107421875,-0.2111968994140625,-0.9973297119140625,0.12530517578125
1761379874484162300,2.307162353515625,-0.2445831298828125,-0.819091796875,0.049774169921875
1761379874494217500,2.317217529296875,-0.2584075927734375,-0.5967864990234375,-0.054840087890625
1761379874504273400,2.3272734375,-0.17254638671875,-0.3665313720703125,-0.09991455078125
1761379874514328600,2.33732861328125,-0.0355072021484375,-0.1634674072265625,-0.0795440673828125
1761379874524383500,2.347383544921875,0.0935516357421875,-0.0242156982421875,-0.0651702880859375
1761379874534439700,2.357439697265625,0.191253662109375,0.060516357421875,-0.0602264404296875
1761379874544494300,2.367494384765625,0.212432861328125,0.13800048828125,-0.0550689697265625
1761379874554550500,2.377550537109375,0.162933349609375,0.2287750244140625,-0.079315185546875
1761379874564606500,2.3876064453125,0.0991058349609375,0.266082763671875,-0.0957794189453125
1761379874574661400,2.397661376953125,0.0769195556640625,0.2718048095703125,-0.0980682373046875
1761379874584717600,2.407717529296875,0.1004486083984375,0.2765350341796875,-0.1002044677734375
1761379874594772200,2.417772216796875,0.2005615234375,0.25701904296875,-0.1028289794921875
1761379874604827400,2.427827392578125,0.3270263671875,0.2285614013671875,-0.1107177734375
1761379874614883300,2.43788330078125,0.4130096435546875,0.20306396484375,-0.11322021484375
1761379874624938500,2.4479384765625,0.4130859375,0.1789093017578125,-0.102569580078125
1761379874634993400,2.457993408203125,0.3491058349609375,0.1980743408203125,-0.0836029052734375
1761379874645049300,2.46804931640625,0.2986297607421875,0.267425537109375,-0.0657501220703125
1761379874655104500,2.4781044921875,0.2411956787109375,0.311920166015625,-0.0417327880859375
1761379874665159400,2.488159423828125,0.1837310791015625,0.3369598388671875,0.0039520263671875
1761379874675215400,2.49821533203125,0.15435791015625,0.362518310546875,0.0689239501953125
1761379874685270300,2.508270263671875,0.1656951904296875,0.3922271728515625,0.118865966796875
1761379874695325400,2.518325439453125,0.1661834716796875,0.426605224609375,0.1131439208984375
1761379874705381400,2.52838134765625,0.1796112060546875,0.4435577392578125,0.0466156005859375
1761379874715436500,2.5384365234375,0.205535888671875,0.438232421875,-0.0164947509765625
1761379874725491200,2.5484912109375,0.2488555908203125,0.4427032470703125,-0.0419769287109375
1761379874735547400,2.55854736328125,0.2802276611328125,0.441802978515625,-0.038543701171875
1761379874745602300,2.568602294921875,0.2729034423828125,0.408599853515625,-0.0230255126953125
1761379874755658500,2.578658447265625,0.25933837890625,0.324737548828125,0.0084686279296875
1761379874765713400,2.58871337890625,0.2207489013671875,0.21868896484375,0.0339202880859375
1761379874775768600,2.5987685546875,0.1357574462890625,0.1320037841796875,0.04742431640625
1761379874785824300,2.60882421875,0.0348052978515625,0.03521728515625,0.032867431640625
1761379874795879400,2.61887939453125,-0.065887451171875,-0.070892333984375,-0.0290069580078125
1761379874805934300,2.628934326171875,-0.1133880615234375,-0.1735382080078125,-0.0791015625
1761379874815990500,2.638990478515625,-0.1203765869140625,-0.329010009765625,-0.08831787109375
1761379874826045400,2.64904541015625,-0.0293426513671875,-0.6020355224609375,-0.0647430419921875
1761379874836101400,2.659101318359375,0.073333740234375,-0.9183502197265625,-0.027801513671875
1761379874846156300,2.66915625,0.056854248046875,-1.1863250732421875,0.0237274169921875
1761379874856211500,2.67921142578125,-0.1533050537109375,-1.3701324462890625,-0.019012451171875
1761379874866267400,2.689267333984375,-0.4884033203125,-1.5375213623046875,-0.0824737548828125
1761379874876322600,2.699322509765625,-0.8875732421875,-1.7789459228515625,-0.041839599609375
1761379874886377200,2.709377197265625,-1.115020751953125,-1.9499969482421875,0.02740478515625
1761379874896433400,2.719433349609375,-1.14788818359375,-2.020782470703125,0.10992431640625
1761379874906488300,2.72948828125,-1.24981689453125,-2.1729278564453125,0.2479095458984375
1761379874916543500,2.73954345703125,-1.329437255859375,-2.3521728515625,0.26446533203125
1761379874926599400,2.749599365234375,-1.433868408203125,-2.4518890380859375,0.171844482421875
1761379874936654300,2.759654296875,-1.7357940673828125,-2.588165283203125,0.12890625
1761379874946709500,2.76970947265625,-2.1815185546875,-2.7512664794921875,0.1574249267578125
1761379874956765400,2.779765380859375,-2.5750274658203125,-2.8530731201171875,0.1362762451171875
1761379874966820400,2.7898203125,-2.731475830078125,-2.8540802001953125,0.039398193359375
1761379874976876500,2.79987646484375,-2.569305419921875,-2.801239013671875,-0.08355712890625
1761379874986931200,2.80993115234375,-2.2275238037109375,-2.7637481689453125,-0.1065216064453125
1761379874996986400,2.819986328125,-1.8662872314453125,-2.7202301025390625,0.0168914794921875
1761379875007042300,2.830042236328125,-1.5600128173828125,-2.730194091796875,0.2099761962890625
1761379875017097500,2.840097412109375,-1.2283172607421875,-2.693511962890625,0.37982177734375
1761379875027152400,2.85015234375,-1.10089111328125,-2.5666961669921875,0.442230224609375
1761379875037208300,2.860208251953125,-1.1313018798828125,-2.377166748046875,0.4285888671875
1761379875047263500,2.870263427734375,-1.119049072265625,-2.1668853759765625,0.3394622802734375
1761379875057318400,2.880318359375,-1.0355682373046875,-1.9634857177734375,0.2012176513671875
1761379875067374600,2.89037451171875,-0.9208526611328125,-1.7313385009765625,0.0560150146484375
1761379875077429200,2.90042919921875,-0.770355224609375,-1.4992828369140625,-0.0365142822265625
1761379875087485400,2.9104853515625,-0.67596435546875,-1.270263671875,-0.0739593505859375
1761379875097540400,2.920540283203125,-0.612701416015625,-1.0509185791015625,-0.0879974365234375
1761379875107595500,2.930595458984375,-0.5015869140625,-0.8514862060546875,-0.1097869873046875
1761379875117651500,2.9406513671875,-0.397857666015625,-0.6791229248046875,-0.07464599609375
1761379875127706400,2.950706298828125,-0.2958984375,-0.5250244140625,-0.019622802734375
1761379875137761300,2.96076123046875,-0.2374420166015625,-0.40899658203125,-0.0303497314453125
1761379875147817500,2.9708173828125,-0.1983184814453125,-0.3090057373046875,-0.0407867431640625
1761379875157872400,2.980872314453125,-0.127227783203125,-0.1644134521484375,-0.023681640625
1761379875167927600,2.990927490234375,-0.066009521484375,0.00689697265625,0.002593994140625
1761379875177983500,3.0009833984375,-0.010101318359375,0.15704345703125,0.0032501220703125
1761379875188038400,3.011038330078125,0.0702667236328125,0.2529144287109375,-0.0235443115234375
1761379875198094300,3.02109423828125,0.203399658203125,0.31158447265625,-0.0407867431640625
1761379875208149500,3.0311494140625,0.3357696533203125,0.3250579833984375,-0.041473388671875
1761379875218204400,3.041204345703125,0.4726715087890625,0.3108673095703125,-0.0275421142578125
1761379875228260600,3.051260498046875,0.5325469970703125,0.3049163818359375,-0.0097808837890625
1761379875238315300,3.061315185546875,0.512237548828125,0.2895660400390625,0.0025634765625
1761379875248370400,3.071370361328125,0.45928955078125,0.23980712890625,-0.00054931640625
1761379875258426400,3.08142626953125,0.3579559326171875,0.2061004638671875,-0.0243072509765625
1761379875268481500,3.0914814453125,0.26849365234375,0.2290802001953125,-0.05279541015625
1761379875278536200,3.1015361328125,0.164825439453125,0.232147216796875,-0.0538482666015625
1761379875288592400,3.11159228515625,0.1011505126953125,0.2525634765625,-0.0097198486328125
1761379875298647300,3.121647216796875,0.1312103271484375,0.308746337890625,0.0158233642578125
1761379875308703500,3.131703369140625,0.179290771484375,0.3516387939453125,-0.0127105712890625
1761379875318758400,3.14175830078125,0.2214813232421875,0.377197265625,-0.0499725341796875
1761379875328813300,3.151813232421875,0.2578277587890625,0.399078369140625,-0.070465087890625
1761379875338869200,3.161869140625,0.2753143310546875,0.3979034423828125,-0.0679931640625
1761379875348924400,3.17192431640625,0.266143798828125,0.3545074462890625,-0.062591552734375
1761379875358979600,3.1819794921875,0.2462310791015625,0.3121490478515625,-0.056488037109375
1761379875369035500,3.192035400390625,0.21661376953125,0.279876708984375,-0.0448760986328125
1761379875379090400,3.20209033203125,0.1813201904296875,0.2305145263671875,-0.0436859130859375
1761379875389146400,3.212146484375,0.11773681640625,0.1749267578125,-0.0713958740234375
1761379875399201300,3.222201171875,0.0499725341796875,0.141632080078125,-0.0791473388671875
1761379875409256400,3.23225634765625,-0.0176239013671875,0.0957794189453125,-0.03741455078125
1761379875419312400,3.2423125,-0.0928955078125,0.0285797119140625,-0.0003662109375
1761379875429367300,3.2523671875,-0.1529998779296875,-0.0372772216796875,0.014068603515625
1761379875439422500,3.26242236328125,-0.1739959716796875,-0.145355224609375,0.0255584716796875
1761379875449478400,3.272478515625,-0.147552490234375,-0.2931976318359375,0.03619384765625
1761379875459533600,3.282533447265625,-0.100189208984375,-0.4696807861328125,0.0417022705078125
1761379875469588500,3.29258837890625,-0.0118408203125,-0.718048095703125,0.0393524169921875
1761379875479644400,3.30264453125,0.071014404296875,-0.985687255859375,-0.0018310546875
1761379875489699300,3.31269921875,0.033477783203125,-1.1773681640625,-0.07879638671875
1761379875499755300,3.32275537109375,-0.12371826171875,-1.295806884765625,-0.131927490234375
1761379875509810400,3.332810546875,-0.244873046875,-1.494842529296875,-0.1446533203125
1761379875519865600,3.342865478515625,-0.395843505859375,-1.7270660400390625,-0.1441192626953125
1761379875529921300,3.35292138671875,-0.5892181396484375,-1.88336181640625,-0.05865478515625
1761379875539976400,3.3629765625,-0.638427734375,-2.0345916748046875,0.109619140625
1761379875550031400,3.37303125,-0.7707366943359375,-2.1820220947265625,0.24298095703125
1761379875560087000,3.383087158203125,-0.8455810546875,-2.307525634765625,0.23309326171875
1761379875570141700,3.3931416015625,-0.806793212890625,-2.426300048828125,0.0838470458984375
1761379875580198000,3.403197998046875,-0.973724365234375,-2.6571197509765625,-0.0649261474609375
1761379875590252800,3.413252685546875,-1.3677978515625,-2.9367218017578125,-0.086456298828125
1761379875600308000,3.423307861328125,-1.761993408203125,-3.0925445556640625,-0.1010284423828125
1761379875610364000,3.433364013671875,-2.0413055419921875,-3.1216583251953125,-0.1324005126953125
1761379875620418800,3.443418701171875,-2.1016082763671875,-3.1342010498046875,-0.089996337890625
1761379875630473700,3.4534736328125,-1.9703369140625,-3.1009521484375,-0.025482177734375
1761379875640530000,3.463530029296875,-1.7840728759765625,-3.0347900390625,-0.0015411376953125
1761379875650584800,3.473584716796875,-1.5733795166015625,-2.900390625,0.0413818359375
1761379875660640000,3.483639892578125,-1.445892333984375,-2.717742919921875,0.1611480712890625
1761379875670696000,3.493696044921875,-1.3834991455078125,-2.54071044921875,0.2489776611328125
1761379875680750800,3.503750732421875,-1.3445281982421875,-2.3628997802734375,0.2443695068359375
1761379875690806800,3.513806884765625,-1.204315185546875,-2.2003631591796875,0.1317291259765625
1761379875700862000,3.523862060546875,-1.0178070068359375,-2.0089111328125,-0.059783935546875
1761379875710917000,3.533917236328125,-0.762786865234375,-1.8190765380859375,-0.216278076171875
1761379875720973000,3.54397314453125,-0.3802947998046875,-1.65606689453125,-0.2799224853515625
1761379875731028000,3.554028076171875,-0.1012115478515625,-1.52276611328125,-0.25030517578125
1761379875741083000,3.564082763671875,0.0217132568359375,-1.3546142578125,-0.0847320556640625
1761379875751138800,3.574138916015625,0.018951416015625,-1.1342315673828125,0.1016998291015625
1761379875761194000,3.584194091796875,-0.066314697265625,-0.93646240234375,0.2142333984375
1761379875771250000,3.59425,-0.3864898681640625,-0.762298583984375,0.2305145263671875
1761379875781304800,3.604304931640625,-0.7208099365234375,-0.634246826171875,0.1844482421875
1761379875791360000,3.614360107421875,-0.8373870849609375,-0.45428466796875,0.1236724853515625
1761379875801416000,3.624416015625,-0.7692413330078125,-0.241729736328125,0.079803466796875
1761379875811471000,3.63447119140625,-0.543243408203125,-0.0629119873046875,0.023223876953125
1761379875821525800,3.64452587890625,-0.295867919921875,0.0261383056640625,-0.0387725830078125
1761379875831582000,3.65458203125,-0.081512451171875,0.092315673828125,-0.0438232421875
1761379875841636900,3.664636962890625,0.1480560302734375,0.18792724609375,-0.018829345703125
1761379875851692800,3.67469287109375,0.34368896484375,0.2740020751953125,0.01556396484375
1761379875861748000,3.684748046875,0.52252197265625,0.3326568603515625,0.0269775390625
1761379875871803000,3.694802978515625,0.6425933837890625,0.3578643798828125,0.02447509765625
1761379875881858800,3.70485888671875,0.6777496337890625,0.3529205322265625,0.03338623046875
1761379875891914000,3.7149140625,0.6092376708984375,0.3433380126953125,0.0501708984375
1761379875901969000,3.724968994140625,0.4935302734375,0.3569793701171875,0.0571136474609375
1761379875912025000,3.735025146484375,0.364715576171875,0.3867340087890625,0.024017333984375
1761379875922079700,3.745079833984375,0.27703857421875,0.391998291015625,-0.0184326171875
1761379875932135000,3.755135009765625,0.2532958984375,0.4116973876953125,-0.01190185546875
1761379875942190800,3.76519091796875,0.2634735107421875,0.4205474853515625,0.011016845703125
1761379875952246000,3.77524609375,0.28668212890625,0.4130859375,0.037261962890625
1761379875962302000,3.785302001953125,0.321990966796875,0.43359375,0.064971923828125
1761379875972356900,3.79535693359375,0.350677490234375,0.4579620361328125,0.070465087890625
1761379875982411800,3.805411865234375,0.3690338134765625,0.44805908203125,0.05419921875
1761379875992468000,3.815468017578125,0.3288116455078125,0.4134979248046875,0.0266571044921875
1761379876002523000,3.82552294921875,0.2647857666015625,0.356231689453125,0.0064544677734375
1761379876012579000,3.8355791015625,0.18060302734375,0.30126953125,-0.0024566650390625
1761379876022633700,3.8456337890625,0.085968017578125,0.264617919921875,-0.009857177734375
1761379876032689000,3.85568896484375,-0.0113677978515625,0.2097015380859375,-0.009979248046875
1761379876042744800,3.865744873046875,-0.0669403076171875,0.1652984619140625,-0.0190887451171875
1761379876052800000,3.875800048828125,-0.077880859375,0.115447998046875,-0.0310516357421875
1761379876062855000,3.88585498046875,-0.125701904296875,0.0125732421875,-0.052276611328125
1761379876072910800,3.895910888671875,-0.155487060546875,-0.080108642578125,-0.0738525390625
1761379876082965800,3.9059658203125,-0.1858062744140625,-0.1448516845703125,-0.0829315185546875
1761379876093022000,3.91602197265625,-0.209503173828125,-0.2404022216796875,-0.085784912109375
1761379876103076900,3.926076904296875,-0.1719512939453125,-0.401031494140625,-0.071929931640625
1761379876113132000,3.936132080078125,-0.1037750244140625,-0.58782958984375,-0.060333251953125
1761379876123188000,3.94618798828125,-0.03515625,-0.76318359375,-0.0594024658203125
1761379876133243000,3.956242919921875,-0.00146484375,-0.96673583984375,-0.0624847412109375
1761379876143297800,3.9662978515625,-0.0810394287109375,-1.1824188232421875,-0.0430145263671875
1761379876153354000,3.97635400390625,-0.2876739501953125,-1.3737640380859375,0.0050811767578125
1761379876163409000,3.986408935546875,-0.5725250244140625,-1.55108642578125,0.044891357421875
1761379876173465000,3.996465087890625,-0.8029937744140625,-1.7293701171875,0.02532958984375
1761379876183517000,4.006516845703125,-0.8248748779296875,-1.915435791015625,-0.0605316162109375
1761379876193573000,4.016572998046875,-0.81976318359375,-2.0595245361328125,-0.13726806640625
1761379876203627800,4.026627685546875,-0.789703369140625,-2.23065185546875,-0.07763671875
1761379876213683000,4.036682861328125,-0.7270050048828125,-2.575897216796875,0.040679931640625
1761379876223739000,4.04673876953125,-0.7977142333984375,-2.973114013671875,0.026763916015625
1761379876233794000,4.0567939453125,-1.279541015625,-3.294708251953125,-0.1156005859375
1761379876243848700,4.0668486328125,-2.0802001953125,-3.480438232421875,-0.195281982421875
1761379876253905000,4.07690478515625,-2.7634429931640625,-3.64739990234375,-0.3293914794921875
1761379876263959800,4.086959716796875,-3.2126312255859375,-3.6319122314453125,-0.63140869140625
1761379876274016000,4.09701611328125,-3.0715484619140625,-3.3532867431640625,-0.80206298828125
1761379876284071000,4.10707080078125,-2.5521087646484375,-3.04547119140625,-0.71209716796875
1761379876294125800,4.117125732421875,-1.897125244140625,-2.8842315673828125,-0.44415283203125
1761379876304181800,4.127181640625,-1.257781982421875,-2.7118988037109375,-0.191314697265625
1761379876314237000,4.13723681640625,-0.80560302734375,-2.4212646484375,-0.060150146484375
1761379876324291800,4.147291748046875,-0.4876556396484375,-2.1641845703125,0.01055908203125
1761379876334348000,4.15734814453125,-0.420135498046875,-1.9487152099609375,-0.033111572265625
1761379876344402700,4.167402587890625,-0.499786376953125,-1.73297119140625,-0.15521240234375
1761379876354459000,4.177458984375,-0.7235565185546875,-1.5386199951171875,-0.2309417724609375
1761379876364513800,4.187513671875,-0.7994232177734375,-1.3023223876953125,-0.1813812255859375
1761379876374569000,4.19756884765625,-0.68408203125,-1.029815673828125,-0.1061553955078125
1761379876384625000,4.207625,-0.5680999755859375,-0.8640289306640625,-0.0862884521484375
1761379876394679800,4.2176796875,-0.4764862060546875,-0.7080535888671875,-0.0462493896484375
1761379876404735000,4.22773486328125,-0.2758636474609375,-0.4356689453125,0.03668212890625
1761379876414791000,4.237791015625,0.017242431640625,-0.2235107421875,0.091705322265625
1761379876424845800,4.247845703125,0.2584075927734375,-0.1128692626953125,0.1106414794921875
1761379876434902000,4.257902099609375,0.374969482421875,-0.043304443359375,0.124908447265625
1761379876444957000,4.26795703125,0.339508056640625,0.0001983642578125,0.13885498046875
1761379876455011800,4.27801171875,0.207489013671875,0.114166259765625,0.1123199462890625
1761379876465067800,4.28806787109375,0.09869384765625,0.270294189453125,0.0668792724609375
1761379876475123000,4.298123046875,0.07769775390625,0.353668212890625,0.038238525390625
1761379876485178000,4.30817822265625,0.072113037109375,0.3543243408203125,0.024139404296875
1761379876495234000,4.318234130859375,0.131988525390625,0.30828857421875,0.0543212890625
1761379876505289000,4.3282890625,0.2543182373046875,0.2627410888671875,0.0999603271484375
1761379876515345000,4.338344970703125,0.388763427734375,0.218719482421875,0.0885467529296875
1761379876525399800,4.34839990234375,0.4949188232421875,0.1773223876953125,0.0296173095703125
1761379876535455000,4.358455078125,0.5625762939453125,0.1321868896484375,-0.047607421875
1761379876545511000,4.368510986328125,0.539398193359375,0.096099853515625,-0.08209228515625
1761379876555566300,4.37856640625,0.4311370849609375,0.092254638671875,-0.0691375732421875
1761379876565622300,4.388622314453125,0.2856292724609375,0.1319580078125,-0.0445709228515625
1761379876575677400,4.398677490234375,0.1439361572265625,0.1990966796875,-0.037872314453125
1761379876585732000,4.408732177734375,0.067352294921875,0.2496490478515625,-0.0425262451171875
1761379876595788300,4.418788330078125,-0.0094757080078125,0.2868499755859375,-0.0400390625
1761379876605843200,4.42884326171875,-0.06964111328125,0.29150390625,-0.02630615234375
1761379876615898400,4.4388984375,-0.057342529296875,0.32177734375,-0.040863037109375
1761379876625954300,4.448954345703125,-0.0439605712890625,0.3401336669921875,-0.0827178955078125
1761379876636009200,4.45900927734375,0.0052032470703125,0.2988739013671875,-0.085693359375
1761379876646065200,4.469065185546875,0.0397796630859375,0.2089996337890625,-0.033843994140625
1761379876656120300,4.479120361328125,0.03118896484375,0.104888916015625,0.01043701171875
1761379876666175500,4.489175537109375,0.0349884033203125,0.0445404052734375,-0.00006103515625
1761379876676231400,4.4992314453125,-0.0124053955078125,0.026611328125,-0.0455322265625
1761379876686286300,4.509286376953125,-0.089813232421875,0.0573883056640625,-0.087646484375
1761379876696342300,4.51934228515625,-0.170135498046875,0.0562286376953125,-0.116241455078125
1761379876706397200,4.529397216796875,-0.1966552734375,0.055084228515625,-0.1386566162109375
1761379876716452400,4.539452392578125,-0.2081451416015625,0.0559234619140625,-0.148284912109375
1761379876726508300,4.54950830078125,-0.1326446533203125,-0.0909271240234375,-0.1439971923828125
1761379876736563200,4.559563232421875,0.041961669921875,-0.279693603515625,-0.1474609375
1761379876746618400,4.569618408203125,0.22265625,-0.484527587890625,-0.1405487060546875
1761379876756674300,4.57967431640625,0.39215087890625,-0.7230377197265625,-0.13153076171875
1761379876766729500,4.5897294921875,0.4838104248046875,-0.921112060546875,-0.159149169921875
1761379876776785400,4.599785400390625,0.29833984375,-1.1808624267578125,-0.188751220703125
1761379876786840300,4.60984033203125,0.0021820068359375,-1.510955810546875,-0.1761322021484375
1761379876796895200,4.619895263671875,-0.3556671142578125,-1.8861541748046875,-0.1354522705078125
1761379876806951200,4.629951171875,-0.62774658203125,-2.2317047119140625,-0.00128173828125
1761379876817006300,4.64000634765625,-0.8323974609375,-2.39697265625,0.1935272216796875
1761379876827062300,4.650062255859375,-1.0921173095703125,-2.4183349609375,0.3442840576171875
1761379876837117400,4.660117431640625,-1.1104888916015625,-2.460174560546875,0.5265350341796875
1761379876847172400,4.67017236328125,-0.82098388671875,-2.4466705322265625,0.5669403076171875
1761379876857228300,4.680228271484375,-0.5746917724609375,-2.538787841796875,0.457122802734375
1761379876867283500,4.690283447265625,-0.535858154296875,-2.688079833984375,0.345001220703125
1761379876877338400,4.70033837890625,-0.7817535400390625,-2.817840576171875,0.2778472900390625
1761379876887394300,4.710394287109375,-1.2327117919921875,-2.8636932373046875,0.23907470703125
1761379876897449200,4.72044921875,-1.5283203125,-2.888824462890625,0.250579833984375
1761379876907505200,4.730505126953125,-1.7124786376953125,-2.873870849609375,0.260223388671875
1761379876917560300,4.740560302734375,-1.7781829833984375,-2.8522186279296875,0.2267303466796875
1761379876927615500,4.750615478515625,-1.635284423828125,-2.853179931640625,0.199371337890625
1761379876937671400,4.76067138671875,-1.3282928466796875,-2.8120574951171875,0.2190704345703125
1761379876947726300,4.770726318359375,-1.1212310791015625,-2.733795166015625,0.313262939453125
1761379876957782300,4.7807822265625,-1.0086669921875,-2.5514373779296875,0.4259796142578125
1761379876967837400,4.79083740234375,-0.9327392578125,-2.34429931640625,0.475189208984375
1761379876977892400,4.800892333984375,-0.9268646240234375,-2.1742706298828125,0.46240234375
1761379876987948500,4.810948486328125,-0.8392791748046875,-1.958770751953125,0.4026947021484375
1761379876998003200,4.821003173828125,-0.6956024169921875,-1.7255859375,0.2859039306640625
1761379877008058400,4.831058349609375,-0.5996551513671875,-1.53167724609375,0.1333465576171875
1761379877018114300,4.8411142578125,-0.463836669921875,-1.3586273193359375,0.0184173583984375
1761379877028169500,4.85116943359375,-0.287750244140625,-1.160858154296875,-0.0176239013671875
1761379877038225400,4.861225341796875,-0.133270263671875,-0.9566802978515625,-0.011199951171875
1761379877048280300,4.8712802734375,-0.01190185546875,-0.7579193115234375,0.0285186767578125
1761379877058335200,4.881335205078125,0.0706939697265625,-0.5841827392578125,0.04937744140625
1761379877068391400,4.891391357421875,0.0652923583984375,-0.4587554931640625,0.010894775390625
1761379877078446300,4.9014462890625,0.0180206298828125,-0.40283203125,-0.0727081298828125
1761379877088502500,4.91150244140625,-0.0109710693359375,-0.322967529296875,-0.122039794921875
1761379877098557200,4.92155712890625,-0.1118316650390625,-0.200836181640625,-0.076324462890625
1761379877108612400,4.9316123046875,-0.2238006591796875,-0.0852203369140625,0.0206298828125
1761379877118668300,4.941668212890625,-0.315704345703125,0.0462493896484375,0.1297454833984375
1761379877128723500,4.951723388671875,-0.3635711669921875,0.132720947265625,0.211669921875
1761379877138779400,4.961779296875,-0.285552978515625,0.137847900390625,0.197174072265625
1761379877148834300,4.971834228515625,-0.0964813232421875,0.1296844482421875,0.1077423095703125
1761379877158889200,4.98188916015625,0.08074951171875,0.143798828125,0.01690673828125
1761379877168945400,4.9919453125,0.212432861328125,0.173370361328125,-0.033721923828125
1761379877179000300,5.002000244140625,0.2850494384765625,0.1807403564453125,-0.0764923095703125
1761379877189055200,5.01205517578125,0.3359527587890625,0.186676025390625,-0.1243438720703125
1761379877199111200,5.022111083984375,0.382659912109375,0.2098846435546875,-0.1143341064453125
1761379877209166300,5.032166259765625,0.367584228515625,0.2186431884765625,-0.0513458251953125
1761379877219222300,5.04222216796875,0.3250885009765625,0.245758056640625,0.0253753662109375
1761379877229277400,5.05227734375,0.28533935546875,0.2918701171875,0.0959930419921875
1761379877239332400,5.062332275390625,0.2482147216796875,0.30267333984375,0.1175994873046875
1761379877249388300,5.07238818359375,0.220489501953125,0.3298187255859375,0.08251953125
1761379877259443200,5.082443115234375,0.223541259765625,0.39324951171875,0.0216217041015625
1761379877269499400,5.09249951171875,0.2257080078125,0.4460906982421875,-0.03912353515625
1761379877279554300,5.10255419921875,0.2487030029296875,0.4594268798828125,-0.0691680908203125
1761379877289609500,5.112609375,0.2889404296875,0.4404296875,-0.060394287109375
1761379877299665200,5.1226650390625,0.316009521484375,0.399810791015625,-0.040863037109375
1761379877309720300,5.13272021484375,0.30389404296875,0.3734130859375,-0.013458251953125
1761379877319776300,5.1427763671875,0.26531982421875,0.36767578125,-0.0051422119140625
1761379877329831400,5.15283154296875,0.2130889892578125,0.3519744873046875,-0.0146942138671875
1761379877339886300,5.16288623046875,0.1500091552734375,0.3142242431640625,-0.038360595703125
1761379877349942300,5.1729423828125,0.121124267578125,0.22833251953125,-0.083251953125
1761379877359997200,5.1829970703125,0.111480712890625,0.10662841796875,-0.0856781005859375
1761379877370053400,5.193053466796875,-0.0216217041015625,-0.036651611328125,-0.053863525390625
1761379877380108300,5.2031083984375,-0.192230224609375,-0.2137908935546875,-0.0177154541015625
1761379877390163500,5.21316357421875,-0.28173828125,-0.43731689453125,0.0094757080078125
1761379877400219100,5.22321923828125,-0.3268585205078125,-0.665313720703125,0.022674560546875
1761379877410274300,5.2332744140625,-0.3217010498046875,-0.93389892578125,0.061309814453125
1761379877420330200,5.243330322265625,-0.3172149658203125,-1.2264404296875,0.054351806640625
1761379877430385400,5.253385498046875,-0.3778076171875,-1.411285400390625,0.000091552734375
1761379877440440300,5.2634404296875,-0.5792694091796875,-1.57965087890625,-0.07977294921875
1761379877450496500,5.27349658203125,-0.82373046875,-1.741180419921875,-0.186553955078125
1761379877460551200,5.28355126953125,-1.1132049560546875,-1.8184051513671875,-0.25347900390625
1761379877470607400,5.293607421875,-1.3600921630859375,-1.8344573974609375,-0.17803955078125
1761379877480662300,5.303662353515625,-1.328277587890625,-1.938232421875,0.11907958984375
1761379877490717400,5.313717529296875,-1.3150634765625,-2.19061279296875,0.494659423828125
1761379877500773400,5.3237734375,-1.3544921875,-2.39825439453125,0.679107666015625
1761379877510828300,5.333828369140625,-1.4290924072265625,-2.478851318359375,0.5664825439453125
1761379877520883200,5.34388330078125,-1.6915130615234375,-2.5959320068359375,0.3119659423828125
1761379877530939400,5.353939453125,-1.962310791015625,-2.678619384765625,0.025970458984375
1761379877540994300,5.363994384765625,-2.1068572998046875,-2.6415557861328125,-0.2521820068359375
1761379877551050500,5.374050537109375,-2.027435302734375,-2.594207763671875,-0.3502044677734375
1761379877561105400,5.38410546875,-1.841064453125,-2.6617889404296875,-0.195556640625
1761379877571160300,5.394160400390625,-1.798126220703125,-2.7518310546875,0.146942138671875
1761379877581216300,5.40421630859375,-1.808380126953125,-2.78033447265625,0.5085296630859375
1761379877591271400,5.414271484375,-1.7544097900390625,-2.6776275634765625,0.6316375732421875
1761379877601327400,5.424327392578125,-1.615966796875,-2.5145111083984375,0.4898834228515625
1761379877611382500,5.434382568359375,-1.4369049072265625,-2.3128204345703125,0.2582550048828125
1761379877621437200,5.444437255859375,-1.1807403564453125,-2.0230560302734375,0.0558929443359375
1761379877631493400,5.454493408203125,-0.8988037109375,-1.73602294921875,-0.07318115234375
1761379877641548300,5.46454833984375,-0.6270904541015625,-1.515167236328125,-0.1450653076171875
1761379877651604500,5.4746044921875,-0.380706787109375,-1.3575439453125,-0.1631317138671875
1761379877661659400,5.484659423828125,-0.2082061767578125,-1.250152587890625,-0.156280517578125
1761379877671714300,5.49471435546875,-0.1541595458984375,-1.165924072265625,-0.1203765869140625
1761379877681770200,5.504770263671875,-0.1730194091796875,-1.11602783203125,-0.0628204345703125
1761379877691825400,5.514825439453125,-0.2343597412109375,-1.04254150390625,0.01495361328125
1761379877701881300,5.52488134765625,-0.27947998046875,-0.943145751953125,0.0939178466796875
1761379877711936500,5.5349365234375,-0.3592681884765625,-0.829925537109375,0.170501708984375
1761379877721991400,5.544991455078125,-0.403839111328125,-0.678253173828125,0.2201080322265625
1761379877732047400,5.55504736328125,-0.417510986328125,-0.4831390380859375,0.2309417724609375
1761379877742102300,5.565102294921875,-0.3675384521484375,-0.29156494140625,0.215789794921875
1761379877752158500,5.575158447265625,-0.2722320556640625,-0.1089324951171875,0.1646575927734375
1761379877762213400,5.58521337890625,-0.1527252197265625,0.0410919189453125,0.0926513671875
1761379877772268300,5.595268310546875,-0.0408172607421875,0.092529296875,-0.0041961669921875
1761379877782324200,5.60532421875,0.0133819580078125,0.0915679931640625,-0.1083984375
1761379877792379400,5.61537939453125,0.0038909912109375,0.076934814453125,-0.1399993896484375
1761379877802435300,5.625435302734375,-0.042510986328125,0.0891265869140625,-0.080322265625
1761379877812490500,5.635490478515625,-0.12957763671875,0.1167449951171875,0.013153076171875
1761379877822545400,5.64554541015625,-0.145599365234375,0.141021728515625,0.09381103515625
1761379877832601300,5.655601318359375,-0.103729248046875,0.1275634765625,0.1166839599609375
1761379877842656300,5.66565625,-0.06365966796875,0.088897705078125,0.11016845703125
1761379877852712400,5.67571240234375,0.0357818603515625,0.06396484375,0.1036529541015625
1761379877862767400,5.685767333984375,0.1915435791015625,0.074432373046875,0.067626953125
1761379877872822300,5.695822265625,0.319610595703125,0.11199951171875,0.023162841796875
1761379877882878200,5.705878173828125,0.4315643310546875,0.1840667724609375,-0.0246734619140625
1761379877892933400,5.715933349609375,0.5061492919921875,0.2793121337890625,-0.083160400390625
1761379877902989300,5.7259892578125,0.5268096923828125,0.363189697265625,-0.1306915283203125
1761379877913044500,5.73604443359375,0.5122528076171875,0.44293212890625,-0.11224365234375
1761379877923099400,5.746099365234375,0.43804931640625,0.4912261962890625,-0.0621490478515625
1761379877933155300,5.7561552734375,0.3592071533203125,0.4878997802734375,-0.024383544921875
1761379877943210200,5.766210205078125,0.273406982421875,0.4385833740234375,-0.01483154296875
1761379877953266400,5.776266357421875,0.201416015625,0.433197021484375,-0.0440826416015625
1761379877963321300,5.7863212890625,0.2321929931640625,0.40887451171875,-0.0948944091796875
1761379877973376500,5.79637646484375,0.2061920166015625,0.295745849609375,-0.1380615234375
1761379877983432200,5.80643212890625,0.171173095703125,0.1770172119140625,-0.1584625244140625
1761379877993487400,5.8164873046875,0.1929168701171875,0.1249847412109375,-0.14691162109375
1761379878003543300,5.826543212890625,0.1271209716796875,0.0662994384765625,-0.127899169921875
1761379878013598500,5.836598388671875,0.0180816650390625,-0.08782958984375,-0.085357666015625
1761379878023653600,5.846653564453125,-0.1079254150390625,-0.2850189208984375,-0.0059661865234375
1761379878033709300,5.856709228515625,-0.216949462890625,-0.4664764404296875,0.0364990234375
1761379878043764500,5.866764404296875,-0.268341064453125,-0.692352294921875,0.013763427734375
1761379878053820400,5.8768203125,-0.279144287109375,-0.9224395751953125,-0.0566864013671875
1761379878063875300,5.886875244140625,-0.334930419921875,-1.14044189453125,-0.1256103515625
1761379878073930500,5.896930419921875,-0.3455657958984375,-1.3917083740234375,-0.10748291015625
1761379878083986400,5.906986328125,-0.4357147216796875,-1.6063232421875,0.013702392578125
1761379878094041300,5.917041259765625,-0.6580810546875,-1.7626953125,0.10870361328125
1761379878104097300,5.92709716796875,-0.7442169189453125,-1.9472198486328125,0.061431884765625
1761379878114152400,5.93715234375,-0.795623779296875,-2.04742431640625,-0.1327362060546875
1761379878124207600,5.94720751953125,-0.8715362548828125,-1.9888153076171875,-0.2103118896484375
1761379878134263600,5.957263671875,-0.960723876953125,-2.056854248046875,-0.0109710693359375
1761379878144318500,5.967318359375,-1.0379180908203125,-2.203826904296875,0.21502685546875
1761379878154374400,5.97737451171875,-1.085601806640625,-2.264556884765625,0.312347412109375
1761379878164429300,5.98742919921875,-1.2227630615234375,-2.3241119384765625,0.2021636962890625
1761379878174485500,5.997485595703125,-1.466461181640625,-2.4300384521484375,-0.0251617431640625
1761379878184540400,6.00754052734375,-1.735931396484375,-2.536346435546875,-0.2100067138671875
1761379878194595300,6.01759521484375,-1.9174346923828125,-2.6566009521484375,-0.2631683349609375
1761379878204651300,6.0276513671875,-2.0609283447265625,-2.79058837890625,-0.129547119140625
1761379878214706400,6.03770654296875,-2.0999603271484375,-2.9002532958984375,0.1520233154296875
1761379878224762400,6.047762451171875,-2.05255126953125,-2.99951171875,0.407928466796875
1761379878234817500,6.057817626953125,-1.9381866455078125,-3.0120086669921875,0.4830322265625
1761379878244872400,6.06787255859375,-1.7180633544921875,-2.8435516357421875,0.39422607421875
1761379878254928400,6.077928466796875,-1.3792266845703125,-2.6192169189453125,0.2100677490234375
1761379878264983300,6.0879833984375,-1.005279541015625,-2.322998046875,-0.0063018798828125
1761379878275039500,6.09803955078125,-0.7177581787109375,-2.0519256591796875,-0.256103515625
1761379878285094400,6.108094482421875,-0.4712371826171875,-1.7687530517578125,-0.3816680908203125
1761379878295149300,6.1181494140625,-0.26348876953125,-1.46966552734375,-0.369110107421875
1761379878305205200,6.128205322265625,-0.214569091796875,-1.23529052734375,-0.2909393310546875
1761379878315260400,6.138260498046875,-0.2475128173828125,-1.0278778076171875,-0.1732025146484375
1761379878325316400,6.14831640625,-0.3217926025390625,-0.786712646484375,-0.0225372314453125
1761379878335371500,6.15837158203125,-0.483551025390625,-0.5946807861328125,0.1712188720703125
1761379878345426400,6.168426513671875,-0.6944427490234375,-0.561126708984375,0.3579864501953125
1761379878355482400,6.178482421875,-0.7884063720703125,-0.5748291015625,0.467254638671875
1761379878365537300,6.188537353515625,-0.8239593505859375,-0.4952239990234375,0.429595947265625
1761379878375593500,6.198593505859375,-0.7464752197265625,-0.367156982421875,0.3042449951171875
1761379878385648400,6.2086484375,-0.6054840087890625,-0.2251739501953125,0.1322021484375
1761379878395703300,6.218703369140625,-0.3878631591796875,-0.022186279296875,-0.0665283203125
1761379878405759200,6.22875927734375,-0.2232208251953125,0.16143798828125,-0.2520294189453125
1761379878415814400,6.238814453125,-0.13079833984375,0.19891357421875,-0.3341827392578125
1761379878425870300,6.248870361328125,-0.0549468994140625,0.1551055908203125,-0.273773193359375
1761379878435925500,6.258925537109375,0.008087158203125,0.1165313720703125,-0.1407318115234375
1761379878445980400,6.26898046875,0.0306854248046875,0.0471649169921875,-0.030426025390625
1761379878456036400,6.279036376953125,0.063446044921875,-0.0017852783203125,0.0113067626953125
1761379878466091500,6.289091552734375,0.1404876708984375,0.041717529296875,0.005706787109375
1761379878476147500,6.2991474609375,0.2273101806640625,0.1165924072265625,-0.0284423828125
1761379878486202400,6.309202392578125,0.311798095703125,0.2172393798828125,-0.0516815185546875
1761379878496257300,6.31925732421875,0.3925628662109375,0.3035125732421875,-0.0463104248046875
1761379878506313200,6.329313232421875,0.46844482421875,0.3653106689453125,-0.016693115234375
1761379878516368400,6.339368408203125,0.52838134765625,0.4239959716796875,0.009246826171875
1761379878526424300,6.34942431640625,0.6070404052734375,0.497589111328125,0.0240020751953125
1761379878536479500,6.3594794921875,0.6450347900390625,0.551239013671875,0.0092010498046875
1761379878546534400,6.369534423828125,0.6104888916015625,0.5660400390625,-0.0143280029296875
1761379878556590300,6.37959033203125,0.5328521728515625,0.578643798828125,-0.0111541748046875
1761379878566645500,6.3896455078125,0.4716339111328125,0.578857421875,0.008209228515625
1761379878576701700,6.39970166015625,0.43896484375,0.554107666015625,0.0178375244140625
1761379878586756400,6.40975634765625,0.3591156005859375,0.4972686767578125,-0.0003509521484375
1761379878596812500,6.4198125,0.273956298828125,0.424560546875,-0.020782470703125
1761379878606867500,6.429867431640625,0.189453125,0.3778076171875,-0.035858154296875
1761379878616922600,6.439922607421875,0.1013336181640625,0.32171630859375,-0.027496337890625
1761379878626978600,6.449978515625,0.0349578857421875,0.23919677734375,0.0042266845703125
1761379878637033500,6.460033447265625,-0.0282440185546875,0.1275787353515625,0.0249786376953125
1761379878647089400,6.47008935546875,-0.1338348388671875,-0.036651611328125,0.0105133056640625
1761379878657144600,6.48014453125,-0.188812255859375,-0.228759765625,-0.0675506591796875
1761379878667199500,6.490199462890625,-0.1207733154296875,-0.4520721435546875,-0.1550140380859375
1761379878677255700,6.500255615234375,0.0693206787109375,-0.7587890625,-0.1200714111328125
1761379878687310300,6.510310302734375,0.1743316650390625,-1.0878143310546875,0.07257080078125
1761379878697366500,6.520366455078125,0.065887451171875,-1.34149169921875,0.2847137451171875
1761379878707421400,6.53042138671875,-0.292938232421875,-1.4822998046875,0.42803955078125
1761379878717476600,6.5404765625,-0.7497711181640625,-1.625,0.4198150634765625
1761379878727532500,6.550532470703125,-1.1222381591796875,-1.860595703125,0.26971435546875
1761379878737587500,6.56058740234375,-1.3049163818359375,-2.103271484375,0.1590728759765625
1761379878747643400,6.570643310546875,-1.10211181640625,-2.1280517578125,0.17462158203125
1761379878757698600,6.580698486328125,-0.79052734375,-2.0962371826171875,0.36492919921875
1761379878767754500,6.59075439453125,-0.787078857421875,-2.2644805908203125,0.58660888671875
1761379878777809700,6.6008095703125,-0.8785247802734375,-2.4059600830078125,0.5472564697265625
1761379878787864300,6.6108642578125,-1.041839599609375,-2.4741973876953125,0.239776611328125
1761379878797920500,6.62092041015625,-1.4638824462890625,-2.6724395751953125,-0.0865478515625
1761379878807975400,6.630975341796875,-2.0013885498046875,-2.9098663330078125,-0.280670166015625
1761379878818031600,6.641031494140625,-2.3154449462890625,-2.9772796630859375,-0.3038482666015625
1761379878828086500,6.65108642578125,-2.416229248046875,-2.953338623046875,-0.0721588134765625
1761379878838141400,6.661141357421875,-2.421539306640625,-3.0469970703125,0.27490234375
1761379878848197400,6.671197265625,-2.25164794921875,-3.03070068359375,0.5249176025390625
1761379878858252500,6.68125244140625,-1.8735198974609375,-2.8114471435546875,0.5959320068359375
1761379878868308500,6.69130859375,-1.4726409912109375,-2.5243682861328125,0.5206756591796875
1761379878878363600,6.70136376953125,-1.1715087890625,-2.2577667236328125,0.426910400390625
1761379878888418600,6.71141845703125,-0.926666259765625,-2.0145721435546875,0.3023681640625
1761379878898474500,6.721474609375,-0.7173309326171875,-1.7949981689453125,0.1093597412109375
1761379878908529400,6.731529296875,-0.5387115478515625,-1.6429443359375,-0.0857696533203125
1761379878918585600,6.741585693359375,-0.4796905517578125,-1.54327392578125,-0.1876983642578125
1761379878928640500,6.751640625,-0.6061248779296875,-1.486480712890625,-0.1457061767578125
1761379878938695400,6.7616953125,-0.7520599365234375,-1.3802642822265625,0.00164794921875
1761379878948751400,6.77175146484375,-0.831024169921875,-1.296142578125,0.1920013427734375
1761379878958806500,6.781806640625,-0.80987548828125,-1.235687255859375,0.36871337890625
1761379878968862500,6.791862548828125,-0.678985595703125,-1.076507568359375,0.4575042724609375
1761379878978917600,6.801917724609375,-0.5133514404296875,-0.8177947998046875,0.454498291015625
1761379878988973600,6.8119736328125,-0.31805419921875,-0.54071044921875,0.39581298828125
1761379878999028500,6.822028564453125,-0.15521240234375,-0.2889556884765625,0.2458343505859375
1761379879009083400,6.83208349609375,0.0255126953125,-0.0773468017578125,0.056854248046875
1761379879019139600,6.8421396484375,0.2385711669921875,0.0507659912109375,-0.106201171875
1761379879029194500,6.852194580078125,0.3758392333984375,0.12982177734375,-0.2142181396484375
1761379879039250700,6.862250732421875,0.3928070068359375,0.1973114013671875,-0.212982177734375
1761379879049305300,6.872305419921875,0.3538665771484375,0.244415283203125,-0.1385955810546875
1761379879059360500,6.882360595703125,0.3193206787109375,0.263763427734375,-0.0933990478515625
1761379879069416400,6.89241650390625,0.326446533203125,0.3044281005859375,-0.102264404296875
1761379879079471600,6.9024716796875,0.3095703125,0.307830810546875,-0.109283447265625
1761379879089527600,6.912527587890625,0.2627716064453125,0.270477294921875,-0.088287353515625
1761379879099582500,6.92258251953125,0.221954345703125,0.2303466796875,-0.0456085205078125
1761379879109638400,6.932638427734375,0.1873016357421875,0.1773529052734375,0.00518798828125
1761379879119693600,6.942693603515625,0.181182861328125,0.1349945068359375,0.040313720703125
1761379879129748500,6.95274853515625,0.199798583984375,0.13421630859375,0.0477752685546875
1761379879139804700,6.9628046875,0.2073822021484375,0.1491851806640625,0.042938232421875
1761379879149859300,6.972859375,0.202362060546875,0.1862335205078125,0.02032470703125
1761379879159915500,6.98291552734375,0.201324462890625,0.2626800537109375,0.0001983642578125
1761379879169970400,6.992970458984375,0.1993255615234375,0.3265380859375,-0.0010986328125
1761379879180025600,7.003025634765625,0.181182861328125,0.365936279296875,-0.0189056396484375
1761379879190081500,7.01308154296875,0.158782958984375,0.38348388671875,-0.038543701171875
1761379879200136400,7.023136474609375,0.1229095458984375,0.407073974609375,-0.015350341796875
1761379879210192400,7.0331923828125,0.085418701171875,0.4123382568359375,0.0288238525390625
1761379879220247600,7.04324755859375,0.0778045654296875,0.3704986572265625,0.02386474609375
1761379879230303500,7.053303466796875,0.076904296875,0.32763671875,-0.026123046875
1761379879240358700,7.063358642578125,0.07073974609375,0.2758331298828125,-0.0712432861328125
1761379879250413300,7.073413330078125,0.03546142578125,0.200439453125,-0.0741729736328125
1761379879260469500,7.083469482421875,0.0235137939453125,0.162750244140625,-0.0460357666015625
1761379879270524400,7.0935244140625,0.022674560546875,0.13885498046875,-0.0075531005859375
1761379879280580600,7.10358056640625,-0.0064544677734375,0.0789642333984375,0.0294952392578125
1761379879290635500,7.113635498046875,-0.0531463623046875,0.0224761962890625,0.0469970703125
1761379879300690400,7.1236904296875,-0.028411865234375,-0.06689453125,0.0404052734375
1761379879310746400,7.133746337890625,0.042236328125,-0.3151092529296875,0.021881103515625
1761379879320801500,7.143801513671875,0.113800048828125,-0.684906005859375,-0.016265869140625
1761379879330857500,7.153857421875,0.1444549560546875,-1.0287933349609375,-0.0660858154296875
1761379879340912600,7.16391259765625,0.014495849609375,-1.2010040283203125,-0.1356353759765625
1761379879350968600,7.173968505859375,-0.2630157470703125,-1.2457733154296875,-0.1992950439453125
1761379879361023500,7.1840234375,-0.481414794921875,-1.4029388427734375,-0.1876068115234375
1761379879371078400,7.194078369140625,-0.525543212890625,-1.712646484375,-0.101348876953125
1761379879381134600,7.204134521484375,-0.600830078125,-1.968658447265625,-0.0602874755859375
1761379879391189500,7.214189453125,-0.664794921875,-2.01629638671875,-0.064208984375
1761379879401245700,7.22424560546875,-0.668792724609375,-1.9271697998046875,0.0678253173828125
1761379879411300400,7.23430029296875,-0.75592041015625,-1.978179931640625,0.2813262939453125
1761379879421355500,7.24435546875,-0.8729095458984375,-2.1118621826171875,0.352508544921875
1761379879431411500,7.254411376953125,-1.060333251953125,-2.2343292236328125,0.273193359375
1761379879441466600,7.264466552734375,-1.38385009765625,-2.445770263671875,0.185455322265625
1761379879451522600,7.2745224609375,-1.80291748046875,-2.64190673828125,0.073272705078125
1761379879461577500,7.284577392578125,-2.1020050048828125,-2.7867431640625,-0.048675537109375
1761379879471633400,7.29463330078125,-2.155303955078125,-2.86212158203125,-0.12908935546875
1761379879481688600,7.3046884765625,-2.0507049560546875,-2.8584442138671875,-0.03515625
1761379879491743500,7.314743408203125,-1.9895172119140625,-2.8049468994140625,0.1594085693359375
1761379879501799700,7.324799560546875,-1.7823486328125,-2.744537353515625,0.3314361572265625
1761379879511854300,7.334854248046875,-1.5401153564453125,-2.641326904296875,0.453155517578125
1761379879521910500,7.34491064453125,-1.3692779541015625,-2.4842681884765625,0.4507904052734375
1761379879531965400,7.35496533203125,-1.204620361328125,-2.2602081298828125,0.3504180908203125
1761379879542020600,7.3650205078125,-1.03509521484375,-2.04107666015625,0.255828857421875
1761379879552076500,7.37507666015625,-0.9302215576171875,-1.8899688720703125,0.133514404296875
1761379879562132200,7.38513232421875,-0.9156951904296875,-1.7936553955078125,0.044281005859375
1761379879572188200,7.395188232421875,-0.8997955322265625,-1.7278594970703125,0.050140380859375
1761379879582243000,7.4052431640625,-0.9013214111328125,-1.6680450439453125,0.098876953125
1761379879592299000,7.415299072265625,-0.883544921875,-1.5880889892578125,0.1474456787109375
1761379879602354200,7.425354248046875,-0.7374114990234375,-1.431488037109375,0.1471099853515625
1761379879612409000,7.4354091796875,-0.547149658203125,-1.2326507568359375,0.12432861328125
1761379879622465000,7.445465087890625,-0.3722076416015625,-1.1002655029296875,0.0724334716796875
1761379879632520000,7.45552001953125,-0.2241058349609375,-1.057159423828125,0.0492706298828125
1761379879642576000,7.465575927734375,-0.180908203125,-1.011688232421875,0.048858642578125
1761379879652631000,7.475631103515625,-0.177703857421875,-0.8588104248046875,0.1014251708984375
1761379879662687000,7.48568701171875,-0.184173583984375,-0.6526641845703125,0.16064453125
1761379879672742100,7.4957421875,-0.2841796875,-0.497802734375,0.148101806640625
1761379879682797000,7.505797119140625,-0.4576568603515625,-0.3359527587890625,0.096527099609375
1761379879692853000,7.51585302734375,-0.48394775390625,-0.171112060546875,-0.0261993408203125
1761379879702908200,7.525908203125,-0.44134521484375,-0.0571441650390625,-0.15179443359375
1761379879712964000,7.535964111328125,-0.3495330810546875,0.0076904296875,-0.1874542236328125
1761379879723019000,7.54601904296875,-0.153472900390625,0.0579376220703125,-0.1757354736328125
1761379879733074000,7.556073974609375,0.0561370849609375,0.0872344970703125,-0.191253662109375
1761379879743129900,7.5661298828125,0.2407379150390625,0.1474456787109375,-0.17437744140625
1761379879753185000,7.57618505859375,0.336669921875,0.2230224609375,-0.068267822265625
1761379879763241000,7.586240966796875,0.3066864013671875,0.2572784423828125,0.0208740234375
1761379879773296000,7.596296142578125,0.3668365478515625,0.2621002197265625,0.08209228515625
1761379879783352000,7.60635205078125,0.4144439697265625,0.2148895263671875,0.098480224609375
1761379879793407000,7.616406982421875,0.4080810546875,0.1677398681640625,0.08154296875
1761379879803463000,7.626462890625,0.372314453125,0.167633056640625,0.027252197265625
1761379879813518000,7.63651806640625,0.5750885009765625,0.2388153076171875,-0.0896148681640625
1761379879823573000,7.646572998046875,0.136627197265625,0.20263671875,-0.0449676513671875
1761379879833629200,7.656629150390625,0.0336151123046875,0.0958251953125,0.026153564453125
1761379879843683800,7.666683837890625,0.19622802734375,0.1798248291015625,0.0126190185546875
1761379879853740000,7.676739990234375,0.06756591796875,0.2362060546875,-0.006378173828125
1761379879863795000,7.686794921875,0.050933837890625,0.1982879638671875,0.002197265625
1761379879873851100,7.69685107421875,0.1030426025390625,0.159637451171875,0.0181884765625
1761379879883906000,7.706906005859375,0.119171142578125,0.1673583984375,-0.000640869140625
1761379879893961000,7.7169609375,0.142303466796875,0.17791748046875,-0.031158447265625
1761379879904017000,7.727016845703125,0.1745758056640625,0.141021728515625,-0.0501556396484375
1761379879914072000,7.737072021484375,0.2216949462890625,0.080230712890625,-0.0691375732421875
1761379879924128000,7.7471279296875,0.2147216796875,0.0142364501953125,-0.086700439453125
1761379879934183200,7.75718310546875,0.1324005126953125,-0.107177734375,-0.0649261474609375
1761379879944239000,7.767239013671875,0.01348876953125,-0.2490386962890625,-0.0014190673828125
1761379879954294000,7.7772939453125,-0.1243896484375,-0.409423828125,0.060516357421875
1761379879964349000,7.787348876953125,-0.199554443359375,-0.64251708984375,0.11981201171875
1761379879974405000,7.797405029296875,-0.1792144775390625,-0.919891357421875,0.1797943115234375
1761379879984460000,7.8074599609375,-0.174468994140625,-1.17095947265625,0.2070159912109375
1761379879994516200,7.81751611328125,-0.2813873291015625,-1.2516021728515625,0.1274261474609375
1761379880004571000,7.82757080078125,-0.4997711181640625,-1.146026611328125,-0.06427001953125
1761379880014627000,7.837626953125,-0.7532806396484375,-1.160888671875,-0.2048797607421875
1761379880024682000,7.847681884765625,-1.030303955078125,-1.429107666015625,-0.2042694091796875
1761379880034737200,7.857737060546875,-0.940673828125,-1.6826171875,-0.1727447509765625
1761379880044793000,7.86779296875,-0.7469024658203125,-1.5669708251953125,-0.1407470703125
1761379880054848000,7.877847900390625,-0.6763916015625,-1.34881591796875,0.026580810546875
1761379880064904000,7.887904052734375,-0.6425628662109375,-1.4402618408203125,0.25933837890625
1761379880074959000,7.897958984375,-0.6823577880859375,-1.663665771484375,0.3430938720703125
1761379880085015000,7.90801513671875,-0.8724212646484375,-1.7280426025390625,0.31170654296875
1761379880095070200,7.9180703125,-1.1257171630859375,-1.73040771484375,0.25457763671875
1761379880105124900,7.928124755859375,-1.27252197265625,-1.7510223388671875,0.1964874267578125
1761379880115181000,7.93818115234375,-1.3958587646484375,-1.6746368408203125,0.0895843505859375
1761379880125236000,7.948236083984375,-1.47332763671875,-1.5523529052734375,-0.0074920654296875
1761379880135292200,7.958292236328125,-1.383026123046875,-1.506195068359375,-0.0590972900390625
1761379880145347000,7.96834716796875,-1.201934814453125,-1.4954376220703125,-0.0610504150390625
1761379880155403300,7.9784033203125,-1.046417236328125,-1.478271484375,-0.031463623046875
1761379880165458000,7.9884580078125,-0.8857574462890625,-1.486328125,0.0159912109375
1761379880175512000,7.998511962890625,-0.774932861328125,-1.4920196533203125,0.055389404296875
1761379880185568000,8.008568115234375,-0.7246551513671875,-1.4993896484375,0.0694732666015625
1761379880195623000,8.018622802734376,-0.71038818359375,-1.472808837890625,0.0963897705078125
1761379880205678800,8.028678955078124,-0.720916748046875,-1.40948486328125,0.0995025634765625
1761379880215734000,8.038734130859375,-0.722381591796875,-1.304046630859375,0.073944091796875
1761379880225790000,8.0487900390625,-0.68017578125,-1.17108154296875,0.060394287109375
1761379880235845000,8.05884521484375,-0.625335693359375,-1.044403076171875,0.0602874755859375
1761379880245900000,8.068900146484374,-0.5278167724609375,-0.9462432861328125,0.0482025146484375
1761379880255956000,8.0789560546875,-0.4383087158203125,-0.8936920166015625,0.0208587646484375
1761379880266011000,8.089010986328125,-0.36993408203125,-0.880584716796875,-0.005218505859375
1761379880276067000,8.099067138671876,-0.35986328125,-0.8771514892578125,-0.0128631591796875
1761379880286122000,8.1091220703125,-0.38677978515625,-0.8560638427734375,-0.0120391845703125
1761379880296178200,8.11917822265625,-0.441650390625,-0.831939697265625,0.0030364990234375
1761379880306232800,8.12923291015625,-0.5064849853515625,-0.819061279296875,0.0446014404296875
1761379880316288000,8.1392880859375,-0.5489044189453125,-0.80877685546875,0.0701751708984375
1761379880326344000,8.149343994140626,-0.565032958984375,-0.7832183837890625,0.07415771484375
1761379880336399000,8.159399169921874,-0.5443267822265625,-0.76123046875,0.0694427490234375
1761379880346455000,8.169455078125,-0.51055908203125,-0.7447357177734375,0.05645751953125
1761379880356510000,8.179510009765625,-0.4671173095703125,-0.738739013671875,0.04205322265625
1761379880366566000,8.18956591796875,-0.41900634765625,-0.7360687255859375,0.03240966796875
1761379880376621000,8.19962109375,-0.3942718505859375,-0.728515625,0.02764892578125
1761379880386676000,8.209676025390625,-0.3895721435546875,-0.723297119140625,0.02001953125
1761379880396732200,8.219732177734375,-0.3854827880859375,-0.7127838134765625,0.0109100341796875
1761379880406786800,8.229786865234376,-0.3804931640625,-0.71112060546875,0.0107269287109375
1761379880416843000,8.239843017578124,-0.370513916015625,-0.7198638916015625,0.010955810546875
1761379880426898000,8.24989794921875,-0.37518310546875,-0.724639892578125,0.0193023681640625
1761379880436954000,8.2599541015625,-0.383209228515625,-0.73187255859375,0.0293426513671875
1761379880447009000,8.270009033203126,-0.3767242431640625,-0.743560791015625,0.0412445068359375
1761379880457065200,8.280065185546874,-0.365631103515625,-0.7616729736328125,0.0464630126953125
1761379880467119900,8.290119873046875,-0.3701171875,-0.7951812744140625,0.04315185546875
1761379880477175000,8.300175048828125,-0.3722686767578125,-0.80999755859375,0.0399017333984375
1761379880487231000,8.31023095703125,-0.388275146484375,-0.7938385009765625,0.048553466796875
1761379880497286100,8.3202861328125,-0.416046142578125,-0.7625885009765625,0.0686187744140625
1761379880507342000,8.330342041015625,-0.4599609375,-0.730804443359375,0.089813232421875
1761379880517397000,8.34039697265625,-0.49151611328125,-0.7067718505859375,0.106689453125
1761379880527453000,8.350452880859375,-0.5160675048828125,-0.703582763671875,0.1175994873046875
1761379880537508000,8.360508056640626,-0.5272979736328125,-0.7128448486328125,0.1175079345703125
1761379880547563000,8.37056298828125,-0.5196075439453125,-0.7275543212890625,0.1107177734375
1761379880557619200,8.380619140625,-0.5031585693359375,-0.7346649169921875,0.1106719970703125
1761379880567673300,8.39067333984375,-0.5061187744140625,-0.74188232421875,0.1146392822265625
1761379880577729500,8.4007294921875,-0.505889892578125,-0.7558135986328125,0.1182098388671875
1761379880587784200,8.4107841796875,-0.5287628173828125,-0.7681427001953125,0.11773681640625
1761379880597840400,8.42084033203125,-0.53289794921875,-0.7731475830078125,0.1118316650390625
1761379880607895300,8.430895263671875,-0.5235443115234375,-0.7754669189453125,0.095947265625
1761379880617951500,8.440951416015626,-0.52301025390625,-0.7837677001953125,0.0717010498046875
1761379880628006400,8.45100634765625,-0.5159912109375,-0.8021392822265625,0.0541534423828125
1761379880638061300,8.461061279296874,-0.523223876953125,-0.823883056640625,0.0443267822265625
1761379880648117200,8.4711171875,-0.562042236328125,-0.8453826904296875,0.028076171875
1761379880658172400,8.48117236328125,-0.5803375244140625,-0.8403778076171875,0.020904541015625
1761379880668228400,8.491228271484376,-0.5886077880859375,-0.82196044921875,0.019317626953125
1761379880678283500,8.501283447265624,-0.6124267578125,-0.8061065673828125,0.0283203125
1761379880688339500,8.51133935546875,-0.624237060546875,-0.79864501953125,0.0485382080078125
1761379880698394400,8.521394287109375,-0.5999755859375,-0.8096771240234375,0.0568084716796875
1761379880708449300,8.53144921875,-0.5417022705078125,-0.837890625,0.043975830078125
1761379880718505500,8.54150537109375,-0.5071563720703125,-0.86553955078125,0.0361328125
1761379880728560400,8.551560302734375,-0.498779296875,-0.875762939453125,0.0441741943359375
1761379880738616600,8.561616455078125,-0.500274658203125,-0.8654632568359375,0.060791015625
1761379880748671200,8.571671142578126,-0.5006103515625,-0.8426055908203125,0.0685577392578125
1761379880758727400,8.5817275390625,-0.5129241943359375,-0.821746826171875,0.0790863037109375
1761379880768782300,8.5917822265625,-0.546142578125,-0.820892333984375,0.0852813720703125
1761379880778837500,8.60183740234375,-0.582183837890625,-0.83154296875,0.091583251953125
1761379880788893400,8.6118935546875,-0.5829315185546875,-0.8494873046875,0.08203125
1761379880798948400,8.6219482421875,-0.5633697509765625,-0.8409881591796875,0.0696563720703125
1761379880809004300,8.63200439453125,-0.4977569580078125,-0.7800140380859375,0.0836639404296875
1761379880819059500,8.6420595703125,-0.610870361328125,-0.7974090576171875,0.10479736328125
1761379880829115400,8.652115478515626,-0.6186676025390625,-0.8416290283203125,0.1373443603515625
1761379880839170600,8.662170654296874,-0.6115264892578125,-0.8783416748046875,0.169891357421875
1761379880849226500,8.6722265625,-0.5959930419921875,-0.8763275146484375,0.1382598876953125
1761379880859281400,8.682281494140625,-0.5796356201171875,-0.854095458984375,0.103057861328125
1761379880869336300,8.69233642578125,-0.5277099609375,-0.8480072021484375,0.0763397216796875
1761379880879392500,8.702392578125,-0.479705810546875,-0.835205078125,0.05267333984375
1761379880889447400,8.712447509765624,-0.4684600830078125,-0.82025146484375,0.0639495849609375
1761379880899503400,8.72250341796875,-0.45733642578125,-0.8501129150390625,0.0475616455078125
