time,seconds_elapsed,z,y,x
1761379872241824300,0.06482421875,-0.05283099040389061,-0.2953152656555176,0.8888744711875916
1761379872251879000,0.07487890625,-0.11374467611312866,-0.3031153976917267,1.017723560333252
1761379872261935000,0.08493505859375,-0.21004937589168549,-0.20803602039813995,1.0075933933258057
1761379872271990000,0.094989990234375,-0.28669941425323486,0.03827068954706192,0.8360629081726074
1761379872282045200,0.105045166015625,-0.30254602432250977,0.42917346954345703,0.6108729839324951
1761379872292099800,0.115099853515625,-0.2798404395580292,0.71197509765625,0.48941683769226074
1761379872302156000,0.125156005859375,-0.26058152318000793,0.6927443742752075,0.5308982133865356
1761379872312211000,0.1352109375,-0.2606414556503296,0.3598434031009674,0.672454833984375
1761379872322266000,0.14526611328125,-0.2074330896139145,-0.1929769068956375,0.7889785170555115
1761379872332322000,0.155322021484375,-0.10993635654449463,-0.6036563515663147,0.7585654854774475
1761379872342377200,0.165377197265625,-0.029693713411688805,-0.6567379236221313,0.6458953619003296
1761379872352432000,0.17543212890625,0.0756545439362526,-0.35888999700546265,0.547461748123169
1761379872362488000,0.185488037109375,0.1169455274939537,-0.11711543798446655,0.38933417201042175
1761379872372543000,0.19554296875,0.05380171164870262,0.2314412146806717,0.07016444206237793
1761379872382598100,0.20559814453125,-0.09691110253334045,0.7244938015937805,-0.4237731099128723
1761379872392654000,0.215654052734375,-0.2561721205711365,1.0672413110733032,-0.7857880592346191
1761379872402709000,0.225708984375,-0.3478708863258362,1.0770702362060547,-0.7300108075141907
1761379872412764200,0.23576416015625,-0.2750137150287628,0.7793695330619812,-0.35884469747543335
1761379872422820000,0.245820068359375,-0.2953821122646332,0.6466911435127258,0.09004946798086166
1761379872432875300,0.255875244140625,-0.3186323046684265,0.5900757908821106,0.5041917562484741
1761379872442930000,0.265929931640625,-0.2168409675359726,0.44048604369163513,0.747316837310791
1761379872452985000,0.275985107421875,-0.04803996533155441,-0.19352206587791443,0.953548014163971
1761379872463041000,0.286041015625,0.22630290687084198,-0.5972998738288879,1.3180875778198242
1761379872473096200,0.29609619140625,0.6285315752029419,-0.8349758386611938,1.6082267761230469
1761379872483150800,0.30615087890625,0.9390612244606018,-0.5039560794830322,1.645281434059143
1761379872493207000,0.31620703125,0.9320906400680542,0.21343718469142914,1.4088712930679321
1761379872503262000,0.326261962890625,0.7522892355918884,0.7493898272514343,1.0092661380767822
1761379872513317000,0.336317138671875,0.5357598066329956,1.1463078260421753,0.49437564611434937
1761379872523373000,0.346373046875,0.30409011244773865,1.3303927183151245,-0.17206203937530518
1761379872533428000,0.356427978515625,0.03516517952084541,1.141847848892212,-0.8600915670394897
1761379872543483100,0.366483154296875,-0.15707510709762573,0.6328232884407043,-1.2140765190124512
1761379872553538300,0.376538330078125,-0.24696823954582214,0.20097652077674866,-1.075928807258606
1761379872563593500,0.386593505859375,-0.2595173120498657,-0.22249779105186462,-0.6520131826400757
1761379872573648400,0.3966484375,-0.09348787367343903,-0.4972957968711853,-0.12161165475845337
1761379872583704600,0.40670458984375,0.10247710347175598,-0.732827365398407,0.3596210181713104
1761379872593759200,0.41675927734375,0.13285045325756073,-0.8090635538101196,0.48196423053741455
1761379872603814400,0.426814453125,0.07040785253047943,-0.6155366897583008,0.12321833521127701
1761379872613870300,0.436870361328125,0.013635917566716671,-0.36526691913604736,-0.4652518332004547
1761379872623925500,0.446925537109375,0.027728566899895668,-0.17402079701423645,-0.9255174398422241
1761379872633980400,0.45698046875,0.04621196910738945,-0.011696869507431984,-1.0270675420761108
1761379872644035300,0.467035400390625,0.10878666490316391,0.03295688331127167,-0.6992039084434509
1761379872654091300,0.47709130859375,0.045039910823106766,0.034638937562704086,-0.014515559189021587
1761379872664146400,0.487146484375,-0.24792218208312988,0.09343221038579941,0.7463367581367493
1761379872674201600,0.49720166015625,-0.4856891930103302,0.46203580498695374,1.3369063138961792
1761379872684257500,0.507257568359375,-0.5491201281547546,0.8902111053466797,1.5202546119689941
1761379872694312400,0.5173125,-0.505840003490448,1.0887151956558228,1.1071999073028564
1761379872704367400,0.527367431640625,-0.3708270788192749,1.0886262655258179,0.3321995139122009
1761379872714423300,0.53742333984375,-0.20170435309410095,0.854921281337738,-0.41392552852630615
1761379872724478500,0.547478515625,-0.02365286462008953,0.5186343789100647,-0.838922381401062
1761379872734533400,0.557533447265625,0.11487012356519699,0.23888182640075684,-0.8089146614074707
1761379872744589300,0.56758935546875,0.15274827182292938,0.05577511340379715,-0.387153297662735
1761379872754644500,0.57764453125,0.10749050974845886,-0.019296731799840927,0.22586189210414886
1761379872764699400,0.587699462890625,0.021043233573436737,-0.10346194356679916,0.7763276696205139
1761379872774755600,0.597755615234375,-0.027951207011938095,-0.09137092530727386,1.0601264238357544
1761379872784810200,0.607810302734375,-0.03404105827212334,-0.045279864221811295,0.9662907123565674
1761379872794865400,0.617865478515625,0.02165123261511326,-0.002858903491869569,0.5148953199386597
1761379872804921300,0.62792138671875,0.13997414708137512,0.0007241134881041944,-0.1421709954738617
1761379872814976500,0.6379765625,0.2944726347923279,-0.18114741146564484,-0.7828319072723389
1761379872825031400,0.648031494140625,0.4283606708049774,-0.3137352764606476,-1.2422759532928467
1761379872835087400,0.65808740234375,0.4727451801300049,-0.2818005383014679,-1.4709501266479492
1761379872845142300,0.668142333984375,0.3999820351600647,-0.13345792889595032,-1.4550385475158691
1761379872855197400,0.678197509765625,0.26524418592453003,0.07189682871103287,-1.2556631565093994
1761379872865253400,0.68825341796875,0.126010924577713,0.294942170381546,-1.0015078783035278
1761379872875308500,0.69830859375,-0.03009292110800743,0.5035393238067627,-0.7351741194725037
1761379872885363500,0.708363525390625,-0.2627887427806854,0.5558707118034363,-0.4972659647464752
1761379872895419400,0.71841943359375,-0.5479879975318909,0.4016779363155365,-0.3172663748264313
1761379872905474300,0.728474365234375,-0.7131308913230896,0.25740811228752136,-0.24238839745521545
1761379872915529500,0.738529541015625,-0.7230996489524841,0.16046370565891266,-0.36526453495025635
1761379872925585400,0.74858544921875,-0.6350259780883789,0.13115322589874268,-0.5421825647354126
1761379872935640300,0.758640380859375,-0.4616304636001587,0.23700322210788727,-0.7303295731544495
1761379872945695500,0.768695556640625,-0.27189889550209045,0.3063705861568451,-0.9220889210700989
1761379872955751400,0.77875146484375,-0.11843983083963394,0.28075069189071655,-0.8790985345840454
1761379872965806600,0.788806640625,0.008390288800001144,0.18582898378372192,-0.4529634714126587
1761379872975861200,0.798861328125,0.14088068902492523,-0.04897313565015793,0.02014894410967827
1761379872985916400,0.80891650390625,0.2893276810646057,-0.4324781894683838,0.11881666630506516
1761379872995972400,0.818972412109375,0.38769474625587463,-0.834070086479187,-0.37855663895606995
1761379873006027500,0.829027587890625,0.3803265690803528,-1.092451572418213,-1.5897623300552368
1761379873016082200,0.839082275390625,0.20335765182971954,-1.1646535396575928,-3.189223527908325
1761379873026138400,0.849138427734375,-0.10390029847621918,-0.7514020800590515,-4.464616775512695
1761379873036193300,0.859193359375,-0.39239227771759033,-0.03225886821746826,-4.576719760894775
1761379873046248400,0.86924853515625,-0.6648797392845154,0.7019461393356323,-2.920815944671631
1761379873056304400,0.879304443359375,-0.7441463470458984,1.0992075204849243,-0.0033222935162484646
1761379873066359600,0.889359619140625,-0.5379428267478943,1.0573068857192993,2.733189582824707
1761379873076414500,0.89941455078125,-0.20910608768463135,0.7534666061401367,3.9950103759765625
1761379873086470400,0.909470458984375,0.05824359878897667,0.5752938985824585,3.6714251041412354
1761379873096525300,0.919525390625,0.2125130593776703,0.48748791217803955,2.5138657093048096
1761379873106580500,0.92958056640625,0.14764618873596191,0.07326728850603104,1.2694453001022339
1761379873116636400,0.939636474609375,-0.0046576024033129215,-0.16938449442386627,0.4575395882129669
1761379873126691300,0.94969140625,-0.12165798991918564,-0.280193567276001,0.07027975469827652
1761379873136746500,0.95974658203125,-0.18434081971645355,-0.4128938317298889,-0.14793646335601807
1761379873146802400,0.969802490234375,-0.1979101449251175,-0.4839903712272644,-0.27506378293037415
1761379873156857600,0.979857666015625,-0.18591393530368805,-0.4416290819644928,-0.2716751992702484
1761379873166912300,0.989912353515625,-0.17117388546466827,-0.22747497260570526,-0.17859157919883728
1761379873176968400,0.999968505859375,-0.1768466830253601,0.18335996568202972,-0.1252836138010025
1761379873187023400,1.0100234375,-0.1933758556842804,0.6625353693962097,-0.21888095140457153
1761379873197078500,1.02007861328125,-0.2496146261692047,0.9485293030738831,-0.5232709646224976
1761379873207134500,1.030134521484375,-0.3364182412624359,1.0052636861801147,-0.906396746635437
1761379873217189400,1.040189453125,-0.3246888816356659,0.9520675539970398,-1.1981279850006104
1761379873227244300,1.050244384765625,-0.18601007759571075,0.7501115202903748,-1.380178451538086
1761379873237300500,1.060300537109375,0.033840522170066833,0.31332623958587646,-1.4623584747314453
1761379873247355400,1.07035546875,0.3432188630104065,0.12161058932542801,-1.3546746969223022
1761379873257410300,1.080410400390625,0.549473762512207,-0.06871834397315979,-1.0241129398345947
1761379873267466200,1.09046630859375,0.5347291827201843,-0.40164411067962646,-0.5166530013084412
1761379873277521400,1.100521484375,0.4248274564743042,-0.4029935300350189,0.13556794822216034
1761379873287576300,1.110576416015625,0.35774776339530945,-0.31238746643066406,0.7539342641830444
1761379873297632500,1.120632568359375,0.2709060609340668,-0.34965893626213074,1.1769251823425293
1761379873307687400,1.1306875,0.14618650078773499,-0.480620414018631,1.456978440284729
1761379873317742300,1.140742431640625,-0.010992730036377907,-0.5641709566116333,1.7561839818954468
1761379873327798300,1.15079833984375,-0.18265530467033386,-0.6899453997612,2.0860161781311035
1761379873337853400,1.160853515625,-0.2814127802848816,-0.734175980091095,2.3239669799804688
1761379873347908600,1.17090869140625,-0.29174450039863586,-0.680819571018219,2.4070518016815186
1761379873357964500,1.180964599609375,-0.18059268593788147,-0.4117009937763214,2.3823792934417725
1761379873368019500,1.19101953125,0.047382161021232605,-0.03736521676182747,2.2875778675079346
1761379873378074400,1.201074462890625,0.25737932324409485,0.2763516902923584,2.1448962688446045
1761379873388130300,1.21113037109375,0.3430159389972687,0.4066162109375,1.9429723024368286
1761379873398185500,1.221185546875,0.33954665064811707,0.3230781853199005,1.7052998542785645
1761379873408240400,1.231240478515625,0.28323623538017273,0.2116832286119461,1.5422059297561646
1761379873418296300,1.24129638671875,0.15236876904964447,0.0947965532541275,1.5193355083465576
1761379873428351500,1.2513515625,0.03952530398964882,-0.12314962595701218,1.552331805229187
1761379873438406400,1.261406494140625,-0.0861324891448021,-0.35273781418800354,1.5464084148406982
1761379873448462600,1.271462646484375,-0.05423953756690025,-0.4520668089389801,1.3772923946380615
1761379873458517200,1.281517333984375,0.08745314925909042,-0.6301619410514832,0.9877943992614746
1761379873468572400,1.291572509765625,0.20063988864421844,-0.9321095943450928,0.5169877409934998
1761379873478628400,1.30162841796875,0.35331305861473083,-1.0346311330795288,0.011621502228081226
1761379873488683500,1.31168359375,0.5690187215805054,-0.9656731486320496,-0.4878096282482147
1761379873498738200,1.32173828125,0.7030963897705078,-0.6827625632286072,-0.9115062952041626
1761379873508794400,1.33179443359375,0.6161625385284424,-0.48223987221717834,-1.2130630016326904
1761379873518849300,1.341849365234375,0.4179578423500061,-0.16328851878643036,-1.2890287637710571
1761379873528904400,1.351904541015625,0.17275819182395935,0.34938517212867737,-1.1654075384140015
1761379873538960400,1.36196044921875,-0.07149522006511688,0.7431274056434631,-0.9558439254760742
1761379873549015600,1.372015625,-0.15184438228607178,1.0111840963363647,-0.7441766858100891
1761379873559070500,1.382070556640625,-0.021617943421006203,0.9701088666915894,-0.7059195637702942
1761379873569126400,1.39212646484375,0.221647709608078,0.48436933755874634,-1.0269743204116821
1761379873579181300,1.402181396484375,0.3201225996017456,-0.1517258733510971,-1.677108883857727
1761379873589236500,1.412236572265625,0.14359338581562042,-0.37337571382522583,-2.2024569511413574
1761379873599292400,1.42229248046875,-0.06337764114141464,0.06259307265281677,-1.8760062456130981
1761379873609347300,1.432347412109375,-0.11341816931962967,0.5902894139289856,-0.9206656813621521
1761379873619402500,1.442402587890625,0.09162312746047974,0.25012966990470886,-0.13328509032726288
1761379873629458400,1.45245849609375,0.4296016991138458,-0.7808849215507507,0.09055999666452408
1761379873639513600,1.462513671875,0.6454341411590576,-1.6314457654953003,-0.32834672927856445
1761379873649568500,1.472568603515625,0.6996899247169495,-1.8234533071517944,-1.127201795578003
1761379873659624400,1.48262451171875,0.5052890181541443,-1.1525673866271973,-1.9462617635726929
1761379873669679400,1.492679443359375,0.09764240682125092,-0.11014407873153687,-2.2179224491119385
1761379873679734500,1.502734619140625,-0.2313498705625534,0.8255705833435059,-1.4124583005905151
1761379873689790500,1.51279052734375,-0.32993581891059875,1.415382742881775,0.2603636682033539
1761379873699845600,1.522845703125,-0.22119469940662384,1.4073621034622192,1.9492216110229492
1761379873709900300,1.532900390625,-0.06432386487722397,1.0084728002548218,2.9082605838775635
1761379873719956500,1.54295654296875,-0.05469200760126114,0.5131354928016663,2.9919865131378174
1761379873730011400,1.553011474609375,-0.2043193131685257,0.00336144189350307,2.423204183578491
1761379873740066600,1.563066650390625,-0.3811793029308319,-0.2372857928276062,1.6178016662597656
1761379873750122500,1.57312255859375,-0.4752104580402374,-0.392455130815506,0.8690629601478577
1761379873760177400,1.583177490234375,-0.49262648820877075,-0.9066846370697021,0.34016555547714233
1761379873770232300,1.593232421875,-0.43581750988960266,-1.1744135618209839,0.15993081033229828
1761379873780288500,1.60328857421875,-0.4594948887825012,-1.0438672304153442,0.06776812672615051
1761379873790343400,1.613343505859375,-0.5886696577072144,-0.6160954236984253,-0.05347307771444321
1761379873800398300,1.6233984375,-0.6948503851890564,0.07397675514221191,-0.11653699725866318
1761379873810454300,1.633454345703125,-0.710710346698761,0.9717150330543518,-0.013709420338273048
1761379873820509400,1.643509521484375,-0.6570931673049927,1.5201842784881592,0.20384447276592255
1761379873830564600,1.653564697265625,-0.4877243936061859,1.4150620698928833,0.4675658643245697
1761379873840620500,1.66362060546875,-0.22110788524150848,0.9551147818565369,0.7151418328285217
1761379873850675500,1.673675537109375,0.016869794577360153,0.2848453223705292,0.8304212689399719
1761379873860730400,1.68373046875,0.2938329577445984,-0.31867358088493347,0.8076919913291931
1761379873870786300,1.693786376953125,0.5143498778343201,-0.7879015207290649,0.8169326186180115
1761379873880841500,1.703841552734375,0.6259552240371704,-0.8820474743843079,1.0336010456085205
1761379873890896600,1.713896728515625,0.5994732975959778,-0.5155690908432007,1.3882787227630615
1761379873900952300,1.723952392578125,0.3967697322368622,0.0802045613527298,1.581984281539917
1761379873911007500,1.734007568359375,0.13834695518016815,0.600509524345398,1.5286552906036377
1761379873921062400,1.7440625,-0.1011977270245552,0.7579846382141113,1.2067070007324219
1761379873931118600,1.75411865234375,-0.2690386474132538,0.629568338394165,0.7058466076850891
1761379873941173500,1.764173583984375,-0.44787150621414185,0.4264935255050659,0.14829732477664948
1761379873951229400,1.7742294921875,-0.620826780796051,0.2935791611671448,-0.3630130887031555
1761379873961284400,1.784284423828125,-0.6456631422042847,0.2765016257762909,-0.7469828724861145
1761379873971339500,1.794339599609375,-0.5813960433006287,0.3801076412200928,-0.8433389663696289
1761379873981395500,1.8043955078125,-0.4274466633796692,0.5205987095832825,-0.6242350935935974
1761379873991450600,1.81445068359375,-0.20633558928966522,0.5101322531700134,-0.30787286162376404
1761379874001505300,1.82450537109375,0.021075723692774773,0.2901870906352997,-0.11783076077699661
1761379874011561500,1.8345615234375,0.2095945030450821,-0.03930559381842613,-0.15559065341949463
1761379874021616400,1.844616455078125,0.30745822191238403,-0.4588804841041565,-0.3359449803829193
1761379874031671600,1.854671630859375,0.3770652711391449,-0.8786101341247559,-0.4762895703315735
1761379874041727500,1.8647275390625,0.38222166895866394,-1.088926911354065,-0.5282750129699707
1761379874051782400,1.874782470703125,0.29355597496032715,-1.053682565689087,-0.5510522127151489
1761379874061837300,1.88483740234375,0.17088599503040314,-0.8185510635375977,-0.5802034735679626
1761379874071893500,1.8948935546875,0.05290795490145683,-0.4683499038219452,-0.6659942865371704
1761379874081948400,1.904948486328125,-0.04830201715230942,-0.11528398096561432,-0.8680711984634399
1761379874092003300,1.91500341796875,-0.14982305467128754,0.17326365411281586,-1.0942747592926025
1761379874102059300,1.925059326171875,-0.2786143124103546,0.3220009505748749,-1.2325870990753174
1761379874112114400,1.935114501953125,-0.38405925035476685,0.3553471863269806,-1.2377432584762573
1761379874122169600,1.945169677734375,-0.43923330307006836,0.2729566991329193,-1.0085362195968628
1761379874132225500,1.9552255859375,-0.4070553779602051,0.3062121272087097,-0.5759815573692322
1761379874142280400,1.965280517578125,-0.3630293309688568,0.4390311539173126,-0.11503790318965912
1761379874152335400,1.97533544921875,-0.3271552324295044,0.5667006969451904,0.1850699931383133
1761379874162391600,1.9853916015625,-0.2861204445362091,0.6224915385246277,0.19324402511119843
1761379874172446500,1.995446533203125,-0.2539933919906616,0.439152330160141,-0.14583976566791534
1761379874182501600,2.005501708984375,-0.192153200507164,-0.05529468134045601,-0.6202784180641174
1761379874192557300,2.015557373046875,-0.12052694708108902,-0.721537709236145,-1.0547257661819458
1761379874202612500,2.025612548828125,-0.028720062226057053,-1.068244218826294,-1.2914797067642212
1761379874212668400,2.03566845703125,0.11217367649078369,-0.9199668765068054,-1.1492754220962524
1761379874222723600,2.0457236328125,0.24102060496807098,-0.5833550691604614,-0.6356691122055054
1761379874232778500,2.055778564453125,0.4198944866657257,-0.21183502674102783,-0.14392255246639252
1761379874242834400,2.06583447265625,0.677308201789856,-0.18575122952461243,-0.19852294027805328
1761379874252889300,2.075889404296875,0.796116828918457,-0.5432875156402588,-1.0181139707565308
1761379874262944500,2.085944580078125,0.5680687427520752,-0.9591419696807861,-2.249600648880005
1761379874273000400,2.09600048828125,0.0853913277387619,-0.9327939748764038,-3.290173292160034
1761379874283055600,2.1060556640625,-0.4313567280769348,-0.5965456962585449,-3.6728641986846924
1761379874293110300,2.1161103515625,-0.7668308615684509,-0.08033505082130432,-3.185487985610962
1761379874303166500,2.12616650390625,-0.7940491437911987,0.5549015402793884,-1.8370181322097778
1761379874313221400,2.136221435546875,-0.5310753583908081,0.8273530602455139,-0.16800712049007416
1761379874323276500,2.146276611328125,-0.12849006056785583,0.6325782537460327,1.2655048370361328
1761379874333332500,2.15633251953125,0.2875356376171112,0.3213580548763275,2.1435706615448
1761379874343387400,2.166387451171875,0.5145874619483948,0.17666664719581604,2.478564500808716
1761379874353442300,2.1764423828125,0.5202362537384033,0.05931765213608742,2.4256772994995117
1761379874363498500,2.18649853515625,0.4062069058418274,-0.031217040494084358,2.146728277206421
1761379874373553400,2.196553466796875,0.2771548926830292,0.04146115854382515,1.9319102764129639
1761379874383608300,2.2066083984375,0.10619354993104935,0.1418740451335907,1.8635627031326294
1761379874393664300,2.216664306640625,-0.05018087849020958,0.36990854144096375,1.8938933610916138
1761379874403719400,2.226719482421875,-0.15206649899482727,0.6423730850219727,2.067721366882324
1761379874413774600,2.236774658203125,-0.10807027667760849,0.849539577960968,2.243781805038452
1761379874423830500,2.24683056640625,0.06523945927619934,0.9361194968223572,2.2206289768218994
1761379874433885400,2.256885498046875,0.27356815338134766,0.8847726583480835,1.9749666452407837
1761379874443941400,2.26694140625,0.43104273080825806,0.7173557281494141,1.5820492506027222
1761379874453996500,2.27699658203125,0.4490472972393036,0.414943665266037,1.1141430139541626
1761379874464051500,2.287051513671875,0.3870004415512085,-0.05380411073565483,0.7367104887962341
1761379874474107400,2.297107421875,0.3051828145980835,-0.528469979763031,0.5628929138183594
1761379874484162300,2.307162353515625,0.19117555022239685,-0.7881678342819214,0.545287549495697
1761379874494217500,2.317217529296875,0.09689405560493469,-0.6886330246925354,0.6201722025871277
1761379874504273400,2.3272734375,0.07179030030965805,-0.3461129367351532,0.7471961975097656
1761379874514328600,2.33732861328125,0.09752948582172394,0.08634580671787262,0.8344312310218811
1761379874524383500,2.347383544921875,0.15589825809001923,0.43446677923202515,0.8490490317344666
1761379874534439700,2.357439697265625,0.20311662554740906,0.546561598777771,0.7448943853378296
1761379874544494300,2.367494384765625,0.17262956500053406,0.4189804792404175,0.4810779392719269
1761379874554550500,2.377550537109375,0.09860406816005707,0.11544696986675262,0.19427227973937988
1761379874564606500,2.3876064453125,0.054605986922979355,-0.25536200404167175,0.08759216964244843
1761379874574661400,2.397661376953125,0.049359824508428574,-0.5804926753044128,0.20663119852542877
1761379874584717600,2.407717529296875,0.08061335235834122,-0.7051275372505188,0.4371426999568939
1761379874594772200,2.417772216796875,0.09906426817178726,-0.5446001887321472,0.6329675912857056
1761379874604827400,2.427827392578125,0.06917507946491241,-0.20631162822246552,0.6794384121894836
1761379874614883300,2.43788330078125,0.020912205800414085,0.1423129290342331,0.551634669303894
1761379874624938500,2.4479384765625,-0.03889546915888786,0.36769840121269226,0.2561894357204437
1761379874634993400,2.457993408203125,-0.1417909562587738,0.48972657322883606,-0.0824836939573288
1761379874645049300,2.46804931640625,-0.23673558235168457,0.5070773363113403,-0.3872068524360657
1761379874655104500,2.4781044921875,-0.30305495858192444,0.4153551161289215,-0.6426562070846558
1761379874665159400,2.488159423828125,-0.2946665287017822,0.2352287620306015,-0.8232717514038086
1761379874675215400,2.49821533203125,-0.18915687501430511,0.0615035742521286,-0.908404529094696
1761379874685270300,2.508270263671875,-0.043118443340063095,-0.0605192705988884,-0.9252375364303589
1761379874695325400,2.518325439453125,0.09264151751995087,-0.10214607417583466,-0.9062913060188293
1761379874705381400,2.52838134765625,0.19246691465377808,-0.05149834603071213,-0.8771107792854309
1761379874715436500,2.5384365234375,0.19143255054950714,0.015385613776743412,-0.8941465020179749
1761379874725491200,2.5484912109375,0.07724259048700333,0.0619877353310585,-1.0576155185699463
1761379874735547400,2.55854736328125,-0.11078590154647827,0.058584485203027725,-1.3744348287582397
1761379874745602300,2.568602294921875,-0.2839728593826294,0.03512656316161156,-1.7835357189178467
1761379874755658500,2.578658447265625,-0.3782897889614105,0.013924604281783104,-2.1995058059692383
1761379874765713400,2.58871337890625,-0.38866785168647766,-0.04760347306728363,-2.5230562686920166
1761379874775768600,2.5987685546875,-0.31932392716407776,-0.07793793827295303,-2.6643764972686768
1761379874785824300,2.60882421875,-0.1708471029996872,-0.11127139627933502,-2.583465814590454
1761379874795879400,2.61887939453125,-0.014273744076490402,-0.11300192028284073,-2.297900915145874
1761379874805934300,2.628934326171875,0.03834792226552963,-0.09178344905376434,-1.9388513565063477
1761379874815990500,2.638990478515625,-0.05567950755357742,-0.04398103803396225,-1.6093090772628784
1761379874826045400,2.64904541015625,-0.21792274713516235,-0.04289793223142624,-1.3913596868515015
1761379874836101400,2.659101318359375,-0.35979706048965454,-0.22996608912944794,-1.4321300983428955
1761379874846156300,2.66915625,-0.33660492300987244,-0.499003142118454,-1.9500397443771362
1761379874856211500,2.67921142578125,-0.1680731624364853,-0.4841054379940033,-2.679287910461426
1761379874866267400,2.689267333984375,-0.053461361676454544,-0.28660085797309875,-2.9165756702423096
1761379874876322600,2.699322509765625,0.04085315763950348,-0.44519877433776855,-2.322679281234741
1761379874886377200,2.709377197265625,0.13524118065834045,-0.576820433139801,-1.2567033767700195
1761379874896433400,2.719433349609375,0.21076150238513947,-0.6680632829666138,-0.7092413306236267
1761379874906488300,2.72948828125,0.30253830552101135,-0.8270244598388672,-1.1483111381530762
1761379874916543500,2.73954345703125,0.34878700971603394,-0.819728434085846,-1.9680461883544922
1761379874926599400,2.749599365234375,0.3092025816440582,-0.785437822341919,-2.707296848297119
1761379874936654300,2.759654296875,0.3336293697357178,-0.7842010855674744,-3.1544737815856934
1761379874946709500,2.76970947265625,0.3766639232635498,-0.738290011882782,-2.9938559532165527
1761379874956765400,2.779765380859375,0.318189412355423,-0.4849459230899811,-2.0163681507110596
1761379874966820400,2.7898203125,0.11134915798902512,-0.000651675509288907,-0.27296122908592224
1761379874976876500,2.79987646484375,-0.1591086983680725,0.4239576756954193,1.7099560499191284
1761379874986931200,2.80993115234375,-0.36804911494255066,0.6230856776237488,3.102985143661499
1761379874996986400,2.819986328125,-0.4003058671951294,0.5514985918998718,3.4407007694244385
1761379875007042300,2.830042236328125,-0.2617493271827698,0.4085129201412201,3.021414279937744
1761379875017097500,2.840097412109375,-0.023781228810548782,0.19438067078590393,2.3948776721954346
1761379875027152400,2.85015234375,0.24796612560749054,-0.09911726415157318,2.0497846603393555
1761379875037208300,2.860208251953125,0.5007091760635376,-0.3398614227771759,2.1343092918395996
1761379875047263500,2.870263427734375,0.6986438035964966,-0.42008650302886963,2.385410785675049
1761379875057318400,2.880318359375,0.7723761200904846,-0.4109792709350586,2.5828561782836914
1761379875067374600,2.89037451171875,0.6558550596237183,-0.10018199682235718,2.6071877479553223
1761379875077429200,2.90042919921875,0.27759459614753723,0.36828508973121643,2.4600536823272705
1761379875087485400,2.9104853515625,-0.2941133975982666,0.8090624809265137,2.2242889404296875
1761379875097540400,2.920540283203125,-0.8670104742050171,1.1846840381622314,2.0283327102661133
1761379875107595500,2.930595458984375,-1.214537501335144,1.3783131837844849,1.9787555932998657
1761379875117651500,2.9406513671875,-1.2784358263015747,1.3907394409179688,2.0167078971862793
1761379875127706400,2.950706298828125,-1.0912704467773438,1.3296505212783813,1.993017554283142
1761379875137761300,2.96076123046875,-0.7259204387664795,1.0569231510162354,1.8827142715454102
1761379875147817500,2.9708173828125,-0.2983904182910919,0.7093305587768555,1.8200945854187012
1761379875157872400,2.980872314453125,0.07429607212543488,0.4261521100997925,1.8521595001220703
1761379875167927600,2.990927490234375,0.2751080095767975,0.20848342776298523,1.9224438667297363
1761379875177983500,3.0009833984375,0.3140213191509247,0.027158383280038834,1.945630669593811
1761379875188038400,3.011038330078125,0.24579724669456482,-0.04364388436079025,1.9186997413635254
1761379875198094300,3.02109423828125,0.10466089844703674,-0.09747116267681122,1.8027899265289307
1761379875208149500,3.0311494140625,-0.029023928567767143,-0.10998615622520447,1.5703861713409424
1761379875218204400,3.041204345703125,-0.12851004302501678,-0.020254671573638916,1.218203067779541
1761379875228260600,3.051260498046875,-0.18710118532180786,0.10372932255268097,0.758610725402832
1761379875238315300,3.061315185546875,-0.18918004631996155,0.28051474690437317,0.3249402642250061
1761379875248370400,3.071370361328125,-0.13665930926799774,0.37790441513061523,0.007657120935618877
1761379875258426400,3.08142626953125,-0.03821556270122528,0.41415935754776,-0.07302626967430115
1761379875268481500,3.0914814453125,0.10161450505256653,0.38060593605041504,-0.05181685835123062
1761379875278536200,3.1015361328125,0.23892629146575928,0.15785248577594757,-0.0054448326118290424
1761379875288592400,3.11159228515625,0.3566497266292572,-0.13244326412677765,0.025053421035408974
1761379875298647300,3.121647216796875,0.3950067162513733,-0.3252779543399811,-0.04532993212342262
1761379875308703500,3.131703369140625,0.32170799374580383,-0.4150051772594452,-0.1848023384809494
1761379875318758400,3.14175830078125,0.21979813277721405,-0.42844241857528687,-0.3477209508419037
1761379875328813300,3.151813232421875,0.13820713758468628,-0.3649614453315735,-0.510023832321167
1761379875338869200,3.161869140625,0.09378375113010406,-0.2645600140094757,-0.6772370934486389
1761379875348924400,3.17192431640625,0.09572972357273102,-0.13867558538913727,-0.8443024754524231
1761379875358979600,3.1819794921875,0.11590263247489929,-0.08893173933029175,-0.9871877431869507
1761379875369035500,3.192035400390625,0.1347101479768753,-0.09611587971448898,-1.171201467514038
1761379875379090400,3.20209033203125,0.13725799322128296,-0.13134416937828064,-1.4262439012527466
1761379875389146400,3.212146484375,0.09378960728645325,-0.10842713713645935,-1.6709638833999634
1761379875399201300,3.222201171875,0.007417968939989805,-0.019669309258461,-1.7782584428787231
1761379875409256400,3.23225634765625,-0.08214999735355377,0.0598316416144371,-1.7612229585647583
1761379875419312400,3.2423125,-0.1428479701280594,0.0636996179819107,-1.6630843877792358
1761379875429367300,3.2523671875,-0.15283188223838806,0.013950436376035213,-1.4917778968811035
1761379875439422500,3.26242236328125,-0.10127921402454376,-0.03435264900326729,-1.2575010061264038
1761379875449478400,3.272478515625,-0.00119602563790977,-0.05824439600110054,-1.0378788709640503
1761379875459533600,3.282533447265625,0.12388013303279877,-0.07516985386610031,-0.8553703427314758
1761379875469588500,3.29258837890625,0.24706198275089264,-0.18983198702335358,-0.6990121603012085
1761379875479644400,3.30264453125,0.3176408112049103,-0.5116403698921204,-0.6852174997329712
1761379875489699300,3.31269921875,0.24628274142742157,-0.9412117004394531,-0.917385458946228
1761379875499755300,3.32275537109375,0.09913323819637299,-0.9402013421058655,-1.3223612308502197
1761379875509810400,3.332810546875,-0.0689268708229065,-0.38112711906433105,-1.6001321077346802
1761379875519865600,3.342865478515625,-0.19894719123840332,0.06882274150848389,-1.457236409187317
1761379875529921300,3.35292138671875,-0.07505853474140167,0.2505589723587036,-0.8983015418052673
1761379875539976400,3.3629765625,0.2992543578147888,0.08899006247520447,-0.47025325894355774
1761379875550031400,3.37303125,0.5795379281044006,-0.42770445346832275,-0.5020535588264465
1761379875560087000,3.383087158203125,0.5701811909675598,-0.7414834499359131,-0.9285979270935059
1761379875570141700,3.3931416015625,0.3085884749889374,-0.7023240327835083,-1.6876944303512573
1761379875580198000,3.403197998046875,-0.004028031136840582,-0.5245460867881775,-2.533585786819458
1761379875590252800,3.413252685546875,-0.22367116808891296,-0.32368671894073486,-2.9014639854431152
1761379875600308000,3.423307861328125,-0.3537338376045227,0.014079865999519825,-2.4957900047302246
1761379875610364000,3.433364013671875,-0.35336631536483765,0.2814851999282837,-1.3138151168823242
1761379875620418800,3.443418701171875,-0.27885428071022034,0.5232187509536743,0.14436782896518707
1761379875630473700,3.4534736328125,-0.24741671979427338,0.63897305727005,1.1887456178665161
1761379875640530000,3.463530029296875,-0.32129785418510437,0.6938887238502502,1.6363338232040405
1761379875650584800,3.473584716796875,-0.5158939957618713,0.5205371975898743,1.7086825370788574
1761379875660640000,3.483639892578125,-0.5954859852790833,0.12016955018043518,1.625259518623352
1761379875670696000,3.493696044921875,-0.6109040975570679,-0.2385401427745819,1.5814628601074219
1761379875680750800,3.503750732421875,-0.5937477946281433,-0.36371830105781555,1.6772809028625488
1761379875690806800,3.513806884765625,-0.5969347953796387,-0.27881431579589844,1.8363584280014038
1761379875700862000,3.523862060546875,-0.666109025478363,0.07977952063083649,2.006711721420288
1761379875710917000,3.533917236328125,-0.855147659778595,0.7958715558052063,2.189666748046875
1761379875720973000,3.54397314453125,-1.0853757858276367,1.5593681335449219,2.2105214595794678
1761379875731028000,3.554028076171875,-1.303609848022461,2.0300004482269287,1.8321903944015503
1761379875741083000,3.564082763671875,-1.3833374977111816,2.1289801597595215,1.0991251468658447
1761379875751138800,3.574138916015625,-1.2677072286605835,1.9102561473846436,0.34978729486465454
1761379875761194000,3.584194091796875,-1.042899250984192,1.3965445756912231,-0.1564473956823349
1761379875771250000,3.59425,-0.7117111682891846,0.5341736674308777,-0.24965830147266388
1761379875781304800,3.604304931640625,-0.32232052087783813,-0.16756050288677216,0.1782778650522232
1761379875791360000,3.614360107421875,0.03392920643091202,-0.4749731719493866,0.9987711310386658
1761379875801416000,3.624416015625,0.25667014718055725,-0.485659122467041,1.9524129629135132
1761379875811471000,3.63447119140625,0.36482110619544983,-0.25033581256866455,2.636168956756592
1761379875821525800,3.64452587890625,0.38877785205841064,-0.025289643555879593,2.831918239593506
1761379875831582000,3.65458203125,0.3095400035381317,0.18793927133083344,2.5646069049835205
1761379875841636900,3.664636962890625,0.1368774175643921,0.37311527132987976,2.043398141860962
1761379875851692800,3.67469287109375,-0.07721143215894699,0.5179440975189209,1.4479467868804932
1761379875861748000,3.684748046875,-0.2376498430967331,0.6267408728599548,0.8541743159294128
1761379875871803000,3.694802978515625,-0.2865356206893921,0.5978831052780151,0.3165963292121887
1761379875881858800,3.70485888671875,-0.22012677788734436,0.4138759970664978,-0.10095804184675217
1761379875891914000,3.7149140625,-0.07432109862565994,0.08595885336399078,-0.2829691171646118
1761379875901969000,3.724968994140625,0.1139979436993599,-0.2093883752822876,-0.24357163906097412
1761379875912025000,3.735025146484375,0.28247350454330444,-0.43606331944465637,-0.09957931935787201
1761379875922079700,3.745079833984375,0.3901994228363037,-0.5735002756118774,0.10595493018627167
1761379875932135000,3.755135009765625,0.4504404067993164,-0.7124056816101074,0.23620720207691193
1761379875942190800,3.76519091796875,0.5287972688674927,-0.8028327822685242,0.154010608792305
1761379875952246000,3.77524609375,0.5809445977210999,-0.8756856918334961,-0.11263946443796158
1761379875962302000,3.785302001953125,0.5991950035095215,-0.9528324007987976,-0.4711456894874573
1761379875972356900,3.79535693359375,0.6386422514915466,-0.9196150898933411,-0.8703367710113525
1761379875982411800,3.805411865234375,0.7164563536643982,-0.820610761642456,-1.3042370080947876
1761379875992468000,3.815468017578125,0.7525118589401245,-0.6931989789009094,-1.6468782424926758
1761379876002523000,3.82552294921875,0.7520066499710083,-0.5122992396354675,-1.798370122909546
1761379876012579000,3.8355791015625,0.7255318760871887,-0.2946425676345825,-1.7792887687683105
1761379876022633700,3.8456337890625,0.6589227914810181,-0.1260564625263214,-1.690470814704895
1761379876032689000,3.85568896484375,0.5588808655738831,-0.07227952033281326,-1.6022053956985474
1761379876042744800,3.865744873046875,0.48053279519081116,-0.08844783902168274,-1.5372966527938843
1761379876052800000,3.875800048828125,0.43805110454559326,-0.22984491288661957,-1.5665194988250732
1761379876062855000,3.88585498046875,0.4368119537830353,-0.3945491909980774,-1.6435232162475586
1761379876072910800,3.895910888671875,0.4276418685913086,-0.4319996237754822,-1.6441935300827026
1761379876082965800,3.9059658203125,0.3733102083206177,-0.2546301484107971,-1.4783244132995605
1761379876093022000,3.91602197265625,0.321548193693161,0.03924993425607681,-1.165655255317688
1761379876103076900,3.926076904296875,0.2868187129497528,0.2526194751262665,-0.8363606929779053
1761379876113132000,3.936132080078125,0.24344861507415771,0.2725822627544403,-0.6625984907150269
1761379876123188000,3.94618798828125,0.2452704757452011,0.1026022732257843,-0.6953068971633911
1761379876133243000,3.956242919921875,0.3249991238117218,-0.1906232088804245,-0.9056984782218933
1761379876143297800,3.9662978515625,0.38984736800193787,-0.47427889704704285,-1.2159987688064575
1761379876153354000,3.97635400390625,0.3682619035243988,-0.6510315537452698,-1.4696968793869019
1761379876163409000,3.986408935546875,0.2675448954105377,-0.5935317873954773,-1.4481273889541626
1761379876173465000,3.996465087890625,0.21214820444583893,-0.2218059003353119,-0.9526180624961853
1761379876183517000,4.006516845703125,0.25461632013320923,0.09718061238527298,-0.21720102429389954
1761379876193573000,4.016572998046875,0.391140341758728,0.2945171296596527,0.11872798204421997
1761379876203627800,4.026627685546875,0.7130259275436401,0.36332574486732483,-0.32479193806648254
1761379876213683000,4.036682861328125,1.0410006046295166,0.1763867437839508,-1.3216264247894287
1761379876223739000,4.04673876953125,1.0913714170455933,-0.3124566972255707,-2.4735820293426514
1761379876233794000,4.0567939453125,0.8824251294136047,-0.8359209895133972,-3.4975106716156006
1761379876243848700,4.0668486328125,0.6080380082130432,-0.9549863934516907,-3.868750810623169
1761379876253905000,4.07690478515625,0.4318595230579376,-0.5862959623336792,-3.1089560985565186
1761379876263959800,4.086959716796875,0.12840910255908966,-0.08488879352807999,-1.1406131982803345
1761379876274016000,4.09701611328125,-0.39985817670822144,0.6273179650306702,1.3496625423431396
1761379876284071000,4.10707080078125,-0.8654716610908508,1.2765198945999146,3.309316396713257
1761379876294125800,4.117125732421875,-1.033704161643982,1.557469367980957,4.173430442810059
1761379876304181800,4.127181640625,-0.915738582611084,1.3304132223129272,4.004131317138672
1761379876314237000,4.13723681640625,-0.6548997759819031,0.7803850173950195,3.0812313556671143
1761379876324291800,4.147291748046875,-0.37122201919555664,0.1475529670715332,1.863147258758545
1761379876334348000,4.15734814453125,-0.1914578378200531,-0.16500785946846008,0.8829129934310913
1761379876344402700,4.167402587890625,-0.08449757099151611,-0.22329220175743103,0.5160694718360901
1761379876354459000,4.177458984375,0.00013662016135640442,-0.12065291404724121,0.7832154035568237
1761379876364513800,4.187513671875,-0.055328235030174255,0.2988591492176056,1.4663511514663696
1761379876374569000,4.19756884765625,-0.24654000997543335,0.7704194784164429,2.169766426086426
1761379876384625000,4.207625,-0.4012502133846283,0.9919180274009705,2.566549062728882
1761379876394679800,4.2176796875,-0.5620867609977722,0.9167950749397278,2.5994484424591064
1761379876404735000,4.22773486328125,-0.732075572013855,0.7049176692962646,2.2749478816986084
1761379876414791000,4.237791015625,-0.8588521480560303,0.5670163035392761,1.649219274520874
1761379876424845800,4.247845703125,-0.8591277599334717,0.5019571185112,0.9182150363922119
1761379876434902000,4.257902099609375,-0.7075534462928772,0.4597204625606537,0.3191119432449341
1761379876444957000,4.26795703125,-0.479646235704422,0.4357469379901886,0.07732248306274414
1761379876455011800,4.27801171875,-0.3002586364746094,0.38313648104667664,0.24003709852695465
1761379876465067800,4.28806787109375,-0.20090541243553162,0.27136147022247314,0.724153459072113
1761379876475123000,4.298123046875,-0.19254282116889954,0.07505559921264648,1.25217866897583
1761379876485178000,4.30817822265625,-0.17651191353797913,-0.16334950923919678,1.594608187675476
1761379876495234000,4.318234130859375,-0.11136700212955475,-0.4426802098751068,1.6931523084640503
1761379876505289000,4.3282890625,0.03308764472603798,-0.6335468292236328,1.5587894916534424
1761379876515345000,4.338344970703125,0.20180955529212952,-0.7466835379600525,1.2523301839828491
1761379876525399800,4.34839990234375,0.39187830686569214,-0.7446421980857849,0.836091160774231
1761379876535455000,4.358455078125,0.558584451675415,-0.5469035506248474,0.40782901644706726
1761379876545511000,4.368510986328125,0.6722838282585144,-0.2916150689125061,0.030908381566405296
1761379876555566800,4.37856689453125,0.7387531399726868,-0.1552436500787735,-0.285947322845459
1761379876565622300,4.388622314453125,0.7479091286659241,-0.08152708411216736,-0.5154460072517395
1761379876575677400,4.398677490234375,0.685973584651947,-0.06796333938837051,-0.5103996396064758
1761379876585732000,4.408732177734375,0.5522445440292358,-0.13246190547943115,-0.2988373041152954
1761379876595788300,4.418788330078125,0.4084165096282959,-0.2883436381816864,-0.07206833362579346
1761379876605843200,4.42884326171875,0.27308160066604614,-0.3694502115249634,0.17407432198524475
1761379876615898400,4.4388984375,0.09875267744064331,-0.31609323620796204,0.42595022916793823
1761379876625954300,4.448954345703125,-0.12865464389324188,-0.22042664885520935,0.5703452229499817
1761379876636009200,4.45900927734375,-0.31706875562667847,-0.14200827479362488,0.4829925000667572
1761379876646065200,4.469065185546875,-0.37899312376976013,-0.16479960083961487,0.08797406405210495
1761379876656120300,4.479120361328125,-0.26155731081962585,-0.23545965552330017,-0.41833972930908203
1761379876666175500,4.489175537109375,-0.08809950202703476,-0.38217613101005554,-0.8284292221069336
1761379876676231400,4.4992314453125,0.034030672162771225,-0.424696683883667,-1.0095769166946411
1761379876686286300,4.509286376953125,0.1321154236793518,-0.48185959458351135,-0.8686602711677551
1761379876696342300,4.51934228515625,0.17096562683582306,-0.4827248454093933,-0.518096387386322
1761379876706397200,4.529397216796875,0.06817905604839325,-0.36507758498191833,-0.140747532248497
1761379876716452400,4.539452392578125,-0.12976998090744019,-0.2817493975162506,0.1605723649263382
1761379876726508300,4.54950830078125,-0.3305419683456421,-0.11513058096170425,0.3600846827030182
1761379876736563200,4.559563232421875,-0.5143128633499146,0.08711119741201401,0.35022351145744324
1761379876746618400,4.569618408203125,-0.6548342704772949,0.2588621973991394,0.09081299602985382
1761379876756674300,4.57967431640625,-0.6911954879760742,0.3611970841884613,-0.4437875747680664
1761379876766729500,4.5897294921875,-0.6276889443397522,0.23685196042060852,-1.320115327835083
1761379876776785400,4.599785400390625,-0.6376550197601318,-0.17371825873851776,-2.276698589324951
1761379876786840300,4.60984033203125,-0.8431522846221924,-0.38974031805992126,-2.8926799297332764
1761379876796895200,4.619895263671875,-1.1380177736282349,-0.19921404123306274,-2.92775559425354
1761379876806951200,4.629951171875,-1.259209156036377,0.5043219923973083,-2.157301425933838
1761379876817006300,4.64000634765625,-1.061576247215271,0.9820544719696045,-0.8633318543434143
1761379876827062300,4.650062255859375,-0.6222947239875793,0.801578164100647,0.07719918340444565
1761379876837117400,4.660117431640625,-0.22981961071491241,0.41841456294059753,0.0964202806353569
1761379876847172400,4.67017236328125,-0.04691717401146889,0.05939807742834091,-0.7699971199035645
1761379876857228300,4.680228271484375,-0.14911970496177673,-0.18996141850948334,-1.987424373626709
1761379876867283500,4.690283447265625,-0.39414384961128235,-0.09824348241090775,-2.9251012802124023
1761379876877338400,4.70033837890625,-0.60992830991745,-0.19782492518424988,-3.2367024421691895
1761379876887394300,4.710394287109375,-0.6770706176757812,-0.27732986211776733,-2.778517484664917
1761379876897449200,4.72044921875,-0.6520347595214844,-0.29120680689811707,-1.8011200428009033
1761379876907505200,4.730505126953125,-0.5505012273788452,-0.3583240509033203,-0.6810949444770813
1761379876917560300,4.740560302734375,-0.4103297293186188,-0.3247908651828766,0.32285287976264954
1761379876927615500,4.750615478515625,-0.35344433784484863,-0.14485545456409454,1.0790441036224365
1761379876937671400,4.76067138671875,-0.3798924684524536,0.03480059280991554,1.3915376663208008
1761379876947726300,4.770726318359375,-0.44055500626564026,-0.009899236261844635,1.2818495035171509
1761379876957782300,4.7807822265625,-0.32123127579689026,-0.09366177767515182,1.1505223512649536
1761379876967837400,4.79083740234375,0.04819336161017418,-0.3067724406719208,1.2028627395629883
1761379876977892400,4.800892333984375,0.46427446603775024,-0.5295820832252502,1.4219319820404053
1761379876987948500,4.810948486328125,0.803071141242981,-0.5618313550949097,1.6930396556854248
1761379876998003200,4.821003173828125,0.9898860454559326,-0.4387824237346649,1.85159170627594
1761379877008058400,4.831058349609375,1.0010318756103516,-0.2177152782678604,1.8527483940124512
1761379877018114300,4.8411142578125,0.8071977496147156,0.04066700115799904,1.6799532175064087
1761379877028169500,4.85116943359375,0.5610167384147644,0.2624287009239197,1.2724133729934692
1761379877038225400,4.861225341796875,0.4377991855144501,0.3987215459346771,0.6396729350090027
1761379877048280300,4.8712802734375,0.4813937842845917,0.3945007026195526,-0.06841474026441574
1761379877058335200,4.881335205078125,0.5383670926094055,0.25486159324645996,-0.6472179293632507
1761379877068391400,4.891391357421875,0.5191954970359802,0.006334062200039625,-0.9901171922683716
1761379877078446300,4.9014462890625,0.41340407729148865,-0.11304772645235062,-1.089805245399475
1761379877088502500,4.91150244140625,0.23026782274246216,-0.04054556041955948,-1.0319054126739502
1761379877098557200,4.92155712890625,0.08620598912239075,0.10516557097434998,-0.8209226131439209
1761379877108612400,4.9316123046875,0.043952278792858124,0.19978395104408264,-0.3896830379962921
1761379877118668300,4.941668212890625,0.07091278582811356,0.14723818004131317,0.23417387902736664
1761379877128723500,4.951723388671875,0.1532611846923828,-0.029324065893888474,0.9392449855804443
1761379877138779400,4.961779296875,0.21813978254795074,-0.18414054811000824,1.5029935836791992
1761379877148834300,4.971834228515625,0.2346806824207306,-0.18549636006355286,1.768873929977417
1761379877158889200,4.98188916015625,0.2247753143310547,-0.12554167211055756,1.7377634048461914
1761379877168945400,4.9919453125,0.2195797562599182,-0.14613403379917145,1.4095044136047363
1761379877179000300,5.002000244140625,0.19826169312000275,-0.1871403306722641,0.8968176245689392
1761379877189055200,5.01205517578125,0.09487245231866837,-0.1158917173743248,0.4267238974571228
1761379877199111200,5.022111083984375,-0.007234210614115,0.016568856313824654,0.06813990324735641
1761379877209166300,5.032166259765625,-0.039384957402944565,0.12502768635749817,-0.19982469081878662
1761379877219222300,5.04222216796875,-0.01684262976050377,0.225943922996521,-0.33683180809020996
1761379877229277400,5.05227734375,0.05802282318472862,0.23971138894557953,-0.35820022225379944
1761379877239332400,5.062332275390625,0.16106131672859192,0.1794070452451706,-0.34073948860168457
1761379877249388300,5.07238818359375,0.26053091883659363,0.1131686344742775,-0.31262636184692383
1761379877259443200,5.082443115234375,0.2972327470779419,0.034097783267498016,-0.2970729470252991
1761379877269499400,5.09249951171875,0.3007153570652008,-0.08950591087341309,-0.34153762459754944
1761379877279554300,5.10255419921875,0.3066278398036957,-0.23171445727348328,-0.4572567641735077
1761379877289609500,5.112609375,0.28586557507514954,-0.32483693957328796,-0.6699719429016113
1761379877299665200,5.1226650390625,0.2116781622171402,-0.36321309208869934,-0.9780661463737488
1761379877309720300,5.13272021484375,0.07791317254304886,-0.3762817680835724,-1.3205883502960205
1761379877319776300,5.1427763671875,-0.07037828862667084,-0.35279425978660583,-1.6439056396484375
1761379877329831400,5.15283154296875,-0.21012048423290253,-0.21467022597789764,-1.8708957433700562
1761379877339886300,5.16288623046875,-0.31887146830558777,0.08449837565422058,-1.9502962827682495
1761379877349942300,5.1729423828125,-0.34503355622291565,0.5525941848754883,-1.8801597356796265
1761379877359997200,5.1829970703125,-0.335441917181015,0.8089181184768677,-1.8022007942199707
1761379877370053400,5.193053466796875,-0.27882149815559387,0.6626397371292114,-1.7520846128463745
1761379877380108300,5.2031083984375,-0.17052513360977173,0.3090215027332306,-1.6312916278839111
1761379877390163500,5.21316357421875,-0.05567684397101402,-0.13288827240467072,-1.4134314060211182
1761379877400219100,5.22321923828125,0.010918693616986275,-0.6524909734725952,-1.197137713432312
1761379877410274300,5.2332744140625,0.09688872843980789,-1.0945152044296265,-1.0958995819091797
1761379877420330200,5.243330322265625,0.14754870533943176,-1.2335681915283203,-1.190545916557312
1761379877430385400,5.253385498046875,0.07067842781543732,-1.0787848234176636,-1.5256993770599365
1761379877440440300,5.2634404296875,-0.11916926503181458,-0.6293414235115051,-1.7663639783859253
1761379877450496500,5.27349658203125,-0.41535326838493347,-0.07984316349029541,-1.5325483083724976
1761379877460551200,5.28355126953125,-0.7687435746192932,0.19440756738185883,-0.7596320509910583
1761379877470607400,5.293607421875,-0.9926813244819641,0.3853418231010437,0.12848126888275146
1761379877480662300,5.303662353515625,-0.8601102232933044,0.3796674311161041,0.4545685648918152
1761379877490717400,5.313717529296875,-0.4177144169807434,-0.12724396586418152,0.026389263570308685
1761379877500773400,5.3237734375,0.046291597187519073,-0.7385707497596741,-0.7861174941062927
1761379877510828300,5.333828369140625,0.30138781666755676,-1.0441277027130127,-1.549417495727539
1761379877520883200,5.34388330078125,0.3044794797897339,-1.2188161611557007,-1.885729193687439
1761379877530939400,5.353939453125,0.1490968018770218,-1.1231330633163452,-1.578392744064331
1761379877540994300,5.363994384765625,-0.20082950592041016,-0.49164989590644836,-0.6011319160461426
1761379877551050500,5.374050537109375,-0.6839857697486877,0.42146575450897217,0.6942277550697327
1761379877561105400,5.38410546875,-1.02084481716156,1.2189714908599854,1.603645920753479
1761379877571160300,5.394160400390625,-1.0468121767044067,1.3900033235549927,1.8942625522613525
1761379877581216300,5.40421630859375,-0.7984018325805664,1.0131196975708008,1.9017359018325806
1761379877591271400,5.414271484375,-0.4489050805568695,0.3087887465953827,1.9506645202636719
1761379877601327400,5.424327392578125,-0.18475653231143951,-0.45161646604537964,2.082906484603882
1761379877611382500,5.434382568359375,0.008213188499212265,-0.9064380526542664,2.200371026992798
1761379877621437200,5.444437255859375,0.21319057047367096,-0.9631170034408569,2.2788758277893066
1761379877631493400,5.454493408203125,0.3335758447647095,-0.7501895427703857,2.3545660972595215
1761379877641548300,5.46454833984375,0.26592329144477844,-0.3538856506347656,2.354938507080078
1761379877651604500,5.4746044921875,0.0798381045460701,0.25712525844573975,2.161536931991577
1761379877661659400,5.484659423828125,-0.1281244158744812,0.9184949398040771,1.7435870170593262
1761379877671714300,5.49471435546875,-0.2893314063549042,1.53238844871521,1.1400792598724365
1761379877681770200,5.504770263671875,-0.42587727308273315,1.9494695663452148,0.48680320382118225
1761379877691825400,5.514825439453125,-0.5077614784240723,2.151139974594116,-0.058091532438993454
1761379877701881300,5.52488134765625,-0.43757814168930054,2.0690996646881104,-0.46818771958351135
1761379877711936500,5.5349365234375,-0.16701188683509827,1.6825904846191406,-0.7065142393112183
1761379877721991400,5.544991455078125,0.21109279990196228,1.0769368410110474,-0.7245635986328125
1761379877732047400,5.55504736328125,0.6166293621063232,0.44935330748558044,-0.5979244112968445
1761379877742102300,5.565102294921875,0.9122876524925232,-0.040715206414461136,-0.43397435545921326
1761379877752158500,5.575158447265625,1.0018292665481567,-0.2529286742210388,-0.24876827001571655
1761379877762213400,5.58521337890625,0.9116692543029785,-0.17776812613010406,-0.04501194879412651
1761379877772268300,5.595268310546875,0.655872106552124,0.2474934160709381,0.10287684947252274
1761379877782324200,5.60532421875,0.2761988341808319,0.8301794528961182,0.16283366084098816
1761379877792379400,5.61537939453125,-0.11126180738210678,1.274533748626709,0.16684012115001678
1761379877802435300,5.625435302734375,-0.4120863676071167,1.364790916442871,0.17221304774284363
1761379877812490500,5.635490478515625,-0.5265458226203918,1.1382150650024414,0.30672264099121094
1761379877822545400,5.64554541015625,-0.4239347577095032,0.7493664026260376,0.5669773817062378
1761379877832601300,5.655601318359375,-0.14913569390773773,0.19629867374897003,0.8226741552352905
1761379877842656300,5.66565625,0.2116834819316864,-0.36586692929267883,1.0142649412155151
1761379877852712400,5.67571240234375,0.5970327854156494,-0.6585041284561157,1.1423578262329102
1761379877862767400,5.685767333984375,0.905716598033905,-0.7362719178199768,1.2116721868515015
1761379877872822300,5.695822265625,1.0902057886123657,-0.6187750697135925,1.1802372932434082
1761379877882878200,5.705878173828125,1.0926443338394165,-0.35275593400001526,1.0124006271362305
1761379877892933400,5.715933349609375,0.9194880723953247,-0.0811515748500824,0.731849193572998
1761379877902989300,5.7259892578125,0.6550095081329346,0.07169176638126373,0.39289534091949463
1761379877913044500,5.73604443359375,0.40368515253067017,0.047027964144945145,-0.025128789246082306
1761379877923099400,5.746099365234375,0.21898241341114044,-0.11934982985258102,-0.4458613693714142
1761379877933155300,5.7561552734375,0.11683473736047745,-0.3165545165538788,-0.77079176902771
1761379877943210200,5.766210205078125,0.054783888161182404,-0.5151776075363159,-0.9474160671234131
1761379877953266400,5.776266357421875,0.0694991797208786,-0.5608766078948975,-0.9587877988815308
1761379877963321300,5.7863212890625,0.16440731287002563,-0.614700973033905,-0.9944080710411072
1761379877973376500,5.79637646484375,0.28776785731315613,-0.7662050127983093,-1.1816290616989136
1761379877983432200,5.80643212890625,0.35392770171165466,-0.8166892528533936,-1.4083038568496704
1761379877993487400,5.8164873046875,0.28403812646865845,-0.7465905547142029,-1.6725778579711914
1761379878003543300,5.826543212890625,0.07567878067493439,-0.6156778335571289,-1.9424068927764893
1761379878013598500,5.836598388671875,-0.1430564969778061,-0.5095977187156677,-2.0543296337127686
1761379878023653600,5.846653564453125,-0.28192755579948425,-0.33561208844184875,-1.8625997304916382
1761379878033709300,5.856709228515625,-0.32987138628959656,-0.12001588940620422,-1.3494247198104858
1761379878043764500,5.866764404296875,-0.25310948491096497,-0.02665131725370884,-0.662357747554779
1761379878053820400,5.8768203125,-0.10767000168561935,-0.27316388487815857,-0.22677747905254364
1761379878063875300,5.886875244140625,0.01889912225306034,-0.45826104283332825,-0.37821441888809204
1761379878073930500,5.896930419921875,0.08054810762405396,-0.3606466054916382,-0.9457316398620605
1761379878083986400,5.906986328125,0.06686318665742874,-0.31316936016082764,-1.4875123500823975
1761379878094041300,5.917041259765625,0.08162987977266312,-0.31396058201789856,-1.4851487874984741
1761379878104097300,5.92709716796875,0.17383304238319397,-0.26083770394325256,-0.7855907082557678
1761379878114152400,5.93715234375,0.16913948953151703,-0.2058306634426117,0.13470028340816498
1761379878124207600,5.94720751953125,0.07840479165315628,-0.11499396711587906,0.4883180260658264
1761379878134263600,5.957263671875,0.107593834400177,-0.3161848485469818,0.06851434707641602
1761379878144318500,5.967318359375,0.09946373850107193,-0.6524723172187805,-0.802014946937561
1761379878154374400,5.97737451171875,-0.12560532987117767,-0.6781470775604248,-1.663264513015747
1761379878164429300,5.98742919921875,-0.44357743859291077,-0.2756219804286957,-2.2282111644744873
1761379878174485500,5.997485595703125,-0.7462459802627563,0.41386163234710693,-2.2372846603393555
1761379878184540400,6.00754052734375,-0.8973196148872375,1.0544499158859253,-1.5440133810043335
1761379878194595300,6.01759521484375,-0.9136842489242554,1.2853025197982788,-0.46847692131996155
1761379878204651300,6.0276513671875,-0.7809059619903564,1.087938904762268,0.43959254026412964
1761379878214706400,6.03770654296875,-0.4717337191104889,0.69949871301651,0.9238452315330505
1761379878224762400,6.047762451171875,-0.11021359264850616,0.24276737868785858,1.1745725870132446
1761379878234817500,6.057817626953125,0.07785964757204056,-0.15976382791996002,1.4463456869125366
1761379878244872400,6.06787255859375,0.1679498553276062,-0.4567073583602905,1.6757503747940063
1761379878254928400,6.077928466796875,0.20824748277664185,-0.5057992935180664,1.7305012941360474
1761379878264983300,6.0879833984375,0.23571345210075378,-0.3572007417678833,1.5915199518203735
1761379878275039500,6.09803955078125,0.1844545304775238,0.00034115093876607716,1.3938055038452148
1761379878285094400,6.108094482421875,-0.006505303550511599,0.6644224524497986,1.1903270483016968
1761379878295149300,6.1181494140625,-0.2974178194999695,1.4977500438690186,0.8857718706130981
1761379878305205200,6.128205322265625,-0.6046102643013,2.1990091800689697,0.5092957615852356
1761379878315260400,6.138260498046875,-0.7877148389816284,2.5606205463409424,0.09983312338590622
1761379878325316400,6.14831640625,-0.8533359169960022,2.556727409362793,-0.3190072774887085
1761379878335371500,6.15837158203125,-0.7020130157470703,1.9460666179656982,-0.6833687424659729
1761379878345426400,6.168426513671875,-0.26509878039360046,0.9490182399749756,-0.8813907504081726
1761379878355482400,6.178482421875,0.31469616293907166,-0.1267065405845642,-0.7452337145805359
1761379878365537300,6.188537353515625,0.8520445823669434,-1.1234169006347656,-0.27533090114593506
1761379878375593500,6.198593505859375,1.2578929662704468,-1.8541028499603271,0.37224626541137695
1761379878385648400,6.2086484375,1.422916293144226,-2.038006544113159,1.0583492517471313
1761379878395703300,6.218703369140625,1.1879572868347168,-1.5375949144363403,1.5655122995376587
1761379878405759200,6.22875927734375,0.5850064754486084,-0.7067411541938782,1.731265902519226
1761379878415814400,6.238814453125,-0.10367605835199356,0.19666992127895355,1.566602110862732
1761379878425870300,6.248870361328125,-0.5715346336364746,0.9364385604858398,1.2685257196426392
1761379878435925500,6.258925537109375,-0.6543554663658142,1.2432432174682617,1.0185725688934326
1761379878445980400,6.26898046875,-0.40790411829948425,1.1323891878128052,0.9066598415374756
1761379878456036400,6.279036376953125,-0.071588434278965,0.8493664860725403,0.9535059332847595
1761379878466091500,6.289091552734375,0.20715877413749695,0.5510594248771667,1.1570992469787598
1761379878476147500,6.2991474609375,0.37893053889274597,0.2485022246837616,1.4225362539291382
1761379878486202400,6.309202392578125,0.45787835121154785,-0.024570323526859283,1.5971062183380127
1761379878496257300,6.31925732421875,0.4648270606994629,-0.20877212285995483,1.5650098323822021
1761379878506313200,6.329313232421875,0.3705269396305084,-0.3007414638996124,1.3269420862197876
1761379878516368400,6.339368408203125,0.19421981275081635,-0.32455146312713623,0.9805428981781006
1761379878526424300,6.34942431640625,-0.020710870623588562,-0.17577795684337616,0.5927112698554993
1761379878536479500,6.3594794921875,-0.2262272834777832,0.0559556782245636,0.18217672407627106
1761379878546534400,6.369534423828125,-0.44103360176086426,0.215091273188591,-0.21973742544651031
1761379878556590300,6.37959033203125,-0.6225005984306335,0.24602414667606354,-0.5871487259864807
1761379878566645500,6.3896455078125,-0.7398644685745239,0.2619756758213043,-0.8944588899612427
1761379878576701700,6.39970166015625,-0.7936521172523499,0.2148427963256836,-1.2113078832626343
1761379878586756400,6.40975634765625,-0.7646409273147583,0.0928601622581482,-1.5570224523544312
1761379878596812500,6.4198125,-0.6880761384963989,-0.00717562111094594,-1.8194324970245361
1761379878606867500,6.429867431640625,-0.6066460013389587,-0.045158956199884415,-1.942884922027588
1761379878616922600,6.439922607421875,-0.5414819121360779,-0.047806669026613235,-1.914715051651001
1761379878626978600,6.449978515625,-0.4759606719017029,-0.08099285513162613,-1.7481127977371216
1761379878637033500,6.460033447265625,-0.38339319825172424,-0.21904154121875763,-1.5429015159606934
1761379878647089400,6.47008935546875,-0.31345006823539734,-0.33999672532081604,-1.2943708896636963
1761379878657144600,6.48014453125,-0.34753185510635376,-0.3664584159851074,-0.9163636565208435
1761379878667199500,6.490199462890625,-0.4722847044467926,-0.11555855721235275,-0.544991672039032
1761379878677255700,6.500255615234375,-0.5868882536888123,0.2945549488067627,-0.4576171040534973
1761379878687310300,6.510310302734375,-0.6181239485740662,0.4937655031681061,-0.8388208746910095
1761379878697366500,6.520366455078125,-0.536555290222168,0.3207029104232788,-1.5388250350952148
1761379878707421400,6.53042138671875,-0.37896594405174255,-0.1829916536808014,-2.1307883262634277
1761379878717476600,6.5404765625,-0.19615645706653595,-0.6378246545791626,-2.073274612426758
1761379878727532500,6.550532470703125,-0.07600954920053482,-1.1958810091018677,-1.0054879188537598
1761379878737587500,6.56058740234375,-0.08023758232593536,-1.5919231176376343,0.8260406851768494
1761379878747643400,6.570643310546875,-0.044266797602176666,-1.5225334167480469,2.2987208366394043
1761379878757698600,6.580698486328125,0.27951472997665405,-1.549505352973938,2.154355525970459
1761379878767754500,6.59075439453125,0.6474517583847046,-1.9214744567871094,0.3826136887073517
1761379878777809700,6.6008095703125,0.6768056154251099,-2.185685157775879,-1.7119494676589966
1761379878787864300,6.6108642578125,0.33214759826660156,-1.9861857891082764,-3.1482832431793213
1761379878797920500,6.62092041015625,-0.05327200889587402,-1.4077112674713135,-3.559814214706421
1761379878807975400,6.630975341796875,-0.2861015200614929,-0.4856093227863312,-2.683039665222168
1761379878818031600,6.641031494140625,-0.4978571832180023,0.49177291989326477,-0.8122699856758118
1761379878828086500,6.65108642578125,-0.6358441114425659,1.0091094970703125,1.113742470741272
1761379878838141400,6.661141357421875,-0.5589991211891174,0.8897234797477722,2.308021068572998
1761379878848197400,6.671197265625,-0.38789820671081543,0.44635137915611267,2.770458936691284
1761379878858252500,6.68125244140625,-0.22097152471542358,-0.04836007580161095,2.8266074657440186
1761379878868308500,6.69130859375,-0.07946233451366425,-0.6292234659194946,2.6688199043273926
1761379878878363600,6.70136376953125,0.09675903618335724,-1.131296992301941,2.366408109664917
1761379878888418600,6.71141845703125,0.2796867787837982,-1.3049625158309937,2.012336015701294
1761379878898474500,6.721474609375,0.3398246765136719,-0.8907514810562134,1.6325798034667969
1761379878908529400,6.731529296875,0.15660852193832397,0.026188993826508522,1.1973670721054077
1761379878918585600,6.741585693359375,-0.20052191615104675,1.0043901205062866,0.7506319284439087
1761379878928640500,6.751640625,-0.48322606086730957,1.876137375831604,0.5441594123840332
1761379878938695400,6.7616953125,-0.6144908666610718,2.3722457885742188,0.6887999773025513
1761379878948751400,6.77175146484375,-0.5038306713104248,2.1356005668640137,1.0742113590240479
1761379878958806500,6.781806640625,-0.16460545361042023,1.3706965446472168,1.6012439727783203
1761379878968862500,6.791862548828125,0.3172514736652374,0.350577712059021,2.1266448497772217
1761379878978917600,6.801917724609375,0.7579801082611084,-0.5719771981239319,2.3841047286987305
1761379878988973600,6.8119736328125,1.0326378345489502,-1.162584900856018,2.2836861610412598
1761379878999028500,6.822028564453125,1.0541939735412598,-1.351793646812439,1.9414018392562866
1761379879009083400,6.83208349609375,0.8655518293380737,-1.0977259874343872,1.5380364656448364
1761379879019139600,6.8421396484375,0.5427572727203369,-0.4913596212863922,1.1633143424987793
1761379879029194500,6.852194580078125,0.22177739441394806,0.21872994303703308,0.8655436038970947
1761379879039250700,6.862250732421875,-0.010890730656683445,0.8117845058441162,0.6611166596412659
1761379879049305300,6.872305419921875,-0.16905666887760162,1.0381742715835571,0.5441194772720337
1761379879059360500,6.882360595703125,-0.26246410608291626,1.0399137735366821,0.46699780225753784
1761379879069416400,6.89241650390625,-0.35627394914627075,0.9600725173950195,0.3853948414325714
1761379879079471600,6.9024716796875,-0.41406720876693726,0.7922384738922119,0.30956077575683594
1761379879089527600,6.912527587890625,-0.3592076897621155,0.5551058053970337,0.2673291862010956
1761379879099582500,6.92258251953125,-0.18986819684505463,0.2691369354724884,0.2774646282196045
1761379879109638400,6.932638427734375,0.021262411028146744,-0.04409502446651459,0.30765849351882935
1761379879119693600,6.942693603515625,0.2477157860994339,-0.28865498304367065,0.34224095940589905
1761379879129748500,6.95274853515625,0.48921042680740356,-0.45705515146255493,0.33574017882347107
1761379879139804700,6.9628046875,0.7037885189056396,-0.5734915137290955,0.23116157948970795
1761379879149859300,6.972859375,0.8085921406745911,-0.5827073454856873,0.019957462325692177
1761379879159915500,6.98291552734375,0.7823922634124756,-0.45737555623054504,-0.21652644872665405
1761379879169970400,6.992970458984375,0.689711332321167,-0.2598017454147339,-0.40583351254463196
1761379879180025600,7.003025634765625,0.5843896865844727,-0.01497921533882618,-0.5240280628204346
1761379879190081500,7.01308154296875,0.4536021053791046,0.2356085330247879,-0.5702030062675476
1761379879200136400,7.023136474609375,0.27243340015411377,0.3783329129219055,-0.5785626769065857
1761379879210192400,7.0331923828125,0.14139893651008606,0.382401704788208,-0.6285099983215332
1761379879220247600,7.04324755859375,0.04165210574865341,0.26936623454093933,-0.7499411106109619
1761379879230303500,7.053303466796875,-0.07529981434345245,0.0920441746711731,-0.962139904499054
1761379879240358700,7.063358642578125,-0.16399718821048737,-0.1505570113658905,-1.1793286800384521
1761379879250413300,7.073413330078125,-0.15321990847587585,-0.3085018992424011,-1.260410189628601
1761379879260469500,7.083469482421875,-0.108602374792099,-0.33931946754455566,-1.1987700462341309
1761379879270524400,7.0935244140625,-0.08670799434185028,-0.2980431318283081,-1.0647448301315308
1761379879280580600,7.10358056640625,-0.10434398055076599,-0.360812246799469,-0.9351144433021545
1761379879290635500,7.113635498046875,-0.12837953865528107,-0.3945947289466858,-0.8815326690673828
1761379879300690400,7.1236904296875,-0.1395762711763382,-0.36939722299575806,-0.9119670391082764
1761379879310746400,7.133746337890625,-0.1437595635652542,-0.4792185127735138,-0.9707019925117493
1761379879320801500,7.143801513671875,-0.12175306677818298,-0.7380878925323486,-1.023252010345459
1761379879330857500,7.153857421875,-0.0853700265288353,-1.0823848247528076,-1.1389423608779907
1761379879340912600,7.16391259765625,-0.08232283592224121,-1.2771193981170654,-1.398209571838379
1761379879350968600,7.173968505859375,-0.14840491116046906,-1.1780685186386108,-1.6311235427856445
1761379879361023500,7.1840234375,-0.2534543573856354,-0.6102572083473206,-1.5665032863616943
1761379879371078400,7.194078369140625,-0.32786843180656433,-0.0417032390832901,-1.1018682718276978
1761379879381134600,7.204134521484375,-0.3564891517162323,0.070411317050457,-0.4758554697036743
1761379879391189500,7.214189453125,-0.29098817706108093,0.040172453969717026,-0.2143288105726242
1761379879401245700,7.22424560546875,-0.169608473777771,-0.1815735250711441,-0.6020850539207458
1761379879411300400,7.23430029296875,-0.060926202684640884,-0.7383185029029846,-1.4328259229660034
1761379879421355500,7.24435546875,-0.007996407337486744,-1.0449508428573608,-2.359266519546509
1761379879431411500,7.254411376953125,0.006060289219021797,-0.9089491367340088,-3.162234306335449
1761379879441466600,7.264466552734375,-0.05416177213191986,-0.4656582474708557,-3.479149580001831
1761379879451522600,7.2745224609375,-0.19110363721847534,0.04140656068921089,-3.0925705432891846
1761379879461577500,7.284577392578125,-0.34082069993019104,0.4995488226413727,-1.9833002090454102
1761379879471633400,7.29463330078125,-0.512628972530365,0.9569504857063293,-0.4503762125968933
1761379879481688600,7.3046884765625,-0.6752258539199829,1.1945997476577759,0.8604052662849426
1761379879491743500,7.314743408203125,-0.6943244338035583,1.1482645273208618,1.6886582374572754
1761379879501799700,7.324799560546875,-0.5372032523155212,0.8947504758834839,2.1002204418182373
1761379879511854300,7.334854248046875,-0.3475356101989746,0.4648512899875641,2.0858325958251953
1761379879521910500,7.34491064453125,-0.2320510745048523,0.06830555200576782,1.8244208097457886
1761379879531965400,7.35496533203125,-0.18183398246765137,-0.17239493131637573,1.5703473091125488
1761379879542020600,7.3650205078125,-0.16148662567138672,-0.12289796024560928,1.378016471862793
1761379879552076500,7.37507666015625,-0.15251123905181885,0.061231665313243866,1.3260952234268188
1761379879562132200,7.38513232421875,-0.19687923789024353,0.2959911823272705,1.442212462425232
1761379879572188200,7.395188232421875,-0.27074068784713745,0.6367016434669495,1.6289949417114258
1761379879582243000,7.4052431640625,-0.2624225616455078,0.8186461329460144,1.755786657333374
1761379879592299000,7.415299072265625,-0.1892828345298767,0.8737357258796692,1.8580787181854248
1761379879602354200,7.425354248046875,-0.16569921374320984,0.8986567854881287,1.9445552825927734
1761379879612409000,7.4354091796875,-0.18895021080970764,0.8595877289772034,1.8468947410583496
1761379879622465000,7.445465087890625,-0.1421952247619629,0.7630683779716492,1.4135710000991821
1761379879632520000,7.45552001953125,0.014957111328840256,0.32922956347465515,0.6854087114334106
1761379879642576000,7.465575927734375,0.2785802185535431,-0.2712264358997345,-0.1150355115532875
1761379879652631000,7.475631103515625,0.5379369854927063,-0.7093744874000549,-0.6846518516540527
1761379879662687000,7.48568701171875,0.7322169542312622,-0.7585803866386414,-0.9208089709281921
1761379879672742100,7.4957421875,0.7378042936325073,-0.5442012548446655,-0.9221898317337036
1761379879682797000,7.505797119140625,0.5009261965751648,-0.20885227620601654,-0.6767052412033081
1761379879692853000,7.51585302734375,0.07404067367315292,0.13559910655021667,-0.1865650862455368
1761379879702908200,7.525908203125,-0.3217809498310089,0.2879188656806946,0.4309878647327423
1761379879712964000,7.535964111328125,-0.44006288051605225,0.3098055124282837,0.9789524674415588
1761379879723019000,7.54601904296875,-0.3463297188282013,0.329915314912796,1.2231647968292236
1761379879733074000,7.556073974609375,-0.2660900056362152,0.30481448769569397,1.1722211837768555
1761379879743129900,7.5661298828125,-0.25734230875968933,0.16676448285579681,1.0144656896591187
1761379879753185000,7.57618505859375,-0.25483042001724243,-0.11192920058965683,0.7966904640197754
1761379879763241000,7.586240966796875,-0.23997823894023895,-0.3509652018547058,0.5739274621009827
1761379879773296000,7.596296142578125,-0.20363540947437286,-0.2979446053504944,0.3498815596103668
1761379879783352000,7.60635205078125,-0.14746135473251343,-0.19769150018692017,0.16954216361045837
1761379879793407000,7.616406982421875,-0.02376711554825306,-0.15937981009483337,0.05570294335484505
1761379879803463000,7.626462890625,0.1035093441605568,0.1399693489074707,-0.018754245713353157
1761379879813518000,7.63651806640625,0.16390717029571533,-0.02720259316265583,-0.17237336933612823
1761379879823573000,7.646572998046875,0.38356098532676697,-0.7296360731124878,-0.3829748034477234
1761379879833629200,7.656629150390625,0.574795126914978,-0.8485819101333618,-0.36849120259284973
1761379879843683800,7.666683837890625,0.5972117185592651,-1.0290006399154663,-0.25026071071624756
1761379879853740000,7.676739990234375,0.5706091523170471,-1.2656433582305908,-0.20016159117221832
1761379879863795000,7.686794921875,0.5024828314781189,-1.3003616333007812,-0.27585288882255554
1761379879873851100,7.69685107421875,0.38710856437683105,-1.2258656024932861,-0.46124696731567383
1761379879883906000,7.706906005859375,0.24771127104759216,-1.1246750354766846,-0.6443283557891846
1761379879893961000,7.7169609375,0.09650683403015137,-0.9011638760566711,-0.7369579076766968
1761379879904017000,7.727016845703125,0.0055090151727199554,-0.5858914256095886,-0.6869639754295349
1761379879914072000,7.737072021484375,-0.03837615251541138,-0.263642817735672,-0.6456109881401062
1761379879924128000,7.7471279296875,-0.08491329103708267,-0.05517270788550377,-0.7008110880851746
1761379879934183200,7.75718310546875,-0.10549367219209671,0.00449781259521842,-0.8464223742485046
1761379879944239000,7.767239013671875,-0.11899243295192719,-0.05818341299891472,-1.0801900625228882
1761379879954294000,7.7772939453125,-0.07500500231981277,-0.208669051527977,-1.208174228668213
1761379879964349000,7.787348876953125,0.015894010663032532,-0.33018162846565247,-1.1212648153305054
1761379879974405000,7.797405029296875,0.16556952893733978,-0.28776121139526367,-0.9228010177612305
1761379879984460000,7.8074599609375,0.3254758417606354,-0.2314968705177307,-0.7956351041793823
1761379879994516200,7.81751611328125,0.3853074610233307,-0.16439053416252136,-1.0501669645309448
1761379880004571000,7.82757080078125,0.28795507550239563,0.14403973519802094,-1.6305166482925415
1761379880014627000,7.837626953125,0.08290447294712067,0.33693090081214905,-2.0226378440856934
1761379880024682000,7.847681884765625,-0.1654832363128662,0.4503999352455139,-1.6769964694976807
1761379880034737200,7.857737060546875,-0.3870808780193329,0.7648665308952332,-0.6703280210494995
1761379880044793000,7.86779296875,-0.43363824486732483,1.0714589357376099,0.266886830329895
1761379880054848000,7.877847900390625,-0.30685368180274963,1.0372532606124878,0.5678863525390625
1761379880064904000,7.887904052734375,-0.02845454402267933,0.7319682240486145,0.004480502102524042
1761379880074959000,7.897958984375,0.22112998366355896,0.4072601795196533,-1.3139443397521973
1761379880085015000,7.90801513671875,0.29962852597236633,0.03471430391073227,-2.824537515640259
1761379880095070200,7.9180703125,0.29367315769195557,-0.203548863530159,-3.8101582527160645
1761379880105124900,7.928124755859375,0.276153028011322,-0.28379949927330017,-3.855557918548584
1761379880115181000,7.93818115234375,0.22738522291183472,-0.38807448744773865,-3.094651222229004
1761379880125236000,7.948236083984375,0.14945925772190094,-0.2792699933052063,-1.8378269672393799
1761379880135292200,7.958292236328125,0.028727252036333084,0.08913573622703552,-0.40610089898109436
1761379880145347000,7.96834716796875,-0.08506136387586594,0.4211887717247009,0.7766451239585876
1761379880155403300,7.9784033203125,-0.11764407157897949,0.6702917814254761,1.379225254058838
1761379880165458000,7.9884580078125,-0.1255347579717636,0.8059567213058472,1.416864275932312
1761379880175512000,7.998511962890625,-0.08958368003368378,0.7403696775436401,1.0746406316757202
1761379880185568000,8.008568115234375,-0.03328924626111984,0.4727044403553009,0.5983436107635498
1761379880195623000,8.018622802734376,0.014693991281092167,0.09531400352716446,0.23553715646266937
1761379880205678800,8.028678955078124,0.05997997894883156,-0.28187721967697144,0.10020170360803604
1761379880215734000,8.038734130859375,0.07883569598197937,-0.5483906865119934,0.1845346987247467
1761379880225790000,8.0487900390625,0.06119384989142418,-0.7584829330444336,0.39834046363830566
1761379880235845000,8.05884521484375,0.04822052642703056,-0.839600145816803,0.6030539274215698
1761379880245900000,8.068900146484374,0.02996722050011158,-0.7471330761909485,0.7059752345085144
1761379880255956000,8.0789560546875,0.023030484095215797,-0.48759230971336365,0.6719754338264465
1761379880266011000,8.089010986328125,0.03734816983342171,-0.15095515549182892,0.4801887273788452
1761379880276067000,8.099067138671876,0.04801706224679947,0.14502111077308655,0.19247303903102875
1761379880286122000,8.1091220703125,0.031242607161402702,0.31243354082107544,-0.1002214103937149
1761379880296178200,8.11917822265625,0.012794891372323036,0.3165406584739685,-0.3292846977710724
1761379880306232800,8.12923291015625,0.019636817276477814,0.2160894274711609,-0.4345836639404297
1761379880316288000,8.1392880859375,0.022516494616866112,0.06506608426570892,-0.41458359360694885
1761379880326344000,8.149343994140626,0.018809640780091286,-0.08407812565565109,-0.33070653676986694
1761379880336399000,8.159399169921874,0.02381851337850094,-0.16190581023693085,-0.25213822722435
1761379880346455000,8.169455078125,0.008823585696518421,-0.20720484852790833,-0.206202432513237
1761379880356510000,8.179510009765625,-0.025655029341578484,-0.1968957483768463,-0.18774113059043884
1761379880366566000,8.18956591796875,-0.07370218634605408,-0.14044898748397827,-0.16634663939476013
1761379880376621000,8.19962109375,-0.1347961574792862,-0.07664284855127335,-0.13898184895515442
1761379880386676000,8.209676025390625,-0.19649335741996765,-0.03719424083828926,-0.09007636457681656
1761379880396732200,8.219732177734375,-0.22854715585708618,-0.0014152037911117077,-0.03395397216081619
1761379880406786800,8.229786865234376,-0.23012401163578033,0.05717061087489128,0.01552303321659565
1761379880416843000,8.239843017578124,-0.22417691349983215,0.1102609932422638,0.04373070225119591
1761379880426898000,8.24989794921875,-0.20267906785011292,0.13608354330062866,0.04820508137345314
1761379880436954000,8.2599541015625,-0.1676049828529358,0.15522393584251404,0.030047914013266563
1761379880447009000,8.270009033203126,-0.13431333005428314,0.1749875247478485,0.013557620346546173
1761379880457065200,8.280065185546874,-0.10334822535514832,0.16078968346118927,-0.009945841506123543
1761379880467119900,8.290119873046875,-0.06892713904380798,0.16033588349819183,-0.08011481165885925
1761379880477175000,8.300175048828125,-0.04935450106859207,0.18769772350788116,-0.18437810242176056
1761379880487231000,8.31023095703125,-0.07377994805574417,0.20226548612117767,-0.28637316823005676
1761379880497286100,8.3202861328125,-0.1170848086476326,0.18971720337867737,-0.34153202176094055
1761379880507342000,8.330342041015625,-0.15282416343688965,0.18110613524913788,-0.3423810601234436
1761379880517397000,8.34039697265625,-0.17083805799484253,0.1741265207529068,-0.3057902753353119
1761379880527453000,8.350452880859375,-0.15499384701251984,0.16605448722839355,-0.25540032982826233
1761379880537508000,8.360508056640626,-0.1391107439994812,0.1438453197479248,-0.2053787261247635
1761379880547563000,8.37056298828125,-0.12242817878723145,0.15357518196105957,-0.17704029381275177
1761379880557619200,8.380619140625,-0.11275211721658707,0.12683410942554474,-0.17322584986686707
1761379880567673300,8.39067333984375,-0.09736676514148712,0.06507700681686401,-0.19325228035449982
1761379880577729500,8.4007294921875,-0.06114538013935089,-0.024174578487873077,-0.22745685279369354
1761379880587784200,8.4107841796875,0.005036303773522377,-0.09923896938562393,-0.2674066722393036
1761379880597840400,8.42084033203125,0.05525579676032066,-0.11758068948984146,-0.29863888025283813
1761379880607895300,8.430895263671875,0.05970514193177223,-0.12155093252658844,-0.32595598697662354
1761379880617951500,8.440951416015626,0.053701575845479965,-0.10290587693452835,-0.34897157549858093
1761379880628006400,8.45100634765625,0.05242432653903961,-0.045399174094200134,-0.3813326954841614
1761379880638061300,8.461061279296874,0.05378466844558716,-0.0008050735923461616,-0.4223616421222687
1761379880648117200,8.4711171875,0.02382969856262207,0.04856647178530693,-0.4269910156726837
1761379880658172400,8.48117236328125,-0.031083084642887115,0.13029569387435913,-0.3650522828102112
1761379880668228400,8.491228271484376,-0.07897710800170898,0.19945105910301208,-0.22976501286029816
1761379880678283500,8.501283447265624,-0.11972639709711075,0.18602126836776733,-0.028379177674651146
1761379880688339500,8.51133935546875,-0.1415747106075287,0.12038739770650864,0.17524372041225433
1761379880698394400,8.521394287109375,-0.13777704536914825,0.10356181114912033,0.28135472536087036
1761379880708449300,8.53144921875,-0.12473899871110916,0.10419484227895737,0.26343271136283875
1761379880718505500,8.54150537109375,-0.09268786013126373,0.10372292995452881,0.14512524008750916
1761379880728560400,8.551560302734375,-0.05814213305711746,0.09937185794115067,0.003366768127307296
1761379880738616600,8.561616455078125,-0.03364957123994827,0.11770159751176834,-0.08302857726812363
1761379880748671200,8.571671142578126,-0.02930941991508007,0.1723957359790802,-0.09715691208839417
1761379880758727400,8.5817275390625,-0.057795923203229904,0.20620110630989075,-0.08386853337287903
1761379880768782300,8.5917822265625,-0.08837353438138962,0.18718667328357697,-0.09433715790510178
1761379880778837500,8.60183740234375,-0.09239118546247482,0.1606951355934143,-0.10033805668354034
1761379880788893400,8.6118935546875,-0.07183583825826645,0.17770421504974365,-0.055803876370191574
1761379880798948400,8.6219482421875,-0.10377299785614014,0.2758840322494507,0.14594894647598267
1761379880809004300,8.63200439453125,-0.22400860488414764,0.261960506439209,0.29668891429901123
1761379880819059500,8.6420595703125,-0.2925485074520111,0.12139886617660522,0.2598741948604584
1761379880829115400,8.652115478515626,-0.2210618108510971,-0.12536510825157166,0.21150799095630646
1761379880839170600,8.662170654296874,-0.08616124838590622,-0.276565283536911,0.13697250187397003
1761379880849226500,8.6722265625,-0.007724498864263296,-0.3838861584663391,0.07890573143959045
1761379880859281400,8.682281494140625,0.013529657386243343,-0.39811381697654724,0.08785395324230194
1761379880869336300,8.69233642578125,0.01570039987564087,-0.29092106223106384,0.16556046903133392
1761379880879392500,8.702392578125,0.011444934643805027,-0.18182812631130219,0.2457977831363678
1761379880889447400,8.712447509765624,0.004240817856043577,-0.1597001850605011,0.31213313341140747
1761379880899503400,8.72250341796875,0.08126050233840942,-0.100981205701828,0.2599237263202667
