time,seconds_elapsed,z,y,x
1761379872292099800,0.115099853515625,-0.2728536128997803,0.7076669335365295,0.483158677816391
1761379872302156000,0.125156005859375,-0.25359413027763367,0.6884346604347229,0.5246402621269226
1761379872312211000,0.1352109375,-0.2536540627479553,0.3555336892604828,0.666196882724762
1761379872322266000,0.14526611328125,-0.20044469833374023,-0.1972893625497818,0.7827209234237671
1761379872332322000,0.155322021484375,-0.10294797271490097,-0.607968807220459,0.7523078918457031
1761379872342377200,0.165377197265625,-0.02270554006099701,-0.6610497832298279,0.6396377086639404
1761379872352432000,0.17543212890625,0.08264271914958954,-0.3632018566131592,0.5412040948867798
1761379872362488000,0.185488037109375,0.12393156439065933,-0.12142141163349152,0.3830757439136505
1761379872372543000,0.19554296875,0.06078774854540825,0.22713524103164673,0.06390602141618729
1761379872382598100,0.20559814453125,-0.08992414176464081,0.7201852798461914,-0.4300312101840973
1761379872392654000,0.215654052734375,-0.24918515980243683,1.0629327297210693,-0.7920461297035217
1761379872402709000,0.225708984375,-0.3408825099468231,1.0727577209472656,-0.7362684011459351
1761379872412764200,0.23576416015625,-0.26802533864974976,0.7750570774078369,-0.3651023209095001
1761379872422820000,0.245820068359375,-0.2883937954902649,0.6423788666725159,0.0837918370962143
1761379872432875300,0.255875244140625,-0.3116439878940582,0.5857635140419006,0.49793413281440735
1761379872442930000,0.265929931640625,-0.2098541557788849,0.43617790937423706,0.7410587072372437
1761379872452985000,0.275985107421875,-0.04105314612388611,-0.1978302001953125,0.9472898840904236
1761379872463041000,0.286041015625,0.23328930139541626,-0.6016068458557129,1.3118293285369873
1761379872473096200,0.29609619140625,0.635517954826355,-0.8392828106880188,1.60196852684021
1761379872483150800,0.30615087890625,0.9460462927818298,-0.5082592964172363,1.639022707939148
1761379872493207000,0.31620703125,0.9390757083892822,0.20913395285606384,1.402612566947937
1761379872503262000,0.326261962890625,0.7592767477035522,0.745079755783081,1.003008246421814
1761379872513317000,0.336317138671875,0.5427473187446594,1.1419976949691772,0.4881177544593811
1761379872523373000,0.346373046875,0.31107601523399353,1.3260871171951294,-0.17832051217556
1761379872533428000,0.356427978515625,0.0421510748565197,1.1375422477722168,-0.8663500547409058
1761379872543483100,0.366483154296875,-0.15008807182312012,0.6285145878791809,-1.2203346490859985
1761379872553538300,0.376538330078125,-0.23998120427131653,0.19666779041290283,-1.0821869373321533
1761379872563593500,0.386593505859375,-0.252530574798584,-0.22680573165416718,-0.6582713723182678
1761379872573648400,0.3966484375,-0.08650112897157669,-0.5016037225723267,-0.12786982953548431
1761379872583704600,0.40670458984375,0.10946434736251831,-0.7371366620063782,0.3533630073070526
1761379872593759200,0.41675927734375,0.13983769714832306,-0.8133728504180908,0.47570621967315674
1761379872603814400,0.426814453125,0.07739473879337311,-0.6198450326919556,0.11696021258831024
1761379872613870300,0.436870361328125,0.02062280848622322,-0.36957526206970215,-0.4715099632740021
1761379872623925500,0.446925537109375,0.03471602499485016,-0.1783307045698166,-0.9317753911018372
1761379872633980400,0.45698046875,0.05319942906498909,-0.016006773337721825,-1.033325433731079
1761379872644035300,0.467035400390625,0.11577512323856354,0.028644224628806114,-0.7054615020751953
1761379872654091300,0.47709130859375,0.05202836915850639,0.030326278880238533,-0.02077314257621765
1761379872664146400,0.487146484375,-0.2409357875585556,0.08912525326013565,0.7400784492492676
1761379872674201600,0.49720166015625,-0.4787028133869171,0.45772886276245117,1.3306480646133423
1761379872684257500,0.507257568359375,-0.5421341061592102,0.8859051465988159,1.5139962434768677
1761379872694312400,0.5173125,-0.49885398149490356,1.084409236907959,1.10094153881073
1761379872704367400,0.527367431640625,-0.36384040117263794,1.0843185186386108,0.3259413242340088
1761379872714423300,0.53742333984375,-0.194717675447464,0.850613534450531,-0.4201837182044983
1761379872724478500,0.547478515625,-0.01666511967778206,0.5143237113952637,-0.8451802134513855
1761379872734533400,0.557533447265625,0.12185786664485931,0.23457112908363342,-0.8151724934577942
1761379872744589300,0.56758935546875,0.15973566472530365,0.05146540701389313,-0.393411248922348
1761379872754644500,0.57764453125,0.11447789520025253,-0.0236064400523901,0.21960394084453583
1761379872764699400,0.587699462890625,0.02802969701588154,-0.10776909440755844,0.770069420337677
1761379872774755600,0.597755615234375,-0.020964743569493294,-0.09567807614803314,1.0538681745529175
1761379872784810200,0.607810302734375,-0.02705523371696472,-0.0495852492749691,0.9600322246551514
1761379872794865400,0.617865478515625,0.028637055307626724,-0.007164290174841881,0.5086368322372437
1761379872804921300,0.62792138671875,0.14696118235588074,-0.003584610763937235,-0.14842906594276428
1761379872814976500,0.6379765625,0.3014596700668335,-0.18545614182949066,-0.7890899777412415
1761379872825031400,0.648031494140625,0.4353456497192383,-0.31803831458091736,-1.2485347986221313
1761379872835087400,0.65808740234375,0.47973015904426575,-0.28610357642173767,-1.4772089719772339
1761379872845142300,0.668142333984375,0.40696805715560913,-0.13776390254497528,-1.4612969160079956
1761379872855197400,0.678197509765625,0.27223020792007446,0.0675908550620079,-1.2619215250015259
1761379872865253400,0.68825341796875,0.13299831748008728,0.2906324565410614,-1.0077658891677856
1761379872875308500,0.69830859375,-0.023105531930923462,0.4992296099662781,-0.7414320707321167
1761379872885363500,0.708363525390625,-0.2558036148548126,0.5515673160552979,-0.5035247206687927
1761379872895419400,0.71841943359375,-0.5410028696060181,0.3973745107650757,-0.3235251307487488
1761379872905474300,0.728474365234375,-0.7061449289321899,0.2531023323535919,-0.2486468404531479
1761379872915529500,0.738529541015625,-0.7161136865615845,0.15615792572498322,-0.37152299284935
1761379872925585400,0.74858544921875,-0.6280391812324524,0.1268450915813446,-0.54844069480896
1761379872935640300,0.758640380859375,-0.4546436369419098,0.2326950877904892,-0.7365877032279968
1761379872945695500,0.768695556640625,-0.26491299271583557,0.30206501483917236,-0.9283474087715149
1761379872955751400,0.77875146484375,-0.11145393550395966,0.2764451205730438,-0.8853570222854614
1761379872965806600,0.788806640625,0.015376112423837185,0.18152359127998352,-0.4592219591140747
1761379872975861200,0.798861328125,0.14786651730537415,-0.053278520703315735,0.01389044988900423
1761379872985916400,0.80891650390625,0.29631394147872925,-0.4367847442626953,0.11255832016468048
1761379872995972400,0.818972412109375,0.39468100666999817,-0.8383766412734985,-0.384814977645874
1761379873006027500,0.829027587890625,0.3873133957386017,-1.0967596769332886,-1.5960204601287842
1761379873016082200,0.839082275390625,0.21034446358680725,-1.1689616441726685,-3.195481777191162
1761379873026138400,0.849138427734375,-0.09691333770751953,-0.7557106018066406,-4.470874786376953
1761379873036193300,0.859193359375,-0.3854053020477295,-0.03656739741563797,-4.582977771759033
1761379873046248400,0.86924853515625,-0.6578924655914307,0.6976368427276611,-2.9270739555358887
1761379873056304400,0.879304443359375,-0.7371590733528137,1.0948982238769531,-0.009580293670296669
1761379873066359600,0.889359619140625,-0.5309572219848633,1.053002119064331,2.726931095123291
1761379873076414500,0.89941455078125,-0.20212048292160034,0.7491617798805237,3.9887518882751465
1761379873086470400,0.909470458984375,0.06522949039936066,0.5709882974624634,3.6651666164398193
1761379873096525300,0.919525390625,0.21949896216392517,0.4831823408603668,2.5076072216033936
1761379873106580500,0.92958056640625,0.1546339988708496,0.0689564049243927,1.2631875276565552
1761379873116636400,0.939636474609375,0.002330213785171509,-0.1736953854560852,0.4512817859649658
1761379873126691300,0.94969140625,-0.11467266082763672,-0.28449758887290955,0.06402108818292618
1761379873136746500,0.95974658203125,-0.17735549807548523,-0.4171978533267975,-0.1541951298713684
1761379873146802400,0.969802490234375,-0.19092389941215515,-0.4882969260215759,-0.2813221216201782
1761379873156857600,0.979857666015625,-0.1789276897907257,-0.4459356367588043,-0.2779335379600525
1761379873166912300,0.989912353515625,-0.16418735682964325,-0.23178231716156006,-0.1848498284816742
1761379873176968400,0.999968505859375,-0.16986015439033508,0.17905262112617493,-0.13154186308383942
1761379873187023400,1.0100234375,-0.18639017641544342,0.6582303643226624,-0.22513949871063232
1761379873197078500,1.02007861328125,-0.24262894690036774,0.9442242980003357,-0.5295295119285583
1761379873207134500,1.030134521484375,-0.3294338285923004,1.000962257385254,-0.9126557111740112
1761379873217189400,1.040189453125,-0.3177044689655304,0.9477660655975342,-1.2043869495391846
1761379873227244300,1.050244384765625,-0.17902424931526184,0.7458061575889587,-1.386436939239502
1761379873237300500,1.060300537109375,0.04082634672522545,0.30902084708213806,-1.4686169624328613
1761379873247355400,1.07035546875,0.3502040505409241,0.11730697005987167,-1.3609334230422974
1761379873257410300,1.080410400390625,0.5564589500427246,-0.07302196323871613,-1.0303716659545898
1761379873267466200,1.09046630859375,0.5417147874832153,-0.4059489071369171,-0.522911548614502
1761379873277521400,1.100521484375,0.4318130612373352,-0.40729832649230957,0.12930938601493835
1761379873287576300,1.110576416015625,0.36473244428634644,-0.31668972969055176,0.747675359249115
1761379873297632500,1.120632568359375,0.27789074182510376,-0.35396119952201843,1.1706663370132446
1761379873307687400,1.1306875,0.15317197144031525,-0.4849248230457306,1.4507198333740234
1761379873317742300,1.140742431640625,-0.00400726031512022,-0.5684753656387329,1.7499253749847412
1761379873327798300,1.15079833984375,-0.1756705492734909,-0.694247841835022,2.0797572135925293
1761379873337853400,1.160853515625,-0.27442800998687744,-0.738478422164917,2.3177080154418945
1761379873347908600,1.17090869140625,-0.2847594618797302,-0.6851227879524231,2.4007930755615234
1761379873357964500,1.180964599609375,-0.17360764741897583,-0.4160042107105255,2.3761205673217773
1761379873368019500,1.19101953125,0.05436614528298378,-0.04166550561785698,2.2813186645507812
1761379873378074400,1.201074462890625,0.2643633186817169,0.2720513939857483,2.138637065887451
1761379873388130300,1.21113037109375,0.35000231862068176,0.40230926871299744,1.9367140531539917
1761379873398185500,1.221185546875,0.34653303027153015,0.31877124309539795,1.6990416049957275
1761379873408240400,1.231240478515625,0.2902219891548157,0.20737804472446442,1.5359474420547485
1761379873418296300,1.24129638671875,0.15935452282428741,0.09049136191606522,1.5130770206451416
1761379873428351500,1.2513515625,0.04650964215397835,-0.12745089828968048,1.5460728406906128
1761379873438406400,1.261406494140625,-0.07914815098047256,-0.35703909397125244,1.540149450302124
1761379873448462600,1.271462646484375,-0.04725399613380432,-0.45637139678001404,1.371033787727356
1761379873458517200,1.281517333984375,0.09443868696689606,-0.6344665288925171,0.981535792350769
1761379873468572400,1.291572509765625,0.20762571692466736,-0.9364149570465088,0.5107292532920837
1761379873478628400,1.30162841796875,0.36029887199401855,-1.0389364957809448,0.005363008007407188
1761379873488683500,1.31168359375,0.5760027170181274,-0.9699734449386597,-0.49406877160072327
1761379873498738200,1.32173828125,0.7100803852081299,-0.6870628595352173,-0.9177654385566711
1761379873508794400,1.33179443359375,0.6231473088264465,-0.48654231429100037,-1.219321846961975
1761379873518849300,1.341849365234375,0.42494261264801025,-0.16759096086025238,-1.2952876091003418
1761379873528904400,1.351904541015625,0.17974351346492767,0.3450811505317688,-1.1716662645339966
1761379873538960400,1.36196044921875,-0.06450989097356796,0.738823413848877,-0.9621025919914246
1761379873549015600,1.372015625,-0.14485891163349152,1.0068796873092651,-0.7504352927207947
1761379873559070500,1.382070556640625,-0.014632473699748516,0.9658044576644897,-0.7121781706809998
1761379873569126400,1.39212646484375,0.22863338887691498,0.480064332485199,-1.0332328081130981
1761379873579181300,1.402181396484375,0.3271082937717438,-0.15603086352348328,-1.683367371559143
1761379873589236500,1.412236572265625,0.1505792737007141,-0.37768128514289856,-2.2087154388427734
1761379873599292400,1.42229248046875,-0.056391745805740356,0.05828749015927315,-1.8822647333145142
1761379873609347300,1.432347412109375,-0.10643191635608673,0.5859828591346741,-0.9269240498542786
1761379873619402500,1.442402587890625,0.09860938042402267,0.24582310020923615,-0.13954342901706696
1761379873629458400,1.45245849609375,0.436585396528244,-0.7851844429969788,0.08430075645446777
1761379873639513600,1.462513671875,0.6524178385734558,-1.6357452869415283,-0.33460596203804016
1761379873649568500,1.472568603515625,0.7066742777824402,-1.8277546167373657,-1.1334607601165771
1761379873659624400,1.48262451171875,0.512273371219635,-1.1568686962127686,-1.952520728111267
1761379873669679400,1.492679443359375,0.10462681204080582,-0.11444554477930069,-2.2241814136505127
1761379873679734500,1.502734619140625,-0.2243654578924179,0.8212690949440002,-1.4187172651290894
1761379873689790500,1.51279052734375,-0.3229507803916931,1.4110795259475708,0.2541049122810364
1761379873699845600,1.522845703125,-0.2142096608877182,1.4030588865280151,1.942962884902954
1761379873709900300,1.532900390625,-0.057339880615472794,1.0041725635528564,2.90200138092041
1761379873719956500,1.54295654296875,-0.047708023339509964,0.5088351964950562,2.985727310180664
1761379873730011400,1.553011474609375,-0.1973349004983902,-0.00094002322293818,2.416945219039917
1761379873740066600,1.563066650390625,-0.3741948902606964,-0.24158725142478943,1.6115427017211914
1761379873750122500,1.57312255859375,-0.4682261347770691,-0.3967564105987549,0.8628039360046387
1761379873760177400,1.583177490234375,-0.4856421649456024,-0.9109858870506287,0.33390653133392334
1761379873770232300,1.593232421875,-0.428832471370697,-1.178716778755188,0.15367203950881958
1761379873780288500,1.60328857421875,-0.4525098502635956,-1.0481704473495483,0.06150935962796211
1761379873790343400,1.613343505859375,-0.5816850662231445,-0.6203974485397339,-0.059731993824243546
1761379873800398300,1.6233984375,-0.6878657937049866,0.06967470049858093,-0.12279591709375381
1761379873810454300,1.633454345703125,-0.7037275433540344,0.9674180746078491,-0.019968988373875618
1761379873820509400,1.643509521484375,-0.6501103639602661,1.5158872604370117,0.19758489727973938
1761379873830564600,1.653564697265625,-0.480740487575531,1.4107619524002075,0.46130669116973877
1761379873840620500,1.66362060546875,-0.21412396430969238,0.9508146643638611,0.7088826894760132
1761379873850675500,1.673675537109375,0.023853003978729248,0.280547171831131,0.8241618275642395
1761379873860730400,1.68373046875,0.3008161783218384,-0.32297173142433167,0.8014325499534607
1761379873870786300,1.693786376953125,0.5213335752487183,-0.792201042175293,0.8106733560562134
1761379873880841500,1.703841552734375,0.6329389214515686,-0.8863469958305359,1.0273418426513672
1761379873890896600,1.713896728515625,0.6064578890800476,-0.5198711156845093,1.3820197582244873
1761379873900952300,1.723952392578125,0.4037543535232544,0.07590250670909882,1.5757253170013428
1761379873911007500,1.734007568359375,0.14533059298992157,0.596210241317749,1.5223959684371948
1761379873921062400,1.7440625,-0.09421409666538239,0.7536853551864624,1.200447678565979
1761379873931118600,1.75411865234375,-0.2620554268360138,0.6252701878547668,0.6995871663093567
1761379873941173500,1.764173583984375,-0.44088828563690186,0.4221953749656677,0.14203791320323944
1761379873951229400,1.7742294921875,-0.6138430237770081,0.2892794609069824,-0.36927229166030884
1761379873961284400,1.784284423828125,-0.6386793851852417,0.27220192551612854,-0.7532420754432678
1761379873971339500,1.794339599609375,-0.5744128227233887,0.3758094906806946,-0.8495984077453613
1761379873981395500,1.8043955078125,-0.4204634428024292,0.5163005590438843,-0.6304945349693298
1761379873991450600,1.81445068359375,-0.19935117661952972,0.5058307647705078,-0.31413185596466064
1761379874001505300,1.82450537109375,0.028060130774974823,0.28588563203811646,-0.12408975511789322
1761379874011561500,1.8345615234375,0.21657855808734894,-0.04360608011484146,-0.1618497669696808
1761379874021616400,1.844616455078125,0.3144422769546509,-0.4631809592247009,-0.34220409393310547
1761379874031671600,1.854671630859375,0.3840489089488983,-0.8829094171524048,-0.4825488328933716
1761379874041727500,1.8647275390625,0.38920530676841736,-1.0932261943817139,-0.5345342755317688
1761379874051782400,1.874782470703125,0.3005378544330597,-1.0579769611358643,-0.5573121309280396
1761379874061837300,1.88483740234375,0.17786787450313568,-0.822845458984375,-0.5864633917808533
1761379874071893500,1.8948935546875,0.05989053100347519,-0.4726462960243225,-0.6722539067268372
1761379874081948400,1.904948486328125,-0.04131944105029106,-0.11958035826683044,-0.8743308186531067
1761379874092003300,1.91500341796875,-0.14283998310565948,0.1689659059047699,-1.100534200668335
1761379874102059300,1.925059326171875,-0.27163124084472656,0.3177032172679901,-1.2388465404510498
1761379874112114400,1.935114501953125,-0.3770781457424164,0.3510549068450928,-1.244003415107727
1761379874122169600,1.945169677734375,-0.4322521984577179,0.2686644196510315,-1.0147963762283325
1761379874132225500,1.9552255859375,-0.4000732898712158,0.30191710591316223,-0.5822413563728333
1761379874142280400,1.965280517578125,-0.35604724287986755,0.43473613262176514,-0.12129772454500198
1761379874152335400,1.97533544921875,-0.3201723098754883,0.5624033212661743,0.1788104772567749
1761379874162391600,1.9853916015625,-0.279137521982193,0.6181941628456116,0.18698450922966003
1761379874172446500,1.995446533203125,-0.2470112442970276,0.4348571300506592,-0.15209956467151642
1761379874182501600,2.005501708984375,-0.18517105281352997,-0.05958988517522812,-0.6265382170677185
1761379874192557300,2.015557373046875,-0.11354324221611023,-0.725837230682373,-1.0609849691390991
1761379874202612500,2.025612548828125,-0.02173636108636856,-1.072543740272522,-1.2977389097213745
1761379874212668400,2.03566845703125,0.11915681511163712,-0.9242647886276245,-1.1555348634719849
1761379874222723600,2.0457236328125,0.2480037361383438,-0.5876530408859253,-0.6419285535812378
1761379874232778500,2.055778564453125,0.426877498626709,-0.21613258123397827,-0.15018203854560852
1761379874242834400,2.06583447265625,0.6842911839485168,-0.19004878401756287,-0.2047824263572693
1761379874252889300,2.075889404296875,0.8031005263328552,-0.5475870370864868,-1.024373173713684
1761379874262944500,2.085944580078125,0.5750524401664734,-0.9634414911270142,-2.255859851837158
1761379874273000400,2.09600048828125,0.09237383306026459,-0.9370901584625244,-3.2964329719543457
1761379874283055600,2.1060556640625,-0.42437422275543213,-0.6008418798446655,-3.679123878479004
1761379874293110300,2.1161103515625,-0.759848415851593,-0.0846310406923294,-3.1917476654052734
1761379874303166500,2.12616650390625,-0.7870666980743408,0.5506055355072021,-1.8432778120040894
1761379874313221400,2.136221435546875,-0.5240921974182129,0.8230551481246948,-0.17426656186580658
1761379874323276500,2.146276611328125,-0.12150692194700241,0.6282802820205688,1.2592453956604004
1761379874333332500,2.15633251953125,0.2945190668106079,0.31705933809280396,2.1373112201690674
1761379874343387400,2.166387451171875,0.5215708613395691,0.17236793041229248,2.4723050594329834
1761379874353442300,2.1764423828125,0.5272190570831299,0.055020686239004135,2.4194176197052
1761379874363498500,2.18649853515625,0.41318967938423157,-0.03551400452852249,2.1404685974121094
1761379874373553400,2.196553466796875,0.28413641452789307,0.037167709320783615,1.9256502389907837
1761379874383608300,2.2066083984375,0.11317507177591324,0.13758060336112976,1.8573026657104492
1761379874393664300,2.216664306640625,-0.043197810649871826,0.365610808134079,1.8876339197158813
1761379874403719400,2.226719482421875,-0.14508342742919922,0.6380753517150879,2.061461925506592
1761379874413774600,2.236774658203125,-0.10108756273984909,0.8452427983283997,2.2375221252441406
1761379874423830500,2.24683056640625,0.07222217321395874,0.9318227171897888,2.214369297027588
1761379874433885400,2.256885498046875,0.2805514335632324,0.880474328994751,1.9687072038650513
1761379874443941400,2.26694140625,0.4380260109901428,0.7130573987960815,1.5757898092269897
1761379874453996500,2.27699658203125,0.4560307264328003,0.4106449484825134,1.1078836917877197
1761379874464051500,2.287051513671875,0.3939838707447052,-0.05810283496975899,0.7304511666297913
1761379874474107400,2.297107421875,0.312166303396225,-0.5327689051628113,0.5566335916519165
1761379874484162300,2.307162353515625,0.19815903902053833,-0.7924667596817017,0.5390282273292542
1761379874494217500,2.317217529296875,0.1038769856095314,-0.6929304003715515,0.6139127016067505
1761379874504273400,2.3272734375,0.07877323031425476,-0.3504102826118469,0.7409366965293884
1761379874514328600,2.33732861328125,0.104510098695755,0.08205489069223404,0.828170895576477
1761379874524383500,2.347383544921875,0.1628788709640503,0.43017587065696716,0.8427886962890625
1761379874534439700,2.357439697265625,0.21010032296180725,0.542262077331543,0.7386351227760315
1761379874544494300,2.367494384765625,0.17961326241493225,0.41468095779418945,0.47481870651245117
1761379874554550500,2.377550537109375,0.1055867150425911,0.11115039885044098,0.18801265954971313
1761379874564606500,2.3876064453125,0.06158863380551338,-0.2596585750579834,0.08133254945278168
1761379874574661400,2.397661376953125,0.05634190887212753,-0.5847876667976379,0.2003713846206665
1761379874584717600,2.407717529296875,0.08759543299674988,-0.7094225287437439,0.43088287115097046
1761379874594772200,2.417772216796875,0.10604614019393921,-0.5488945841789246,0.6267076730728149
1761379874604827400,2.427827392578125,0.07615695148706436,-0.21060605347156525,0.673178493976593
1761379874614883300,2.43788330078125,0.02789400890469551,0.13801869750022888,0.5453747510910034
1761379874624938500,2.4479384765625,-0.03191366419196129,0.36340418457984924,0.2499295175075531
1761379874634993400,2.457993408203125,-0.13480894267559052,0.4854317605495453,-0.08874353766441345
1761379874645049300,2.46804931640625,-0.22975356876850128,0.5027825236320496,-0.3934667110443115
1761379874655104500,2.4781044921875,-0.29607337713241577,0.41106146574020386,-0.6489161849021912
1761379874665159400,2.488159423828125,-0.28768494725227356,0.23093511164188385,-0.829531729221344
1761379874675215400,2.49821533203125,-0.18217521905899048,0.05720973759889603,-0.9146645069122314
1761379874685270300,2.508270263671875,-0.03613677993416786,-0.06481310725212097,-0.9314975142478943
1761379874695325400,2.518325439453125,0.09962395578622818,-0.10644206404685974,-0.9125509858131409
1761379874705381400,2.52838134765625,0.1994493454694748,-0.055794332176446915,-0.8833704590797424
1761379874715436500,2.5384365234375,0.1984148472547531,0.011090017855167389,-0.9004062414169312
1761379874725491200,2.5484912109375,0.0842248871922493,0.057692140340805054,-1.0638753175735474
1761379874735547400,2.55854736328125,-0.10380493849515915,0.054292596876621246,-1.380695104598999
1761379874745602300,2.568602294921875,-0.27699190378189087,0.030834674835205078,-1.789795994758606
1761379874755658500,2.578658447265625,-0.3713073432445526,0.009628618136048317,-2.20576548576355
1761379874765713400,2.58871337890625,-0.38168540596961975,-0.05189945921301842,-2.529315948486328
1761379874775768600,2.5987685546875,-0.3123427629470825,-0.08223041146993637,-2.6706366539001465
1761379874785824300,2.60882421875,-0.16386592388153076,-0.11556386947631836,-2.589725971221924
1761379874795879400,2.61887939453125,-0.007292501162737608,-0.11729458719491959,-2.3041610717773438
1761379874805934300,2.628934326171875,0.04532916471362114,-0.0960761159658432,-1.9451115131378174
1761379874815990500,2.638990478515625,-0.04869840294122696,-0.04827331751585007,-1.6155692338943481
1761379874826045400,2.64904541015625,-0.2109416425228119,-0.047190211713314056,-1.3976198434829712
1761379874836101400,2.659101318359375,-0.35281434655189514,-0.2342628538608551,-1.4383896589279175
1761379874846156300,2.66915625,-0.32962220907211304,-0.5032998919487,-1.9562993049621582
1761379874856211500,2.67921142578125,-0.16109198331832886,-0.48839789628982544,-2.6855480670928955
1761379874866267400,2.689267333984375,-0.04648019000887871,-0.2908933162689209,-2.9228358268737793
1761379874876322600,2.699322509765625,0.04783601313829422,-0.44949594140052795,-2.3289387226104736
1761379874886377200,2.709377197265625,0.1422240436077118,-0.581117570400238,-1.2629629373550415
1761379874896433400,2.719433349609375,0.21774253249168396,-0.6723553538322449,-0.7155015468597412
1761379874906488300,2.72948828125,0.30951935052871704,-0.8313165307044983,-1.154571294784546
1761379874916543500,2.73954345703125,0.3557685315608978,-0.8240218758583069,-1.9743062257766724
1761379874926599400,2.749599365234375,0.3161841034889221,-0.7897312641143799,-2.7135567665100098
1761379874936654300,2.759654296875,0.3406088650226593,-0.7884888648986816,-3.1607346534729004
1761379874946709500,2.76970947265625,0.38364341855049133,-0.7425777912139893,-3.0001168251037598
1761379874956765400,2.779765380859375,0.32517144083976746,-0.48924073576927185,-2.02262806892395
1761379874966820400,2.7898203125,0.1183311715722084,-0.004946489818394184,-0.2792210876941681
1761379874976876500,2.79987646484375,-0.15212731063365936,0.4196646213531494,1.7036960124969482
1761379874986931200,2.80993115234375,-0.3610677421092987,0.6187925934791565,3.0967249870300293
1761379874996986400,2.819986328125,-0.393324613571167,0.547205924987793,3.4344406127929688
1761379875007042300,2.830042236328125,-0.2547680735588074,0.40422025322914124,3.0151541233062744
1761379875017097500,2.840097412109375,-0.016800126060843468,0.1900883913040161,2.388617515563965
1761379875027152400,2.85015234375,0.2549472153186798,-0.103409543633461,2.0435245037078857
1761379875037208300,2.860208251953125,0.5076912045478821,-0.3441562354564667,2.128049373626709
1761379875047263500,2.870263427734375,0.7056258320808411,-0.4243813157081604,2.379150867462158
1761379875057318400,2.880318359375,0.7793566584587097,-0.41527000069618225,2.5765957832336426
1761379875067374600,2.89037451171875,0.6628355979919434,-0.10447271168231964,2.6009273529052734
1761379875077429200,2.90042919921875,0.28457626700401306,0.36399126052856445,2.45379376411438
1761379875087485400,2.9104853515625,-0.28713172674179077,0.8047686219215393,2.218029022216797
1761379875097540400,2.920540283203125,-0.8600295186042786,1.1803921461105347,2.0220725536346436
1761379875107595500,2.930595458984375,-1.2075564861297607,1.374021291732788,1.9724953174591064
1761379875117651500,2.9406513671875,-1.2714533805847168,1.3864432573318481,2.0104482173919678
1761379875127706400,2.950706298828125,-1.0842878818511963,1.3253543376922607,1.9867578744888306
1761379875137761300,2.96076123046875,-0.7189391255378723,1.0526303052902222,1.8764541149139404
1761379875147817500,2.9708173828125,-0.29140910506248474,0.7050377130508423,1.8138344287872314
1761379875157872400,2.980872314453125,0.08127738535404205,0.4218592345714569,1.8458993434906006
1761379875167927600,2.990927490234375,0.28208932280540466,0.20419056713581085,1.9161837100982666
1761379875177983500,3.0009833984375,0.3210029900074005,0.02286454476416111,1.9393707513809204
1761379875188038400,3.011038330078125,0.25277891755104065,-0.04793772101402283,1.9124398231506348
1761379875198094300,3.02109423828125,0.11164144426584244,-0.10176187753677368,1.7965295314788818
1761379875208149500,3.0311494140625,-0.022043384611606598,-0.11427687108516693,1.5641257762908936
1761379875218204400,3.041204345703125,-0.1215287297964096,-0.024547534063458443,1.2119429111480713
1761379875228260600,3.051260498046875,-0.18011987209320068,0.09943646192550659,0.7523506283760071
1761379875238315300,3.061315185546875,-0.18219909071922302,0.2762228548526764,0.3186800479888916
1761379875248370400,3.071370361328125,-0.12967833876609802,0.37361252307891846,0.0013968930579721928
1761379875258426400,3.08142626953125,-0.031234879046678543,0.4098682403564453,-0.0792865976691246
1761379875268481500,3.0914814453125,0.10859519243240356,0.37631481885910034,-0.058077190071344376
1761379875278536200,3.1015361328125,0.24590809643268585,0.15355825424194336,-0.011704755946993828
1761379875288592400,3.11159228515625,0.3636315166950226,-0.13673749566078186,0.0187934972345829
1761379875298647300,3.121647216796875,0.4019874632358551,-0.3295692503452301,-0.05159023776650429
1761379875308703500,3.131703369140625,0.32868874073028564,-0.4192964732646942,-0.19106264412403107
1761379875318758400,3.14175830078125,0.22677944600582123,-0.43273529410362244,-0.35398104786872864
1761379875328813300,3.151813232421875,0.14518845081329346,-0.36925432085990906,-0.5162839293479919
1761379875338869200,3.161869140625,0.10076387971639633,-0.26884955167770386,-0.6834976077079773
1761379875348924400,3.17192431640625,0.10270985215902328,-0.1429651379585266,-0.8505629897117615
1761379875358979600,3.1819794921875,0.12288261950016022,-0.09322089701890945,-0.9934483170509338
1761379875369035500,3.192035400390625,0.14169013500213623,-0.10040503740310669,-1.177462100982666
1761379875379090400,3.20209033203125,0.14423853158950806,-0.1356348842382431,-1.4325042963027954
1761379875389146400,3.212146484375,0.10077015310525894,-0.11271785199642181,-1.6772242784500122
1761379875399201300,3.222201171875,0.014398233965039253,-0.023959247395396233,-1.7845189571380615
1761379875409256400,3.23225634765625,-0.07516973465681076,0.05554170161485672,-1.7674834728240967
1761379875419312400,3.2423125,-0.1358679085969925,0.05941026285290718,-1.6693449020385742
1761379875429367300,3.2523671875,-0.14585182070732117,0.009661082178354263,-1.498038411140442
1761379875439422500,3.26242236328125,-0.0942993015050888,-0.038641612976789474,-1.2637616395950317
1761379875449478400,3.272478515625,0.005783890374004841,-0.06253336369991302,-1.0441395044326782
1761379875459533600,3.282533447265625,0.1308617889881134,-0.07946369051933289,-0.8616303205490112
1761379875469588500,3.29258837890625,0.2540436387062073,-0.19412583112716675,-0.7052721381187439
1761379875479644400,3.30264453125,0.32462233304977417,-0.5159338116645813,-0.6914775371551514
1761379875489699300,3.31269921875,0.25326427817344666,-0.9455051422119141,-0.9236454963684082
1761379875499755300,3.32275537109375,0.1061139926314354,-0.9444926381111145,-1.328621506690979
1761379875509810400,3.332810546875,-0.061946116387844086,-0.3854184150695801,-1.6063923835754395
1761379875519865600,3.342865478515625,-0.19196616113185883,0.06453065574169159,-1.4634965658187866
1761379875529921300,3.35292138671875,-0.06807750463485718,0.24626688659191132,-0.9045617580413818
1761379875539976400,3.3629765625,0.3062354028224945,0.08469797670841217,-0.47651347517967224
1761379875550031400,3.37303125,0.5865189433097839,-0.43199652433395386,-0.508313775062561
1761379875560087000,3.383087158203125,0.5771611332893372,-0.7457724213600159,-0.9348585605621338
1761379875570141700,3.3931416015625,0.31556838750839233,-0.7066130042076111,-1.6939550638198853
1761379875580198000,3.403197998046875,0.0029523735865950584,-0.5288364291191101,-2.539846181869507
1761379875590252800,3.413252685546875,-0.2166907638311386,-0.3279770612716675,-2.907724380493164
1761379875600308000,3.423307861328125,-0.346752792596817,0.009787783026695251,-2.5020501613616943
1761379875610364000,3.433364013671875,-0.34638527035713196,0.2771931290626526,-1.320075273513794
1761379875620418800,3.443418701171875,-0.2718747854232788,0.518930971622467,0.1381070613861084
1761379875630473700,3.4534736328125,-0.24043722450733185,0.6346852779388428,1.1824848651885986
1761379875640530000,3.463530029296875,-0.3143176734447479,0.6895989775657654,1.6300733089447021
1761379875650584800,3.473584716796875,-0.5089138150215149,0.5162474513053894,1.702422022819519
1761379875660640000,3.483639892578125,-0.5885060429573059,0.115880586206913,1.6189988851547241
1761379875670696000,3.493696044921875,-0.6039241552352905,-0.2428291141986847,1.575202226638794
1761379875680750800,3.503750732421875,-0.5867672562599182,-0.3680090308189392,1.6710205078125
1761379875690806800,3.513806884765625,-0.5899542570114136,-0.2831050455570221,1.830098032951355
1761379875700862000,3.523862060546875,-0.6591294407844543,0.0754915252327919,2.00045108795166
1761379875710917000,3.533917236328125,-0.8481680750846863,0.7915835380554199,2.183406114578247
1761379875720973000,3.54397314453125,-1.078395962715149,1.5550795793533325,2.20426082611084
1761379875731028000,3.554028076171875,-1.2966300249099731,2.02571177482605,1.8259297609329224
1761379875741083000,3.564082763671875,-1.3763561248779297,2.1246871948242188,1.0928651094436646
1761379875751138800,3.574138916015625,-1.2607258558273315,1.9059630632400513,0.343527227640152
1761379875761194000,3.584194091796875,-1.0359187126159668,1.3922538757324219,-0.16270777583122253
1761379875771250000,3.59425,-0.7047306299209595,0.5298829674720764,-0.2559186816215515
1761379875781304800,3.604304931640625,-0.3153406083583832,-0.17184947431087494,0.17201724648475647
1761379875791360000,3.614360107421875,0.04090912267565727,-0.4792621433734894,0.9925104975700378
1761379875801416000,3.624416015625,0.26364949345588684,-0.48994654417037964,1.9461520910263062
1761379875811471000,3.63447119140625,0.3718004524707794,-0.2546232342720032,2.6299080848693848
1761379875821525800,3.64452587890625,0.3957577645778656,-0.02957860939204693,2.825657606124878
1761379875831582000,3.65458203125,0.31651991605758667,0.18365029990673065,2.5583462715148926
1761379875841636900,3.664636962890625,0.14385761320590973,0.3688255250453949,2.037137746810913
1761379875851692800,3.67469287109375,-0.07023123651742935,0.513654351234436,1.4416862726211548
1761379875861748000,3.684748046875,-0.23066866397857666,0.6224483847618103,0.8479141592979431
1761379875871803000,3.694802978515625,-0.27955445647239685,0.5935906171798706,0.310336172580719
1761379875881858800,3.70485888671875,-0.21314609050750732,0.4095848798751831,-0.10721836984157562
1761379875891914000,3.7149140625,-0.0673404112458229,0.08166774362325668,-0.28922945261001587
1761379875901969000,3.724968994140625,0.12097813934087753,-0.21367812156677246,-0.2498321533203125
1761379875912025000,3.735025146484375,0.2894536852836609,-0.44035306572914124,-0.10583982616662979
1761379875922079700,3.745079833984375,0.3971805274486542,-0.5777925252914429,0.09969475120306015
1761379875932135000,3.755135009765625,0.45742151141166687,-0.7166979312896729,0.229947030544281
1761379875942190800,3.76519091796875,0.5357766151428223,-0.8071202039718628,0.14774979650974274
1761379875952246000,3.77524609375,0.5879239439964294,-0.8799731135368347,-0.11890028417110443
1761379875962302000,3.785302001953125,0.6061748266220093,-0.9571211934089661,-0.4774063229560852
1761379875972356900,3.79535693359375,0.6456220746040344,-0.9239038825035095,-0.8765974044799805
1761379875982411800,3.805411865234375,0.7234365940093994,-0.8249006867408752,-1.310497522354126
1761379875992468000,3.815468017578125,0.7594920992851257,-0.6974889039993286,-1.6531387567520142
1761379876002523000,3.82552294921875,0.7589872479438782,-0.5165901780128479,-1.8046305179595947
1761379876012579000,3.8355791015625,0.7325124740600586,-0.2989334762096405,-1.7855491638183594
1761379876022633700,3.8456337890625,0.6659029722213745,-0.13034620881080627,-1.6967313289642334
1761379876032689000,3.85568896484375,0.5658610463142395,-0.07656926661729813,-1.6084659099578857
1761379876042744800,3.865744873046875,0.4875129163265228,-0.09273739159107208,-1.5435571670532227
1761379876052800000,3.875800048828125,0.44503122568130493,-0.2341344654560089,-1.5727800130844116
1761379876062855000,3.88585498046875,0.4437915086746216,-0.3988371789455414,-1.649783968925476
1761379876072910800,3.895910888671875,0.4346214234828949,-0.43628761172294617,-1.6504542827606201
1761379876082965800,3.9059658203125,0.38028985261917114,-0.2589183449745178,-1.484585165977478
1761379876093022000,3.91602197265625,0.3285278379917145,0.034961748868227005,-1.1719160079956055
1761379876103076900,3.926076904296875,0.2937982678413391,0.2483314871788025,-0.8426214456558228
1761379876113132000,3.936132080078125,0.250428169965744,0.2682942748069763,-0.6688592433929443
1761379876123188000,3.94618798828125,0.2522497773170471,0.09831506013870239,-0.7015677690505981
1761379876133243000,3.956242919921875,0.3319784104824066,-0.1949104219675064,-0.9119593501091003
1761379876143297800,3.9662978515625,0.3968277871608734,-0.47856923937797546,-1.2222591638565063
1761379876153354000,3.97635400390625,0.37524232268333435,-0.6553218960762024,-1.4759572744369507
1761379876163409000,3.986408935546875,0.27452585101127625,-0.5978236794471741,-1.4543876647949219
1761379876173465000,3.996465087890625,0.21912917494773865,-0.22609779238700867,-0.9588782787322998
1761379876183517000,4.006516845703125,0.2615949809551239,0.09289515018463135,-0.22346210479736328
1761379876193573000,4.016572998046875,0.3981190025806427,0.2902316749095917,0.11246690899133682
1761379876203627800,4.026627685546875,0.72000652551651,0.35903483629226685,-0.331052303314209
1761379876213683000,4.036682861328125,1.0479812622070312,0.17209583520889282,-1.3278868198394775
1761379876223739000,4.04673876953125,1.098352074623108,-0.3167478144168854,-2.4798424243927
1761379876233794000,4.0567939453125,0.8894057869911194,-0.8402121067047119,-3.5037710666656494
1761379876243848700,4.0668486328125,0.6150181889533997,-0.9592761397361755,-3.8750112056732178
1761379876253905000,4.07690478515625,0.43883970379829407,-0.5905857086181641,-3.1152164936065674
1761379876263959800,4.086959716796875,0.1353888064622879,-0.08917717635631561,-1.1468738317489624
1761379876274016000,4.09701611328125,-0.3928784728050232,0.6230295896530151,1.3434019088745117
1761379876284071000,4.10707080078125,-0.8584913015365601,1.272229790687561,3.303056001663208
1761379876294125800,4.117125732421875,-1.026723861694336,1.5531792640686035,4.16717004776001
1761379876304181800,4.127181640625,-0.9087585210800171,1.326123833656311,3.997870683670044
1761379876314237000,4.13723681640625,-0.6479197144508362,0.7760956883430481,3.0749707221984863
1761379876324291800,4.147291748046875,-0.3642418384552002,0.14326322078704834,1.8568867444992065
1761379876334348000,4.15734814453125,-0.18447764217853546,-0.16929760575294495,0.8766524791717529
1761379876344402700,4.167402587890625,-0.07751737534999847,-0.2275819480419159,0.5098089575767517
1761379876354459000,4.177458984375,0.0071168155409395695,-0.12494266033172607,0.7769548892974854
1761379876364513800,4.187513671875,-0.04834873601794243,0.2945713400840759,1.4600903987884521
1761379876374569000,4.19756884765625,-0.23956051468849182,0.7661316990852356,2.1635055541992188
1761379876384625000,4.207625,-0.3942711353302002,0.9876313805580139,2.560288190841675
1761379876394679800,4.2176796875,-0.5551076531410217,0.9125084280967712,2.5931875705718994
1761379876404735000,4.22773486328125,-0.7250964641571045,0.7006310224533081,2.2686870098114014
1761379876414791000,4.237791015625,-0.8518730401992798,0.5627296566963196,1.642958402633667
1761379876424845800,4.247845703125,-0.8521493077278137,0.4976722300052643,0.911953866481781
1761379876434902000,4.257902099609375,-0.7005749940872192,0.455435574054718,0.31285080313682556
1761379876444957000,4.26795703125,-0.4726656973361969,0.43145620822906494,0.0710621029138565
1761379876455011800,4.27801171875,-0.2932780981063843,0.378845751285553,0.23377671837806702
1761379876465067800,4.28806787109375,-0.19392633438110352,0.267074853181839,0.7178925275802612
1761379876475123000,4.298123046875,-0.18556374311447144,0.07076896727085114,1.245917797088623
1761379876485178000,4.30817822265625,-0.16953130066394806,-0.16764041781425476,1.5883477926254272
1761379876495234000,4.318234130859375,-0.10438638925552368,-0.4469711184501648,1.6868919134140015
1761379876505289000,4.3282890625,0.040066517889499664,-0.6378328800201416,1.5525285005569458
1761379876515345000,4.338344970703125,0.2087884247303009,-0.7509695887565613,1.2460691928863525
1761379876525399800,4.34839990234375,0.39885738492012024,-0.7489288449287415,0.8298302292823792
1761379876535455000,4.358455078125,0.5655635595321655,-0.551190197467804,0.40156808495521545
1761379876545511000,4.368510986328125,0.6792626976966858,-0.2959011197090149,0.024647383019328117
1761379876555566300,4.37856640625,0.7457320094108582,-0.1595297008752823,-0.29220831394195557
1761379876565622300,4.388622314453125,0.7548882365226746,-0.08581371605396271,-0.5217069387435913
1761379876575677400,4.398677490234375,0.6929526925086975,-0.07224997133016586,-0.5166605710983276
1761379876585732000,4.408732177734375,0.5592232346534729,-0.13674737513065338,-0.30509838461875916
1761379876595788300,4.418788330078125,0.41539517045021057,-0.29262909293174744,-0.0783294066786766
1761379876605843200,4.42884326171875,0.2800600528717041,-0.37373510003089905,0.16781316697597504
1761379876615898400,4.4388984375,0.10573113709688187,-0.3203781247138977,0.4196890890598297
1761379876625954300,4.448954345703125,-0.12167521566152573,-0.2247142493724823,0.5640844106674194
1761379876636009200,4.45900927734375,-0.3100893199443817,-0.14629587531089783,0.47673171758651733
1761379876646065200,4.469065185546875,-0.37201493978500366,-0.16908369958400726,0.08171280473470688
1761379876656120300,4.479120361328125,-0.2545791268348694,-0.23974375426769257,-0.4246009886264801
1761379876666175500,4.489175537109375,-0.08112020790576935,-0.38646334409713745,-0.8346900939941406
1761379876676231400,4.4992314453125,0.04100996255874634,-0.4289838969707489,-1.0158377885818481
1761379876686286300,4.509286376953125,0.13909506797790527,-0.48614779114723206,-0.8749209642410278
1761379876696342300,4.51934228515625,0.17794527113437653,-0.487013041973114,-0.5243570804595947
1761379876706397200,4.529397216796875,0.07515841722488403,-0.36936500668525696,-0.14700834453105927
1761379876716452400,4.539452392578125,-0.1227906197309494,-0.28603681921958923,0.15431155264377594
1761379876726508300,4.54950830078125,-0.3235630393028259,-0.11941682547330856,0.353823721408844
1761379876736563200,4.559563232421875,-0.5073339343070984,0.0828249529004097,0.34396255016326904
1761379876746618400,4.569618408203125,-0.6478555798530579,0.25457674264907837,0.08455192297697067
1761379876756674300,4.57967431640625,-0.6842167973518372,0.35691162943840027,-0.45004865527153015
1761379876766729500,4.5897294921875,-0.6207101941108704,0.23256629705429077,-1.3263763189315796
1761379876776785400,4.599785400390625,-0.63067626953125,-0.1780039221048355,-2.2829596996307373
1761379876786840300,4.60984033203125,-0.8361731767654419,-0.3940269351005554,-2.8989408016204834
1761379876796895200,4.619895263671875,-1.1310386657714844,-0.2035006731748581,-2.934016466140747
1761379876806951200,4.629951171875,-1.2522304058074951,0.5000361204147339,-2.163562536239624
1761379876817006300,4.64000634765625,-1.0545974969863892,0.97776859998703,-0.8695929050445557
1761379876827062300,4.650062255859375,-0.6153163909912109,0.7972936630249023,0.07093797624111176
1761379876837117400,4.660117431640625,-0.2228412926197052,0.4141300618648529,0.09015907347202301
1761379876847172400,4.67017236328125,-0.03993767499923706,0.055110279470682144,-0.7762578725814819
1761379876857228300,4.680228271484375,-0.1421402096748352,-0.1942492127418518,-1.9936851263046265
1761379876867283500,4.690283447265625,-0.3871656656265259,-0.10252758860588074,-2.9313626289367676
1761379876877338400,4.70033837890625,-0.6029501557350159,-0.20210902392864227,-3.2429637908935547
1761379876887394300,4.710394287109375,-0.6700919270515442,-0.28161531686782837,-2.784778594970703
1761379876897449200,4.72044921875,-0.6450560688972473,-0.2954922616481781,-1.8073811531066895
1761379876907505200,4.730505126953125,-0.54352205991745,-0.3626108765602112,-0.6873558163642883
1761379876917560300,4.740560302734375,-0.4033505916595459,-0.32907769083976746,0.3165919780731201
1761379876927615500,4.750615478515625,-0.34646567702293396,-0.14914092421531677,1.0727829933166504
1761379876937671400,4.76067138671875,-0.37291380763053894,0.03051512874662876,1.3852765560150146
1761379876947726300,4.770726318359375,-0.4335746765136719,-0.014189369976520538,1.2755889892578125
1761379876957782300,4.7807822265625,-0.3142509460449219,-0.09795191138982773,1.1442618370056152
1761379876967837400,4.79083740234375,0.05517244338989258,-0.31105905771255493,1.1966018676757812
1761379876977892400,4.800892333984375,0.47125354409217834,-0.5338687300682068,1.4156711101531982
1761379876987948500,4.810948486328125,0.8100491166114807,-0.5661149024963379,1.6867783069610596
1761379876998003200,4.821003173828125,0.9968640208244324,-0.44306594133377075,1.8453303575515747
1761379877008058400,4.831058349609375,1.0080116987228394,-0.22200384736061096,1.8464877605438232
1761379877018114300,4.8411142578125,0.8141775131225586,0.03637842461466789,1.6736925840377808
1761379877028169500,4.85116943359375,0.5679959058761597,0.2581418752670288,1.2661525011062622
1761379877038225400,4.861225341796875,0.44477832317352295,0.39443472027778625,0.6334120631217957
1761379877048280300,4.8712802734375,0.4883728623390198,0.39021408557891846,-0.07467566430568695
1761379877058335200,4.881335205078125,0.545346200466156,0.2505749762058258,-0.6534788608551025
1761379877068391400,4.891391357421875,0.5261749029159546,0.0020464593544602394,-0.9963780045509338
1761379877078446300,4.9014462890625,0.4203835129737854,-0.11733532696962357,-1.0960659980773926
1761379877088502500,4.91150244140625,0.2372465580701828,-0.04483122006058693,-1.0381664037704468
1761379877098557200,4.92155712890625,0.09318472445011139,0.10087991505861282,-0.8271836638450623
1761379877108612400,4.9316123046875,0.050930045545101166,0.19550101459026337,-0.3959444463253021
1761379877118668300,4.941668212890625,0.0778905525803566,0.1429552435874939,0.22791247069835663
1761379877128723500,4.951723388671875,0.1602397859096527,-0.033609334379434586,0.9329838752746582
1761379877138779400,4.961779296875,0.22511838376522064,-0.18842582404613495,1.496732473373413
1761379877148834300,4.971834228515625,0.24165907502174377,-0.1897810399532318,1.7626127004623413
1761379877158889200,4.98188916015625,0.23175370693206787,-0.1298263520002365,1.7315021753311157
1761379877168945400,4.9919453125,0.2265588343143463,-0.1504206657409668,1.4032435417175293
1761379877179000300,5.002000244140625,0.20524077117443085,-0.19142696261405945,0.8905566930770874
1761379877189055200,5.01205517578125,0.10184987634420395,-0.12017368525266647,0.42046234011650085
1761379877199111200,5.022111083984375,-0.00025678984820842743,0.01228688657283783,0.06187836080789566
1761379877209166300,5.032166259765625,-0.03240698575973511,0.12074416130781174,-0.20608602464199066
1761379877219222300,5.04222216796875,-0.009864657185971737,0.22166040539741516,-0.3430931568145752
1761379877229277400,5.05227734375,0.06500190496444702,0.23542475700378418,-0.36446115374565125
1761379877239332400,5.062332275390625,0.16804039478302002,0.17512041330337524,-0.3470004200935364
1761379877249388300,5.07238818359375,0.2675090432167053,0.10888472199440002,-0.3188876509666443
1761379877259443200,5.082443115234375,0.3042108714580536,0.029813872650265694,-0.30333423614501953
1761379877269499400,5.09249951171875,0.30769243836402893,-0.09378691017627716,-0.34779930114746094
1761379877279554300,5.10255419921875,0.3136049211025238,-0.23599545657634735,-0.4635184407234192
1761379877289609500,5.112609375,0.29284438490867615,-0.32912278175354004,-0.6762329936027527
1761379877299665200,5.1226650390625,0.2186569720506668,-0.3674989342689514,-0.9843271970748901
1761379877309720300,5.13272021484375,0.08489343523979187,-0.3805716931819916,-1.3268488645553589
1761379877319776300,5.1427763671875,-0.06339802592992783,-0.357084184885025,-1.6501661539077759
1761379877329831400,5.15283154296875,-0.20314182341098785,-0.21895569562911987,-1.8771568536758423
1761379877339886300,5.16288623046875,-0.3118928074836731,0.08021291345357895,-1.9565573930740356
1761379877349942300,5.1729423828125,-0.3380558490753174,0.5483114123344421,-1.8864212036132812
1761379877359997200,5.1829970703125,-0.32846421003341675,0.8046353459358215,-1.8084622621536255
1761379877370053400,5.193053466796875,-0.2718428373336792,0.6583542823791504,-1.7583457231521606
1761379877380108300,5.2031083984375,-0.16354647278785706,0.30473604798316956,-1.6375527381896973
1761379877390163500,5.21316357421875,-0.048698730766773224,-0.1371721774339676,-1.4196926355361938
1761379877400219100,5.22321923828125,0.017896804958581924,-0.6567748785018921,-1.2033989429473877
1761379877410274300,5.2332744140625,0.10386697947978973,-1.098799467086792,-1.1021608114242554
1761379877420330200,5.243330322265625,0.154526948928833,-1.2378524541854858,-1.1968071460723877
1761379877430385400,5.253385498046875,0.07765709608793259,-1.0830702781677246,-1.5319604873657227
1761379877440440300,5.2634404296875,-0.1121905967593193,-0.6336268782615662,-1.7726250886917114
1761379877450496500,5.27349658203125,-0.4083746671676636,-0.08412843197584152,-1.5388094186782837
1761379877460551200,5.28355126953125,-0.7617650032043457,0.19012229144573212,-0.7658931612968445
1761379877470607400,5.293607421875,-0.9857050776481628,0.3810631334781647,0.1222192794084549
1761379877480662300,5.303662353515625,-0.8531339764595032,0.3753887414932251,0.4483065605163574
1761379877490717400,5.313717529296875,-0.4107350707054138,-0.13153137266635895,0.020128445699810982
1761379877500773400,5.3237734375,0.05327095836400986,-0.7428581714630127,-0.792378306388855
1761379877510828300,5.333828369140625,0.30836543440818787,-1.0484102964401245,-1.5556789636611938
1761379877520883200,5.34388330078125,0.311457097530365,-1.2230987548828125,-1.8919906616210938
1761379877530939400,5.353939453125,0.15607449412345886,-1.1274157762527466,-1.5846542119979858
1761379877540994300,5.363994384765625,-0.19385181367397308,-0.4959326386451721,-0.6073933839797974
1761379877551050500,5.374050537109375,-0.677008330821991,0.4171837866306305,0.6879662275314331
1761379877561105400,5.38410546875,-1.0138673782348633,1.2146894931793213,1.5973843336105347
1761379877571160300,5.394160400390625,-1.0398343801498413,1.385720133781433,1.8880012035369873
1761379877581216300,5.40421630859375,-0.7914239764213562,1.0088365077972412,1.8954745531082153
1761379877591271400,5.414271484375,-0.44192710518836975,0.30450522899627686,1.9444031715393066
1761379877601327400,5.424327392578125,-0.17777855694293976,-0.4558999836444855,2.0766451358795166
1761379877611382500,5.434382568359375,0.015189575031399727,-0.9107171297073364,2.1941092014312744
1761379877621437200,5.444437255859375,0.22016695141792297,-0.967396080493927,2.272614002227783
1761379877631493400,5.454493408203125,0.3405517637729645,-0.754467248916626,2.348304033279419
1761379877641548300,5.46454833984375,0.27289921045303345,-0.35816335678100586,2.3486764430999756
1761379877651604500,5.4746044921875,0.08681496977806091,0.25284484028816223,2.1552751064300537
1761379877661659400,5.484659423828125,-0.12114755064249039,0.9142144918441772,1.7373253107070923
1761379877671714300,5.49471435546875,-0.28235405683517456,1.528106689453125,1.1338176727294922
1761379877681770200,5.504770263671875,-0.41889992356300354,1.9451878070831299,0.4805416464805603
1761379877691825400,5.514825439453125,-0.5007852911949158,2.1468615531921387,-0.06435354799032211
1761379877701881300,5.52488134765625,-0.43060195446014404,2.064821243286133,-0.4744497239589691
1761379877711936500,5.5349365234375,-0.16003508865833282,1.6783102750778198,-0.7127760052680969
1761379877721991400,5.544991455078125,0.21806959807872772,1.0726566314697266,-0.7308253645896912
1761379877732047400,5.55504736328125,0.6236060857772827,0.44507327675819397,-0.6041862368583679
1761379877742102300,5.565102294921875,0.9192643761634827,-0.04499523714184761,-0.4402361512184143
1761379877752158500,5.575158447265625,1.0088061094284058,-0.257208913564682,-0.2550300359725952
1761379877762213400,5.58521337890625,0.9186460375785828,-0.18204835057258606,-0.05127372965216637
1761379877772268300,5.595268310546875,0.662850022315979,0.2432100921869278,0.09661548584699631
1761379877782324200,5.60532421875,0.2831767499446869,0.825896143913269,0.15657229721546173
1761379877792379400,5.61537939453125,-0.10428521037101746,1.270254135131836,0.16057826578617096
1761379877802435300,5.625435302734375,-0.4051097631454468,1.360511302947998,0.1659511923789978
1761379877812490500,5.635490478515625,-0.5195692181587219,1.1339354515075684,0.3004607856273651
1761379877822545400,5.64554541015625,-0.41695815324783325,0.7450867295265198,0.5607154965400696
1761379877832601300,5.655601318359375,-0.1421588957309723,0.19201844930648804,0.8164123892784119
1761379877842656300,5.66565625,0.21866028010845184,-0.370147168636322,1.0080031156539917
1761379877852712400,5.67571240234375,0.6040088534355164,-0.6627822518348694,1.1360957622528076
1761379877862767400,5.685767333984375,0.912692666053772,-0.7405500411987305,1.205410122871399
1761379877872822300,5.695822265625,1.0971814393997192,-0.623052179813385,1.1739751100540161
1761379877882878200,5.705878173828125,1.09961998462677,-0.3570330739021301,1.0061384439468384
1761379877892933400,5.715933349609375,0.9264646172523499,-0.08543102443218231,0.7255873084068298
1761379877902989300,5.7259892578125,0.6619860529899597,0.06741231679916382,0.3866334557533264
1761379877913044500,5.73604443359375,0.41066333651542664,0.04274386167526245,-0.03139004856348038
1761379877923099400,5.746099365234375,0.2259605973958969,-0.12363393604755402,-0.45212262868881226
1761379877933155300,5.7561552734375,0.1238112598657608,-0.3208339810371399,-0.7770536541938782
1761379877943210200,5.766210205078125,0.06176041066646576,-0.5194570422172546,-0.9536779522895813
1761379877953266400,5.776266357421875,0.07647660374641418,-0.5651586055755615,-0.9650493264198303
1761379877963321300,5.7863212890625,0.17138473689556122,-0.6189829707145691,-1.0006695985794067
1761379877973376500,5.79637646484375,0.29474541544914246,-0.770487368106842,-1.1878905296325684
1761379877983432200,5.80643212890625,0.360905259847641,-0.8209716081619263,-1.4145653247833252
1761379877993487400,5.8164873046875,0.291016161441803,-0.7508742809295654,-1.6788392066955566
1761379878003543300,5.826543212890625,0.08265682309865952,-0.6199615597724915,-1.9486682415008545
1761379878013598500,5.836598388671875,-0.13607893884181976,-0.5138800740242004,-2.060591220855713
1761379878023653600,5.846653564453125,-0.2749499976634979,-0.33989444375038147,-1.868861198425293
1761379878033709300,5.856709228515625,-0.32289397716522217,-0.1242978572845459,-1.3556863069534302
1761379878043764500,5.866764404296875,-0.24613206088542938,-0.030933286994695663,-0.6686192750930786
1761379878053820400,5.8768203125,-0.10069320350885391,-0.27744412422180176,-0.2330392599105835
1761379878063875300,5.886875244140625,0.025875922292470932,-0.46254128217697144,-0.3844761848449707
1761379878073930500,5.896930419921875,0.0875249058008194,-0.36492684483528137,-0.9519934058189392
1761379878083986400,5.906986328125,0.07383998483419418,-0.3174495995044708,-1.493774175643921
1761379878094041300,5.917041259765625,0.08860647678375244,-0.318240225315094,-1.4914106130599976
1761379878104097300,5.92709716796875,0.1808096319437027,-0.265117347240448,-0.791852593421936
1761379878114152400,5.93715234375,0.17611615359783173,-0.21011050045490265,0.12843845784664154
1761379878124207600,5.94720751953125,0.08538145571947098,-0.11927380412817001,0.482056200504303
1761379878134263600,5.957263671875,0.1145704984664917,-0.32046470046043396,0.06225251406431198
1761379878144318500,5.967318359375,0.10644040256738663,-0.6567521691322327,-0.8082767724990845
1761379878154374400,5.97737451171875,-0.11862894147634506,-0.6824261546134949,-1.66952645778656
1761379878164429300,5.98742919921875,-0.43660104274749756,-0.27990105748176575,-2.2344729900360107
1761379878174485500,5.997485595703125,-0.7392691373825073,0.4095812141895294,-2.243546485900879
1761379878184540400,6.00754052734375,-0.8903427720069885,1.0501694679260254,-1.5502750873565674
1761379878194595300,6.01759521484375,-0.906707763671875,1.2810232639312744,-0.47473883628845215
1761379878204651300,6.0276513671875,-0.7739294767379761,1.0836596488952637,0.43333062529563904
1761379878214706400,6.03770654296875,-0.46475642919540405,0.6952171325683594,0.9175836443901062
1761379878224762400,6.047762451171875,-0.10323631018400192,0.23848579823970795,1.1683109998703003
1761379878234817500,6.057817626953125,0.08483610302209854,-0.16404308378696442,1.4400837421417236
1761379878244872400,6.06787255859375,0.17492631077766418,-0.4609866142272949,1.6694884300231934
1761379878254928400,6.077928466796875,0.21522435545921326,-0.5100797414779663,1.7242395877838135
1761379878264983300,6.0879833984375,0.2426903247833252,-0.3614811599254608,1.5852582454681396
1761379878275039500,6.09803955078125,0.19143132865428925,-0.003939073998481035,1.3875436782836914
1761379878285094400,6.108094482421875,0.00047149648889899254,0.6601422429084778,1.1840652227401733
1761379878295149300,6.1181494140625,-0.29044172167778015,1.4934717416763306,0.8795098066329956
1761379878305205200,6.128205322265625,-0.5976341366767883,2.1947309970855713,0.5030336976051331
1761379878315260400,6.138260498046875,-0.780738353729248,2.5563411712646484,0.09357120841741562
1761379878325316400,6.14831640625,-0.8463594913482666,2.552448034286499,-0.3252691924571991
1761379878335371500,6.15837158203125,-0.6950368881225586,1.9417883157730103,-0.6896308064460754
1761379878345426400,6.168426513671875,-0.25812268257141113,0.9447399377822876,-0.8876528143882751
1761379878355482400,6.178482421875,0.32167303562164307,-0.13098695874214172,-0.7514954805374146
1761379878365537300,6.188537353515625,0.8590214252471924,-1.1276973485946655,-0.2815926671028137
1761379878375593500,6.198593505859375,1.2648695707321167,-1.8583827018737793,0.3659844398498535
1761379878385648400,6.2086484375,1.429892897605896,-2.0422863960266113,1.052087426185608
1761379878395703300,6.218703369140625,1.1949331760406494,-1.5418726205825806,1.5592502355575562
1761379878405759200,6.22875927734375,0.591982364654541,-0.7110188603401184,1.7250038385391235
1761379878415814400,6.238814453125,-0.09669966995716095,0.19239085912704468,1.560340166091919
1761379878425870300,6.248870361328125,-0.5645582675933838,0.9321594834327698,1.2622637748718262
1761379878435925500,6.258925537109375,-0.6473782658576965,1.2389618158340454,1.0123109817504883
1761379878445980400,6.26898046875,-0.4009269177913666,1.1281077861785889,0.9003981947898865
1761379878456036400,6.279036376953125,-0.0646112933754921,0.8450852632522583,0.9472442865371704
1761379878466091500,6.289091552734375,0.21413591504096985,0.5467782020568848,1.1508375406265259
1761379878476147500,6.2991474609375,0.38590556383132935,0.24422703683376312,1.416273832321167
1761379878486202400,6.309202392578125,0.4648533761501312,-0.028845518827438354,1.5908437967300415
1761379878496257300,6.31925732421875,0.47180357575416565,-0.21305157244205475,1.5587480068206787
1761379878506313200,6.329313232421875,0.3775034546852112,-0.30502092838287354,1.3206802606582642
1761379878516368400,6.339368408203125,0.20119599997997284,-0.32882994413375854,0.9742808938026428
1761379878526424300,6.34942431640625,-0.01373468991369009,-0.18005643784999847,0.5864492654800415
1761379878536479500,6.3594794921875,-0.21925082802772522,0.051676422357559204,0.17591480910778046
1761379878546534400,6.369534423828125,-0.4340571463108063,0.2108120173215866,-0.22599934041500092
1761379878556590300,6.37959033203125,-0.6155240535736084,0.24174469709396362,-0.5934106111526489
1761379878566645500,6.3896455078125,-0.7328879237174988,0.2576962113380432,-0.9007207751274109
1761379878576701700,6.39970166015625,-0.7866759896278381,0.2105645090341568,-1.2175699472427368
1761379878586756400,6.40975634765625,-0.7576647996902466,0.0885818749666214,-1.5632845163345337
1761379878596812500,6.4198125,-0.6811003684997559,-0.011452943086624146,-1.8256946802139282
1761379878606867500,6.429867431640625,-0.5996702313423157,-0.04943627864122391,-1.94914710521698
1761379878616922600,6.439922607421875,-0.534505307674408,-0.05208631232380867,-1.9209768772125244
1761379878626978600,6.449978515625,-0.46898406744003296,-0.08527249842882156,-1.754374623298645
1761379878637033500,6.460033447265625,-0.3764186501502991,-0.22331538796424866,-1.5491641759872437
1761379878647089400,6.47008935546875,-0.30647552013397217,-0.3442705571651459,-1.3006335496902466
1761379878657144600,6.48014453125,-0.34055593609809875,-0.37073612213134766,-0.9226257801055908
1761379878667199500,6.490199462890625,-0.4653087854385376,-0.11983626335859299,-0.5512537956237793
1761379878677255700,6.500255615234375,-0.5799121260643005,0.2902766466140747,-0.46387913823127747
1761379878687310300,6.510310302734375,-0.6111478209495544,0.4894872009754181,-0.8450829386711121
1761379878697366500,6.520366455078125,-0.529578447341919,0.3164224922657013,-1.5450867414474487
1761379878707421400,6.53042138671875,-0.37198907136917114,-0.1872720718383789,-2.137050151824951
1761379878717476600,6.5404765625,-0.18918102979660034,-0.642100989818573,-2.0795369148254395
1761379878727532500,6.550532470703125,-0.06903412193059921,-1.2001574039459229,-1.0117502212524414
1761379878737587500,6.56058740234375,-0.07326202094554901,-1.596199870109558,0.8197784423828125
1761379878747643400,6.570643310546875,-0.037291236221790314,-1.5268101692199707,2.2924585342407227
1761379878757698600,6.580698486328125,0.2864907681941986,-1.5537834167480469,2.1480934619903564
1761379878767754500,6.59075439453125,0.6544278264045715,-1.9257525205612183,0.37635162472724915
1761379878777809700,6.6008095703125,0.6837812066078186,-2.1899619102478027,-1.7182117700576782
1761379878787864300,6.6108642578125,0.3391231596469879,-1.9904625415802002,-3.154545545578003
1761379878797920500,6.62092041015625,-0.04629562050104141,-1.4119902849197388,-3.5660760402679443
1761379878807975400,6.630975341796875,-0.2791251242160797,-0.48988839983940125,-2.6893014907836914
1761379878818031600,6.641031494140625,-0.4908813536167145,0.48749539256095886,-0.8185321092605591
1761379878828086500,6.65108642578125,-0.6288682818412781,1.0048320293426514,1.1074802875518799
1761379878838141400,6.661141357421875,-0.5520241856575012,0.8854484558105469,2.3017585277557373
1761379878848197400,6.671197265625,-0.3809232711791992,0.4420763850212097,2.7641963958740234
1761379878858252500,6.68125244140625,-0.21399527788162231,-0.05263875052332878,2.820345401763916
1761379878868308500,6.69130859375,-0.07248608767986298,-0.6335021257400513,2.66255784034729
1761379878878363600,6.70136376953125,0.1037355586886406,-1.1355764865875244,2.3601462841033936
1761379878888418600,6.71141845703125,0.286663293838501,-1.3092420101165771,2.0060741901397705
1761379878898474500,6.721474609375,0.3467980623245239,-0.8950220346450806,1.6263166666030884
1761379878908529400,6.731529296875,0.16358190774917603,0.02191842719912529,1.1911039352416992
1761379878918585600,6.741585693359375,-0.19354656338691711,1.0001139640808105,0.7443695664405823
1761379878928640500,6.751640625,-0.47625070810317993,1.871861219406128,0.5378970503807068
1761379878938695400,6.7616953125,-0.6075155138969421,2.367969512939453,0.6825376152992249
1761379878948751400,6.77175146484375,-0.49685531854629517,2.131324291229248,1.0679490566253662
1761379878958806500,6.781806640625,-0.1576296091079712,1.3664190769195557,1.5949817895889282
1761379878968862500,6.791862548828125,0.32422730326652527,0.3463001847267151,2.120382785797119
1761379878978917600,6.801917724609375,0.7649558186531067,-0.5762543082237244,2.377842426300049
1761379878988973600,6.8119736328125,1.0396134853363037,-1.1668620109558105,2.277423858642578
1761379878999028500,6.822028564453125,1.061169147491455,-1.3560692071914673,1.9351394176483154
1761379879009083400,6.83208349609375,0.872527003288269,-1.1020015478134155,1.5317740440368652
1761379879019139600,6.8421396484375,0.5497337579727173,-0.4956388771533966,1.1570523977279663
1761379879029194500,6.852194580078125,0.22875384986400604,0.2144506871700287,0.8592817187309265
1761379879039250700,6.862250732421875,-0.003914687316864729,0.8075063824653625,0.6548545956611633
1761379879049305300,6.872305419921875,-0.16208063066005707,1.0338962078094482,0.5378574132919312
1761379879059360500,6.882360595703125,-0.25548771023750305,1.0356347560882568,0.46073585748672485
1761379879069416400,6.89241650390625,-0.34929755330085754,0.9557934403419495,0.3791328966617584
1761379879079471600,6.9024716796875,-0.4070918560028076,0.7879623174667358,0.3032984435558319
1761379879089527600,6.912527587890625,-0.35223233699798584,0.5508296489715576,0.26106685400009155
1761379879099582500,6.92258251953125,-0.18289338052272797,0.2648623287677765,0.27120208740234375
1761379879109638400,6.932638427734375,0.028237221762537956,-0.0483696386218071,0.3013959527015686
1761379879119693600,6.942693603515625,0.2546907961368561,-0.2929301857948303,0.3359784781932831
1761379879129748500,6.95274853515625,0.49618545174598694,-0.4613303542137146,0.3294776976108551
1761379879139804700,6.9628046875,0.7107637524604797,-0.5777673125267029,0.22489918768405914
1761379879149859300,6.972859375,0.8155673742294312,-0.5869831442832947,0.01369507610797882
1761379879159915500,6.98291552734375,0.7893680334091187,-0.46165287494659424,-0.22278861701488495
1761379879169970400,6.992970458984375,0.6966871023178101,-0.2640790641307831,-0.41209569573402405
1761379879180025600,7.003025634765625,0.5913645029067993,-0.01925383135676384,-0.5302906036376953
1761379879190081500,7.01308154296875,0.4605769217014313,0.2313339114189148,-0.5764655470848083
1761379879200136400,7.023136474609375,0.27940794825553894,0.3740590810775757,-0.584825336933136
1761379879210192400,7.0331923828125,0.14837346971035004,0.3781278729438782,-0.6347726583480835
1761379879220247600,7.04324755859375,0.04862746223807335,0.26509007811546326,-0.7562034726142883
1761379879230303500,7.053303466796875,-0.06832445412874222,0.08776801079511642,-0.9684022665023804
1761379879240358700,7.063358642578125,-0.15702292323112488,-0.15483008325099945,-1.185591459274292
1761379879250413300,7.073413330078125,-0.14624564349651337,-0.3127749562263489,-1.266672968864441
1761379879260469500,7.083469482421875,-0.10162701457738876,-0.34359562397003174,-1.2050323486328125
1761379879270524400,7.0935244140625,-0.07973263412714005,-0.3023192882537842,-1.0710071325302124
1761379879280580600,7.10358056640625,-0.09736984968185425,-0.3650849461555481,-0.9413772821426392
1761379879290635500,7.113635498046875,-0.12140540778636932,-0.3988674283027649,-0.8877955079078674
1761379879300690400,7.1236904296875,-0.13260063529014587,-0.3736741542816162,-0.9182292819023132
1761379879310746400,7.133746337890625,-0.1367839276790619,-0.48349544405937195,-0.9769642353057861
1761379879320801500,7.143801513671875,-0.11477873474359512,-0.7423611283302307,-1.0295147895812988
1761379879330857500,7.153857421875,-0.07839569449424744,-1.0866581201553345,-1.1452051401138306
1761379879340912600,7.16391259765625,-0.0753478854894638,-1.281394362449646,-1.4044721126556396
1761379879350968600,7.173968505859375,-0.14142996072769165,-1.1823434829711914,-1.6373860836029053
1761379879361023500,7.1840234375,-0.24647974967956543,-0.6145312190055847,-1.5727659463882446
1761379879371078400,7.194078369140625,-0.3208938241004944,-0.04597727581858635,-1.108130931854248
1761379879381134600,7.204134521484375,-0.3495146930217743,0.06613766402006149,-0.482118159532547
1761379879391189500,7.214189453125,-0.2840137183666229,0.035898804664611816,-0.2205914855003357
1761379879401245700,7.22424560546875,-0.16263407468795776,-0.1858469843864441,-0.6083477735519409
1761379879411300400,7.23430029296875,-0.053951799869537354,-0.7425919771194458,-1.4390885829925537
1761379879421355500,7.24435546875,-0.0010225502774119377,-1.049222707748413,-2.3655295372009277
1761379879431411500,7.254411376953125,0.013034146279096603,-0.9132210612297058,-3.168497323989868
1761379879441466600,7.264466552734375,-0.047187164425849915,-0.46993228793144226,-3.485412120819092
1761379879451522600,7.2745224609375,-0.1841290295124054,0.03713252395391464,-3.0988330841064453
1761379879461577500,7.284577392578125,-0.33384567499160767,0.495273619890213,-1.9895626306533813
1761379879471633400,7.29463330078125,-0.505653977394104,0.9526752829551697,-0.4566386938095093
1761379879481688600,7.3046884765625,-0.6682512760162354,1.1903257369995117,0.8541426658630371
1761379879491743500,7.314743408203125,-0.6873498558998108,1.1439905166625977,1.682395577430725
1761379879501799700,7.324799560546875,-0.5302290320396423,0.8904775977134705,2.0939576625823975
1761379879511854300,7.334854248046875,-0.3405614197254181,0.46057841181755066,2.0795698165893555
1761379879521910500,7.34491064453125,-0.22507543861865997,0.06402862071990967,1.8181586265563965
1761379879531965400,7.35496533203125,-0.17485834658145905,-0.1766718626022339,1.5640851259231567
1761379879542020600,7.3650205078125,-0.15451085567474365,-0.12717528641223907,1.3717542886734009
1761379879552076500,7.37507666015625,-0.14553546905517578,0.05695434287190437,1.3198330402374268
1761379879562132200,7.38513232421875,-0.1899051070213318,0.2917184829711914,1.435949683189392
1761379879572188200,7.395188232421875,-0.2637665569782257,0.6324289441108704,1.622732162475586
1761379879582243000,7.4052431640625,-0.2554472088813782,0.8143699765205383,1.7495243549346924
1761379879592299000,7.415299072265625,-0.18230748176574707,0.8694595694541931,1.8518164157867432
1761379879602354200,7.425354248046875,-0.15872521698474884,0.894384503364563,1.938292384147644
1761379879612409000,7.4354091796875,-0.18197621405124664,0.8553154468536377,1.8406318426132202
1761379879622465000,7.445465087890625,-0.1352209597826004,0.7587953209877014,1.4073082208633423
1761379879632520000,7.45552001953125,0.021931376308202744,0.324956476688385,0.6791459321975708
1761379879642576000,7.465575927734375,0.2855546176433563,-0.2754998803138733,-0.12129821628332138
1761379879652631000,7.475631103515625,0.5449113845825195,-0.7136479616165161,-0.6909145712852478
1761379879662687000,7.48568701171875,0.739189863204956,-0.7628496289253235,-0.927072286605835
1761379879672742100,7.4957421875,0.7447772026062012,-0.5484704971313477,-0.9284531474113464
1761379879682797000,7.505797119140625,0.5078999996185303,-0.21312399208545685,-0.6829681992530823
1761379879692853000,7.51585302734375,0.08101446181535721,0.13132739067077637,-0.19282802939414978
1761379879702908200,7.525908203125,-0.3148067593574524,0.28364598751068115,0.42472508549690247
1761379879712964000,7.535964111328125,-0.4330886900424957,0.30553263425827026,0.972689688205719
1761379879723019000,7.54601904296875,-0.3393555283546448,0.3256424367427826,1.2169020175933838
1761379879733074000,7.556073974609375,-0.2591158151626587,0.30054160952568054,1.1659584045410156
1761379879743129900,7.5661298828125,-0.25036871433258057,0.16249333322048187,1.0082026720046997
1761379879753185000,7.57618505859375,-0.24785684049129486,-0.11620034277439117,0.7904274463653564
1761379879763241000,7.586240966796875,-0.23300471901893616,-0.35523614287376404,0.567664384841919
1761379879773296000,7.596296142578125,-0.19666188955307007,-0.3022155463695526,0.3436185121536255
1761379879783352000,7.60635205078125,-0.14048688113689423,-0.20196515321731567,0.1632794886827469
1761379879793407000,7.616406982421875,-0.016792645677924156,-0.16365346312522888,0.04944026470184326
1761379879803463000,7.626462890625,0.11048265546560287,0.13569897413253784,-0.025017380714416504
1761379879813518000,7.63651806640625,0.1708804816007614,-0.03147296607494354,-0.17863650619983673
1761379879823573000,7.646572998046875,0.39053505659103394,-0.7339085936546326,-0.389237642288208
1761379879833629200,7.656629150390625,0.5817691683769226,-0.8528544306755066,-0.37475404143333435
1761379879843683800,7.666683837890625,0.6041855812072754,-1.0332725048065186,-0.25652363896369934
1761379879853740000,7.676739990234375,0.5775830149650574,-1.269915223121643,-0.2064245045185089
1761379879863795000,7.686794921875,0.5094570517539978,-1.3046345710754395,-0.2821156680583954
1761379879873851100,7.69685107421875,0.3940827548503876,-1.2301385402679443,-0.46750974655151367
1761379879883906000,7.706906005859375,0.2546856701374054,-1.128948450088501,-0.6505910754203796
1761379879893961000,7.7169609375,0.1034812331199646,-0.9054373502731323,-0.7432206273078918
1761379879904017000,7.727016845703125,0.012483280152082443,-0.5901644825935364,-0.6932267546653748
1761379879914072000,7.737072021484375,-0.03140188753604889,-0.26791590452194214,-0.651873767375946
1761379879924128000,7.7471279296875,-0.07793861627578735,-0.05944693833589554,-0.7070736885070801
1761379879934183200,7.75718310546875,-0.09851899743080139,0.00022358307614922523,-0.8526849746704102
1761379879944239000,7.767239013671875,-0.11201925575733185,-0.06245340034365654,-1.0864531993865967
1761379879954294000,7.7772939453125,-0.06803182512521744,-0.2129390388727188,-1.2144373655319214
1761379879964349000,7.787348876953125,0.02286793664097786,-0.3344537317752838,-1.1275277137756348
1761379879974405000,7.797405029296875,0.1725434511899948,-0.292033314704895,-0.9290639162063599
1761379879984460000,7.8074599609375,0.3324497640132904,-0.23576897382736206,-0.8018980026245117
1761379879994516200,7.81751611328125,0.39228010177612305,-0.16865898668766022,-1.0564303398132324
1761379880004571000,7.82757080078125,0.29492810368537903,0.13977013528347015,-1.6367799043655396
1761379880014627000,7.837626953125,0.08987751603126526,0.33266130089759827,-2.0289011001586914
1761379880024682000,7.847681884765625,-0.15851013362407684,0.4461301267147064,-1.6832597255706787
1761379880034737200,7.857737060546875,-0.3801077604293823,0.760596752166748,-0.6765912175178528
1761379880044793000,7.86779296875,-0.42666348814964294,1.067184567451477,0.2606242597103119
1761379880054848000,7.877847900390625,-0.29987892508506775,1.032978892326355,0.561623752117157
1761379880064904000,7.887904052734375,-0.021480346098542213,0.7276953458786011,-0.0017822841182351112
1761379880074959000,7.897958984375,0.22810417413711548,0.4029873013496399,-1.320207118988037
1761379880085015000,7.90801513671875,0.3066023886203766,0.030442388728260994,-2.8308005332946777
1761379880095070200,7.9180703125,0.3006470203399658,-0.20782077312469482,-3.8164212703704834
1761379880105124900,7.928124755859375,0.2831263542175293,-0.28806987404823303,-3.861820936203003
1761379880115181000,7.93818115234375,0.2343585342168808,-0.3923448622226715,-3.100914239883423
1761379880125236000,7.948236083984375,0.15643256902694702,-0.28354036808013916,-1.8440901041030884
1761379880135292200,7.958292236328125,0.035700567066669464,0.08486536145210266,-0.41236403584480286
1761379880145347000,7.96834716796875,-0.07808886468410492,0.4169207215309143,0.7703816890716553
1761379880155403300,7.9784033203125,-0.11067157238721848,0.6660237312316895,1.3729617595672607
1761379880165458000,7.9884580078125,-0.1185615137219429,0.8016865253448486,1.4106011390686035
1761379880175512000,7.998511962890625,-0.08261043578386307,0.7360994815826416,1.0683774948120117
1761379880185568000,8.008568115234375,-0.02631654217839241,0.46843579411506653,0.5920802354812622
1761379880195623000,8.018622802734376,0.021666694432497025,0.09104536473751068,0.22927378118038177
1761379880205678800,8.028678955078124,0.06695383787155151,-0.28614914417266846,0.09393878281116486
1761379880215734000,8.038734130859375,0.08580955117940903,-0.5526626110076904,0.17827178537845612
1761379880225790000,8.0487900390625,0.06816750019788742,-0.7627542614936829,0.3920774757862091
1761379880235845000,8.05884521484375,0.0551941804587841,-0.8438714742660522,0.5967909097671509
1761379880245900000,8.068900146484374,0.03694114461541176,-0.7514051795005798,0.699712336063385
1761379880255956000,8.0789560546875,0.030004408210515976,-0.491864413022995,0.6657125353813171
1761379880266011000,8.089010986328125,0.04432114586234093,-0.15522456169128418,0.47392547130584717
1761379880276067000,8.099067138671876,0.05499003827571869,0.1407517045736313,0.1862097680568695
1761379880286122000,8.1091220703125,0.03821578621864319,0.3081635534763336,-0.10648459941148758
1761379880296178200,8.11917822265625,0.019768068566918373,0.3122706711292267,-0.33554789423942566
1761379880306232800,8.12923291015625,0.026610538363456726,0.2118179053068161,-0.44084665179252625
1761379880316288000,8.1392880859375,0.029490215703845024,0.06079455465078354,-0.4208465814590454
1761379880326344000,8.149343994140626,0.025783564895391464,-0.08835023641586304,-0.33696943521499634
1761379880336399000,8.159399169921874,0.030792437493801117,-0.1661779135465622,-0.25840112566947937
1761379880346455000,8.169455078125,0.015796830877661705,-0.21147502958774567,-0.21246559917926788
1761379880356510000,8.179510009765625,-0.018681783229112625,-0.20116592943668365,-0.19400429725646973
1761379880366566000,8.18956591796875,-0.06672833114862442,-0.1447208970785141,-0.17260955274105072
1761379880376621000,8.19962109375,-0.12782229483127594,-0.08091476559638977,-0.145244762301445
1761379880386676000,8.209676025390625,-0.18951840698719025,-0.04146924242377281,-0.09633886069059372
1761379880396732200,8.219732177734375,-0.22157220542430878,-0.005690205842256546,-0.040216464549303055
1761379880406786800,8.229786865234376,-0.22315137088298798,0.052902162075042725,0.009259628131985664
1761379880416843000,8.239843017578124,-0.2172042727470398,0.10599254071712494,0.03746729716658592
1761379880426898000,8.24989794921875,-0.19570514559745789,0.13181143999099731,0.041942186653614044
1761379880436954000,8.2599541015625,-0.16063106060028076,0.1509518325328827,0.023785021156072617
1761379880447009000,8.270009033203126,-0.12733981013298035,0.1707165688276291,0.007294565439224243
1761379880457065200,8.280065185546874,-0.09637470543384552,0.15651872754096985,-0.016208896413445473
1761379880467119900,8.290119873046875,-0.0619533509016037,0.15606416761875153,-0.08637776225805283
1761379880477175000,8.300175048828125,-0.04238071292638779,0.18342600762844086,-0.19064104557037354
1761379880487231000,8.31023095703125,-0.06680575013160706,0.19799260795116425,-0.2926359474658966
1761379880497286100,8.3202861328125,-0.11011061072349548,0.18544432520866394,-0.3477948009967804
1761379880507342000,8.330342041015625,-0.14584997296333313,0.17683325707912445,-0.34864383935928345
1761379880517397000,8.34039697265625,-0.163863867521286,0.16985364258289337,-0.31205305457115173
1761379880527453000,8.350452880859375,-0.1480201929807663,0.1617831438779831,-0.2616633176803589
1761379880537508000,8.360508056640626,-0.13213708996772766,0.13957397639751434,-0.21164172887802124
1761379880547563000,8.37056298828125,-0.11545533686876297,0.14930614829063416,-0.1833036243915558
1761379880557619200,8.380619140625,-0.10577927529811859,0.12256508320569992,-0.17948918044567108
1761379880567673300,8.39067333984375,-0.09039304405450821,0.06080547720193863,-0.19951525330543518
1761379880577729500,8.4007294921875,-0.05417165905237198,-0.028446108102798462,-0.2337198257446289
1761379880587784200,8.4107841796875,0.01200968585908413,-0.10350953787565231,-0.2736697793006897
1761379880597840400,8.42084033203125,0.062229178845882416,-0.12185125797986984,-0.30490198731422424
1761379880607895300,8.430895263671875,0.06667777895927429,-0.1258193850517273,-0.3322193920612335
1761379880617951500,8.440951416015626,0.060674212872982025,-0.1071743294596672,-0.3552349805831909
1761379880628006400,8.45100634765625,0.05939621850848198,-0.04966551065444946,-0.38759639859199524
1761379880638061300,8.461061279296874,0.060756560415029526,-0.005071408115327358,-0.42862534523010254
1761379880648117200,8.4711171875,0.030803486704826355,0.044294748455286026,-0.4332539737224579
1761379880658172400,8.48117236328125,-0.02410929650068283,0.12602397799491882,-0.37131524085998535
1761379880668228400,8.491228271484376,-0.07200325280427933,0.19517914950847626,-0.23602792620658875
1761379880678283500,8.501283447265624,-0.11275254189968109,0.1817493587732315,-0.03464209660887718
1761379880688339500,8.51133935546875,-0.13460132479667664,0.11611682921648026,0.16898061335086823
1761379880698394400,8.521394287109375,-0.1308036595582962,0.09929124265909195,0.27509161829948425
1761379880708449300,8.53144921875,-0.11776575446128845,0.09992466121912003,0.25716954469680786
1761379880718505500,8.54150537109375,-0.08571461588144302,0.09945274889469147,0.13886207342147827
1761379880728560400,8.551560302734375,-0.05116834491491318,0.09510013461112976,-0.002896179212257266
1761379880738616600,8.561616455078125,-0.026675783097743988,0.11342987418174744,-0.0892915278673172
1761379880748671200,8.571671142578126,-0.022334745153784752,0.16812150180339813,-0.10341951251029968
1761379880758727400,8.5817275390625,-0.050821248441934586,0.20192687213420868,-0.09013113379478455
1761379880768782300,8.5917822265625,-0.0813993364572525,0.18291379511356354,-0.10059994459152222
1761379880778837500,8.60183740234375,-0.08541698753833771,0.15642225742340088,-0.10660084336996078
1761379880788893400,8.6118935546875,-0.06486177444458008,0.17343172430992126,-0.06206671521067619
1761379880798948400,8.6219482421875,-0.09679893404245377,0.2716115415096283,0.13968610763549805
1761379880809004300,8.63200439453125,-0.21703550219535828,0.2576906979084015,0.29042568802833557
1761379880819059500,8.6420595703125,-0.28557538986206055,0.11712907254695892,0.2536109685897827
1761379880829115400,8.652115478515626,-0.2140893042087555,-0.12963317334651947,0.2052445262670517
1761379880839170600,8.662170654296874,-0.0791887491941452,-0.28083333373069763,0.13070903718471527
1761379880849226500,8.6722265625,-0.0007511172443628311,-0.3881567120552063,0.07264262437820435
1761379880859281400,8.682281494140625,0.02050303854048252,-0.40238437056541443,0.08159084618091583
1761379880869336300,8.69233642578125,0.022673171013593674,-0.29518988728523254,0.1592971235513687
1761379880879392500,8.702392578125,0.018417706713080406,-0.18609696626663208,0.2395344376564026
1761379880889447400,8.712447509765624,0.011213724501430988,-0.16396939754486084,0.30586984753608704
1761379880899503400,8.72250341796875,0.08823341131210327,-0.10525042563676834,0.2536604404449463
