time,seconds_elapsed,z,y,x
1761497448573708500,0.12570849609375,0.06234218214452266,0.04071779483556747,-0.14062968304827808
1761497448583764200,0.13576416015625,-0.04612886009886861,0.11608838537931442,-0.0692523816580884
1761497448593821400,0.145821533203125,-0.06112813017964363,0.18707097009718418,-0.035304537615180015
1761497448603877600,0.155877685546875,-0.052918958630412814,0.1936135236084461,0.012087309890519827
1761497448613933300,0.165933349609375,-0.0060106385916471475,0.11858254028260708,0.04161605884954333
1761497448623990500,0.175990478515625,0.06292246625050903,0.11229834544658661,0.004675901122856885
1761497448634046200,0.186046142578125,0.217676974632591,0.09948913275599479,-0.11029897005660459
1761497448644102400,0.196102294921875,0.16831234748288987,0.09019114305675029,-0.18219883401617407
1761497448654159600,0.20615966796875,0.17214527670927346,0.027485388296842574,-0.33657252638712526
1761497448664215300,0.21621533203125,0.06972820074260234,0.14362813421189785,-0.426498004245013
1761497448674271200,0.226271240234375,-0.009797171393036841,0.26826398318409916,-0.45133580064252016
1761497448684327400,0.236327392578125,-0.11803075161874294,0.42014848908782004,-0.45524435238838196
1761497448694384400,0.24638427734375,-0.1800846183411777,0.5161322440713644,-0.37928777865022417
1761497448704440300,0.2564404296875,-0.28148411476314067,0.5639321061223745,-0.289360401096195
1761497448714496300,0.266496337890625,-0.13954875594377517,0.546330982980132,-0.2867807598665357
1761497448724553500,0.276553466796875,0.033999884757399554,0.6140221249371767,-0.37959479877278207
1761497448734609400,0.286609375,0.23814313181713223,0.810762840655446,-0.47837008417099713
1761497448744665300,0.296665283203125,0.2805237452983856,1.0450567496985197,-0.5666062937676907
1761497448754722300,0.306722412109375,0.32533903858065605,1.2468728689849375,-0.5588638629473746
1761497448764778500,0.316778564453125,0.23282924331799149,1.480333834335208,-0.4726778638787567
1761497448774834400,0.32683447265625,0.3129004127681255,1.57926825581789,-0.45913551460802554
1761497448784891400,0.336891357421875,0.8406722412288189,1.6277128455132246,-0.5375350975841283
1761497448794947300,0.346947265625,1.3502595937013626,2.1770248901307583,-0.7082232342876493
1761497448805003500,0.35700341796875,1.5916355699598788,2.983481558024883,-0.8250093926727772
1761497448815060500,0.367060546875,1.7374248277284203,3.6432477815270423,-0.7684656676739454
1761497448825116400,0.377116455078125,1.8430261597543953,4.128464078330993,-0.5051616449847817
1761497448835172400,0.38717236328125,1.8359401470161973,4.396224788168072,-0.23077963557811454
1761497448845229300,0.397229248046875,1.878894760993123,4.54604651632309,-0.19125921556726097
1761497448855285500,0.407285400390625,1.9738564794525504,4.652957323512434,-0.22558504434339702
1761497448865341400,0.417341552734375,2.0126813001483677,4.660744908648729,-0.2074785289622843
1761497448875398400,0.4273984375,2.0003154473111033,4.341432290750742,0.1411495787365362
1761497448885454300,0.437454345703125,2.1836295490927995,4.007733420103788,0.7107026300132274
1761497448895510500,0.447510498046875,2.145489641921222,4.062566834053397,0.8628320505887269
1761497448905567500,0.4575673828125,1.9268023212023078,4.014959279704094,0.6182153388433158
1761497448915623400,0.46762353515625,1.5925497621953486,3.7628830457329747,0.21760230196118355
1761497448925679400,0.477679443359375,1.1911202943637966,3.273273482406139,-0.18255292641716075
1761497448935735600,0.487735595703125,0.7483809110224247,2.7679104696303605,-0.36180195245072244
1761497448945792500,0.49779248046875,0.3011977000147104,2.551867672070861,-0.012558160538971424
1761497448955848400,0.507848388671875,0.3042757922858,2.54435305865705,1.1511904350355266
1761497448965904400,0.517904296875,0.2744470557332039,2.596750769892335,2.4354452324315905
1761497448975961300,0.52796142578125,0.9582818448260426,2.060861685949564,3.0543691579356786
1761497448986017500,0.538017578125,1.7037243643090128,0.01036883380115032,2.540035195457935
1761497448996073500,0.548073486328125,2.145430312949419,-2.911037668582797,1.2116150931209324
1761497449006130400,0.55813037109375,1.7853075457572936,-5.62023291439414,-0.4389052120059728
1761497449016186400,0.568186279296875,1.322544488301873,-7.0067141605556005,-1.4605202958405017
1761497449026242600,0.57824267578125,-1.1612582400634883,-7.310837977150082,-1.368778123949468
1761497449036299500,0.588299560546875,-3.644868660727143,-7.71620156956017,0.07203720833733677
1761497449046355500,0.59835546875,-5.318170706504583,-8.924729802581668,1.6749563888557255
1761497449056411400,0.608411376953125,-6.229463128879666,-10.54202062280178,2.3015159238047898
1761497449066468400,0.61846826171875,-6.428796199178695,-11.557066265118122,1.7823419739499686
1761497449076524500,0.628524658203125,-6.011342356002331,-11.211547192817926,0.6400104065440595
1761497449086580500,0.63858056640625,-5.544579415255785,-10.547807389509677,-0.474995493171364
1761497449096636400,0.648636474609375,-4.454964269645512,-10.275478641104698,-1.3896797499418259
1761497449106693600,0.658693603515625,-3.9381551492258904,-10.147434444993733,-1.6067977755174039
1761497449116749600,0.66874951171875,-4.132432397440076,-10.542205331718922,-1.2513653580985962
1761497449126805500,0.678805419921875,-4.537212052482366,-11.273465596592425,-0.8316386015541851
1761497449136862500,0.688862548828125,-5.303464135760069,-12.264704831385611,-0.13209310617558656
1761497449146918700,0.698918701171875,-6.329163274037837,-13.38884096301794,0.48681109171472486
1761497449156974300,0.708974365234375,-7.405133632916212,-13.268927466392517,0.9029938920419662
1761497449167031600,0.719031494140625,-8.666523103031516,-12.017074470907449,0.9897546222586184
1761497449177087500,0.72908740234375,-8.950543458274007,-10.264261666041612,0.41362909725643693
1761497449187143400,0.739143310546875,-8.151645242935418,-8.74277456806302,-0.797063547257334
1761497449197200600,0.74920068359375,-6.178621999436617,-7.004784069275855,-1.6998302794799207
1761497449207256300,0.75925634765625,-4.509514775000512,-4.866373864221573,-1.982656456501782
1761497449217312300,0.769312255859375,-2.6055910789519547,-3.311189079302549,-1.5778345697529612
1761497449227369500,0.779369384765625,-0.4945404438577592,-2.0661007556468247,-0.6597955226618796
1761497449237425400,0.78942529296875,0.7440856980465352,-1.0572539679706097,0.8352114916048944
1761497449247481300,0.7994814453125,1.0266828886181116,-0.1419908883988857,2.2774682548716663
1761497449257538300,0.809538330078125,0.7715402528136969,0.6007926410079002,2.895881892766058
1761497449267594200,0.81959423828125,1.0011363594293594,1.852612903267145,2.640054197306931
1761497449277650400,0.829650390625,1.2370523167163132,3.4037323384433984,1.7687965559393166
1761497449287707400,0.839707275390625,1.2502744941219688,4.683834107813238,1.0984550893437117
1761497449297763300,0.849763427734375,0.9986883817553519,5.9450493904054165,0.9831846692837775
1761497449307819300,0.8598193359375,0.7615170175798237,7.318250883755088,1.1289754614222793
1761497449317875500,0.86987548828125,0.46349750920981164,8.213217025229334,1.0069847201313822
1761497449327932400,0.879932373046875,0.3776176534809172,8.564400114640593,0.49739506610389794
1761497449337988400,0.88998828125,1.4048895940333603,8.876828233721852,-0.23006927708536384
1761497449348044300,0.900044189453125,3.386936686465144,9.861918882757426,-1.4561638541966675
1761497449358101200,0.910101318359375,5.150740840944647,11.041460675269365,-2.7928847518891096
1761497449368157400,0.920157470703125,6.13656038877666,11.77505084439516,-3.3028187258422372
1761497449378213400,0.93021337890625,6.333320393717289,11.866937685453891,-2.708932210960984
1761497449388270300,0.940270263671875,6.053945818454027,11.717164472615718,-1.8092574534043668
1761497449398326300,0.950326171875,5.82877688063085,11.574384479665756,-1.382392807804048
1761497449408382500,0.960382568359375,5.744395300635695,11.218835011738538,-1.2592656098291277
1761497449418439400,0.970439453125,5.390665449351072,10.706344923561812,-1.1752014252200722
1761497449428495400,0.980495361328125,4.569032255113124,10.23172133244276,-1.2455956886559725
1761497449438548000,0.9905478515625,3.7303368669152257,10.137568884539604,-1.1564075851619242
1761497449448605000,1.00060498046875,3.1524671285942194,10.581170729929209,-0.7675815783157944
1761497449458660900,1.010660888671875,2.3833541029274463,11.207481258553265,-0.3742328333482146
1761497449468716800,1.020716796875,1.5984639546751975,11.676190657192468,-0.1949520787358284
1761497449478773000,1.03077294921875,1.2764242499008773,11.794744555902481,-0.1652720847378485
1761497449488830000,1.040829833984375,1.0133674799710513,11.304645163232088,-0.08494622814059256
1761497449498886000,1.050885986328125,0.682321754181385,10.794764380770921,0.04629939436018467
1761497449508941800,1.06094189453125,0.4546580769330263,10.650344219398498,-0.2037465028271079
1761497449518998800,1.070998779296875,0.4962415486872196,10.618202529728412,-0.6322983708620071
1761497449529055000,1.081054931640625,0.6439807714797556,10.515516062235832,-1.1276000083506106
1761497449539111000,1.09111083984375,0.3780617439866066,10.374299080818892,-1.3842954265549778
1761497449549167900,1.10116796875,-0.0012386018842458725,10.198632717311382,-1.2778580820962786
1761497449559223800,1.111223876953125,0.18679741385281085,9.636230304974317,-1.38089701628834
1761497449569280000,1.121280029296875,0.5394979220896959,8.159165117046237,-1.4603323720529675
1761497449579337000,1.1313369140625,0.17490487761572002,6.053572893488407,-1.0920049633562565
1761497449589393000,1.141392822265625,0.16700608718991278,3.873274096253514,-0.6936030266523361
1761497449599448800,1.15144873046875,0.7782020487904548,2.267469131165743,-0.4464677562147379
1761497449609505800,1.161505859375,1.753260548633337,1.028524717092514,0.024135201086103914
1761497449619562000,1.17156201171875,2.713007205314934,-0.9585486790686846,0.5853840594738722
1761497449629618000,1.181617919921875,3.478437743076682,-5.051351661431789,1.0295908850193023
1761497449639675000,1.1916748046875,3.232749164316058,-10.551529624903202,1.5156687670886515
1761497449649730800,1.201730712890625,0.7857844667434692,-14.535324535536764,1.8507438945248722
1761497449659787000,1.211787109375,-3.225762958690524,-15.843237856417893,1.9358458977490662
1761497449669843000,1.221843017578125,-6.181179867225885,-16.87850678707361,2.7825302388742563
1761497449679900000,1.23189990234375,-7.70180304185152,-17.975238194429874,3.949410702733695
1761497449689955800,1.241955810546875,-8.741814783120155,-18.683545453739164,5.242086414733529
1761497449700012000,1.252011962890625,-9.464985849562288,-20.132631332373617,5.996724632585049
1761497449710069000,1.262069091796875,-9.333426338806747,-21.945233712291717,4.966897016200423
1761497449720125000,1.272125,-8.674359788006544,-22.98146008980274,2.927387622620165
1761497449730180900,1.282180908203125,-7.913952339103817,-23.086140945982933,1.3257410923860966
1761497449740237800,1.29223779296875,-7.55118577940464,-22.46491341971159,-0.14829685667529702
1761497449750294000,1.3022939453125,-8.344381983709335,-21.300828724050522,-0.9696429045349358
1761497449760350000,1.312349853515625,-8.987421528816222,-18.92471918542385,-0.6549306200392544
1761497449770407000,1.322406982421875,-6.845070477181673,-15.987978335785865,-2.076336610718071
1761497449780463000,1.332463134765625,-5.518101742696762,-12.749764476323127,-3.055185442754626
1761497449790519000,1.34251904296875,-5.642227304059267,-10.178210691529511,-3.0132477507352826
1761497449800575000,1.352574951171875,-4.972009244647622,-7.762374122670292,-3.364506243470311
1761497449810632000,1.3626318359375,-3.9650235746681686,-5.471315441602468,-3.1574256277844306
1761497449820688100,1.372688232421875,-2.893260312090814,-3.0133395206719635,-2.153061246219277
1761497449830744000,1.382744140625,-1.3339669228091835,-0.5187321974366903,-0.9359875954315066
1761497449840801000,1.392801025390625,0.7390154090449214,1.7615344559818504,-0.007460549705591984
1761497449850857000,1.40285693359375,2.305808214171231,4.271556790491938,0.8439747899055481
1761497449860913200,1.4129130859375,2.600616797670722,6.693931236687302,1.476269945897162
1761497449870970000,1.42297021484375,2.123859117132425,9.019383770266174,1.4545491124764085
1761497449881026000,1.433026123046875,1.2591224019661544,10.07009752281308,1.2653756171420216
1761497449891082000,1.44308203125,1.0407134597972034,9.938555547714232,1.1728463865265248
1761497449901139000,1.453138916015625,1.5615198331594466,10.03274306693077,0.527668075825274
1761497449911195100,1.463195068359375,2.011237238819897,10.087342087602615,-0.24929887821227312
1761497449921250800,1.473250732421875,3.1522242597490546,10.763221241515874,-0.6814514010876417
1761497449931308000,1.48330810546875,3.8664603245854376,11.715064869987964,-1.2561126987561584
1761497449941364000,1.493364013671875,4.3334816240072245,12.594184623032808,-1.500986746263504
1761497449951420000,1.503419921875,4.964828393232822,12.908038975524901,-1.3149112169444561
1761497449961475800,1.513475830078125,4.813555589486659,12.476830163240432,-0.913597484447062
1761497449971532800,1.52353271484375,4.286204032264649,11.495572224235534,-0.4257482087910175
1761497449981588700,1.533588623046875,4.49480411260277,10.851418580406904,-0.2493818803206086
1761497449991645000,1.54364501953125,4.806347850064933,10.261731855303049,-0.43597149664163587
1761497450001702000,1.553701904296875,4.723692363210022,9.161202224707603,-0.39538521923124786
1761497450011757800,1.5637578125,4.3175975339159365,8.091805399000645,-0.30194997968673704
1761497450021813800,1.573813720703125,3.9508185237050055,7.350032507941126,-0.492620727841556
1761497450031870700,1.58387060546875,3.5655545932546255,7.236333063524961,-0.6205225928723812
1761497450041927000,1.593927001953125,2.7639339672148227,7.64089176929295,-0.4498620748281479
1761497450051982800,1.60398291015625,1.7144108857572078,7.979298963761329,0.01995616183578968
1761497450062039800,1.614039794921875,0.9926321504563093,8.286506133323908,0.24865444282889365
1761497450072095700,1.624095703125,1.0225669777318835,8.567306941998005,-0.1371595409859903
1761497450082152000,1.63415185546875,1.6593769807994365,8.539463826304674,-0.9521493334203958
1761497450092207900,1.644207763671875,2.5654230269536376,8.52947434720993,-1.6962237794205546
1761497450102264800,1.654264892578125,3.2075556863486763,8.507941729837656,-1.8514283696576952
1761497450112321000,1.664321044921875,3.5855215687453743,8.714609965330363,-1.4457628716915845
1761497450122377000,1.674376953125,3.7518048946186897,8.4281679358989,-1.1963888824164868
1761497450132434000,1.684433837890625,3.9437487314492463,8.150056512439251,-1.3869672761127352
1761497450142489900,1.69448974609375,4.084404571852088,7.716502013811469,-1.6585297163203359
1761497450152546000,1.704546142578125,4.192099515156448,7.374296011582016,-1.5668042033031582
1761497450162603000,1.71460302734375,3.2584196121454236,6.919494726786017,-0.9364952526926994
1761497450172659000,1.724658935546875,2.3458111387357112,5.605663121771812,-0.06750729155642911
1761497450182715000,1.73471484375,1.9563900886058807,3.739398125249147,0.714578886924684
1761497450192771800,1.744771728515625,1.5540440904513,2.093119695475697,1.0617337437331675
1761497450202828000,1.754828125,0.7392956872910261,0.2767734528541565,0.9107517396271229
1761497450212884000,1.764884033203125,1.066180786269903,-1.5746359198421238,0.18763854085206985
1761497450222941000,1.77494091796875,1.9058441427171229,-5.197222021612525,-0.352581265771389
1761497450232996900,1.784996826171875,2.26046129823029,-11.877922020804881,-0.10143325256109237
1761497450243053000,1.795052978515625,1.011252679774165,-18.927856898927686,0.6802756353065371
1761497450253109000,1.80510888671875,-2.61953134149909,-22.86619003506899,1.4887076949268578
1761497450263166000,1.815166015625,-7.585783630055189,-23.826561837911605,1.4149135599195957
1761497450273222000,1.825221923828125,-9.60399684536755,-23.79030043796301,1.0880763917356728
1761497450283278000,1.835278076171875,-9.533487723380327,-22.885327281737325,0.07098783628172241
1761497450293335000,1.8453349609375,-9.546942832759022,-21.501286998987197,-0.8891815667234361
1761497450303391000,1.855390869140625,-9.851001182901859,-21.27152781076431,-1.1117033510386942
1761497450313447000,1.865447021484375,-9.465137825253604,-20.991808367586135,-1.1429846244871615
1761497450323503900,1.87550390625,-9.370810605305433,-19.68789902164936,-1.2267764218956232
1761497450333560000,1.88556005859375,-9.072204090827704,-19.75016930760145,-1.8925383786812424
1761497450343616000,1.895615966796875,-9.465909978669881,-20.806051987218854,-2.0869157262690363
1761497450353672000,1.905671875,-10.64631218740344,-20.771403867685795,-1.0491823051959275
1761497450363729000,1.91572900390625,-10.974866096377372,-17.83261017717123,0.11925618349416181
1761497450373785000,1.92578515625,-9.86056629910469,-13.882090928673744,0.7014592931106686
1761497450383841000,1.935841064453125,-7.060262210869789,-8.662040404659509,0.4045423391550779
1761497450393898000,1.94589794921875,-5.060650235652924,-3.116973498147726,0.3079808208161965
1761497450403954000,1.955953857421875,-3.3697757083058355,1.5206617530703543,0.32192601526677606
1761497450414010000,1.966010009765625,-0.2622474993735552,4.5369367426723235,-0.7727630726069211
1761497450424067000,1.976067138671875,1.0517724678196012,5.918961009424924,-0.6382499727427959
1761497450434123000,1.986123046875,2.61513895175904,6.816369283354282,0.4607833548802882
1761497450444179000,1.996178955078125,3.5720521385803816,8.707420930609107,1.868985945919156
1761497450454236000,2.00623583984375,3.851066063837707,10.696641860193013,3.286071589180827
1761497450464291800,2.016291748046875,3.513581537172198,11.715705505979061,3.7189772685110567
1761497450474347800,2.02634765625,2.2470050198078155,12.562855418789386,3.669301967976987
1761497450484404000,2.036404052734375,1.3407625742986797,13.777856647217273,3.31562618496716
1761497450494461000,2.0464609375,2.3334920476496217,14.84018894136548,1.9610083960562943
1761497450504516900,2.056516845703125,4.284759970936179,15.951361546528338,-0.3762167006418109
1761497450514572800,2.06657275390625,6.075844931051135,16.532539971005917,-2.2812153324455022
1761497450524629800,2.076629638671875,6.768393480214476,15.861845526254177,-2.849501834385097
1761497450534686000,2.08668603515625,5.975146422505379,14.143873733144998,-2.2785738780260085
1761497450544742000,2.096741943359375,4.980638541305065,12.224079391008615,-1.5107906396582722
1761497450554798800,2.106798828125,4.135791644740104,10.899177525925635,-1.3035156704440711
1761497450564854800,2.116854736328125,2.544481361211836,9.70586498221457,-1.0746572304531932
1761497450574911000,2.126910888671875,1.4045533478163181,8.390054186081885,-0.6912254838660359
1761497450584968000,2.136968017578125,1.1785460594728587,7.83658794439435,-0.6536185145273804
1761497450595024000,2.14702392578125,1.025311308003962,7.6599442602872845,-0.7035466207787394
1761497450605079800,2.157079833984375,0.8856193441972136,7.230919806304573,-0.4850450318902731
1761497450615136000,2.167135986328125,0.8459284081913531,7.242593877485394,-0.3667322484597563
1761497450625193000,2.17719287109375,0.46542263205349443,7.491820567244291,-0.2784139135375619
1761497450635249000,2.187248779296875,0.5653273598730564,8.013939484509825,-0.297893690033257
1761497450645304800,2.197304931640625,1.004050201049447,8.833626220855116,-0.49265492237210273
1761497450655361800,2.20736181640625,1.1656845320731402,9.665612466803193,-0.6887582169696689
1761497450665418000,2.21741796875,1.8042028003633022,10.302944155657292,-0.6271677299752831
1761497450675473700,2.2274736328125,2.64567875919044,10.602864675343037,-0.4728168339580297
1761497450685531000,2.23753076171875,3.20072320998013,9.945791928708553,-0.6625672523975372
1761497450695586800,2.2475869140625,3.2947686903774738,8.78848417983651,-1.1161294969178737
1761497450705642800,2.257642822265625,2.6054455330014226,7.7368462981820105,-1.388031836604327
1761497450715700000,2.267699951171875,1.647479037734866,7.0848781812101596,-1.3111891276814043
1761497450725755600,2.277755615234375,1.066753617721796,7.1734081130564205,-0.8042709944181143
1761497450735811600,2.2878115234375,0.9961679233670234,7.144173835265636,-0.4110068589940667
1761497450745867800,2.29786767578125,1.8756889506891368,6.72224606154561,-0.408306477461569
1761497450755924700,2.3079248046875,2.9110049353569742,6.346094535094499,-0.5450124477274716
1761497450765980700,2.317980712890625,3.3950451741188763,5.109366628026962,-1.0815576574914156
1761497450776036900,2.328036865234375,3.5921108840078113,2.5736416969835756,-1.045721935608983
1761497450786093800,2.33809375,3.626092064064741,0.2703630012899637,-0.03604132745712995
1761497450796149800,2.348149658203125,3.087635175460577,-2.73413621032238,0.9968035909220576
1761497450806205700,2.358205810546875,2.2203987524330615,-7.38133891583085,2.2387337428078053
1761497450816262700,2.3682626953125,1.0832770286299287,-13.19019938211441,3.583879062235355
1761497450826318800,2.37831884765625,0.4630328143075108,-18.76701284149885,4.782168225315213
1761497450836374800,2.388374755859375,-2.410031681972742,-20.486954473376272,3.8811750786364074
1761497450846431700,2.398431640625,-5.3340778852105135,-20.94215440210104,2.539785896871984
1761497450856487700,2.40848779296875,-7.019716265469789,-22.924413091456888,1.632061103850603
1761497450866543900,2.4185439453125,-8.444291972225903,-23.011612066960332,1.0223663405932486
1761497450876599800,2.428599853515625,-10.245215604788065,-22.239201461052893,1.2399376628942786
1761497450886656800,2.43865673828125,-11.319245350992679,-21.08732392053604,1.991016873089969
1761497450896712700,2.448712646484375,-11.144365753948687,-20.419958912467955,2.0997619099691507
1761497450906769000,2.458768798828125,-9.644423548302054,-20.524616387772557,0.6722308605387807
1761497450916825900,2.468825927734375,-9.080222562110423,-20.841237866890427,-0.3598785831727087
1761497450926881800,2.4788818359375,-9.371285237079858,-21.705645203971862,-0.741242729705572
1761497450936937700,2.488937744140625,-9.341001742497086,-22.362173176205157,-1.006668566854298
1761497450946994700,2.49899462890625,-9.384746776199341,-21.59005015506744,-0.5767802260512486
1761497450957051000,2.50905078125,-8.987122253608703,-19.34430419541001,0.00886628375109285
1761497450967106800,2.51910693359375,-7.329539755010605,-14.906460864174365,-0.11588895381707698
1761497450977163800,2.529163818359375,-5.1662569745063776,-8.809943147450685,0.3079329996190965
1761497450987219700,2.5392197265625,-4.18236868699789,-2.849872713524103,1.9899884068250655
1761497450997276000,2.54927587890625,-2.488371059194207,0.7029010163515805,3.5087709220200773
1761497451007331800,2.559331787109375,-0.31254765380769967,2.2535639399319884,3.9229081879943606
1761497451017388800,2.569388916015625,1.1501001555807888,3.8710651880323885,3.2322461832299827
1761497451027444700,2.57944482421875,1.710736581158638,5.636565040513873,1.7581164642319083
1761497451037501000,2.5895009765625,1.7312177897818386,7.677481086021661,0.06541439266409725
1761497451047558000,2.599557861328125,1.6734693651683628,10.421799667662382,-0.4176166690552607
1761497451057613800,2.60961376953125,1.5278794293642044,12.35256782375574,-0.49284489198625087
1761497451067669800,2.619669677734375,1.6487882206372915,13.218085752427577,-0.8970371025294065
1761497451077726700,2.629726806640625,1.7061217808395623,14.196949489772319,-1.2838684284269808
1761497451087783000,2.639782958984375,1.9077695578217506,15.370456678295135,-1.5829972132131456
1761497451097838800,2.6498388671875,2.360067919886112,16.5393929056406,-1.8249471899673342
1761497451107894800,2.659894775390625,3.1039772384524342,16.834371877270936,-1.460821616874635
1761497451117951700,2.66995166015625,3.665599898588657,15.989287664818763,-0.5833434935569762
1761497451128008000,2.680008056640625,4.059360731488466,14.739847575694322,0.4393166788836941
1761497451138064000,2.69006396484375,4.26623939486146,13.601100734907387,0.7822334962636232
1761497451148120800,2.700120849609375,4.572562182804941,12.031370707285404,0.020365034897625447
1761497451158177000,2.710177001953125,4.23378732406795,10.080257682299614,-0.7539394219323993
1761497451168233000,2.72023291015625,2.647185072100162,8.210313120481372,-1.1879860879912971
1761497451178290000,2.7302900390625,1.13293070185408,7.053014723959564,-1.438458393897116
1761497451188345900,2.740345947265625,-0.23362813861072063,6.990152317333221,-1.7034204129263757
1761497451198401800,2.75040185546875,-1.112243887656182,7.485707052800059,-1.942915105482936
1761497451208459000,2.760458984375,-0.9215547270618378,8.05354318062365,-2.089513779938221
1761497451218515000,2.770514892578125,-0.5094418065220118,8.595676127392053,-1.7299468930631876
1761497451228570600,2.780570556640625,0.26736031234264374,9.136914755669236,-1.3309246325038373
1761497451238626800,2.790626708984375,1.4551334882356226,9.192011788991094,-1.1646315158888696
1761497451248683800,2.800683837890625,2.4660218647420407,8.93104614612162,-1.1154568583533166
1761497451258739700,2.81073974609375,3.055889207109809,9.119813398742675,-0.9667718791432678
1761497451268795600,2.820795654296875,3.1786908263921734,9.81397990449667,-0.7861449706189334
1761497451278852600,2.8308525390625,2.8980741421133276,10.310943922239542,-0.6143840901173651
1761497451288908800,2.84090869140625,2.3081419178158042,10.543841993010043,-0.6431468048736453
1761497451298964700,2.85096484375,1.9716672988452015,10.53601641395092,-0.7477851370863616
1761497451309021700,2.861021728515625,2.9899592296063897,10.374736303192376,-0.8473245387248695
1761497451319077600,2.87107763671875,4.434056213912368,10.39835917084217,-0.9754780404292046
1761497451329133800,2.8811337890625,5.417645226213335,10.308387223494051,-0.4106298423752188
1761497451339190800,2.891190673828125,5.083274155393243,9.387148576644062,0.5203451855912804
1761497451349246700,2.901246826171875,3.4248253953546284,7.704409424957633,1.4270289451271294
1761497451359302700,2.911302734375,1.3072475504487753,6.29299539759159,1.5170970463261007
1761497451369358800,2.92135888671875,-0.35058789999708534,5.102892463576794,1.2407207760959862
1761497451379415800,2.931415771484375,-0.28757468672320247,3.861620483338833,0.5150204834371805
1761497451389471700,2.9414716796875,0.7582499786078929,1.95771578425169,-0.5812807158082723
1761497451399527700,2.951527587890625,1.265772215244174,-0.05234802687466144,-0.3101946609407663
1761497451409584600,2.961584716796875,0.7467483413845301,-3.4038357988178727,0.8537599785998463
1761497451419640800,2.971640869140625,-0.31844737937077877,-9.82473978344202,2.401559621703625
1761497451429696800,2.98169677734375,-1.9513918419271707,-15.615932491087912,3.1831074737906455
1761497451439753700,2.991753662109375,-4.976279177051782,-16.8197740275979,1.9936023595385253
1761497451449809700,3.0018095703125,-6.189785783007741,-16.504395242017505,0.6281998495019971
1761497451459865600,3.011865478515625,-4.788257774361968,-17.9371390576601,0.11912271157391369
1761497451469922800,3.0219228515625,-4.733128884597122,-19.325908122497797,0.21590883244890718
1761497451479978800,3.031978759765625,-5.819076739871502,-19.07235304814577,0.10308131202906369
1761497451490034700,3.04203466796875,-6.231812906876206,-18.334938936817643,-0.2960851793065667
1761497451500090600,3.052090576171875,-6.158945239064097,-18.250159881937503,0.642935646340996
1761497451510147600,3.062147705078125,-5.0706011363029475,-19.056641099750994,1.3962250799320637
1761497451520203500,3.07220361328125,-4.319181003715098,-21.558644962978363,1.819771394764632
1761497451530259700,3.082259765625,-5.628703805619478,-24.480971502816676,2.3636852336004375
1761497451540316700,3.092316650390625,-7.911530080392956,-26.04452781023979,2.1461269169114527
1761497451550372600,3.10237255859375,-10.673123037439584,-26.308792494654654,1.5498456158481537
1761497451560428500,3.112428466796875,-12.732788791602848,-24.746550192439553,1.1331576424777507
1761497451570485500,3.122485595703125,-12.927311831271648,-21.6873707116127,0.6054444123364985
1761497451580541700,3.132541748046875,-10.553250457346438,-18.206091607630253,0.6514695197999477
1761497451590597600,3.14259765625,-6.57054626455903,-14.252629875940084,1.1018192320145666
1761497451600654600,3.152654541015625,-3.837725228488445,-10.613797572767734,2.064129893965274
1761497451610710500,3.16271044921875,-2.1459289101213215,-6.220691793403029,1.3009411437809466
1761497451620766700,3.1727666015625,-1.656536350546032,-3.549696222126484,0.4337851655784994
1761497451630822700,3.18282275390625,-2.240157345870137,-2.188503731000423,0.09840995921716093
1761497451640879600,3.192879638671875,-2.9031992300421,-1.0096697944968938,-0.029278774519637226
1761497451650935600,3.202935546875,-3.486431079918146,0.5670575446665287,-0.5404529577922076
1761497451660991700,3.21299169921875,-2.981913285794854,2.8701275660455225,-0.9598350656174123
1761497451671048700,3.223048583984375,-1.8160118961006402,6.213894388347864,-1.4883900072798133
1761497451681104600,3.233104736328125,-0.8830588460594415,9.13808146136105,-1.5589052667468786
1761497451691160600,3.24316064453125,-0.4338496821820736,10.282787502813338,-0.7629661934748292
1761497451701217500,3.253217529296875,-0.34120646979808805,11.053180339157581,-0.6813189338143915
1761497451711273700,3.263273681640625,-0.3245826672554016,12.259530643618106,-1.4286480707615614
1761497451721329700,3.27332958984375,-0.42308282550666476,13.39303783018589,-1.9891709529623387
1761497451731386600,3.28338671875,-0.09497662376761436,14.18969089694619,-2.1603153090007603
1761497451741442600,3.293442626953125,0.41744098369479177,14.611908593523502,-2.2303759565681216
1761497451751498800,3.303498779296875,0.7444189485888928,14.52882465212345,-1.84595490668267
1761497451761554700,3.3135546875,1.1843804647147655,14.010548966282606,-0.9604644495621323
1761497451771611600,3.323611572265625,1.4063865545928478,13.4654916565001,-0.6029184740554541
1761497451781667600,3.33366748046875,1.5102362206459043,12.88105627605319,-0.6720597417555749
1761497451791723800,3.343723876953125,1.2870447203755377,12.4904284804821,-0.9567006400492042
1761497451801780700,3.35378076171875,0.755295804977417,12.386990317839384,-1.2951587609872222
1761497451811836700,3.363836669921875,0.6214088741876185,12.24445465503931,-1.4510077866077422
1761497451821892900,3.373892822265625,0.26052133316807446,12.010297524118423,-1.8169674432598053
1761497451831949800,3.38394970703125,-0.6176994252104312,11.95357084376812,-2.331319525916129
1761497451842005800,3.394005859375,-0.9609891310233623,12.50555356889963,-2.375375963655114
1761497451852061700,3.404061767578125,-1.5481038867473602,13.26337918461561,-2.2688009642913936
1761497451862118700,3.41411865234375,-1.7504560126066206,14.229427864050864,-2.206791959623992
1761497451872174800,3.4241748046875,-1.5959131011486052,15.528969662427901,-2.4653666157037017
1761497451882230800,3.434230712890625,-1.4115046282589434,16.363912420094014,-2.7783114521354437
1761497451892287700,3.444287841796875,-1.0426957927208393,16.83743827910423,-3.0648177789747715
1761497451902343700,3.45434375,-0.8808909274358302,16.545986312556266,-3.4442060953900215
1761497451912400000,3.46439990234375,-0.9501520221233367,16.156021364808083,-3.7602065200001
1761497451922455800,3.474455810546875,-1.1961386339824647,15.93647611208558,-3.743874393880367
1761497451932512800,3.4845126953125,-1.712491315871477,15.267598361366986,-3.3621509125158187
1761497451942568700,3.494568603515625,-1.8781775526344775,14.676451500582694,-2.820768784114718
1761497451952625000,3.504625,-1.7365034750998019,14.249641800040006,-2.3797828203119336
1761497451962681900,3.514681884765625,-1.8299883990049362,13.32563544204235,-1.9243170802578329
1761497451972737800,3.52473779296875,-1.707778315874934,12.307480143272876,-1.4167244087338446
1761497451982793500,3.53479345703125,-1.2497265048503876,11.079722309124469,-1.4836907435476778
1761497451992850700,3.5448505859375,-1.2733090404897927,9.536447742229699,-1.5100368986815214
1761497452002907000,3.554906982421875,-1.6333914756715298,7.027086501976847,-0.9529436986684798
1761497452012962600,3.564962646484375,-1.1477291156005114,3.722158236634731,-0.3462378150288015
1761497452023019800,3.575019775390625,0.08845394400060176,0.0004956745624542236,0.18947350119426845
1761497452033075500,3.585075439453125,0.769803638279438,-4.864761752849817,0.47111499847620725
1761497452043131600,3.595131591796875,0.13164675064757467,-11.060173559045792,1.2041940762747079
1761497452053187600,3.6051875,-0.7044234036132693,-18.19968290963173,2.1128836957402526
1761497452063244500,3.61524462890625,-1.137483688983321,-24.449449406349657,1.9299093473069369
1761497452073300500,3.625300537109375,-2.0193886888325214,-26.4817478456378,1.3074784365952015
1761497452083356700,3.635356689453125,-2.5594062508821485,-27.70620663824081,1.2163187407672404
1761497452093413600,3.64541357421875,-2.2819768183372915,-30.46423576532602,2.0783950045526027
1761497452103469600,3.655469482421875,-3.818015442629158,-31.979494198048112,3.6810771614447235
1761497452113525500,3.665525390625,-6.780066966873407,-32.12808433858156,5.049412217801809
1761497452123582700,3.675582763671875,-8.644162218141556,-31.28925801748037,5.749993851295113
1761497452133638700,3.685638671875,-9.196614898872374,-29.548794991099832,5.223558239874244
1761497452143694600,3.695694580078125,-8.698097221946716,-27.91343367666006,3.806620772911608
1761497452153751600,3.70575146484375,-7.305951958674192,-27.27274858572483,1.9013588139966129
1761497452163807700,3.715807861328125,-5.487941582232714,-26.782222492074965,-0.13232976447567343
1761497452173863700,3.72586376953125,-4.104186546164751,-25.935755300831794,-1.394230691244453
1761497452183919600,3.735919677734375,-3.457659158942103,-23.812495903158187,-1.8074772919893263
1761497452193976600,3.7459765625,-3.650496145220101,-21.1136578007102,-1.8849265885032713
1761497452204032800,3.75603271484375,-4.368826785893738,-17.705549146878717,-1.9127629821948706
1761497452214088700,3.766088623046875,-4.566265713009238,-13.343755620622634,-1.1480793172776698
1761497452224145700,3.776145751953125,-4.838190556788445,-8.760488503929972,-0.10386632492691278
1761497452234201600,3.78620166015625,-4.413850461229682,-4.312167033299803,0.4317564727624878
1761497452244257800,3.7962578125,-3.107238286074996,0.2833417253285646,0.7575222488552331
1761497452254314800,3.806314697265625,-1.176778903669864,4.314627870455384,0.8499175508927553
1761497452264370700,3.81637060546875,0.14840309352874756,7.306805360633135,0.5664689311236143
1761497452274426600,3.826426513671875,0.7058838315546512,9.784181563082337,0.027312662078440186
1761497452284483600,3.836483642578125,0.9802818605143576,11.306886220157146,-0.7788286562561988
1761497452294539800,3.846539794921875,0.8157955010604113,12.918852630484103,-1.8024115330323576
1761497452304595700,3.856595703125,0.6642308747608214,14.240472989678382,-2.9236326540008184
1761497452314651600,3.866651611328125,-0.07440262229442596,15.280692820739745,-3.339202290865779
1761497452324708600,3.87670849609375,-0.40558161907494067,16.482378640520572,-2.5947972977370024
1761497452334764800,3.886764892578125,0.1323942080140114,17.443907796704767,-1.6811229486614465
1761497452344820700,3.89682080078125,1.2086369540929793,18.002575114166735,-1.0493947058375923
1761497452354877700,3.906877685546875,1.6561171022206544,17.66992604483366,-0.831310027186945
1761497452364933600,3.91693359375,1.3453484407842158,16.627119119888544,-0.8551432496517896
1761497452374989800,3.92698974609375,0.7915139503061771,15.554752922981976,-0.9297627295672893
1761497452385046800,3.937046875,0.08575286834836006,14.75025557246208,-1.1603369605001062
1761497452395102700,3.947102783203125,-0.23660160146355627,13.88689102243185,-1.5550320785753429
1761497452405158700,3.95715869140625,-0.04270283573952038,13.22725690087676,-1.9691820579007266
1761497452415215600,3.967215576171875,-0.4362614194989204,13.085820139229297,-1.7771131333857775
1761497452425271800,3.977271728515625,-1.1728665525317192,13.388088098824024,-1.129437306780368
1761497452435327700,3.98732763671875,-1.617835010099411,13.809708414030075,-0.7168184825450181
1761497452445385000,3.997385009765625,-1.8762088829100132,14.118566273409128,-0.4917774088852107
1761497452455441000,4.00744091796875,-2.150470060682297,14.86460091356635,-0.25806992142796514
1761497452465497000,4.0174970703125,-2.218496718204021,15.761487793970106,-0.09334683060869574
1761497452475550200,4.02755029296875,-2.179878525996208,15.763334883141516,-0.07365224231854081
1761497452485607200,4.037607177734375,-1.587114293143153,16.392514245200157,0.026343378654867407
1761497452495663000,4.0476630859375,-0.7462918297886848,16.641081009745598,-0.1647412840630859
1761497452505719000,4.057718994140625,-0.2839578114002943,16.43363185300827,-1.0404809662155807
1761497452515776300,4.0677763671875,-0.21244564985036848,15.652964290887116,-1.8408925087265668
1761497452525832200,4.077832275390625,-0.43954044116958974,14.677599501574038,-2.4714585028380154
1761497452535888000,4.087887939453125,-1.0579437038004398,13.55156250475645,-2.8440754254221914
1761497452545945000,4.097945068359375,-2.1143571292936802,12.253850259894131,-3.0575092095270753
1761497452556001000,4.1080009765625,-2.4891771148800848,11.195606111842393,-2.9174264928370715
1761497452566057000,4.118056884765625,-2.942148261639476,9.906973830014467,-2.321540620832145
1761497452576114000,4.128114013671875,-2.263059498029947,7.963823746731877,-1.4210191833183168
1761497452586169900,4.138169921875,-1.4194305989526212,4.994456054255366,-1.1036977392375469
1761497452596226000,4.14822607421875,-1.1570540663719178,1.8701462218701839,-0.9053884590283036
1761497452606282000,4.158281982421875,-1.226198622007668,-0.7041501396298409,-1.193105257635936
1761497452616339000,4.1683388671875,-1.0913321786612271,-3.1163235098063944,-1.183165243706107
1761497452626395000,4.178394775390625,-0.17155366749167442,-5.448264236360788,-0.6427312098100781
1761497452636451000,4.188451171875,1.757659952636063,-7.310899936470389,0.05619567874614149
1761497452646508000,4.198508056640625,3.233429840056598,-9.440545820310712,0.7636138437286019
1761497452656564000,4.20856396484375,2.540867262367904,-12.375277668213844,1.165225974650681
1761497452666620000,4.218619873046875,0.16088000552505255,-15.01563084846735,1.022892264163494
1761497452676676900,4.2286767578125,-2.1998536847934127,-17.209318119585514,0.3439508366027847
1761497452686733000,4.238733154296875,-3.465435053640604,-19.739187310338018,-0.4967845695227384
1761497452696789000,4.2487890625,-4.7614504314571615,-22.161488106775284,-0.28539675816223026
1761497452706846000,4.258845947265625,-5.457624769902229,-24.21315058722496,0.16852818219065666
1761497452716902100,4.268902099609375,-5.350476062303781,-25.357639771056174,0.47904202861580997
1761497452726958000,4.2789580078125,-4.737421028833091,-25.232161626040934,1.6559297629550098
1761497452737014000,4.289013916015625,-4.939741882771253,-24.717253955328463,3.610411095330119
1761497452747071000,4.299071044921875,-6.043975044059753,-25.012949550795554,5.014373637646436
1761497452757127200,4.309127197265625,-7.061594336256384,-26.106026527297495,5.180415263718366
1761497452767183000,4.31918310546875,-8.035607710960507,-27.364532550930974,4.3162674543559545
1761497452777240000,4.329239990234375,-8.698031755495071,-27.777427123367787,3.0376690752863884
1761497452787296000,4.3392958984375,-9.381694987413287,-26.58284441359043,1.7962154548712073
1761497452797352200,4.349352294921875,-9.471744676172733,-23.805483978569505,0.8280762328974902
1761497452807409200,4.3594091796875,-8.757271879971027,-20.253278988492486,0.2302297283440828
1761497452817465000,4.369465087890625,-7.34866414219737,-15.908347749710082,0.31355770763307805
1761497452827521000,4.37952099609375,-5.1686523452103135,-10.269917499846219,0.441090410557948
1761497452837578000,4.389577880859375,-1.9427419408731161,-4.069650070312619,0.3189335189199075
1761497452847634200,4.39963427734375,1.2103092712193726,1.9344447987794875,0.2851096117839217
1761497452857690000,4.409690185546875,2.7881273282289505,6.957734733331203,0.6121782141035422
1761497452867746000,4.41974609375,1.6354700355112552,10.612195982789993,1.0085004584565758
1761497452877803000,4.429802978515625,-0.8064661663748324,12.034354107010364,0.9268816942382603
1761497452887861000,4.439861083984375,-2.0593752467840907,11.894592585098742,-1.4176853627204895
1761497452897918000,4.44991796875,-1.9145529343515633,12.232860078835486,-1.8970877125486731
1761497452907974000,4.459973876953125,-0.8374123626500367,12.762509391605853,-2.307509757392108
1761497452918030000,4.470030029296875,0.5078752878576517,13.722212501406668,-2.9171982370391487
1761497452928086000,4.4800859375,1.4971769787169993,15.309811363196372,-2.876583025795221
1761497452938143000,4.49014306640625,2.302379701027274,16.26020537738204,-2.0640309636354446
1761497452948199000,4.500198974609375,2.3150889604747293,16.36872420428991,-1.2707894588842987
1761497452958255000,4.510255126953125,2.1090654526263473,16.33633584638238,-0.6063468045363203
1761497452968312000,4.52031201171875,2.9647499695479866,16.191768385493756,-0.3754928068140521
1761497452978368000,4.530367919921875,3.3089901079535484,15.829000072228908,-0.7743050413519144
1761497452988424000,4.540423828125,3.2838843082696196,14.932514173841476,-1.1367001373901962
1761497452998481200,4.550481201171875,2.8093063098579645,13.73453656092882,-1.2134835173413157
1761497453008537000,4.560537109375,1.8762766874492167,12.769879043591022,-0.940320948460698
1761497453018593000,4.570593017578125,0.7247504445880651,12.004347091281414,-0.27543518998771904
1761497453028650000,4.58064990234375,-0.4973169958990067,11.41941369818449,0.3745642207270488
1761497453038706200,4.5907060546875,-1.5686574299544096,11.050686768776178,0.9498536236986518
1761497453048762000,4.60076220703125,-1.782963174588233,11.049375101655722,1.1752829660236834
1761497453058819000,4.610819091796875,-1.6062066777564585,11.736044529652595,1.4783070046827196
1761497453068875000,4.620875,-0.65939848616831,12.232307121127842,1.782108457455039
1761497453078931200,4.63093115234375,0.3494273317851126,12.28994214849472,1.2382310051068663
1761497453088987100,4.640987060546875,1.0603197852820156,11.709322526943684,0.24882395417690276
1761497453099044000,4.651044189453125,1.2321237742729485,10.62825864431858,-0.6277902457877993
1761497453109100000,4.66110009765625,0.7532279126621783,9.9625256213665,-1.5029548314660788
1761497453119156200,4.67115625,0.7217046471513807,9.887575886583328,-2.0311343639448283
1761497453129213200,4.681213134765625,1.0675557278849184,10.030832849395274,-2.02281369484514
1761497453139269000,4.69126904296875,1.8756728763371704,10.27752680580616,-1.84401546305269
1761497453149325000,4.701324951171875,2.5311703364789486,10.45259344985485,-1.5774728968337177
1761497453159382000,4.711382080078125,1.7334563624888657,10.28973980616927,-1.2075734165146945
1761497453169438200,4.721438232421875,-0.011715572234988212,9.589532851207256,-0.5318763411700725
1761497453179494100,4.731494140625,-1.6534627883195876,8.09364313582182,0.10732990938425063
1761497453189551000,4.741551025390625,-2.251977839784324,5.596048321208357,0.06083002401590347
1761497453199607000,4.75160693359375,-1.8666200935706496,2.151733797007799,-1.1194441744238137
1761497453209663200,4.761663330078125,-1.0035790764063597,-1.02946462829113,-1.8107500300496815
1761497453219720200,4.77172021484375,0.1694263000741601,-3.757654497429728,-1.2037953592807054
1761497453229776100,4.781776123046875,0.85061992700845,-6.520838523060083,-0.11096797362565994
1761497453239832000,4.79183203125,1.5807663854211569,-9.420335391452907,1.0952516901925204
1761497453249889000,4.801888916015625,-0.07176584405004978,-13.84123518667221,2.452428223675489
1761497453259945200,4.8119453125,-3.44768780002594,-17.648967427957057,2.0239690023601056
1761497453270001200,4.822001220703125,-6.011151801866292,-20.143748938715458,1.9662232080951332
1761497453280058000,4.83205810546875,-6.994005485630035,-23.076208750033377,2.2865280519008637
1761497453290114000,4.842114013671875,-7.458950563299656,-26.936445085537432,1.4063129048347471
1761497453300170000,4.852169921875,-8.184227662110327,-28.531565575003622,0.7098056811735034
1761497453310226000,4.862225830078125,-7.1922139358133075,-27.48869201456308,-0.22213819182515143
1761497453320283100,4.872283203125,-4.233019846826791,-25.334179400491713,-1.1204364003315568
1761497453330339000,4.882339111328125,-1.9599635631784795,-24.027733229553697,-0.9700918173462152
1761497453340395000,4.89239501953125,-3.019110797549784,-23.566321002185344,-0.7921179075486957
1761497453350452000,4.902451904296875,-6.706155342966317,-24.248628727841375,-0.5813125722512602
1761497453360508000,4.9125078125,-11.191477049213647,-25.474422568440435,-0.052589872806519264
1761497453370564000,4.922564208984375,-12.95186993394494,-24.95284667201042,0.06215033110054209
1761497453380621000,4.93262109375,-12.060068393981457,-22.03012031919956,-0.2883677367970347
1761497453390677000,4.942677001953125,-9.894094474697113,-17.56983017835617,-0.4461930309265852
1761497453400733000,4.95273291015625,-7.526518955659866,-12.722261552369593,0.20831832252098245
1761497453410790000,4.962789794921875,-6.260919174373149,-8.405550445899367,1.5067103846073149
1761497453420846000,4.97284619140625,-5.479398210293054,-4.744958146339655,2.3359333033218976
1761497453430902000,4.982902099609375,-4.160643761923909,-2.621081493550539,1.938767045892775
1761497453440958700,4.992958740234375,-2.6728940983742473,-0.5741928033739329,0.6974146938949823
1761497453451014700,5.0030146484375,-1.8829488586895167,2.2966794435590505,-0.32409225338995457
1761497453461070800,5.01307080078125,-1.4087205504983662,4.743817159610987,-0.8652969793975352
1761497453471126800,5.023126708984375,-1.2894365839481352,7.147171848037838,-0.9591223873034119
1761497453481183700,5.033183837890625,-1.5246236424386501,9.308902722924946,-0.4994070269808173
1761497453491239700,5.04323974609375,-1.881727938592434,11.080576880127191,-0.07782879735082388
1761497453501295900,5.0532958984375,-2.0043822583585977,12.50590895820856,0.09519841329213231
1761497453511352800,5.063352783203125,-1.3801298313081263,13.608298537456989,0.23678857540301979
1761497453521408800,5.07340869140625,-0.4287900607049465,14.28691442285776,0.08745353478640318
1761497453531464700,5.083464599609375,0.22795418462753295,14.754990199768542,-0.6692278062652796
1761497453541521700,5.093521728515625,0.42030981712937354,15.223783769559859,-1.4155331531226634
1761497453551577900,5.103577880859375,0.6036275721728801,15.373231988227367,-1.8822829421266913
1761497453561633800,5.1136337890625,1.0601882678568362,15.556719254618882,-2.155408393867314
1761497453571690800,5.123690673828125,1.7283295209944247,15.580884558582305,-2.3567700473845004
1761497453581747000,5.133746826171875,2.1289456266164777,15.370618006336688,-2.376845159424841
1761497453591803000,5.143802978515625,2.11673949438557,15.058811818546056,-2.2823085345096885
1761497453601859800,5.15385986328125,1.4195523256361484,14.54965935035944,-2.29838712425977
1761497453611915800,5.163915771484375,0.6151999365448951,14.042673120296001,-2.545634330639243
1761497453621971700,5.1739716796875,-0.10092121138572692,13.695642474389075,-2.638660989382863
1761497453632029000,5.18402880859375,-0.7983400699991733,13.425537247252464,-2.3487764182820916
1761497453642084900,5.1940849609375,-1.4342004441916942,13.28141519204378,-1.9782728345900773
1761497453652140500,5.204140625,-1.840529666763544,13.238283321803808,-1.6229454849809408
1761497453662196700,5.21419677734375,-2.1235984203696248,13.284089964210986,-1.3848027915552257
1761497453672253700,5.224253662109375,-2.3025579802036282,13.351899179589747,-1.3167078911028802
1761497453682309600,5.2343095703125,-2.1327695688188073,13.298486738353967,-1.5316113093689083
1761497453692365600,5.244365478515625,-1.9312310974299907,13.362071029514073,-1.8001294134445487
1761497453702422500,5.254422607421875,-1.8268343188881873,13.434354175436496,-2.0728435079053043
1761497453712478700,5.264478759765625,-1.7542016288757323,13.375216926813124,-2.159724357370287
1761497453722534700,5.27453466796875,-1.391788704919815,13.323878369241951,-2.26444393812567
1761497453732591600,5.284591552734375,-1.0276888507902622,12.971945922768116,-2.4192460850417614
1761497453742647600,5.2946474609375,-0.6149906777083873,12.487616930192708,-2.385092763288319
1761497453752703700,5.304703857421875,-0.5392039075791836,12.008377954232692,-2.036388631211221
1761497453762760700,5.3147607421875,-0.36475627221167084,11.44156824684739,-1.6641835042983293
1761497453772816600,5.324816650390625,-0.4961281514406204,10.776325053238867,-1.4845309937641025
1761497453782872600,5.33487255859375,-0.555533111089468,9.951415029287338,-1.2899648456059396
1761497453792929500,5.344929443359375,-0.6225555600047111,8.797760542225838,-1.060733992106095
1761497453802985700,5.35498583984375,-0.4456066824059933,7.243442018747329,-0.7287156218919902
1761497453813041700,5.365041748046875,-0.09059497461728751,4.520451471817493,-0.7335754099480807
1761497453823098600,5.3750986328125,0.13223521806001662,0.3553372864812612,-0.5077098681628703
1761497453833154600,5.385154541015625,-0.848924521267414,-4.918642980641127,-0.007428396435081959
1761497453843210800,5.395210693359375,-3.0466204435050486,-11.137422802942991,-0.02851432948578149
1761497453853267700,5.405267822265625,-6.340981137603521,-17.147129666697978,-0.5170777082279324
1761497453863323600,5.41532373046875,-8.211662197002768,-21.480003387939927,-0.29322584435269233
1761497453873379600,5.425379638671875,-9.654747958439588,-25.211621526837348,1.08794648174569
1761497453883436800,5.435436767578125,-10.64976086655259,-28.302171128439902,2.52705501011461
1761497453893492700,5.44549267578125,-10.044518844920397,-29.557815332901477,2.534292852413654
1761497453903548700,5.455548583984375,-8.770258787316083,-28.64913396980762,1.827749534036964
1761497453913604900,5.46560498046875,-7.198943536329269,-26.86789235831499,1.3791156858295202
1761497453923661800,5.475661865234375,-5.786214919233322,-25.317967101359365,1.081803156685084
1761497453933717800,5.4857177734375,-6.425551518169045,-25.301123518586156,1.6322342684604227
1761497453943773700,5.495773681640625,-8.28014068994522,-26.45507494276762,2.9643340822234747
1761497453953830700,5.50583056640625,-9.961725995421409,-27.30877617691755,4.139369503226876
1761497453963886800,5.515886962890625,-10.513567266255617,-27.051715140271185,4.75175555139482
1761497453973942800,5.52594287109375,-9.081797848603129,-24.678778386461733,4.173290477529168
1761497453983999700,5.535999755859375,-6.906876652753352,-21.033547906684873,2.945129907798767
1761497453994055700,5.5460556640625,-4.567712989208102,-17.093108153653144,1.3417559692502021
1761497454004112000,5.55611181640625,-2.5804639442190527,-13.099453527784346,-0.3000688238489441
1761497454014168800,5.5661689453125,-1.1011185363993048,-9.385846846395731,-1.4836527496248484
1761497454024224800,5.576224853515625,0.22866642455011604,-6.173958683800697,-2.301816514186561
1761497454034280700,5.58628076171875,1.1700633316792548,-2.7428485090881582,-2.6565117033720016
1761497454044337700,5.596337646484375,1.2716053053118288,0.7222913609981536,-2.216555082616955
1761497454054393900,5.606393798828125,1.1699527109116314,3.2297365384966135,-1.155922285863012
1761497454064449800,5.61644970703125,0.5639005419403315,5.0775744824469085,-0.30618834790885446
1761497454074506800,5.6265068359375,-0.2812919531919062,6.840388456845283,0.5291212337756529
1761497454084562700,5.636562744140625,-1.6113105767667293,8.216661612725257,1.531670492210239
1761497454094619000,5.646618896484375,-2.340927750608325,8.791313850304483,1.7619569191776214
1761497454104674800,5.6566748046875,-2.367431726652384,9.13069485824108,0.25378698341175915
1761497454114731800,5.666731689453125,-2.4300557944782075,9.825378081345558,-1.6591194989070295
1761497454124787700,5.67678759765625,-2.289511451625824,10.730444761073588,-3.0438454258337617
1761497454134844000,5.686843994140625,-1.6442852101296186,12.194709504139423,-3.6852304817318915
1761497454144900900,5.69690087890625,-0.4562567443013191,14.083916984832285,-3.579035713857412
1761497454154956800,5.706956787109375,0.7353501645356416,15.501926172679662,-2.976579523551464
1761497454165012700,5.7170126953125,2.1377356667935845,16.19163160737157,-2.1005844783984124
1761497454175069700,5.727069580078125,0.487837329489924,15.71383055526018,-1.968830760245025
1761497454185126000,5.7371259765625,0.2540028181195259,15.41294908158779,-2.683695186112821
1761497454195181600,5.747181640625,2.3390181175947187,15.204190595817565,-3.2258050442665813
1761497454205238800,5.75723876953125,2.157344038105011,14.931251606559753,-3.809093300504982
1761497454215294700,5.767294677734375,2.3205589163184164,15.44280879780054,-3.5206413925558326
1761497454225350700,5.7773505859375,0.8736941477995366,15.50657078361511,-2.4706901488140223
1761497454235408000,5.787407958984375,-0.7117863335967064,15.415856493467091,-1.2209963771894574
1761497454245463600,5.797463623046875,-1.6673428451120853,15.310962871319054,-0.2438548605274409
1761497454255519700,5.807519775390625,-2.318677924877405,15.267325974166392,0.6494268349912017
1761497454265577000,5.817576904296875,-2.700644275087118,15.423175876569747,1.6325632081538437
1761497454275632600,5.827632568359375,-2.764233242422342,15.339720179247855,2.0594988731637596
1761497454285688600,5.8376884765625,-2.6313036123573776,15.049984368968008,1.797796732713282
1761497454295745500,5.84774560546875,-2.2293056969881055,14.687646263813972,1.315030751670897
1761497454305801700,5.8578017578125,-1.6774644261538982,14.243248299610613,0.2891724042434245
1761497454315857700,5.867857666015625,-0.8578495860010386,14.239682716083525,-0.4830686172507703
1761497454325914600,5.87791455078125,0.2534814245939255,14.394422026896477,-0.945449105129391
1761497454335970600,5.887970458984375,1.2182102536022663,14.275641333693265,-1.2762651138164103
1761497454346026800,5.89802685546875,1.3808347647070884,14.254385779696703,-1.0354549547471106
1761497454356083700,5.908083740234375,0.8337381311167031,14.007178613066673,-0.22727411167519165
1761497454366139600,5.9181396484375,-0.4230266748726368,12.843365135562419,0.5446744479447603
1761497454376195600,5.928195556640625,-1.4441530984073876,10.787205343693493,0.5500559948526322
1761497454386252500,5.93825244140625,-2.111421660363674,7.491308526068925,0.18957593865543604
1761497454396308700,5.948308837890625,-1.6090180819153785,4.127772004413605,-0.0876994723714888
1761497454406364700,5.95836474609375,-0.7106450546070933,0.6327595586329698,0.13266730760065837
1761497454416420600,5.968420654296875,-0.501241987323016,-4.027441160136461,0.44421091719865796
1761497454426477600,5.9784775390625,-0.9199959533125162,-8.97433408370614,0.8453193363822996
1761497454436533800,5.98853369140625,-2.0405241235807536,-13.566327527689934,3.3364348719790575
1761497454446590700,5.9985908203125,-2.2945754570171237,-18.280203138023612,5.138867447799444
1761497454456647700,6.008647705078125,-3.528317041750252,-22.16151148765087,3.9531998658835885
1761497454466703600,6.01870361328125,-5.064436768454313,-24.059475106251238,2.084579392275959
1761497454476759600,6.028759521484375,-4.08586558431536,-25.75991474980116,0.4253101096346974
1761497454486816800,6.038816650390625,-2.214877066402137,-27.22996859766245,-0.7941606654226779
1761497454496872700,6.048872802734375,-3.212549256852269,-27.669423844766616,-1.1046816357083618
1761497454506928600,6.0589287109375,-7.524115401649475,-27.37224590178728,-0.10004925085678697
1761497454516985600,6.068985595703125,-10.913852532488107,-27.479498654282093,1.4024521377533674
1761497454527041800,6.079041748046875,-11.264316659975051,-27.081404176092146,1.6483056978173554
1761497454537097700,6.08909765625,-10.482886881309748,-26.875792756175994,0.22797303545847533
1761497454547154700,6.09915478515625,-8.270978893846273,-26.16429868352413,-1.4256855676941573
1761497454557210600,6.109210693359375,-6.762885530447959,-25.63939335041046,-2.736072146821022
1761497454567266800,6.119266845703125,-5.330639142933488,-24.276211146771907,-3.7384441855251787
1761497454577323800,6.12932373046875,-3.751565532904863,-21.527952887594697,-3.889809635990858
1761497454587379700,6.139379638671875,-2.3801097141787406,-17.98833382284641,-3.1266613639473912
1761497454597435600,6.149435546875,-1.9983365484535693,-14.468523035895824,-1.7892285185933112
1761497454607492600,6.15949267578125,-2.1397353161782027,-10.954562144017219,-0.25716668897792694
1761497454617548800,6.169548828125,-2.582395204542577,-7.05515115146637,1.4289650277562438
1761497454627604700,6.179604736328125,-2.437442397598177,-2.9088913042038675,2.5269553491324186
1761497454637660700,6.18966064453125,-1.548809404668212,0.3232739227443933,2.575410752482712
1761497454647717600,6.199717529296875,-0.46980946883559227,2.9524679956018924,1.8329666841633616
1761497454657773800,6.20977392578125,0.6350329103924334,5.080360898295044,0.8171528339534997
1761497454667829800,6.219829833984375,0.9971810459323227,6.864776463648677,0.17360661796610802
1761497454677886700,6.22988671875,0.6595639789283275,8.462347268876433,0.03583952127471566
1761497454687942700,6.239942626953125,0.29707397114820777,10.02319431734085,0.190849575320445
1761497454697998800,6.249998779296875,-0.5295529397238046,11.16719016469717,0.4387031500952318
1761497454708055800,6.260055908203125,-1.4559838214546441,11.907681199252604,0.5694381561927497
1761497454718111700,6.27011181640625,-1.5670593471080063,12.54121174225807,0.4583103888954967
1761497454728167700,6.280167724609375,-1.4376877017855643,13.038212000358104,-0.09306684462353587
1761497454738224600,6.290224609375,-0.8396768004506826,13.960237998193502,-0.7608573115620761
1761497454748280800,6.30028076171875,-0.45583238140940663,14.853650480484962,-0.9565840279322118
1761497454758336800,6.310336669921875,-0.06308862573080695,15.482076978349685,-0.7502831644471735
1761497454768393700,6.320393798828125,0.3927531171619892,15.76730261772871,-0.8064661663748324
1761497454778449700,6.33044970703125,1.0652864677786826,15.589477030360698,-1.0922237937387078
1761497454788505900,6.340505859375,1.346805069333315,15.198759218418598,-1.342621353907883
1761497454798562800,6.350562744140625,1.210771701099351,14.707469739180802,-1.4843381015405057
1761497454808618800,6.36061865234375,0.7669266215384006,14.256836095458269,-1.578464538219571
1761497454818674700,6.3706748046875,0.21918624668437986,14.002624018502235,-1.5732120245188475
1761497454828731600,6.380731689453125,-0.28358079478144643,13.963713565349577,-1.31445163660869
1761497454838787800,6.390787841796875,-0.7004105147100984,14.173220239138603,-0.7885955786414444
1761497454848843500,6.400843505859375,-0.9805869078755378,14.477753805577754,-0.2226598776116967
1761497454858900700,6.410900634765625,-1.375962190234661,14.63949568862915,0.2331216503933072
1761497454868956700,6.420956787109375,-1.6534148575246332,14.710014747488497,0.45450719722025096
1761497454879012600,6.4310126953125,-1.8046482060432434,14.634494519340992,0.32233050441443917
1761497454889069800,6.44106982421875,-2.082706438010931,14.611653741979598,-0.15452055349573493
1761497454899125500,6.45112548828125,-2.016374893969297,14.648600201582909,-0.7567218922577797
1761497454909181700,6.461181640625,-2.1002888564527034,14.71905496303439,-1.0344085874993354
1761497454919238700,6.47123876953125,-1.8769804518043993,14.490478847116231,-1.2968883612588047
1761497454929294600,6.481294677734375,-0.9959493121802806,14.246061018943786,-1.7086203196570275
1761497454939350500,6.4913505859375,-0.09424889401495457,13.939697898989914,-2.1302458955600856
1761497454949406700,6.50140673828125,0.29388069153223184,13.15211427386999,-2.3659601927950975
1761497454959463700,6.511463623046875,0.6816308493077755,12.187768891221284,-2.274283195094764
1761497454969519600,6.52151953125,0.5944932486027479,10.865008714342117,-2.2212739278323945
1761497454979575600,6.531575439453125,0.20867358396574853,9.12901786493957,-1.9447893749222158
1761497454989632500,6.541632568359375,-0.16989362532496452,7.4927856128841634,-1.1400726825632155
1761497454999688700,6.551688720703125,-0.33820991833060976,5.428693858972191,-0.2082472483124584
1761497455009744600,6.56174462890625,-0.7007282023571432,2.0700462784022093,0.9465062129668891
1761497455019801600,6.571801513671875,-1.4662927417621017,-2.817721671503782,1.8808350814059376
1761497455029857500,6.581857421875,-2.624186766089499,-9.078091395300627,1.3264629769198595
1761497455039913700,6.591913818359375,-3.2202661148399114,-16.472250045216082,-0.23664573286622761
1761497455049970700,6.601970703125,-2.9604814984485506,-21.90550025231838,-1.4306176172688603
1761497455060026600,6.612026611328125,-4.940410575813055,-23.65557048047781,-2.711685016800463
1761497455070082600,6.62208251953125,-7.169258007639646,-24.85127781037092,-2.9085584189876914
1761497455080139500,6.632139404296875,-8.742355465868116,-26.320085457563398,-1.9915414814859627
1761497455090195700,6.64219580078125,-9.607471828001737,-26.740057421040532,-1.4931256574995815
1761497455100251600,6.652251708984375,-9.204851396819949,-25.90948221093416,-1.4824417663998901
1761497455110308600,6.66230859375,-7.532219797649979,-24.64334466950893,-1.9273359896875917
1761497455120364500,6.672364501953125,-6.470914508461952,-23.726468309521675,-2.2356097655683755
1761497455130420700,6.682420654296875,-7.000760220587253,-23.559587310016155,-1.9840714378662405
1761497455140477700,6.692477783203125,-8.05149209331274,-24.035530751562117,-1.6152352028645574
1761497455150533600,6.70253369140625,-9.369395477810501,-24.748430014836785,-1.2810627233564853
1761497455160589600,6.712589599609375,-10.249226593995093,-25.130387012696264,-0.6839490631222724
1761497455170645800,6.722645751953125,-10.081001194143294,-24.539701924204824,-0.549636892657727
1761497455180702700,6.73270263671875,-9.459334107410907,-22.375827607548235,-0.835298366170749
1761497455190758700,6.742758544921875,-7.428279530704021,-18.761724087440967,-1.2553221329003572
1761497455200814800,6.75281494140625,-5.355329347553849,-14.97767667312622,-1.5944931513480842
1761497455210871800,6.762871826171875,-3.7024689090415834,-10.749871930599213,-1.6714206159450113
1761497455220927700,6.772927734375,-2.1697133980736134,-6.845512375730276,-1.439405903880298
1761497455230983700,6.782983642578125,-0.5553242906443774,-3.346388987499475,-1.026778311816603
1761497455241040600,6.79304052734375,0.6999070952326059,0.22937398829758165,-0.4749012390166521
1761497455251096800,6.803096923828125,1.1166782168418168,3.5649949135452506,0.02993161240518093
1761497455261152800,6.81315283203125,1.0712934531085192,6.379301223647594,0.10218609848869964
1761497455271209700,6.823209716796875,1.2730226247638463,8.568567171192168,0.045915655739605425
1761497455281265700,6.833265625,0.9900947409331798,10.072152701777219,0.2762564432427287
1761497455291321900,6.84332177734375,0.391150504270941,10.883001467150448,0.5694587605893612
1761497455301378800,6.85337890625,0.2018044288486242,11.389698943400383,0.47890360652580855
1761497455311434800,6.863434814453125,0.277425194761157,11.806857018500565,-0.01701440929546952
1761497455321490700,6.87349072265625,0.28377310248315335,12.571274872088432,-0.283795168184489
1761497455331547600,6.883547607421875,0.14481580962650478,13.541764748841523,-0.1934769646819681
1761497455341603800,6.893603759765625,0.2967400630187243,14.834625462019442,-0.0916871537681669
1761497455351659800,6.90365966796875,1.0914899995714424,16.28668304994106,0.09614427930749953
1761497455361716700,6.913716796875,1.5418267061740158,16.89169360090494,0.0932756650686264
1761497455371772700,6.923772705078125,2.04902628672719,16.8313417157948,-0.211016566895321
1761497455381828900,6.933828857421875,2.3702537983357903,16.447611278522015,-0.6809299344968051
1761497455391884500,6.943884521484375,2.305316923522949,15.9973505597651,-1.0418882757302372
1761497455401941800,6.953941650390625,1.9679706362843512,15.508600243616103,-1.4387220132693648
1761497455411997700,6.963997802734375,1.7778326798319815,14.972981793308257,-1.7956702420786022
1761497455422053600,6.9740537109375,1.5935820278525352,14.440197105121612,-1.9319211255207656
1761497455432110800,6.98411083984375,1.3511433907985686,14.144599709331988,-1.800071984168887
1761497455442166500,6.99416650390625,1.0271814857900141,13.897592449188231,-1.4461235216975212
1761497455452222500,7.004222412109375,0.7957493228536099,13.600629610264301,-1.0369055919468402
1761497455462279700,7.01427978515625,0.7291992406904697,13.392759597766398,-0.7021514400932938
1761497455472335600,7.024335693359375,0.5992927578389644,13.28330085965991,-0.4464893835246563
1761497455482391600,7.0343916015625,0.4884732527732849,13.121209432518482,-0.34261005298569797
1761497455492448500,7.044448486328125,0.36052959442734717,12.894681481301784,-0.3900988032609224
1761497455502504700,7.054504638671875,0.33389234739243984,12.63649816262722,-0.5751797685846686
1761497455512560600,7.064560546875,0.26191665998399255,12.347779420435428,-0.8618278419822454
1761497455522617600,7.07461767578125,0.2297036586433649,12.031855860453843,-1.0593420262910425
1761497455532673500,7.084673583984375,0.37802725719511504,11.557173817145824,-1.1446104721233248
1761497455542729700,7.094729736328125,0.6233194570492953,10.872858843320607,-0.9420265833348035
1761497455552786700,7.10478662109375,1.0535691419780253,10.030722959280013,-0.5678454801738262
1761497455562842600,7.114842529296875,1.6285346832901237,8.768721494746208,-0.019885069360956548
1761497455572898600,7.124898681640625,2.4667320588380095,6.586843903887272,0.5743924175992607
1761497455582955500,7.13495556640625,1.9092298396326601,3.581965922090411,0.9878191241513937
1761497455593011700,7.14501171875,-0.23389979515895246,-0.2556891637712717,1.5587264030486345
1761497455603067600,7.155067626953125,-3.6209909415334463,-5.6067246135234825,1.8242688523143529
1761497455613124600,7.16512451171875,-3.758292795333266,-12.196795078241824,1.479949218931794
1761497455623180500,7.1751806640625,-0.44359921504110095,-16.882493226361273,0.03621335955578834
1761497455633236700,7.18523681640625,0.03704582832455635,-16.48111373515129,-2.0589399241067468
1761497455643292700,7.195292724609375,-4.5798350964173675,-15.670753630077838,-2.6914354249760506
1761497455653349600,7.205349609375,-6.976610698714852,-14.499244337373971,-1.3194237259328365
1761497455663405600,7.215405517578125,-7.892365361195802,-12.265408595740794,-0.3401698932919651
1761497455673461800,7.225461669921875,-10.117886863470076,-11.174765568387508,0.49795938545577223
1761497455683518700,7.235518798828125,-12.919197498399019,-9.835558114576338,1.552813818003982
1761497455693574700,7.24557470703125,-12.66947221146822,-8.321639990547299,2.7156115425944325
1761497455703630600,7.255630615234375,-10.489715266025065,-7.622937594929337,3.480925468239188
1761497455713687600,7.2656875,-9.41617067298889,-7.7901213767737145,3.0766561008065936
1761497455723743700,7.27574365234375,-8.721378144291043,-7.329210084664822,1.5225659792564807
1761497455733799700,7.285799560546875,-5.7126136764496565,-6.795774239093065,0.09682966775577515
1761497455743856600,7.295856689453125,-5.627787275296449,-4.805294249358773,-0.7266115622848272
1761497455753912600,7.30591259765625,-3.9910634403318164,-2.2187907327145338,-1.2919387760274113
1761497455763968800,7.31596875,-2.848587934410572,-1.095435522326827,-1.0991475285872816
1761497455774025700,7.326025634765625,-2.0445412502676246,-0.3450701594889164,-0.39364772791415453
1761497455784081700,7.33608154296875,-0.6024702188313007,-0.7634241663753986,0.3639198213875294
1761497455794137600,7.3461376953125,0.6387935781002044,-1.8435072212696075,0.8137364496387541
1761497455804194800,7.35619482421875,0.6615209582149982,-2.5031448499560356,0.672918915868178
1761497455814250800,7.366250732421875,-0.9483177924335002,-2.873212088057399,-0.06815196440182626
1761497455824306700,7.376306640625,-2.5198405486911533,-2.8018273522794246,-0.9720991385806351
1761497455834363600,7.38636376953125,-2.457277417272329,-2.1317904946535826,-1.7933558276563881
1761497455844419800,7.396419921875,-1.0662211182802914,-0.9419424121826887,-2.269348369041085
1761497455854475800,7.406475830078125,-0.8799912751823663,-0.18254618614912033,-2.6736493006557223
1761497455864531700,7.41653173828125,-0.9741887312710285,0.7328115859687327,-2.096799406901747
1761497455874588700,7.426588623046875,-0.2539905431598425,1.099771505704522,-1.3888064742386341
1761497455884644900,7.436644775390625,0.22185352966487407,1.0697019461333752,-0.6975980876378715
1761497455894700800,7.44670068359375,0.2182452760398388,0.8403273733139037,-0.29565212165154514
1761497455904757800,7.4567578125,0.0931096608519554,0.8855956710606813,0.24861922538504003
1761497455914813700,7.466813720703125,-0.019852701461315153,0.8934639202177524,0.7952743988182395
1761497455924870000,7.476869873046875,0.048913376250863075,0.6145768362104892,0.9900917452584952
1761497455934926800,7.4869267578125,0.4744353750705719,0.5247860906481743,0.7538078314419835
1761497455944982800,7.496982666015625,0.660683922868967,0.5734159737825393,0.3206354639995843
1761497455955038700,7.507038818359375,0.8514923259288072,0.6084048695772886,-0.09439546287879347
1761497455965095700,7.517095703125,1.0614093340843915,0.6951496715724468,-0.3934443142965436
1761497455975151900,7.52715185546875,1.0358078598380087,0.8876981962978839,-0.4541205359902233
1761497455985207800,7.537207763671875,0.762136464652419,1.1948059971392153,-0.2507051648136228
1761497455995264800,7.5472646484375,0.3551724513083696,1.6741554477363825,0.24980127477645872
1761497456005320700,7.55732080078125,0.2881903344035148,1.8131269883140921,0.7927640964977443
1761497456015376600,7.567376708984375,0.6165443368911743,1.4601210673898457,0.8272744880605488
1761497456025433900,7.577433837890625,1.0203677141219376,1.2319304436579346,0.3514668017234653
1761497456035489800,7.58748974609375,1.3612182100892065,1.2797048790067433,-0.07319324650466441
1761497456045545500,7.59754541015625,1.8652403296500444,1.373463066895306,-0.2750349568900652
1761497456055602700,7.607602783203125,2.010582866564393,1.191028524427116,-0.40234073745757337
1761497456065658600,7.61765869140625,2.4969693761914966,0.9516443065077066,-0.3907824016109109
1761497456075714600,7.627714599609375,2.511465519055724,0.7854986355394125,-0.1336494687721133
1761497456085771800,7.637771728515625,2.017934398370981,0.9032160834252834,0.13829364131614566
1761497456095827500,7.647827392578125,1.1246838286429643,1.0325520729124547,0.25871603731177745
1761497456105883600,7.657883544921875,0.040239655929803844,0.671318129608035,0.42560010555721817
1761497456115939600,7.667939697265625,-0.21660452309548853,-0.09813859492987394,0.42331520949043333
1761497456125996500,7.67799658203125,-0.11257833143174648,-0.7458575300246477,0.2500499888405204
