time,seconds_elapsed,z,y,x
1761497448523426600,0.075426513671875,-0.1259765625,-1.0267333984375,0.0196075439453125
1761497448533483500,0.0854833984375,-0.1084442138671875,-1.0185394287109375,0.007110595703125
1761497448543539500,0.09553955078125,-0.095550537109375,-1.0088653564453125,-0.0046539306640625
1761497448553595600,0.105595703125,-0.0948486328125,-1.007843017578125,-0.010040283203125
1761497448563652600,0.115652587890625,-0.09918212890625,-1.0010223388671875,-0.0082244873046875
1761497448573708500,0.12570849609375,-0.11456298828125,-0.9898681640625,-0.0023956298828125
1761497448583764200,0.13576416015625,-0.1294708251953125,-0.982025146484375,0.0053558349609375
1761497448593821400,0.145821533203125,-0.131317138671875,-0.9742889404296875,0.00946044921875
1761497448603877600,0.155877685546875,-0.13177490234375,-0.9714813232421875,0.0130615234375
1761497448613933300,0.165933349609375,-0.126922607421875,-0.97808837890625,0.0173492431640625
1761497448623990500,0.175990478515625,-0.1202239990234375,-0.9810333251953125,0.0147857666015625
1761497448634046200,0.186046142578125,-0.1052703857421875,-0.9813232421875,0.004302978515625
1761497448644102400,0.196102294921875,-0.1042327880859375,-0.9824676513671875,-0.0048065185546875
1761497448654159600,0.20615966796875,-0.10406494140625,-0.9891204833984375,-0.019012451171875
1761497448664215300,0.21621533203125,-0.1147918701171875,-0.981414794921875,-0.031982421875
1761497448674271200,0.226271240234375,-0.122039794921875,-0.9680023193359375,-0.0357513427734375
1761497448684327400,0.236327392578125,-0.1350555419921875,-0.9530029296875,-0.0376434326171875
1761497448694384400,0.24638427734375,-0.1422271728515625,-0.94122314453125,-0.032073974609375
1761497448704440300,0.2564404296875,-0.1548004150390625,-0.934844970703125,-0.0229339599609375
1761497448714496300,0.266496337890625,-0.147216796875,-0.935546875,-0.0195770263671875
1761497448724553500,0.276553466796875,-0.1313629150390625,-0.93206787109375,-0.0280609130859375
1761497448734609400,0.286609375,-0.1111907958984375,-0.914337158203125,-0.037750244140625
1761497448744665300,0.296665283203125,-0.1051025390625,-0.8901214599609375,-0.046875
1761497448754722300,0.306722412109375,-0.1030426025390625,-0.8689117431640625,-0.048553466796875
1761497448764778500,0.316778564453125,-0.109527587890625,-0.8454437255859375,-0.038787841796875
1761497448774834400,0.32683447265625,-0.11517333984375,-0.829315185546875,-0.0340728759765625
1761497448784891400,0.336891357421875,-0.07122802734375,-0.828125,-0.0382537841796875
1761497448794947300,0.346947265625,-0.0186767578125,-0.7863006591796875,-0.053955078125
1761497448805003500,0.35700341796875,0.0075225830078125,-0.703643798828125,-0.0669097900390625
1761497448815060500,0.367060546875,0.0175933837890625,-0.6312713623046875,-0.064422607421875
1761497448825116400,0.377116455078125,0.0243072509765625,-0.5758056640625,-0.038543701171875
1761497448835172400,0.38717236328125,0.0197906494140625,-0.5426025390625,-0.0036468505859375
1761497448845229300,0.397229248046875,0.014617919921875,-0.5240020751953125,0.00958251953125
1761497448855285500,0.407285400390625,0.0186309814453125,-0.5109100341796875,0.008880615234375
1761497448865341400,0.417341552734375,0.0158233642578125,-0.504150390625,0.00933837890625
1761497448875398400,0.4273984375,0.00445556640625,-0.5259552001953125,0.0315399169921875
1761497448885454300,0.437454345703125,0.0099029541015625,-0.564178466796875,0.0894622802734375
1761497448895510500,0.447510498046875,0.0009765625,-0.5636749267578125,0.114044189453125
1761497448905567500,0.4575673828125,-0.0300445556640625,-0.55853271484375,0.0936126708984375
1761497448915623400,0.46762353515625,-0.07574462890625,-0.577789306640625,0.05303955078125
1761497448925679400,0.477679443359375,-0.1235809326171875,-0.616363525390625,0.00970458984375
1761497448935735600,0.487735595703125,-0.18096923828125,-0.6719818115234375,-0.0161895751953125
1761497448945792500,0.49779248046875,-0.2313079833984375,-0.698455810546875,0.002685546875
1761497448955848400,0.507848388671875,-0.2433319091796875,-0.704193115234375,0.1047210693359375
1761497448965904400,0.517904296875,-0.244903564453125,-0.6973876953125,0.2435150146484375
1761497448975961300,0.52796142578125,-0.1857147216796875,-0.72894287109375,0.3331756591796875
1761497448986017500,0.538017578125,-0.102508544921875,-0.8971710205078125,0.315093994140625
1761497448996073500,0.548073486328125,-0.0409393310546875,-1.1894683837890625,0.199310302734375
1761497449006130400,0.55813037109375,-0.062835693359375,-1.4783172607421875,0.0369720458984375
1761497449016186400,0.568186279296875,-0.093719482421875,-1.659881591796875,-0.0886383056640625
1761497449026242600,0.57824267578125,-0.305267333984375,-1.7046661376953125,-0.108428955078125
1761497449036299500,0.588299560546875,-0.582977294921875,-1.7331695556640625,0.0124359130859375
1761497449046355500,0.59835546875,-0.7777862548828125,-1.8326263427734375,0.192535400390625
1761497449056411400,0.608411376953125,-0.8929595947265625,-1.99493408203125,0.2901611328125
1761497449066468400,0.61846826171875,-0.9327545166015625,-2.12353515625,0.26861572265625
1761497449076524500,0.628524658203125,-0.8935546875,-2.1242523193359375,0.1581878662109375
1761497449086580500,0.63858056640625,-0.84814453125,-2.048370361328125,0.04144287109375
1761497449096636400,0.648636474609375,-0.7356414794921875,-2.0208740234375,-0.0637054443359375
1761497449106693600,0.658693603515625,-0.6514739990234375,-2.000518798828125,-0.109588623046875
1761497449116749600,0.66874951171875,-0.653839111328125,-2.0296630859375,-0.079010009765625
1761497449126805500,0.678805419921875,-0.689300537109375,-2.097991943359375,-0.037628173828125
1761497449136862500,0.688862548828125,-0.7594757080078125,-2.1895294189453125,0.0342559814453125
1761497449146918700,0.698918701171875,-0.86126708984375,-2.3095703125,0.10247802734375
1761497449156974300,0.708974365234375,-0.965972900390625,-2.337158203125,0.1574554443359375
1761497449167031600,0.719031494140625,-1.1122283935546875,-2.232086181640625,0.1702423095703125
1761497449177087500,0.72908740234375,-1.1560516357421875,-2.0567626953125,0.137481689453125
1761497449187143400,0.739143310546875,-1.1098480224609375,-1.896697998046875,0.0210418701171875
1761497449197200600,0.74920068359375,-0.9126739501953125,-1.7345428466796875,-0.082275390625
1761497449207256300,0.75925634765625,-0.7199249267578125,-1.5210418701171875,-0.124603271484375
1761497449217312300,0.769312255859375,-0.523406982421875,-1.3474273681640625,-0.094512939453125
1761497449227369500,0.779369384765625,-0.2928009033203125,-1.2183074951171875,-0.008697509765625
1761497449237425400,0.78942529296875,-0.123199462890625,-1.1100921630859375,0.137939453125
1761497449247481300,0.7994814453125,-0.074554443359375,-1.0167388916015625,0.300018310546875
1761497449257538300,0.809538330078125,-0.0981292724609375,-0.9370269775390625,0.385528564453125
1761497449267594200,0.81959423828125,-0.094573974609375,-0.8267364501953125,0.382110595703125
1761497449277650400,0.829650390625,-0.0801239013671875,-0.6653900146484375,0.2956085205078125
1761497449287707400,0.839707275390625,-0.0867767333984375,-0.52520751953125,0.2119903564453125
1761497449297763300,0.849763427734375,-0.11846923828125,-0.398193359375,0.1807403564453125
1761497449307819300,0.8598193359375,-0.1535186767578125,-0.255218505859375,0.1887664794921875
1761497449317875500,0.86987548828125,-0.1865997314453125,-0.1464996337890625,0.1814727783203125
1761497449327932400,0.879932373046875,-0.209869384765625,-0.099822998046875,0.1294708251953125
1761497449337988400,0.88998828125,-0.1362152099609375,-0.0771484375,0.053253173828125
1761497449348044300,0.900044189453125,0.0561981201171875,0.0046844482421875,-0.0702972412109375
1761497449358101200,0.910101318359375,0.2640228271484375,0.123504638671875,-0.2246551513671875
1761497449368157400,0.920157470703125,0.395477294921875,0.2120513916015625,-0.3145294189453125
1761497449378213400,0.93021337890625,0.4486083984375,0.231903076171875,-0.28521728515625
1761497449388270300,0.940270263671875,0.434967041015625,0.2164764404296875,-0.1957244873046875
1761497449398326300,0.950326171875,0.4149322509765625,0.2025604248046875,-0.1391754150390625
1761497449408382500,0.960382568359375,0.4062957763671875,0.1715087890625,-0.12432861328125
1761497449418439400,0.970439453125,0.3813323974609375,0.123046875,-0.1110992431640625
1761497449428495400,0.980495361328125,0.2997589111328125,0.0703887939453125,-0.1137847900390625
1761497449438548000,0.9905478515625,0.20806884765625,0.050140380859375,-0.10992431640625
1761497449448605000,1.00060498046875,0.13714599609375,0.0831756591796875,-0.0748291015625
1761497449458660900,1.010660888671875,0.06591796875,0.148345947265625,-0.032073974609375
1761497449468716800,1.020716796875,-0.0198211669921875,0.200958251953125,-0.00738525390625
1761497449478773000,1.03077294921875,-0.0659027099609375,0.226348876953125,-0.0031585693359375
1761497449488830000,1.040829833984375,-0.0836639404296875,0.188232421875,0.002166748046875
1761497449498886000,1.050885986328125,-0.120819091796875,0.13006591796875,0.0160980224609375
1761497449508941800,1.06094189453125,-0.1492767333984375,0.1072998046875,-0.000946044921875
1761497449518998800,1.070998779296875,-0.1539764404296875,0.1046142578125,-0.04864501953125
1761497449529055000,1.081054931640625,-0.1415252685546875,0.09686279296875,-0.1021728515625
1761497449539111000,1.09111083984375,-0.160552978515625,0.0838775634765625,-0.14727783203125
1761497449549167900,1.10116796875,-0.2060089111328125,0.0689239501953125,-0.14471435546875
1761497449559223800,1.111223876953125,-0.2080841064453125,0.028289794921875,-0.151031494140625
1761497449569280000,1.121280029296875,-0.1657257080078125,-0.0980987548828125,-0.165802001953125
1761497449579337000,1.1313369140625,-0.1884918212890625,-0.3011474609375,-0.1367645263671875
1761497449589393000,1.141392822265625,-0.210784912109375,-0.529296875,-0.087432861328125
1761497449599448800,1.15144873046875,-0.1584320068359375,-0.7094573974609375,-0.0606231689453125
1761497449609505800,1.161505859375,-0.0624847412109375,-0.8391876220703125,-0.0137939453125
1761497449619562000,1.17156201171875,0.038238525390625,-1.007354736328125,0.04412841796875
1761497449629618000,1.181617919921875,0.1265411376953125,-1.3658447265625,0.1004791259765625
1761497449639675000,1.1916748046875,0.12591552734375,-1.9119415283203125,0.15032958984375
1761497449649730800,1.201730712890625,-0.0739898681640625,-2.3792877197265625,0.206329345703125
1761497449659787000,1.211787109375,-0.4893035888671875,-2.561065673828125,0.216033935546875
1761497449669843000,1.221843017578125,-0.8489532470703125,-2.649078369140625,0.29046630859375
1761497449679900000,1.23189990234375,-1.046142578125,-2.7667999267578125,0.4095611572265625
1761497449689955800,1.241955810546875,-1.1625518798828125,-2.8388671875,0.542755126953125
1761497449700012000,1.252011962890625,-1.2522430419921875,-2.96038818359375,0.6439666748046875
1761497449710069000,1.262069091796875,-1.2636566162109375,-3.14996337890625,0.584197998046875
1761497449720125000,1.272125,-1.1993865966796875,-3.2779541015625,0.373016357421875
1761497449730180900,1.282180908203125,-1.1324310302734375,-3.316741943359375,0.1849517822265625
1761497449740237800,1.29223779296875,-1.0746002197265625,-3.258331298828125,0.0225372314453125
1761497449750294000,1.3022939453125,-1.12969970703125,-3.167205810546875,-0.1053924560546875
1761497449760350000,1.312349853515625,-1.244354248046875,-2.94091796875,-0.0816802978515625
1761497449770407000,1.322406982421875,-1.0761871337890625,-2.666046142578125,-0.1937408447265625
1761497449780463000,1.332463134765625,-0.880767822265625,-2.3235015869140625,-0.328582763671875
1761497449790519000,1.34251904296875,-0.88287353515625,-2.055755615234375,-0.334442138671875
1761497449800575000,1.352574951171875,-0.82122802734375,-1.8054656982421875,-0.3526763916015625
1761497449810632000,1.3626318359375,-0.720367431640625,-1.5753173828125,-0.349273681640625
1761497449820688100,1.372688232421875,-0.59893798828125,-1.3328704833984375,-0.25384521484375
1761497449830744000,1.382744140625,-0.455047607421875,-1.0761871337890625,-0.1226654052734375
1761497449840801000,1.392801025390625,-0.2397308349609375,-0.8444366455078125,-0.01605224609375
1761497449850857000,1.40285693359375,-0.0565338134765625,-0.5926666259765625,0.0734100341796875
1761497449860913200,1.4129130859375,0.006072998046875,-0.344390869140625,0.1499786376953125
1761497449870970000,1.42297021484375,-0.030609130859375,-0.09814453125,0.1671295166015625
1761497449881026000,1.433026123046875,-0.1170196533203125,0.054412841796875,0.1441650390625
1761497449891082000,1.44308203125,-0.1651153564453125,0.0534515380859375,0.13922119140625
1761497449901139000,1.453138916015625,-0.1224212646484375,0.053802490234375,0.0865325927734375
1761497449911195100,1.463195068359375,-0.0757904052734375,0.0626068115234375,-0.0051727294921875
1761497449921250800,1.473250732421875,0.029754638671875,0.107940673828125,-0.0540618896484375
1761497449931308000,1.48330810546875,0.116851806640625,0.20684814453125,-0.1157989501953125
1761497449941364000,1.493364013671875,0.1693878173828125,0.3006591796875,-0.1510772705078125
1761497449951420000,1.503419921875,0.2315826416015625,0.34698486328125,-0.143402099609375
1761497449961475800,1.513475830078125,0.2510223388671875,0.325836181640625,-0.100921630859375
1761497449971532800,1.52353271484375,0.1902618408203125,0.230133056640625,-0.050048828125
1761497449981588700,1.533588623046875,0.189910888671875,0.1503448486328125,-0.0165557861328125
1761497449991645000,1.54364501953125,0.22503662109375,0.101959228515625,-0.0330047607421875
1761497450001702000,1.553701904296875,0.2193450927734375,0.0014495849609375,-0.0364227294921875
1761497450011757800,1.5637578125,0.1733856201171875,-0.111083984375,-0.02581787109375
1761497450021813800,1.573813720703125,0.1212310791015625,-0.1934051513671875,-0.0412445068359375
1761497450031870700,1.58387060546875,0.076324462890625,-0.2203521728515625,-0.062774658203125
1761497450041927000,1.593927001953125,-0.0023345947265625,-0.183013916015625,-0.057373046875
1761497450051982800,1.60398291015625,-0.1157379150390625,-0.1422882080078125,-0.0165557861328125
1761497450062039800,1.614039794921875,-0.206085205078125,-0.110595703125,0.0149078369140625
1761497450072095700,1.624095703125,-0.2244415283203125,-0.0787811279296875,-0.0135345458984375
1761497450082152000,1.63415185546875,-0.1701507568359375,-0.0741729736328125,-0.094635009765625
1761497450092207900,1.644207763671875,-0.0768280029296875,-0.079345703125,-0.1817474365234375
1761497450102264800,1.654264892578125,-0.000640869140625,-0.0815582275390625,-0.2212677001953125
1761497450112321000,1.664321044921875,0.0409698486328125,-0.064605712890625,-0.188720703125
1761497450122377000,1.674376953125,0.0617523193359375,-0.0785980224609375,-0.1569061279296875
1761497450132434000,1.684433837890625,0.077789306640625,-0.1085357666015625,-0.163604736328125
1761497450142489900,1.69448974609375,0.0857391357421875,-0.144378662109375,-0.1934051513671875
1761497450152546000,1.704546142578125,0.1080169677734375,-0.1876373291015625,-0.1914825439453125
1761497450162603000,1.71460302734375,0.0312042236328125,-0.2196044921875,-0.1400146484375
1761497450172659000,1.724658935546875,-0.071746826171875,-0.3293609619140625,-0.0508270263671875
1761497450182715000,1.73471484375,-0.1318511962890625,-0.514373779296875,0.0353240966796875
1761497450192771800,1.744771728515625,-0.1616973876953125,-0.6855926513671875,0.0872802734375
1761497450202828000,1.754828125,-0.2484283447265625,-0.865264892578125,0.086334228515625
1761497450212884000,1.764884033203125,-0.25018310546875,-1.04925537109375,0.0329742431640625
1761497450222941000,1.77494091796875,-0.1602935791015625,-1.3477783203125,-0.0359649658203125
1761497450232996900,1.784996826171875,-0.09906005859375,-1.964447021484375,-0.014251708984375
1761497450243053000,1.795052978515625,-0.1868743896484375,-2.7116851806640625,0.051605224609375
1761497450253109000,1.80510888671875,-0.485443115234375,-3.2059173583984375,0.1585540771484375
1761497450263166000,1.815166015625,-1.0283203125,-3.3541717529296875,0.1642303466796875
1761497450273222000,1.825221923828125,-1.3140869140625,-3.3665618896484375,0.1420135498046875
1761497450283278000,1.835278076171875,-1.3433074951171875,-3.2961578369140625,0.0496368408203125
1761497450293335000,1.8453349609375,-1.315643310546875,-3.1623992919921875,-0.06488037109375
1761497450303391000,1.855390869140625,-1.344207763671875,-3.10076904296875,-0.1049346923828125
1761497450313447000,1.865447021484375,-1.29888916015625,-3.11114501953125,-0.1137542724609375
1761497450323503900,1.87550390625,-1.2751922607421875,-2.9822540283203125,-0.11138916015625
1761497450333560000,1.88556005859375,-1.2431793212890625,-2.94854736328125,-0.164093017578125
1761497450343616000,1.895615966796875,-1.245452880859375,-3.0454864501953125,-0.2065277099609375
1761497450353672000,1.905671875,-1.364349365234375,-3.1010284423828125,-0.1226654052734375
1761497450363729000,1.91572900390625,-1.4192352294921875,-2.8621826171875,0.005645751953125
1761497450373785000,1.92578515625,-1.34979248046875,-2.481903076171875,0.084259033203125
1761497450383841000,1.935841064453125,-1.0846405029296875,-1.9828948974609375,0.0764007568359375
1761497450393898000,1.94589794921875,-0.8213958740234375,-1.4178924560546875,0.0475311279296875
1761497450403954000,1.955953857421875,-0.676544189453125,-0.90814208984375,0.082489013671875
1761497450414010000,1.966010009765625,-0.33758544921875,-0.5708770751953125,-0.0135650634765625
1761497450424067000,1.976067138671875,-0.1571044921875,-0.3857269287109375,-0.023468017578125
1761497450434123000,1.986123046875,0.0117645263671875,-0.3115386962890625,0.0812530517578125
1761497450444179000,1.996178955078125,0.1460418701171875,-0.1423492431640625,0.2242431640625
1761497450454236000,2.00623583984375,0.2000579833984375,0.0667266845703125,0.37640380859375
1761497450464291800,2.016291748046875,0.190155029296875,0.19732666015625,0.4478302001953125
1761497450474347800,2.02634765625,0.0901947021484375,0.271697998046875,0.440216064453125
1761497450484404000,2.036404052734375,-0.035919189453125,0.39251708984375,0.409454345703125
1761497450494461000,2.0464609375,0.0224609375,0.503326416015625,0.290069580078125
1761497450504516900,2.056516845703125,0.2122802734375,0.6140594482421875,0.0555267333984375
1761497450514572800,2.06657275390625,0.41265869140625,0.696563720703125,-0.17388916015625
1761497450524629800,2.076629638671875,0.524017333984375,0.6595306396484375,-0.2721099853515625
1761497450534686000,2.08668603515625,0.476531982421875,0.5063018798828125,-0.2385406494140625
1761497450544742000,2.096741943359375,0.3672027587890625,0.30401611328125,-0.153533935546875
1761497450554798800,2.106798828125,0.28143310546875,0.1551055908203125,-0.1197662353515625
1761497450564854800,2.116854736328125,0.1313934326171875,0.0377960205078125,-0.103485107421875
1761497450574911000,2.126910888671875,-0.023529052734375,-0.0970001220703125,-0.0617218017578125
1761497450584968000,2.136968017578125,-0.06817626953125,-0.1773681640625,-0.0483551025390625
1761497450595024000,2.14702392578125,-0.0918121337890625,-0.1903076171875,-0.0556793212890625
1761497450605079800,2.157079833984375,-0.11334228515625,-0.2320556640625,-0.037841796875
1761497450615136000,2.167135986328125,-0.12042236328125,-0.24371337890625,-0.0205230712890625
1761497450625193000,2.17719287109375,-0.1544647216796875,-0.2209930419921875,-0.0102691650390625
1761497450635249000,2.187248779296875,-0.16253662109375,-0.1765289306640625,-0.00714111328125
1761497450645304800,2.197304931640625,-0.115386962890625,-0.0999908447265625,-0.021575927734375
1761497450655361800,2.20736181640625,-0.0904998779296875,-0.0118255615234375,-0.044189453125
1761497450665418000,2.21741796875,-0.0393829345703125,0.0559844970703125,-0.0438079833984375
1761497450675473700,2.2274736328125,0.0523529052734375,0.10223388671875,-0.0269012451171875
1761497450685531000,2.23753076171875,0.1148834228515625,0.0594635009765625,-0.034393310546875
1761497450695586800,2.2475869140625,0.1349029541015625,-0.052825927734375,-0.078460693359375
1761497450705642800,2.257642822265625,0.0783538818359375,-0.1625213623046875,-0.1120758056640625
1761497450715700000,2.267699951171875,-0.0293731689453125,-0.2438507080078125,-0.111480712890625
1761497450725755600,2.277755615234375,-0.0978546142578125,-0.2496185302734375,-0.067413330078125
1761497450735811600,2.2878115234375,-0.1218109130859375,-0.240264892578125,-0.012176513671875
1761497450745867800,2.29786767578125,-0.0526885986328125,-0.2811279296875,-0.0045166015625
1761497450755924700,2.3079248046875,0.0716705322265625,-0.3182525634765625,-0.009613037109375
1761497450765980700,2.317980712890625,0.1345062255859375,-0.411041259765625,-0.0569610595703125
1761497450776036900,2.328036865234375,0.162109375,-0.64794921875,-0.0761871337890625
1761497450786093800,2.33809375,0.172882080078125,-0.8955535888671875,0.0166473388671875
1761497450796149800,2.348149658203125,0.1276397705078125,-1.160614013671875,0.12957763671875
1761497450806205700,2.358205810546875,0.0476226806640625,-1.6005096435546875,0.2564697265625
1761497450816262700,2.3682626953125,-0.0751953125,-2.1614990234375,0.395263671875
1761497450826318800,2.37831884765625,-0.1431732177734375,-2.7711944580078125,0.5403594970703125
1761497450836374800,2.388374755859375,-0.376983642578125,-3.0566864013671875,0.5021514892578125
1761497450846431700,2.398431640625,-0.7080535888671875,-3.0731201171875,0.3495635986328125
1761497450856487700,2.40848779296875,-0.917083740234375,-3.267303466796875,0.2463226318359375
1761497450866543900,2.4185439453125,-1.05255126953125,-3.33056640625,0.168548583984375
1761497450876599800,2.428599853515625,-1.24468994140625,-3.259796142578125,0.166717529296875
1761497450886656800,2.43865673828125,-1.37200927734375,-3.151031494140625,0.233795166015625
1761497450896712700,2.448712646484375,-1.39056396484375,-3.0601959228515625,0.276123046875
1761497450906769000,2.458768798828125,-1.2493743896484375,-3.060455322265625,0.14971923828125
1761497450916825900,2.468825927734375,-1.1461181640625,-3.08905029296875,0.0119476318359375
1761497450926881800,2.4788818359375,-1.16265869140625,-3.1626434326171875,-0.0383758544921875
1761497450936937700,2.488937744140625,-1.16790771484375,-3.2536163330078125,-0.07415771484375
1761497450946994700,2.49899462890625,-1.156341552734375,-3.2116546630859375,-0.0456390380859375
1761497450957051000,2.50905078125,-1.1356964111328125,-3.0287628173828125,0.027099609375
1761497450967106800,2.51910693359375,-0.9912567138671875,-2.63409423828125,0.037689208984375
1761497450977163800,2.529163818359375,-0.7529449462890625,-2.0449371337890625,0.0569000244140625
1761497450987219700,2.5392197265625,-0.61492919921875,-1.4100799560546875,0.216064453125
1761497450997276000,2.54927587890625,-0.464111328125,-0.9775390625,0.39373779296875
1761497451007331800,2.559331787109375,-0.2212371826171875,-0.79205322265625,0.469329833984375
1761497451017388800,2.569388916015625,-0.0460205078125,-0.64013671875,0.4163665771484375
1761497451027444700,2.57944482421875,0.041961669921875,-0.459808349609375,0.2798004150390625
1761497451037501000,2.5895009765625,0.0447845458984375,-0.2672576904296875,0.087799072265625
1761497451047558000,2.599557861328125,0.04376220703125,0.00189208984375,-0.0017547607421875
1761497451057613800,2.60961376953125,0.0223236083984375,0.235260009765625,-0.0112762451171875
1761497451067669800,2.619669677734375,0.0328521728515625,0.336151123046875,-0.050018310546875
1761497451077726700,2.629726806640625,0.0439453125,0.4292144775390625,-0.09326171875
1761497451087783000,2.639782958984375,0.0644683837890625,0.544281005859375,-0.126007080078125
1761497451097838800,2.6498388671875,0.110748291015625,0.6667022705078125,-0.1572265625
1761497451107894800,2.659894775390625,0.192138671875,0.7282257080078125,-0.1374359130859375
1761497451117951700,2.66995166015625,0.2631378173828125,0.6643829345703125,-0.0566864013671875
1761497451128008000,2.680008056640625,0.3108367919921875,0.53924560546875,0.0496978759765625
1761497451138064000,2.69006396484375,0.3362579345703125,0.4212646484375,0.1118011474609375
1761497451148120800,2.700120849609375,0.3582305908203125,0.278594970703125,0.051513671875
1761497451158177000,2.710177001953125,0.3442535400390625,0.084197998046875,-0.0414581298828125
1761497451168233000,2.72023291015625,0.1935272216796875,-0.111053466796875,-0.1029052734375
1761497451178290000,2.7302900390625,0.0130462646484375,-0.2525482177734375,-0.141754150390625
1761497451188345900,2.740345947265625,-0.1356964111328125,-0.2832183837890625,-0.17974853515625
1761497451198401800,2.75040185546875,-0.2613983154296875,-0.2369842529296875,-0.214691162109375
1761497451208459000,2.760458984375,-0.2663726806640625,-0.1812896728515625,-0.2429046630859375
1761497451218515000,2.770514892578125,-0.2266387939453125,-0.1212158203125,-0.2212371826171875
1761497451228570600,2.780570556640625,-0.160064697265625,-0.06793212890625,-0.1786956787109375
1761497451238626800,2.790626708984375,-0.03973388671875,-0.04364013671875,-0.1538848876953125
1761497451248683800,2.800683837890625,0.0710601806640625,-0.0721435546875,-0.147735595703125
1761497451258739700,2.81073974609375,0.143707275390625,-0.0674285888671875,-0.1343536376953125
1761497451268795600,2.820795654296875,0.1608123779296875,-0.00640869140625,-0.1148681640625
1761497451278852600,2.8308525390625,0.13653564453125,0.05963134765625,-0.095123291015625
1761497451288908800,2.84090869140625,0.077484130859375,0.086090087890625,-0.0849151611328125
1761497451298964700,2.85096484375,0.0208740234375,0.09332275390625,-0.0970611572265625
1761497451309021700,2.861021728515625,0.0919036865234375,0.077606201171875,-0.09710693359375
1761497451319077600,2.87107763671875,0.2420806884765625,0.073394775390625,-0.116180419921875
1761497451329133800,2.8811337890625,0.3614349365234375,0.0741729736328125,-0.0714569091796875
1761497451339190800,2.891190673828125,0.36712646484375,0.0066986083984375,0.02423095703125
1761497451349246700,2.901246826171875,0.2150115966796875,-0.1537628173828125,0.1310272216796875
1761497451359302700,2.911302734375,-0.001983642578125,-0.3079833984375,0.171142578125
1761497451369358800,2.92135888671875,-0.205352783203125,-0.4303741455078125,0.1507720947265625
1761497451379415800,2.931415771484375,-0.249542236328125,-0.548797607421875,0.10418701171875
1761497451389471700,2.9414716796875,-0.1510772705078125,-0.726348876953125,-0.0118560791015625
1761497451399527700,2.951527587890625,-0.0765228271484375,-0.9311981201171875,-0.0189666748046875
1761497451409584600,2.961584716796875,-0.1064300537109375,-1.210357666015625,0.0900421142578125
1761497451419640800,2.971640869140625,-0.21539306640625,-1.796905517578125,0.242462158203125
1761497451429696800,2.98169677734375,-0.3601531982421875,-2.458526611328125,0.36590576171875
1761497451439753700,2.991753662109375,-0.656768798828125,-2.694580078125,0.2848052978515625
1761497451449809700,3.0018095703125,-0.8651885986328125,-2.651702880859375,0.1284332275390625
1761497451459865600,3.011865478515625,-0.75469970703125,-2.7515106201171875,0.057464599609375
1761497451469922800,3.0219228515625,-0.6950531005859375,-2.9225616455078125,0.050933837890625
1761497451479978800,3.031978759765625,-0.80389404296875,-2.9351959228515625,0.0584869384765625
1761497451490034700,3.04203466796875,-0.8693084716796875,-2.854736328125,0.004058837890625
1761497451500090600,3.052090576171875,-0.8702545166015625,-2.8278656005859375,0.0712738037109375
1761497451510147600,3.062147705078125,-0.78924560546875,-2.87969970703125,0.166900634765625
1761497451520203500,3.07220361328125,-0.6795501708984375,-3.0912933349609375,0.20703125
1761497451530259700,3.082259765625,-0.767364501953125,-3.4012298583984375,0.2640533447265625
1761497451540316700,3.092316650390625,-0.9880523681640625,-3.5988616943359375,0.2621307373046875
1761497451550372600,3.10237255859375,-1.265045166015625,-3.6578369140625,0.197998046875
1761497451560428500,3.112428466796875,-1.4925384521484375,-3.5560760498046875,0.1552581787109375
1761497451570485500,3.122485595703125,-1.5526885986328125,-3.2702484130859375,0.102447509765625
1761497451580541700,3.132541748046875,-1.3535308837890625,-2.93414306640625,0.0936126708984375
1761497451590597600,3.14259765625,-0.907806396484375,-2.53472900390625,0.1314697265625
1761497451600654600,3.152654541015625,-0.5919952392578125,-2.1744232177734375,0.2418670654296875
1761497451610710500,3.16271044921875,-0.3639678955078125,-1.7311248779296875,0.211700439453125
1761497451620766700,3.1727666015625,-0.2747955322265625,-1.404205322265625,0.1152801513671875
1761497451630822700,3.18282275390625,-0.3059844970703125,-1.2463836669921875,0.0740203857421875
1761497451640879600,3.192879638671875,-0.371337890625,-1.128814697265625,0.0664825439453125
1761497451650935600,3.202935546875,-0.4292144775390625,-0.98321533203125,0.0242767333984375
1761497451660991700,3.21299169921875,-0.40155029296875,-0.769287109375,-0.0233001708984375
1761497451671048700,3.223048583984375,-0.27447509765625,-0.455322265625,-0.0714569091796875
1761497451681104600,3.233104736328125,-0.1461029052734375,-0.1219329833984375,-0.1022796630859375
1761497451691160600,3.24316064453125,-0.070648193359375,0.0329437255859375,-0.0276947021484375
1761497451701217500,3.253217529296875,-0.034820556640625,0.10504150390625,0.0140533447265625
1761497451711273700,3.263273681640625,-0.011474609375,0.221588134765625,-0.0484466552734375
1761497451721329700,3.27332958984375,-0.0104827880859375,0.343017578125,-0.1121978759765625
1761497451731386600,3.28338671875,0.0315399169921875,0.4353485107421875,-0.134979248046875
1761497451741442600,3.293442626953125,0.092559814453125,0.4890594482421875,-0.1366119384765625
1761497451751498800,3.303498779296875,0.14678955078125,0.4974365234375,-0.1160736083984375
1761497451761554700,3.3135546875,0.1992645263671875,0.4510498046875,-0.018218994140625
1761497451771611600,3.323611572265625,0.2336578369140625,0.3979034423828125,0.0386505126953125
1761497451781667600,3.33366748046875,0.2534942626953125,0.3395538330078125,0.049285888671875
1761497451791723800,3.343723876953125,0.239013671875,0.2918243408203125,0.029541015625
1761497451801780700,3.35378076171875,0.1903076171875,0.2775726318359375,0.00360107421875
1761497451811836700,3.363836669921875,0.1513824462890625,0.267791748046875,-0.015228271484375
1761497451821892900,3.373892822265625,0.146636962890625,0.243316650390625,-0.0359649658203125
1761497451831949800,3.38394970703125,0.042083740234375,0.2293853759765625,-0.0951385498046875
1761497451842005800,3.394005859375,0.004791259765625,0.2689971923828125,-0.111236572265625
1761497451852061700,3.404061767578125,-0.049713134765625,0.3477020263671875,-0.101593017578125
1761497451862118700,3.41411865234375,-0.0848846435546875,0.433746337890625,-0.0907135009765625
1761497451872174800,3.4241748046875,-0.070648193359375,0.5673980712890625,-0.10687255859375
1761497451882230800,3.434230712890625,-0.056915283203125,0.665069580078125,-0.1359405517578125
1761497451892287700,3.444287841796875,-0.0235595703125,0.724822998046875,-0.1600341796875
1761497451902343700,3.45434375,-0.013824462890625,0.71478271484375,-0.1939849853515625
1761497451912400000,3.46439990234375,-0.0246734619140625,0.6669464111328125,-0.229644775390625
1761497451922455800,3.474455810546875,-0.0620880126953125,0.645233154296875,-0.240203857421875
1761497451932512800,3.4845126953125,-0.12261962890625,0.5883026123046875,-0.2107696533203125
1761497451942568700,3.494568603515625,-0.1722869873046875,0.517181396484375,-0.1611328125
1761497451952625000,3.504625,-0.1689453125,0.477081298828125,-0.1182861328125
1761497451962681900,3.514681884765625,-0.1875,0.3939971923828125,-0.0811614990234375
1761497451972737800,3.52473779296875,-0.1986541748046875,0.288848876953125,-0.034454345703125
1761497451982793500,3.53479345703125,-0.16839599609375,0.170074462890625,-0.032684326171875
1761497451992850700,3.5448505859375,-0.1669464111328125,0.0248565673828125,-0.0557861328125
1761497452002907000,3.554906982421875,-0.226348876953125,-0.2023468017578125,-0.0150604248046875
1761497452012962600,3.564962646484375,-0.223724365234375,-0.523223876953125,0.046295166015625
1761497452023019800,3.575019775390625,-0.13067626953125,-0.8896026611328125,0.102081298828125
1761497452033075500,3.585075439453125,-0.0549163818359375,-1.34271240234375,0.13739013671875
1761497452043131600,3.595131591796875,-0.1183319091796875,-1.94476318359375,0.18756103515625
1761497452053187600,3.6051875,-0.2318115234375,-2.6466522216796875,0.2917022705078125
1761497452063244500,3.61524462890625,-0.302215576171875,-3.3457489013671875,0.2938995361328125
1761497452073300500,3.625300537109375,-0.3907470703125,-3.6558380126953125,0.225189208984375
1761497452083356700,3.635356689453125,-0.4812164306640625,-3.744415283203125,0.19195556640625
1761497452093413600,3.64541357421875,-0.4698028564453125,-4.0089263916015625,0.2493133544921875
1761497452103469600,3.655469482421875,-0.57415771484375,-4.2044830322265625,0.404449462890625
1761497452113525500,3.665525390625,-0.888092041015625,-4.2432403564453125,0.553192138671875
1761497452123582700,3.675582763671875,-1.121673583984375,-4.180389404296875,0.64910888671875
1761497452133638700,3.685638671875,-1.21649169921875,-4.0205078125,0.621826171875
1761497452143694600,3.695694580078125,-1.1844329833984375,-3.838043212890625,0.489715576171875
1761497452153751600,3.70575146484375,-1.059173583984375,-3.7524261474609375,0.2984161376953125
1761497452163807700,3.715807861328125,-0.859466552734375,-3.7078704833984375,0.0802459716796875
1761497452173863700,3.72586376953125,-0.7169342041015625,-3.643768310546875,-0.0807342529296875
1761497452183919600,3.735919677734375,-0.599517822265625,-3.4589691162109375,-0.141326904296875
1761497452193976600,3.7459765625,-0.5955352783203125,-3.198974609375,-0.149688720703125
1761497452204032800,3.75603271484375,-0.6519317626953125,-2.873992919921875,-0.155670166015625
1761497452214088700,3.766088623046875,-0.665008544921875,-2.458648681640625,-0.0980987548828125
1761497452224145700,3.776145751953125,-0.6736907958984375,-1.985992431640625,0.0190277099609375
1761497452234201600,3.78620166015625,-0.6381378173828125,-1.5418701171875,0.0858154296875
1761497452244257800,3.7962578125,-0.50799560546875,-1.0749664306640625,0.1229705810546875
1761497452254314800,3.806314697265625,-0.2953338623046875,-0.640960693359375,0.1437225341796875
1761497452264370700,3.81637060546875,-0.123809814453125,-0.31817626953125,0.1199951171875
1761497452274426600,3.826426513671875,-0.039306640625,-0.051239013671875,0.0764923095703125
1761497452284483600,3.836483642578125,0.00836181640625,0.1255340576171875,-0.0008392333984375
1761497452294539800,3.846539794921875,0.0076904296875,0.2782135009765625,-0.095367431640625
1761497452304595700,3.856595703125,0.0081634521484375,0.430023193359375,-0.208831787109375
1761497452314651600,3.866651611328125,-0.04437255859375,0.53228759765625,-0.277069091796875
1761497452324708600,3.87670849609375,-0.0842437744140625,0.6547393798828125,-0.216796875
1761497452334764800,3.886764892578125,-0.037109375,0.7605438232421875,-0.115020751953125
1761497452344820700,3.89682080078125,0.0816497802734375,0.832061767578125,-0.0353546142578125
1761497452354877700,3.906877685546875,0.1619110107421875,0.8231201171875,0.002227783203125
1761497452364933600,3.91693359375,0.151153564453125,0.7299957275390625,0.0063629150390625
1761497452374989800,3.92698974609375,0.0996551513671875,0.614044189453125,0.0023040771484375
1761497452385046800,3.937046875,0.0323028564453125,0.5294647216796875,-0.014495849609375
1761497452395102700,3.947102783203125,-0.0181732177734375,0.4427032470703125,-0.048248291015625
1761497452405158700,3.95715869140625,-0.00244140625,0.3661956787109375,-0.093048095703125
1761497452415215600,3.967215576171875,-0.023712158203125,0.3384857177734375,-0.0906219482421875
1761497452425271800,3.977271728515625,-0.0977020263671875,0.359344482421875,-0.0275421142578125
1761497452435327700,3.98732763671875,-0.155181884765625,0.4051361083984375,0.0234222412109375
1761497452445385000,3.997385009765625,-0.1802520751953125,0.4342193603515625,0.04571533203125
1761497452455441000,4.00744091796875,-0.2112274169921875,0.4979248046875,0.06793212890625
1761497452465497000,4.0174970703125,-0.2278594970703125,0.5906524658203125,0.085479736328125
1761497452475550200,4.02755029296875,-0.1910858154296875,0.663360595703125,0.0939483642578125
1761497452485607200,4.037607177734375,-0.113067626953125,0.6981048583984375,0.083587646484375
1761497452495663000,4.0476630859375,-0.065948486328125,0.6910247802734375,0.0007781982421875
1761497452505719000,4.057718994140625,-0.064208984375,0.6229705810546875,-0.0955810546875
1761497452515776300,4.0677763671875,-0.0959625244140625,0.5269622802734375,-0.1694488525390625
1761497452525832200,4.077832275390625,-0.15936279296875,0.4171295166015625,-0.2178497314453125
1761497452535888000,4.087887939453125,-0.28594970703125,0.2884063720703125,-0.2465057373046875
1761497452545945000,4.097945068359375,-0.35040283203125,0.1752166748046875,-0.24005126953125
1761497452556001000,4.1080009765625,-0.4171905517578125,0.0572357177734375,-0.1966094970703125
1761497452566057000,4.118056884765625,-0.396392822265625,-0.1173248291015625,-0.098876953125
1761497452576114000,4.128114013671875,-0.32110595703125,-0.392486572265625,-0.0594940185546875
1761497452586169900,4.138169921875,-0.302276611328125,-0.717529296875,-0.0368194580078125
1761497452596226000,4.14822607421875,-0.322113037109375,-0.9879150390625,-0.0603179931640625
1761497452606282000,4.158281982421875,-0.33685302734375,-1.230987548828125,-0.07757568359375
1761497452616339000,4.1683388671875,-0.277252197265625,-1.4728240966796875,-0.0341339111328125
1761497452626395000,4.178394775390625,-0.1185455322265625,-1.6697998046875,0.0313873291015625
1761497452636451000,4.188451171875,0.0558624267578125,-1.865386962890625,0.1017303466796875
1761497452646508000,4.198508056640625,0.0190582275390625,-2.144256591796875,0.1505584716796875
1761497452656564000,4.20856396484375,-0.212188720703125,-2.425811767578125,0.1455230712890625
1761497452666620000,4.218619873046875,-0.491058349609375,-2.6446380615234375,0.0909576416015625
1761497452676676900,4.2286767578125,-0.6594390869140625,-2.889251708984375,-0.0090789794921875
1761497452686733000,4.238733154296875,-0.797393798828125,-3.139434814453125,-0.0149383544921875
1761497452696789000,4.2487890625,-0.899017333984375,-3.3578948974609375,0.0386810302734375
1761497452706846000,4.258845947265625,-0.917999267578125,-3.5010223388671875,0.070648193359375
1761497452716902100,4.268902099609375,-0.8582916259765625,-3.5163421630859375,0.16729736328125
1761497452726958000,4.2789580078125,-0.8537750244140625,-3.458526611328125,0.3616943359375
1761497452737014000,4.289013916015625,-0.9560699462890625,-3.4617767333984375,0.5275421142578125
1761497452747071000,4.299071044921875,-1.058319091796875,-3.5601348876953125,0.57415771484375
1761497452757127200,4.309127197265625,-1.1584014892578125,-3.6947174072265625,0.4981536865234375
1761497452767183000,4.31918310546875,-1.2160491943359375,-3.772705078125,0.3673858642578125
1761497452777240000,4.329239990234375,-1.2759552001953125,-3.7001190185546875,0.23089599609375
1761497452787296000,4.3392958984375,-1.2844390869140625,-3.4600372314453125,0.1242828369140625
1761497452797352200,4.349352294921875,-1.21368408203125,-3.1139984130859375,0.05157470703125
1761497452807409200,4.3594091796875,-1.063629150390625,-2.709014892578125,0.0526275634765625
1761497452817465000,4.369465087890625,-0.8439178466796875,-2.1659393310546875,0.079742431640625
1761497452827521000,4.37952099609375,-0.5199127197265625,-1.5460052490234375,0.0795135498046875
1761497452837578000,4.389577880859375,-0.1640625,-0.9249420166015625,0.075714111328125
1761497452847634200,4.39963427734375,0.061126708984375,-0.38214111328125,0.1045684814453125
1761497452857690000,4.409690185546875,0.0337982177734375,0.0220489501953125,0.1473236083984375
1761497452867746000,4.41974609375,-0.21588134765625,0.238922119140625,0.162261962890625
1761497452877803000,4.429802978515625,-0.3177642822265625,0.210723876953125,0.0574951171875
1761497452887861000,4.439861083984375,-0.3654022216796875,0.219573974609375,-0.069061279296875
1761497452897918000,4.44991796875,-0.3576507568359375,0.250518798828125,-0.127960205078125
1761497452907974000,4.459973876953125,-0.253509521484375,0.2963104248046875,-0.164703369140625
1761497452918030000,4.470030029296875,-0.09527587890625,0.3756866455078125,-0.225555419921875
1761497452928086000,4.4800859375,0.0295257568359375,0.5274200439453125,-0.2467803955078125
1761497452938143000,4.49014306640625,0.1367950439453125,0.6493988037109375,-0.1781158447265625
1761497452948199000,4.500198974609375,0.180633544921875,0.673248291015625,-0.096343994140625
1761497452958255000,4.510255126953125,0.1583404541015625,0.6693115234375,-0.03167724609375
1761497452968312000,4.52031201171875,0.2364654541015625,0.657806396484375,0.0017242431640625
1761497452978368000,4.530367919921875,0.298309326171875,0.6279144287109375,-0.0339508056640625
1761497452988424000,4.540423828125,0.2970123291015625,0.5527191162109375,-0.0815582275390625
1761497452998481200,4.550481201171875,0.25848388671875,0.4314117431640625,-0.0975341796875
1761497453008537000,4.560537109375,0.16168212890625,0.3258514404296875,-0.0789794921875
1761497453018593000,4.570593017578125,0.0375823974609375,0.2456512451171875,-0.0150146484375
1761497453028650000,4.58064990234375,-0.095306396484375,0.1804656982421875,0.059051513671875
1761497453038706200,4.5907060546875,-0.2279205322265625,0.1391448974609375,0.1241607666015625
1761497453048762000,4.60076220703125,-0.276519775390625,0.125274658203125,0.160736083984375
1761497453058819000,4.610819091796875,-0.279937744140625,0.183563232421875,0.1849517822265625
1761497453068875000,4.620875,-0.207977294921875,0.24676513671875,0.22491455078125
1761497453078931200,4.63093115234375,-0.1103363037109375,0.2638702392578125,0.1887969970703125
1761497453088987100,4.640987060546875,-0.04205322265625,0.22735595703125,0.0842132568359375
1761497453099044000,4.651044189453125,-0.013702392578125,0.120452880859375,-0.0143890380859375
1761497453109100000,4.66110009765625,-0.0690155029296875,0.0390625,-0.114044189453125
1761497453119156200,4.67115625,-0.0937042236328125,0.0205535888671875,-0.1860504150390625
1761497453129213200,4.681213134765625,-0.077301025390625,0.032958984375,-0.20159912109375
1761497453139269000,4.69126904296875,-0.010986328125,0.0580596923828125,-0.187164306640625
1761497453149325000,4.701324951171875,0.05706787109375,0.081695556640625,-0.1629791259765625
1761497453159382000,4.711382080078125,0.01202392578125,0.0793914794921875,-0.1299591064453125
1761497453169438200,4.721438232421875,-0.1737060546875,0.0247650146484375,-0.069610595703125
1761497453179494100,4.731494140625,-0.3580322265625,-0.0995635986328125,0.0010986328125
1761497453189551000,4.741551025390625,-0.4723358154296875,-0.3255615234375,0.0203857421875
1761497453199607000,4.75160693359375,-0.4571685791015625,-0.6573333740234375,-0.081787109375
1761497453209663200,4.761663330078125,-0.4018707275390625,-0.993927001953125,-0.1801300048828125
1761497453219720200,4.77172021484375,-0.2886199951171875,-1.2724151611328125,-0.1458892822265625
1761497453229776100,4.781776123046875,-0.229461669921875,-1.5517120361328125,-0.033416748046875
1761497453239832000,4.79183203125,-0.1565704345703125,-1.8244781494140625,0.0868072509765625
1761497453249889000,4.801888916015625,-0.2628326416015625,-2.2379302978515625,0.23980712890625
1761497453259945200,4.8119453125,-0.6055450439453125,-2.6605682373046875,0.2462615966796875
1761497453270001200,4.822001220703125,-0.909271240234375,-2.9317169189453125,0.19805908203125
1761497453280058000,4.83205810546875,-1.055511474609375,-3.1983795166015625,0.2490692138671875
1761497453290114000,4.842114013671875,-1.109222412109375,-3.5886383056640625,0.1735687255859375
1761497453300170000,4.852169921875,-1.18719482421875,-3.8292083740234375,0.08770751953125
1761497453310226000,4.862225830078125,-1.1475372314453125,-3.7816314697265625,0.0027008056640625
1761497453320283100,4.872283203125,-0.862213134765625,-3.569610595703125,-0.11175537109375
1761497453330339000,4.882339111328125,-0.5758056640625,-3.4157257080078125,-0.11834716796875
1761497453340395000,4.89239501953125,-0.579498291015625,-3.3470306396484375,-0.100341796875
1761497453350452000,4.902451904296875,-0.898590087890625,-3.39019775390625,-0.0828704833984375
1761497453360508000,4.9125078125,-1.3661956787109375,-3.5186309814453125,-0.0394287109375
1761497453370564000,4.922564208984375,-1.613739013671875,-3.535003662109375,-0.007965087890625
1761497453380621000,4.93262109375,-1.5615997314453125,-3.295440673828125,-0.0420074462890625
1761497453390677000,4.942677001953125,-1.3388824462890625,-2.878326416015625,-0.06683349609375
1761497453400733000,4.95273291015625,-1.0641021728515625,-2.386138916015625,-0.023468017578125
1761497453410790000,4.962789794921875,-0.882843017578125,-1.93798828125,0.106231689453125
1761497453420846000,4.97284619140625,-0.7868194580078125,-1.54327392578125,0.217926025390625
1761497453430902000,4.982902099609375,-0.65252685546875,-1.2918701171875,0.21624755859375
1761497453440958700,4.992958740234375,-0.480133056640625,-1.1068115234375,0.1059417724609375
1761497453451014700,5.0030146484375,-0.3686065673828125,-0.8243865966796875,-0.00372314453125
1761497453461070800,5.01307080078125,-0.2964324951171875,-0.565460205078125,-0.0623321533203125
1761497453471126800,5.023126708984375,-0.2584686279296875,-0.323883056640625,-0.0789642333984375
1761497453481183700,5.033183837890625,-0.257110595703125,-0.0952606201171875,-0.0360870361328125
1761497453491239700,5.04323974609375,-0.27313232421875,0.0927886962890625,0.0203399658203125
1761497453501295900,5.0532958984375,-0.279052734375,0.24542236328125,0.0465087890625
1761497453511352800,5.063352783203125,-0.214080810546875,0.3653564453125,0.067291259765625
1761497453521408800,5.07340869140625,-0.09869384765625,0.4455413818359375,0.06915283203125
1761497453531464700,5.083464599609375,-0.0012969970703125,0.4935455322265625,0.0077972412109375
1761497453541521700,5.093521728515625,0.046875,0.544464111328125,-0.0720367431640625
1761497453551577900,5.103577880859375,0.075958251953125,0.566864013671875,-0.123992919921875
1761497453561633800,5.1136337890625,0.1340179443359375,0.5839996337890625,-0.153289794921875
1761497453571690800,5.123690673828125,0.2144317626953125,0.5948333740234375,-0.1748046875
1761497453581747000,5.133746826171875,0.2808990478515625,0.5780029296875,-0.1803436279296875
1761497453591803000,5.143802978515625,0.301544189453125,0.5502166748046875,-0.1697235107421875
1761497453601859800,5.15385986328125,0.25079345703125,0.5040435791015625,-0.1647186279296875
1761497453611915800,5.163915771484375,0.1690216064453125,0.4490966796875,-0.1816558837890625
1761497453621971700,5.1739716796875,0.09423828125,0.4115447998046875,-0.198577880859375
1761497453632029000,5.18402880859375,0.022735595703125,0.3813323974609375,-0.173675537109375
1761497453642084900,5.1940849609375,-0.045654296875,0.3636474609375,-0.1337890625
1761497453652140500,5.204140625,-0.0960540771484375,0.3567657470703125,-0.0955352783203125
1761497453662196700,5.21419677734375,-0.126861572265625,0.358978271484375,-0.0662689208984375
1761497453672253700,5.224253662109375,-0.154998779296875,0.3672943115234375,-0.053436279296875
1761497453682309600,5.2343095703125,-0.148162841796875,0.36370849609375,-0.069000244140625
1761497453692365600,5.244365478515625,-0.1308746337890625,0.36474609375,-0.0974884033203125
1761497453702422500,5.254422607421875,-0.1214599609375,0.3755645751953125,-0.127410888671875
1761497453712478700,5.264478759765625,-0.1267547607421875,0.3694610595703125,-0.142486572265625
1761497453722534700,5.27453466796875,-0.0990142822265625,0.3663330078125,-0.1508026123046875
1761497453732591600,5.284591552734375,-0.0779571533203125,0.337615966796875,-0.1685638427734375
1761497453742647600,5.2946474609375,-0.040771484375,0.2886810302734375,-0.1728057861328125
1761497453752703700,5.304703857421875,-0.0435943603515625,0.239898681640625,-0.145416259765625
1761497453762760700,5.3147607421875,-0.0390625,0.1849212646484375,-0.104644775390625
1761497453772816600,5.324816650390625,-0.0616455078125,0.1194610595703125,-0.0845489501953125
1761497453782872600,5.33487255859375,-0.0832977294921875,0.0410614013671875,-0.0673675537109375
1761497453792929500,5.344929443359375,-0.1105804443359375,-0.066619873046875,-0.0466156005859375
1761497453802985700,5.35498583984375,-0.11834716796875,-0.21124267578125,-0.0165863037109375
1761497453813041700,5.365041748046875,-0.110809326171875,-0.4474945068359375,-0.0107574462890625
1761497453823098600,5.3750986328125,-0.1030426025390625,-0.8379669189453125,-0.0087432861328125
1761497453833154600,5.385154541015625,-0.2005157470703125,-1.3447265625,0.0342864990234375
1761497453843210800,5.395210693359375,-0.4283599853515625,-1.9524078369140625,0.040435791015625
1761497453853267700,5.405267822265625,-0.788848876953125,-2.58453369140625,-0.01287841796875
1761497453863323600,5.41532373046875,-1.05645751953125,-3.058502197265625,-0.0245819091796875
1761497453873379600,5.425379638671875,-1.21929931640625,-3.439056396484375,0.09234619140625
1761497453883436800,5.435436767578125,-1.3738250732421875,-3.7743072509765625,0.25177001953125
1761497453893492700,5.44549267578125,-1.36175537109375,-3.9550628662109375,0.2934112548828125
1761497453903548700,5.455548583984375,-1.2529144287109375,-3.9049072265625,0.2168731689453125
1761497453913604900,5.46560498046875,-1.110931396484375,-3.7302093505859375,0.1618194580078125
1761497453923661800,5.475661865234375,-0.9526519775390625,-3.552001953125,0.1187744140625
1761497453933717800,5.4857177734375,-0.9636383056640625,-3.50054931640625,0.14227294921875
1761497453943773700,5.495773681640625,-1.147125244140625,-3.6047210693359375,0.2684478759765625
1761497453953830700,5.50583056640625,-1.3293304443359375,-3.7046356201171875,0.392120361328125
1761497453963886800,5.515886962890625,-1.4240570068359375,-3.7227020263671875,0.476776123046875
1761497453973942800,5.52594287109375,-1.3108367919921875,-3.5367431640625,0.441497802734375
1761497453983999700,5.535999755859375,-1.076904296875,-3.1920166015625,0.324737548828125
1761497453994055700,5.5460556640625,-0.8250885009765625,-2.798187255859375,0.164703369140625
1761497454004112000,5.55611181640625,-0.587982177734375,-2.396728515625,-0.01025390625
1761497454014168800,5.5661689453125,-0.410675048828125,-2.0105743408203125,-0.1418914794921875
1761497454024224800,5.576224853515625,-0.2613983154296875,-1.678619384765625,-0.22796630859375
1761497454034280700,5.58628076171875,-0.133331298828125,-1.3413848876953125,-0.2692108154296875
1761497454044337700,5.596337646484375,-0.0964202880859375,-0.9832916259765625,-0.23590087890625
1761497454054393900,5.606393798828125,-0.092315673828125,-0.699737548828125,-0.1225128173828125
1761497454064449800,5.61644970703125,-0.1255645751953125,-0.5067138671875,-0.0176849365234375
1761497454074506800,5.6265068359375,-0.1928253173828125,-0.32781982421875,0.0730133056640625
1761497454084562700,5.636562744140625,-0.3088836669921875,-0.171966552734375,0.1842193603515625
1761497454094619000,5.646618896484375,-0.3933868408203125,-0.0963134765625,0.250457763671875
1761497454104674800,5.6566748046875,-0.38995361328125,-0.0682525634765625,0.1399993896484375
1761497454114731800,5.666731689453125,-0.3770904541015625,-0.0066070556640625,-0.0564422607421875
1761497454124787700,5.67678759765625,-0.35247802734375,0.0765838623046875,-0.214813232421875
1761497454134844000,5.686843994140625,-0.2783203125,0.20452880859375,-0.301239013671875
1761497454144900900,5.69690087890625,-0.1391448974609375,0.3931732177734375,-0.3097686767578125
1761497454154956800,5.706956787109375,0.0135650634765625,0.5551300048828125,-0.26116943359375
1761497454165012700,5.7170126953125,0.1892242431640625,0.6400146484375,-0.1743316650390625
1761497454175069700,5.727069580078125,0.1290740966796875,0.63189697265625,-0.15008544921875
1761497454185126000,5.7371259765625,0.04144287109375,0.5656890869140625,-0.191619873046875
1761497454195181600,5.747181640625,0.26348876953125,0.5714263916015625,-0.28387451171875
1761497454205238800,5.75723876953125,0.305328369140625,0.5198822021484375,-0.331695556640625
1761497454215294700,5.767294677734375,0.31915283203125,0.5684814453125,-0.33758544921875
1761497454225350700,5.7773505859375,0.2180328369140625,0.5861663818359375,-0.2384185791015625
1761497454235408000,5.787407958984375,0.0341644287109375,0.5787200927734375,-0.1069793701171875
1761497454245463600,5.797463623046875,-0.08209228515625,0.567291259765625,0.0061798095703125
1761497454255519700,5.807519775390625,-0.162322998046875,0.56024169921875,0.100311279296875
1761497454265577000,5.817576904296875,-0.2151641845703125,0.5709228515625,0.206390380859375
1761497454275632600,5.827632568359375,-0.2389678955078125,0.5745391845703125,0.2760772705078125
1761497454285688600,5.8376884765625,-0.240509033203125,0.5440216064453125,0.25860595703125
1761497454295745500,5.84774560546875,-0.21307373046875,0.5120849609375,0.2183685302734375
1761497454305801700,5.8578017578125,-0.174591064453125,0.46295166015625,0.117279052734375
1761497454315857700,5.867857666015625,-0.108734130859375,0.449371337890625,0.0189971923828125
1761497454325914600,5.87791455078125,-0.01434326171875,0.467559814453125,-0.0400390625
1761497454335970600,5.887970458984375,0.083984375,0.4602203369140625,-0.0886383056640625
1761497454346026800,5.89802685546875,0.102691650390625,0.4543914794921875,-0.0894927978515625
1761497454356083700,5.908083740234375,0.0482025146484375,0.444549560546875,-0.02264404296875
1761497454366139600,5.9181396484375,-0.0996856689453125,0.35150146484375,0.0618743896484375
1761497454376195600,5.928195556640625,-0.2335357666015625,0.1706695556640625,0.082275390625
1761497454386252500,5.93825244140625,-0.345611572265625,-0.1346435546875,0.04779052734375
1761497454396308700,5.948308837890625,-0.3548431396484375,-0.4846038818359375,0.0124664306640625
1761497454406364700,5.95836474609375,-0.2673797607421875,-0.8179168701171875,0.0239410400390625
1761497454416420600,5.968420654296875,-0.2607574462890625,-1.2628936767578125,0.0625762939453125
1761497454426477600,5.9784775390625,-0.298858642578125,-1.7657623291015625,0.08966064453125
1761497454436533800,5.98853369140625,-0.433868408203125,-2.2366485595703125,0.2927093505859375
1761497454446590700,5.9985908203125,-0.4951629638671875,-2.703338623046875,0.5439300537109375
1761497454456647700,6.008647705078125,-0.59710693359375,-3.1435546875,0.47357177734375
1761497454466703600,6.01870361328125,-0.7906951904296875,-3.3664093017578125,0.2699737548828125
1761497454476759600,6.028759521484375,-0.756561279296875,-3.5402679443359375,0.083282470703125
1761497454486816800,6.038816650390625,-0.561248779296875,-3.698486328125,-0.06549072265625
1761497454496872700,6.048872802734375,-0.5680694580078125,-3.7749786376953125,-0.125823974609375
1761497454506928600,6.0589287109375,-0.965240478515625,-3.74383544921875,-0.05364990234375
1761497454516985600,6.068985595703125,-1.384857177734375,-3.7435760498046875,0.113555908203125
1761497454527041800,6.079041748046875,-1.4843292236328125,-3.72344970703125,0.1841888427734375
1761497454537097700,6.08909765625,-1.4237213134765625,-3.6874847412109375,0.0745849609375
1761497454547154700,6.09915478515625,-1.212799072265625,-3.6439666748046875,-0.1076202392578125
1761497454557210600,6.109210693359375,-1.013671875,-3.5798492431640625,-0.2477264404296875
1761497454567266800,6.119266845703125,-0.8621826171875,-3.4871673583984375,-0.3665771484375
1761497454577323800,6.12932373046875,-0.683319091796875,-3.2424774169921875,-0.403839111328125
1761497454587379700,6.139379638671875,-0.509246826171875,-2.8959808349609375,-0.3427886962890625
1761497454597435600,6.149435546875,-0.429534912109375,-2.5399169921875,-0.21087646484375
1761497454607492600,6.15949267578125,-0.4201812744140625,-2.1849822998046875,-0.052154541015625
1761497454617548800,6.169548828125,-0.44598388671875,-1.806976318359375,0.1231689453125
1761497454627604700,6.179604736328125,-0.4430389404296875,-1.3777923583984375,0.2638092041015625
1761497454637660700,6.18966064453125,-0.35009765625,-1.0280914306640625,0.295928955078125
1761497454647717600,6.199717529296875,-0.224395751953125,-0.7499847412109375,0.2393798828125
1761497454657773800,6.20977392578125,-0.090484619140625,-0.522857666015625,0.1358489990234375
1761497454667829800,6.219829833984375,-0.0098724365234375,-0.335845947265625,0.059539794921875
1761497454677886700,6.22988671875,-0.0193634033203125,-0.172515869140625,0.0352020263671875
1761497454687942700,6.239942626953125,-0.041473388671875,-0.011627197265625,0.0490570068359375
1761497454697998800,6.249998779296875,-0.096588134765625,0.1187744140625,0.07757568359375
1761497454708055800,6.260055908203125,-0.191070556640625,0.1980438232421875,0.10009765625
1761497454718111700,6.27011181640625,-0.2042083740234375,0.2684783935546875,0.1041717529296875
1761497454728167700,6.280167724609375,-0.1882781982421875,0.3155517578125,0.06390380859375
1761497454738224600,6.290224609375,-0.118316650390625,0.399505615234375,-0.002288818359375
1761497454748280800,6.30028076171875,-0.058380126953125,0.4968719482421875,-0.03277587890625
1761497454758336800,6.310336669921875,-0.00482177734375,0.567291259765625,-0.0131378173828125
1761497454768393700,6.320393798828125,0.0485992431640625,0.608184814453125,-0.00543212890625
1761497454778449700,6.33044970703125,0.1298370361328125,0.6004791259765625,-0.031158447265625
1761497454788505900,6.340505859375,0.179840087890625,0.5650177001953125,-0.0568389892578125
1761497454798562800,6.350562744140625,0.1826171875,0.51678466796875,-0.0736541748046875
1761497454808618800,6.36061865234375,0.1486053466796875,0.4682769775390625,-0.083709716796875
1761497454818674700,6.3706748046875,0.096221923828125,0.436920166015625,-0.087982177734375
1761497454828731600,6.380731689453125,0.0438232421875,0.427154541015625,-0.0711669921875
1761497454838787800,6.390787841796875,-0.000244140625,0.442169189453125,-0.025177001953125
1761497454848843500,6.400843505859375,-0.03369140625,0.4738311767578125,0.0301666259765625
1761497454858900700,6.410900634765625,-0.071014404296875,0.4931793212890625,0.0770111083984375
1761497454868956700,6.420956787109375,-0.1146392822265625,0.5028228759765625,0.10394287109375
1761497454879012600,6.4310126953125,-0.13330078125,0.4973602294921875,0.0972442626953125
1761497454889069800,6.44106982421875,-0.1760406494140625,0.4917755126953125,0.05419921875
1761497454899125500,6.45112548828125,-0.1844024658203125,0.494354248046875,-0.00921630859375
1761497454909181700,6.461181640625,-0.2000579833984375,0.502197265625,-0.0472259521484375
1761497454919238700,6.47123876953125,-0.2070770263671875,0.486602783203125,-0.071746826171875
1761497454929294600,6.481294677734375,-0.1427154541015625,0.459686279296875,-0.1130523681640625
1761497454939350500,6.4913505859375,-0.05889892578125,0.4335784912109375,-0.1620635986328125
1761497454949406700,6.50140673828125,-0.024200439453125,0.367950439453125,-0.1981964111328125
1761497454959463700,6.511463623046875,-0.00518798828125,0.2698822021484375,-0.2006378173828125
1761497454969519600,6.52151953125,-0.01678466796875,0.1527099609375,-0.194671630859375
1761497454979575600,6.531575439453125,-0.0795745849609375,-0.017974853515625,-0.180877685546875
1761497454989632500,6.541632568359375,-0.1389312744140625,-0.1859893798828125,-0.1074371337890625
1761497454999688700,6.551688720703125,-0.1907958984375,-0.3708343505859375,-0.009918212890625
1761497455009744600,6.56174462890625,-0.2371978759765625,-0.6701507568359375,0.101104736328125
1761497455019801600,6.571801513671875,-0.3389892578125,-1.126800537109375,0.21142578125
1761497455029857500,6.581857421875,-0.4724884033203125,-1.7230072021484375,0.189544677734375
1761497455039913700,6.591913818359375,-0.5989990234375,-2.45452880859375,0.0247955322265625
1761497455049970700,6.601970703125,-0.5832672119140625,-3.093597412109375,-0.115753173828125
1761497455060026600,6.612026611328125,-0.749786376953125,-3.336029052734375,-0.2508697509765625
1761497455070082600,6.62208251953125,-1.006744384765625,-3.4423980712890625,-0.3178558349609375
1761497455080139500,6.632139404296875,-1.203094482421875,-3.59027099609375,-0.2364654541015625
1761497455090195700,6.64219580078125,-1.3196563720703125,-3.6655426025390625,-0.175384521484375
1761497455100251600,6.652251708984375,-1.3300018310546875,-3.60052490234375,-0.1662750244140625
1761497455110308600,6.66230859375,-1.1805572509765625,-3.4759979248046875,-0.2083892822265625
1761497455120364500,6.672364501953125,-1.0410919189453125,-3.36419677734375,-0.25372314453125
1761497455130420700,6.682420654296875,-1.058990478515625,-3.328887939453125,-0.2430419921875
1761497455140477700,6.692477783203125,-1.161346435546875,-3.363311767578125,-0.204803466796875
1761497455150533600,6.70253369140625,-1.2871246337890625,-3.4353790283203125,-0.17596435546875
1761497455160589600,6.712589599609375,-1.39984130859375,-3.4920654296875,-0.1210479736328125
1761497455170645800,6.722645751953125,-1.3814849853515625,-3.4654541015625,-0.0943450927734375
1761497455180702700,6.73270263671875,-1.325286865234375,-3.2985382080078125,-0.12335205078125
1761497455190758700,6.742758544921875,-1.1254425048828125,-2.957733154296875,-0.16668701171875
1761497455200814800,6.75281494140625,-0.8790130615234375,-2.5842132568359375,-0.210601806640625
1761497455210871800,6.762871826171875,-0.6800994873046875,-2.1693115234375,-0.224853515625
1761497455220927700,6.772927734375,-0.50286865234375,-1.759185791015625,-0.206146240234375
1761497455230983700,6.782983642578125,-0.3209991455078125,-1.404632568359375,-0.1620635986328125
1761497455241040600,6.79304052734375,-0.16473388671875,-1.0434722900390625,-0.1024169921875
1761497455251096800,6.803096923828125,-0.0819854736328125,-0.6989898681640625,-0.0358123779296875
1761497455261152800,6.81315283203125,-0.0821380615234375,-0.395843505859375,-0.00616455078125
1761497455271209700,6.823209716796875,-0.04815673828125,-0.1616973876953125,0.00067138671875
1761497455281265700,6.833265625,-0.05352783203125,0.01104736328125,0.0304107666015625
1761497455291321900,6.84332177734375,-0.102996826171875,0.1056671142578125,0.0788726806640625
1761497455301378800,6.85337890625,-0.12066650390625,0.1616668701171875,0.095245361328125
1761497455311434800,6.863434814453125,-0.101837158203125,0.2005615234375,0.0604248046875
1761497455321490700,6.87349072265625,-0.0766143798828125,0.2662353515625,0.03167724609375
1761497455331547600,6.883547607421875,-0.070526123046875,0.3609466552734375,0.040283203125
1761497455341603800,6.893603759765625,-0.051483154296875,0.4797515869140625,0.05517578125
1761497455351659800,6.90365966796875,0.0462493896484375,0.6318817138671875,0.0750885009765625
1761497455361716700,6.913716796875,0.1170501708984375,0.7197723388671875,0.0830535888671875
1761497455371772700,6.923772705078125,0.1851959228515625,0.7234954833984375,0.0599212646484375
1761497455381828900,6.933828857421875,0.2383270263671875,0.6911163330078125,0.0124359130859375
1761497455391884500,6.943884521484375,0.255340576171875,0.6457061767578125,-0.026336669921875
1761497455401941800,6.953941650390625,0.2296600341796875,0.596588134765625,-0.0642852783203125
1761497455411997700,6.963997802734375,0.2125091552734375,0.544647216796875,-0.1024017333984375
1761497455422053600,6.9740537109375,0.1975250244140625,0.48748779296875,-0.1199951171875
1761497455432110800,6.98411083984375,0.1766510009765625,0.45172119140625,-0.110565185546875
1761497455442166500,6.99416650390625,0.14410400390625,0.4281005859375,-0.0753021240234375
1761497455452222500,7.004222412109375,0.1134796142578125,0.3986053466796875,-0.0291290283203125
1761497455462279700,7.01427978515625,0.100921630859375,0.3733367919921875,0.010498046875
1761497455472335600,7.024335693359375,0.082244873046875,0.3622894287109375,0.0418548583984375
1761497455482391600,7.0343916015625,0.0611724853515625,0.3477630615234375,0.059844970703125
1761497455492448500,7.044448486328125,0.039581298828125,0.3251953125,0.05828857421875
1761497455502504700,7.054504638671875,0.0206451416015625,0.3012542724609375,0.0460357666015625
1761497455512560600,7.064560546875,0.00372314453125,0.2707366943359375,0.017059326171875
1761497455522617600,7.07461767578125,-0.0195159912109375,0.2427215576171875,-0.0039215087890625
1761497455532673500,7.084673583984375,-0.0229644775390625,0.198333740234375,-0.0166778564453125
1761497455542729700,7.094729736328125,-0.019561767578125,0.136383056640625,-0.0040740966796875
1761497455552786700,7.10478662109375,0.00372314453125,0.05499267578125,0.029632568359375
1761497455562842600,7.114842529296875,0.0374908447265625,-0.0549774169921875,0.07537841796875
1761497455572898600,7.124898681640625,0.1020660400390625,-0.252044677734375,0.133514404296875
1761497455582955500,7.13495556640625,0.069549560546875,-0.5343017578125,0.170806884765625
1761497455593011700,7.14501171875,-0.1413421630859375,-0.8984832763671875,0.21978759765625
1761497455603067600,7.155067626953125,-0.510498046875,-1.38763427734375,0.2492828369140625
1761497455613124600,7.16512451171875,-0.6990814208984375,-2.0446014404296875,0.22564697265625
1761497455623180500,7.1751806640625,-0.4052734375,-2.5952301025390625,0.0947265625
1761497455633236700,7.18523681640625,-0.2881011962890625,-2.67156982421875,-0.1109619140625
1761497455643292700,7.195292724609375,-0.7002716064453125,-2.5322723388671875,-0.248291015625
1761497455653349600,7.205349609375,-1.090972900390625,-2.4473114013671875,-0.121337890625
1761497455663405600,7.215405517578125,-1.2089385986328125,-2.1923828125,-0.002777099609375
1761497455673461800,7.225461669921875,-1.4394378662109375,-2.0388336181640625,0.09722900390625
1761497455683518700,7.235518798828125,-1.778961181640625,-1.89703369140625,0.2061767578125
1761497455693574700,7.24557470703125,-1.87841796875,-1.71533203125,0.3307952880859375
1761497455703630600,7.255630615234375,-1.7007598876953125,-1.59478759765625,0.424896240234375
1761497455713687600,7.2656875,-1.5757293701171875,-1.5862884521484375,0.40960693359375
1761497455723743700,7.27574365234375,-1.54254150390625,-1.5468597412109375,0.260711669921875
1761497455733799700,7.285799560546875,-1.29852294921875,-1.472076416015625,0.0830841064453125
1761497455743856600,7.295856689453125,-1.21673583984375,-1.321533203125,-0.017486572265625
1761497455753912600,7.30591259765625,-1.128204345703125,-1.0232086181640625,-0.1008758544921875
1761497455763968800,7.31596875,-0.9771728515625,-0.8744964599609375,-0.1102447509765625
1761497455774025700,7.326025634765625,-0.923614501953125,-0.77520751953125,-0.058746337890625
1761497455784081700,7.33608154296875,-0.796295166015625,-0.7718658447265625,0.0090484619140625
1761497455794137600,7.3461376953125,-0.672454833984375,-0.8630828857421875,0.052032470703125
1761497455804194800,7.35619482421875,-0.6445465087890625,-0.92706298828125,0.0409393310546875
1761497455814250800,7.366250732421875,-0.7906951904296875,-0.9496307373046875,-0.037628173828125
1761497455824306700,7.376306640625,-0.9940948486328125,-0.93475341796875,-0.140899658203125
1761497455834363600,7.38636376953125,-1.0432586669921875,-0.86846923828125,-0.24798583984375
1761497455844419800,7.396419921875,-0.941131591796875,-0.7292022705078125,-0.302276611328125
1761497455854475800,7.406475830078125,-0.8712310791015625,-0.634429931640625,-0.359375
1761497455864531700,7.41653173828125,-0.9184722900390625,-0.5316009521484375,-0.3175506591796875
1761497455874588700,7.426588623046875,-0.8531646728515625,-0.471435546875,-0.2372894287109375
1761497455884644900,7.436644775390625,-0.8016510009765625,-0.4595184326171875,-0.15277099609375
1761497455894700800,7.44670068359375,-0.79931640625,-0.4781646728515625,-0.0954132080078125
1761497455904757800,7.4567578125,-0.810882568359375,-0.4730377197265625,-0.030029296875
1761497455914813700,7.466813720703125,-0.83538818359375,-0.461517333984375,0.0406951904296875
1761497455924870000,7.476869873046875,-0.833892822265625,-0.4761199951171875,0.084716796875
1761497455934926800,7.4869267578125,-0.8054046630859375,-0.4895172119140625,0.0760040283203125
1761497455944982800,7.496982666015625,-0.7784423828125,-0.4761810302734375,0.0414581298828125
1761497455955038700,7.507038818359375,-0.7708740234375,-0.467376708984375,0.0015411376953125
1761497455965095700,7.517095703125,-0.7468414306640625,-0.45355224609375,-0.028045654296875
1761497455975151900,7.52715185546875,-0.749114990234375,-0.43109130859375,-0.03704833984375
1761497455985207800,7.537207763671875,-0.7715911865234375,-0.3980865478515625,-0.0181121826171875
1761497455995264800,7.5472646484375,-0.8189544677734375,-0.346893310546875,0.029449462890625
1761497456005320700,7.55732080078125,-0.8372650146484375,-0.312896728515625,0.0920257568359375
1761497456015376600,7.567376708984375,-0.8166351318359375,-0.338714599609375,0.1126556396484375
1761497456025433900,7.577433837890625,-0.7723846435546875,-0.36431884765625,0.073699951171875
1761497456035489800,7.58748974609375,-0.7440948486328125,-0.36602783203125,0.0218963623046875
1761497456045545500,7.59754541015625,-0.6908721923828125,-0.348876953125,-0.002166748046875
1761497456055602700,7.607602783203125,-0.6727447509765625,-0.358123779296875,-0.01800537109375
1761497456065658600,7.61765869140625,-0.6357269287109375,-0.3810577392578125,-0.0215911865234375
1761497456075714600,7.627714599609375,-0.6116180419921875,-0.3957366943359375,0.000274658203125
1761497456085771800,7.637771728515625,-0.6612701416015625,-0.3898162841796875,0.030548095703125
1761497456095827500,7.647827392578125,-0.73663330078125,-0.3642425537109375,0.0478515625
1761497456105883600,7.657883544921875,-0.861328125,-0.3821258544921875,0.062774658203125
1761497456115939600,7.667939697265625,-0.90924072265625,-0.4456024169921875,0.0698089599609375
1761497456125996500,7.67799658203125,-0.912445068359375,-0.5141143798828125,0.0503997802734375
1761497456136052700,7.688052734375,-0.87298583984375,-0.493499755859375,0.0067138671875
