time,seconds_elapsed,z,y,x
1761503576376333300,0.126333251953125,0.05729421600699425,-0.019888266921043396,-0.36565718054771423
1761503576386389000,0.136388916015625,0.13047648966312408,-0.00662429491057992,-0.5049727559089661
1761503576396445000,0.14644482421875,0.19319313764572144,0.02509741485118866,-0.5891667604446411
1761503576406501000,0.156501220703125,0.22936473786830902,0.03752205893397331,-0.5600180625915527
1761503576416557000,0.16655712890625,0.207026407122612,0.037109002470970154,-0.46185845136642456
1761503576426613000,0.176613037109375,0.16207432746887207,0.04793770983815193,-0.3178218603134155
1761503576436669200,0.186669189453125,0.09045874327421188,0.08911550790071487,-0.16950374841690063
1761503576446725000,0.19672509765625,0.0030201319605112076,0.13087354600429535,-0.06366283446550369
1761503576456781000,0.206781005859375,-0.09028318524360657,0.16054408252239227,-0.04839013144373894
1761503576466837200,0.216837158203125,-0.15647068619728088,0.17026033997535706,-0.15656542778015137
1761503576476893200,0.22689306640625,-0.19423484802246094,0.1361953169107437,-0.37255629897117615
1761503576486949000,0.23694921875,-0.21186557412147522,0.10057612508535385,-0.6289945840835571
1761503576497005300,0.24700537109375,-0.14602717757225037,0.15676748752593994,-0.8643125295639038
1761503576507061200,0.257061279296875,-0.04588451236486435,0.2391306608915329,-0.9294331073760986
1761503576517117000,0.267116943359375,0.01934588886797428,0.2808227241039276,-0.8159041404724121
1761503576527173000,0.277173095703125,0.03500382974743843,0.33395281434059143,-0.5528824329376221
1761503576537229000,0.28722900390625,-0.0032623340375721455,0.37204721570014954,-0.21922722458839417
1761503576547285000,0.297284912109375,-0.08133851736783981,0.3426336944103241,0.10599206387996674
1761503576557341200,0.307341064453125,-0.19349515438079834,0.24455559253692627,0.326747864484787
1761503576567397000,0.317397216796875,-0.3075994849205017,0.2237330675125122,0.331379234790802
1761503576577453000,0.327453125,-0.39489468932151794,0.14438924193382263,0.02976401336491108
1761503576587509200,0.33750927734375,-0.4007906913757324,0.025820158421993256,-0.34375718235969543
1761503576597566200,0.347566162109375,-0.2483883649110794,0.012339501641690731,-0.5055687427520752
1761503576607622100,0.3576220703125,-0.0783088430762291,0.10744781792163849,-0.30368414521217346
1761503576617678000,0.367677978515625,0.023319512605667114,0.11840246617794037,0.23737668991088867
1761503576627734300,0.377734375,0.035308610647916794,0.01017152052372694,0.9378132820129395
1761503576637790200,0.387790283203125,0.09487979114055634,0.043569691479206085,1.577742338180542
1761503576647846100,0.39784619140625,0.19562257826328278,0.19633358716964722,1.9414161443710327
1761503576657902300,0.40790234375,0.2439589500427246,0.2013629674911499,1.8722988367080688
1761503576667958000,0.4179580078125,0.33917781710624695,-0.03147440403699875,1.3788753747940063
1761503576678014000,0.428013916015625,0.48328065872192383,-0.28076305985450745,0.6743177175521851
1761503576688070100,0.438070068359375,0.52216637134552,-0.3677831292152405,-0.019814757630228996
1761503576698126000,0.4481259765625,0.41429853439331055,-0.2489262819290161,-0.468095600605011
1761503576708182000,0.45818212890625,0.23530912399291992,-0.011668375693261623,-0.5974136590957642
1761503576718238200,0.46823828125,0.08523494005203247,0.1904756724834442,-0.4976252615451813
1761503576728294100,0.478294189453125,0.008678851649165154,0.43015220761299133,-0.16101346909999847
1761503576738350000,0.48835009765625,-0.08363696187734604,0.6216805577278137,0.24786511063575745
1761503576748406300,0.49840625,-0.1459106206893921,0.8714554309844971,0.5690596103668213
1761503576758462200,0.508462158203125,-0.20149345695972443,1.0943889617919922,0.6649336814880371
1761503576768518100,0.51851806640625,-0.33233341574668884,1.2097023725509644,0.5445252060890198
1761503576778574300,0.52857421875,-0.22033283114433289,1.2108514308929443,0.13923175632953644
1761503576788630300,0.53863037109375,-0.0528019480407238,1.1466240882873535,-0.5415669679641724
1761503576798686000,0.54868603515625,0.03193504363298416,0.8737021088600159,-1.1869137287139893
1761503576808742100,0.5587421875,0.028415700420737267,0.6526884436607361,-1.6805604696273804
1761503576818798000,0.568798095703125,-0.0720168948173523,0.39914780855178833,-2.0192768573760986
1761503576828854000,0.57885400390625,-0.19789749383926392,0.16296763718128204,-2.1192924976348877
1761503576838910200,0.58891015625,-0.23116330802440643,-0.06570389866828918,-2.076993227005005
1761503576848966100,0.598966064453125,-0.11269161850214005,-0.23051171004772186,-1.9024049043655396
1761503576859023000,0.609023193359375,0.05758823826909065,-0.3233657479286194,-1.554348111152649
1761503576869079000,0.6190791015625,0.1952294409275055,-0.22728779911994934,-1.0935018062591553
1761503576879135200,0.62913525390625,0.191270649433136,0.014238545671105385,-0.7135807871818542
1761503576889191200,0.639191162109375,-0.025873400270938873,0.21410802006721497,-0.6209377646446228
1761503576899247000,0.6492470703125,-0.26558613777160645,0.3927408754825592,-0.9036855697631836
1761503576909303300,0.65930322265625,-0.4330703616142273,0.4160444736480713,-1.5056923627853394
1761503576919359200,0.669359130859375,-0.49531373381614685,0.3300808370113373,-2.2056143283843994
1761503576929415200,0.679415283203125,-0.5046643614768982,0.15955711901187897,-2.840270519256592
1761503576939471400,0.689471435546875,-0.3731226325035095,0.16992799937725067,-3.2443156242370605
1761503576949527000,0.699527099609375,-0.13686494529247284,0.20424841344356537,-3.3413264751434326
1761503576959583000,0.7095830078125,0.24480970203876495,0.2477540671825409,-3.0736587047576904
1761503576969639200,0.71963916015625,0.6530952453613281,0.25138625502586365,-2.408277750015259
1761503576979695000,0.729695068359375,0.9306482672691345,0.21335574984550476,-1.5040562152862549
1761503576989751000,0.7397509765625,1.0750174522399902,0.0831766277551651,-0.6650086641311646
1761503576999807200,0.74980712890625,1.0540056228637695,-0.06079039350152016,-0.058872390538454056
1761503577009863200,0.75986328125,0.8229503631591797,-0.12872587144374847,0.32566308975219727
1761503577019919000,0.769919189453125,0.47013160586357117,-0.10414515435695648,0.5142796039581299
1761503577029975300,0.779975341796875,0.12651526927947998,0.07628092169761658,0.519516110420227
1761503577040031200,0.79003125,-0.11999624967575073,0.2666260898113251,0.5174921154975891
1761503577050087200,0.800087158203125,-0.3015478253364563,0.3315666913986206,0.7387298941612244
1761503577060143400,0.810143310546875,-0.3138495087623596,0.34995236992836,1.2104750871658325
1761503577070199000,0.820198974609375,-0.3478946387767792,0.39483246207237244,1.654158353805542
1761503577080255000,0.8302548828125,-0.3944062292575836,0.3557415008544922,2.0473883152008057
1761503577090312200,0.840312255859375,-0.40265971422195435,0.2321394681930542,2.34104585647583
1761503577100368400,0.850368408203125,-0.46478861570358276,-0.008239852264523506,2.2876458168029785
1761503577110424300,0.86042431640625,-0.5561085939407349,-0.21584998071193695,1.842110514640808
1761503577120480300,0.870480224609375,-0.5756397247314453,-0.07378499954938889,1.1812561750411987
1761503577130536200,0.8805361328125,-0.3940819799900055,0.27110469341278076,0.471039742231369
1761503577140592400,0.89059228515625,0.013438951224088669,0.3917216360569,-0.00858200155198574
1761503577150648300,0.9006484375,0.47051623463630676,0.3446250557899475,-0.040830329060554504
1761503577160704300,0.910704345703125,0.7650706768035889,0.49959596991539,0.18131352961063385
1761503577170760200,0.92076025390625,0.7509527802467346,0.5101611614227295,0.5091553926467896
1761503577180816100,0.930816162109375,0.4896809756755829,0.5144984126091003,0.7901481986045837
1761503577190872300,0.940872314453125,0.3406979739665985,0.6000442504882812,0.7752575278282166
1761503577200928300,0.95092822265625,0.430802583694458,0.5031147599220276,0.43710657954216003
1761503577210984200,0.960984130859375,0.7000741958618164,0.23341920971870422,0.11845708638429642
1761503577221040000,0.9710400390625,0.8310854434967041,0.017055749893188477,-0.11718712747097015
1761503577231096300,0.981096435546875,0.8147943019866943,-0.04111705347895622,-0.17525354027748108
1761503577241152300,0.99115234375,0.821533203125,0.1443159282207489,-0.024086400866508484
1761503577251208200,1.001208251953125,0.759878396987915,0.39332661032676697,0.2275095283985138
1761503577261264400,1.011264404296875,0.5648444294929504,0.5857349038124084,0.5278182625770569
1761503577271320300,1.0213203125,0.36955490708351135,0.7863000631332397,0.8805677890777588
1761503577281376300,1.031376220703125,0.1293489634990692,0.9490692615509033,1.192575454711914
1761503577291432200,1.04143212890625,-0.08286888897418976,0.8337063193321228,1.448259711265564
1761503577301488000,1.051488037109375,-0.10327562689781189,0.3991982936859131,1.6601592302322388
1761503577311544000,1.0615439453125,0.13472478091716766,0.049031708389520645,1.6693476438522339
1761503577321600300,1.071600341796875,0.36134111881256104,0.012098192237317562,1.469606637954712
1761503577331656200,1.08165625,0.359235018491745,0.20970600843429565,1.1744731664657593
1761503577341712100,1.091712158203125,0.07889576256275177,0.501899003982544,0.9453643560409546
1761503577351769000,1.10176904296875,-0.14657224714756012,0.5591380596160889,0.690330445766449
1761503577361825300,1.1118251953125,-0.0062811835668981075,0.247841939330101,0.6108880639076233
1761503577371881200,1.121881103515625,0.30258697271347046,-0.08651606738567352,0.7590680122375488
1761503577381937200,1.131937255859375,0.5002856850624084,-0.40901821851730347,0.980222761631012
1761503577391993300,1.141993408203125,0.46875396370887756,-0.5770403146743774,1.0814223289489746
1761503577402049300,1.15204931640625,0.23709836602210999,-0.5914546251296997,0.9002462029457092
1761503577412105200,1.162105224609375,-0.023869289085268974,-0.4350985288619995,0.41154512763023376
1761503577422161400,1.172161376953125,-0.2511788606643677,-0.15097784996032715,-0.19515599310398102
1761503577432217300,1.18221728515625,-0.43666478991508484,0.14253772795200348,-0.6536672711372375
1761503577442273000,1.19227294921875,-0.5544726252555847,0.2415178418159485,-0.8063638806343079
1761503577452329200,1.2023291015625,-0.5435720086097717,0.25688061118125916,-0.6670845746994019
1761503577462385200,1.21238525390625,-0.424377977848053,0.26421603560447693,-0.33729466795921326
1761503577472441000,1.222441162109375,-0.26115986704826355,0.23222093284130096,0.07056981325149536
1761503577482497300,1.232497314453125,-0.13600006699562073,0.2261585146188736,0.29959073662757874
1761503577492553200,1.24255322265625,-0.021978730335831642,0.3225550353527069,0.2026832103729248
1761503577502609200,1.252609130859375,0.07941500097513199,0.4553961753845215,-0.07900546491146088
1761503577512665300,1.262665283203125,0.0655328705906868,0.45833906531333923,-0.3825865685939789
1761503577522721300,1.27272119140625,-0.0302429236471653,0.3456367552280426,-0.5398989319801331
1761503577532777200,1.282777099609375,-0.14302097260951996,0.2348247915506363,-0.4909057915210724
1761503577542833400,1.29283349609375,-0.17563112080097198,0.14684726297855377,-0.2657083570957184
1761503577552889300,1.302889404296875,-0.1085689440369606,0.031180832535028458,0.08083085715770721
1761503577562945300,1.3129453125,-0.019126679748296738,-0.1014842689037323,0.35293880105018616
1761503577573001200,1.323001220703125,0.0830664411187172,-0.08401850610971451,0.38072603940963745
1761503577583058400,1.333058349609375,0.16620154678821564,0.04961705952882767,0.09720272570848465
1761503577593114000,1.343114013671875,0.18415485322475433,0.15603908896446228,-0.4111378490924835
1761503577603170000,1.353170166015625,0.15778875350952148,0.20555657148361206,-0.9135679602622986
1761503577613226200,1.363226318359375,0.02141084149479866,0.25448253750801086,-1.1944624185562134
1761503577623282200,1.3732822265625,-0.1604958474636078,0.31152454018592834,-1.0791864395141602
1761503577633338000,1.383338134765625,-0.2325744479894638,0.5144522190093994,-0.5913572907447815
1761503577643394300,1.393394287109375,-0.17616549134254456,0.49008750915527344,0.11612716317176819
1761503577653450200,1.4034501953125,0.0077869705855846405,0.27544739842414856,0.7059512734413147
1761503577663506200,1.413506103515625,0.13195925951004028,0.09223176538944244,0.8718624711036682
1761503577673562400,1.423562255859375,0.1418217420578003,-0.007062846794724464,0.36072129011154175
1761503577683618300,1.433618408203125,0.07341739535331726,-0.07332469522953033,-0.9496312141418457
1761503577693674200,1.44367431640625,0.21117040514945984,-0.15690204501152039,-2.4144999980926514
1761503577703730400,1.45373046875,0.6192598938941956,-0.384182333946228,-2.885784149169922
1761503577713786400,1.463786376953125,0.7256209850311279,-0.5208008885383606,-2.26202392578125
1761503577723842000,1.473842041015625,0.5010395050048828,-0.1545371562242508,-0.912752091884613
1761503577733898200,1.483898193359375,0.29670655727386475,-0.1317533552646637,0.5200274586677551
1761503577743954200,1.4939541015625,0.2961784601211548,-0.3389941453933716,1.5152169466018677
1761503577754010000,1.504010009765625,0.3676282465457916,-0.5470083951950073,1.5511054992675781
1761503577764066300,1.51406640625,0.3332281708717346,-0.4942370355129242,0.8579900860786438
1761503577774122200,1.524122314453125,0.17279018461704254,-0.15280494093894958,-0.0397716760635376
1761503577784178200,1.53417822265625,0.08347149938344955,0.4227345287799835,-0.905196487903595
1761503577794234400,1.544234375,0.0605839379131794,0.8162820339202881,-1.1602509021759033
1761503577804290300,1.554290283203125,-0.013648215681314468,0.9927039742469788,-0.6561567187309265
1761503577814346200,1.56434619140625,-0.021178461611270905,0.967572033405304,0.23387035727500916
1761503577824403200,1.5744033203125,-0.040918610990047455,0.7455371022224426,0.9127354025840759
1761503577834459400,1.58445947265625,0.0322582833468914,0.42199793457984924,1.2289412021636963
1761503577844515300,1.594515380859375,0.1820024996995926,-0.06159775331616402,1.3795493841171265
1761503577854571300,1.6045712890625,0.24125084280967712,-0.5964977741241455,1.3892631530761719
1761503577864627500,1.61462744140625,0.18953464925289154,-1.0572738647460938,1.2009875774383545
1761503577874683100,1.62468310546875,0.11270609498023987,-1.0837948322296143,0.8908936977386475
1761503577884739000,1.634739013671875,0.011738470755517483,-0.7396116256713867,0.5644295811653137
1761503577894795300,1.644795166015625,-0.03190455585718155,-0.37210550904273987,0.3877459466457367
1761503577904851200,1.654851318359375,-0.08765224367380142,-0.17202621698379517,0.2779020071029663
1761503577914907100,1.6649072265625,-0.13361519575119019,-0.18817411363124847,0.1212511658668518
1761503577924963300,1.67496337890625,-0.12337294220924377,-0.23989349603652954,-0.030571389943361282
1761503577935019300,1.685019287109375,-0.15957127511501312,-0.3125167191028595,-0.19429798424243927
1761503577945075200,1.6950751953125,-0.24372155964374542,-0.3440823554992676,-0.3721660077571869
1761503577955131400,1.70513134765625,-0.2894435226917267,-0.2781587541103363,-0.5428968071937561
1761503577965187300,1.715187255859375,-0.28412145376205444,-0.14130982756614685,-0.6566329598426819
1761503577975243300,1.7252431640625,-0.29343855381011963,0.02426869608461857,-0.5750346779823303
1761503577985299500,1.735299560546875,-0.2932177782058716,0.11978589743375778,-0.3034694790840149
1761503577995355400,1.74535546875,-0.26993295550346375,0.20644237101078033,0.0027290224097669125
1761503578005411000,1.7554111328125,-0.23483967781066895,0.2495083510875702,0.2557191848754883
1761503578015467300,1.76546728515625,-0.18146763741970062,0.27368199825286865,0.39852285385131836
1761503578025523200,1.775523193359375,-0.1596723347902298,0.3096652925014496,0.3798908591270447
1761503578035579100,1.7855791015625,-0.1954134851694107,0.29542118310928345,0.2062952071428299
1761503578045635300,1.79563525390625,-0.2569018602371216,0.2810036540031433,-0.0446251705288887
1761503578055692300,1.8056923828125,-0.32943955063819885,0.26362815499305725,-0.2733709514141083
1761503578065748200,1.815748291015625,-0.3743540346622467,0.15346649289131165,-0.4151930809020996
1761503578075804200,1.82580419921875,-0.40605995059013367,-0.022936377674341202,-0.43466275930404663
1761503578085860400,1.8358603515625,-0.43171605467796326,-0.2321537733078003,-0.3861841857433319
1761503578095916000,1.845916015625,-0.40362685918807983,-0.3736136257648468,-0.3670760691165924
1761503578105971700,1.8559716796875,-0.3893962502479553,-0.4069151282310486,-0.3930469751358032
1761503578116028000,1.86602783203125,-0.38091135025024414,-0.31978559494018555,-0.44497328996658325
1761503578126083800,1.876083740234375,-0.30022501945495605,-0.16163270175457,-0.5598201751708984
1761503578136139800,1.886139892578125,-0.1825958490371704,-0.010297045111656189,-0.6658839583396912
1761503578146196000,1.896196044921875,-0.10129246860742569,0.0743320882320404,-0.7427555322647095
1761503578156252000,1.906251953125,-0.034564174711704254,0.14878715574741364,-0.6945114731788635
1761503578166307800,1.916307861328125,-0.029559828341007233,0.28551945090293884,-0.43139222264289856
1761503578176364000,1.926364013671875,-0.12382601946592331,0.44063854217529297,0.1813890039920807
1761503578186420000,1.936419921875,-0.4225991368293762,0.43928831815719604,0.8413823246955872
1761503578196476000,1.946475830078125,-0.6529165506362915,0.12208719551563263,1.087751865386963
1761503578206532000,1.956531982421875,-0.6615327000617981,-0.31501317024230957,0.8102198839187622
1761503578216588000,1.966588134765625,-0.5271917581558228,-0.690483570098877,0.1561567187309265
1761503578226644000,1.97664404296875,-0.12702275812625885,-0.49899327754974365,-0.625727117061615
1761503578236700000,1.986699951171875,0.686360776424408,0.3228554427623749,-0.768614649772644
1761503578246755800,1.996755859375,1.3169995546340942,0.5656262636184692,-0.610140860080719
1761503578256811800,2.006811767578125,1.2421820163726807,0.4937603175640106,-0.4284657835960388
1761503578266868000,2.016867919921875,0.8943622708320618,0.15618467330932617,0.318010538816452
1761503578276924000,2.026923828125,0.6844562292098999,-0.03089718520641327,1.0236926078796387
1761503578286980900,2.03698095703125,0.4813033640384674,-0.025294959545135498,1.6312875747680664
1761503578297036800,2.047036865234375,0.08880480378866196,-0.09590491652488708,1.8522891998291016
1761503578307093000,2.057093017578125,-0.12510162591934204,-0.16275478899478912,1.5319511890411377
1761503578317149000,2.06714892578125,-0.056856296956539154,-0.18622946739196777,1.0372483730316162
1761503578327204900,2.077204833984375,0.2724262475967407,-0.2237565964460373,0.4008643925189972
1761503578337261000,2.087260986328125,0.8135973215103149,-0.12962457537651062,0.0703434869647026
1761503578347317000,2.09731689453125,1.2014752626419067,0.06773217022418976,0.20236730575561523
1761503578357373000,2.107373046875,1.2896283864974976,0.335539311170578,0.6563253402709961
1761503578367429000,2.11742919921875,1.1713966131210327,0.618974506855011,1.1811364889144897
1761503578377485000,2.127485107421875,0.7907519936561584,0.7038672566413879,1.5848723649978638
1761503578387540700,2.137540771484375,0.298101544380188,0.5037301778793335,1.7463994026184082
1761503578397597000,2.147596923828125,-0.17352622747421265,-0.19047389924526215,1.6232939958572388
1761503578407652900,2.15765283203125,-0.2976188659667969,-0.8945809006690979,1.2987217903137207
1761503578417708800,2.167708740234375,-0.03877778723835945,-1.0125738382339478,0.7486528158187866
1761503578427765000,2.177764892578125,0.39164018630981445,-1.1090617179870605,0.15138433873653412
1761503578437821000,2.187821044921875,0.8309875130653381,-0.9016605615615845,-0.21916592121124268
1761503578447876900,2.197876953125,0.9978105425834656,-0.5719103813171387,-0.3234257400035858
1761503578457933000,2.20793310546875,0.897116482257843,-0.1334688514471054,-0.21453218162059784
1761503578467989000,2.217989013671875,0.6418455243110657,0.25110864639282227,-0.048867594450712204
1761503578478045000,2.228044921875,0.23346437513828278,0.517665684223175,0.06358572095632553
1761503578488101000,2.23810107421875,-0.25971680879592896,0.5576986074447632,0.1735076904296875
1761503578498157000,2.248156982421875,-0.6666098237037659,0.36012354493141174,0.4144410789012909
1761503578508214000,2.258214111328125,-0.8765537142753601,0.09697315096855164,0.7138261795043945
1761503578518270000,2.26827001953125,-0.8959178924560547,-0.17802312970161438,0.8712289929389954
1761503578528326100,2.278326171875,-0.6391175389289856,-0.37228235602378845,0.6825022101402283
1761503578538381800,2.2883818359375,-0.27610844373703003,-0.49288830161094666,0.4382772743701935
1761503578548437800,2.298437744140625,0.0422586165368557,-0.40540772676467896,0.3625348210334778
1761503578558494000,2.308493896484375,0.30049586296081543,-0.31984013319015503,0.35281530022621155
1761503578568550000,2.3185498046875,0.4322128891944885,-0.11607822775840759,0.32278335094451904
1761503578578605800,2.328605712890625,0.42157456278800964,0.17344246804714203,0.19319289922714233
1761503578588662000,2.338662109375,0.2385520040988922,0.3352726697921753,0.03643310070037842
1761503578598718000,2.348718017578125,0.02192671038210392,0.24328157305717468,-0.10141953080892563
1761503578608774000,2.35877392578125,-0.11833159625530243,0.07706783711910248,-0.34645482897758484
1761503578618830000,2.368830078125,-0.11645826697349548,-0.03460153192281723,-0.6042733192443848
1761503578628886000,2.378885986328125,-0.0747547596693039,-0.061340466141700745,-0.8172438740730286
1761503578638942000,2.38894189453125,-0.021079171448946,-0.003238758072257042,-0.9635829329490662
1761503578648998100,2.398998046875,-0.022749239578843117,0.11716567724943161,-1.0042558908462524
1761503578659054000,2.40905419921875,-0.1177520751953125,0.29326939582824707,-1.0823521614074707
1761503578669109800,2.41910986328125,-0.24713775515556335,0.4393533766269684,-1.3335154056549072
1761503578679166000,2.429166015625,-0.2928846776485443,0.47258567810058594,-1.7570430040359497
1761503578689222000,2.439221923828125,-0.23957459628582,0.35534748435020447,-2.219738245010376
1761503578699277800,2.44927783203125,-0.13497531414031982,0.2886278033256531,-2.381516695022583
1761503578709334000,2.459333984375,-0.015578094869852066,0.2743668258190155,-2.101393699645996
1761503578719390000,2.469389892578125,0.023920144885778427,0.2731979191303253,-1.5172145366668701
1761503578729447000,2.479447021484375,-0.05351312831044197,0.3377454876899719,-0.8365403413772583
1761503578739502800,2.4895029296875,-0.13260911405086517,0.2966040372848511,-0.21342432498931885
1761503578749559000,2.49955908203125,-0.1948104351758957,0.19026561081409454,0.23248738050460815
1761503578759615000,2.509614990234375,-0.19946616888046265,0.1810799241065979,0.3131062984466553
1761503578769671000,2.5196708984375,-0.15817707777023315,0.061667777597904205,0.05126908794045448
1761503578779727000,2.52972705078125,-0.19901685416698456,0.285977840423584,-0.37891581654548645
1761503578789783000,2.539782958984375,0.07103247940540314,0.49014320969581604,-0.600290834903717
1761503578799839000,2.5498388671875,0.5506157875061035,0.6250827312469482,-0.21239738166332245
1761503578809895000,2.55989501953125,0.770547091960907,0.5031797289848328,-0.11097513884305954
1761503578819950800,2.569950927734375,0.6599867939949036,0.24875910580158234,0.03204239532351494
1761503578830006800,2.5800068359375,0.4071739614009857,0.22793184220790863,0.36519959568977356
1761503578840063000,2.59006298828125,0.16428865492343903,0.2538839876651764,0.74924236536026
1761503578850119000,2.600118896484375,-0.14806631207466125,0.10771666467189789,0.9478768706321716
1761503578860174800,2.6101748046875,-0.44878503680229187,0.07606042921543121,0.7148526906967163
1761503578870231000,2.62023095703125,-0.5926389098167419,0.35555413365364075,0.06335346400737762
1761503578880287000,2.630286865234375,-0.5394148230552673,0.6378447413444519,-0.5735081434249878
1761503578890343000,2.640343017578125,-0.2456873059272766,0.6014266014099121,-0.5590935349464417
1761503578900398800,2.65039892578125,0.18675075471401215,0.5656481981277466,0.0439474917948246
1761503578910455000,2.660455078125,0.48059114813804626,0.3728334605693817,0.8519247174263
1761503578920511000,2.670510986328125,0.6243301033973694,-0.011639600619673729,1.297683596611023
1761503578930567000,2.68056689453125,0.7220931649208069,-0.5219824910163879,1.250996470451355
1761503578940622800,2.690622802734375,0.6169472336769104,-0.9749127626419067,1.0706535577774048
1761503578950678800,2.7006787109375,0.35730209946632385,-1.1900684833526611,0.9820481538772583
1761503578960736000,2.710736083984375,0.11096055060625076,-1.0835506916046143,1.052032470703125
1761503578970792000,2.7207919921875,-0.05670780688524246,-0.7654672861099243,1.1891424655914307
1761503578980847900,2.730847900390625,-0.20089703798294067,-0.42663994431495667,1.3599071502685547
1761503578990903800,2.74090380859375,-0.28893953561782837,-0.16262215375900269,1.5583770275115967
1761503579000960000,2.7509599609375,-0.2867494821548462,-0.014134015887975693,1.5859122276306152
1761503579011016000,2.761015869140625,-0.22704458236694336,0.0610683299601078,1.3472861051559448
1761503579021072000,2.77107177734375,-0.1540478616952896,0.03539315238595009,1.0605031251907349
1761503579031127800,2.7811279296875,-0.045636966824531555,-0.09159782528877258,0.922848641872406
1761503579041184000,2.79118408203125,0.1276874989271164,-0.2877560257911682,0.821718156337738
1761503579051240000,2.801239990234375,0.2791518568992615,-0.3148616552352905,0.619239330291748
1761503579061295900,2.8112958984375,0.29164475202560425,-0.1289670616388321,0.376799613237381
1761503579071352000,2.82135205078125,0.26038244366645813,0.10700338333845139,0.13072006404399872
1761503579081408000,2.831407958984375,0.17327144742012024,0.21809537708759308,0.07394833117723465
1761503579091463700,2.841463623046875,0.04291929677128792,0.264966756105423,0.17917221784591675
1761503579101524000,2.85152392578125,-0.028666187077760696,0.26726531982421875,0.29332366585731506
1761503579111580000,2.861579833984375,-0.07617538422346115,0.10370995849370956,0.2717331349849701
1761503579121635800,2.8716357421875,-0.09916501492261887,-0.1456536501646042,0.11248090118169785
1761503579131691800,2.88169189453125,-0.1613924354314804,-0.435619980096817,-0.016608376055955887
1761503579141747700,2.891747802734375,-0.08834892511367798,-0.5423904061317444,-0.11112512648105621
1761503579151803600,2.9018037109375,0.12835781276226044,-0.5614394545555115,-0.38720864057540894
1761503579161860600,2.911860595703125,0.284297913312912,-0.45026931166648865,-0.7815328240394592
1761503579171916800,2.921916748046875,0.33572304248809814,-0.17234715819358826,-1.14363694190979
1761503579181972700,2.93197265625,0.28379490971565247,-0.09855835139751434,-1.284997582435608
1761503579192028700,2.942028564453125,0.20605191588401794,0.022874336689710617,-1.1239306926727295
1761503579202084900,2.9520849609375,0.0898066982626915,0.09203338623046875,-0.8001173734664917
1761503579212140800,2.962140869140625,-0.0014646253548562527,0.17080995440483093,-0.36642107367515564
1761503579222196700,2.97219677734375,-0.11333879828453064,0.2509928047657013,0.06364244222640991
1761503579232253000,2.9822529296875,-0.29274770617485046,0.4807237386703491,0.322687566280365
1761503579242308900,2.992308837890625,-0.5109695792198181,0.6081534624099731,0.3636442720890045
1761503579252364800,3.00236474609375,-0.6882074475288391,0.5100671648979187,0.12753906846046448
1761503579262421000,3.0124208984375,-0.7733875513076782,0.2780027985572815,-0.29311659932136536
1761503579272477000,3.022476806640625,-0.6905286312103271,0.16822701692581177,-0.712104856967926
1761503579282532600,3.03253271484375,-0.3238280713558197,0.2825573980808258,-1.0855005979537964
1761503579292588800,3.0425888671875,0.09753701090812683,0.33865633606910706,-1.1489967107772827
1761503579302644700,3.052644775390625,0.0760495588183403,0.22710557281970978,-0.8749915361404419
1761503579312700700,3.06270068359375,-0.1323356032371521,0.2186630815267563,-0.4165470600128174
1761503579322756900,3.0727568359375,-0.23313042521476746,0.5459028482437134,-0.19968846440315247
1761503579332812800,3.082812744140625,-0.16044025123119354,0.9285389184951782,-0.3653416037559509
1761503579342868700,3.09286865234375,0.055161409080028534,1.0885989665985107,-0.6842086911201477
1761503579352925000,3.102925048828125,0.32678359746932983,1.0165002346038818,-0.7349107265472412
1761503579362980900,3.11298095703125,0.33957022428512573,0.466671884059906,-0.764505922794342
1761503579373036800,3.123036865234375,0.07580597698688507,-0.012279011309146881,-0.7086114883422852
1761503579383093800,3.13309375,-0.19327695667743683,-0.4668632745742798,-0.5656149387359619
1761503579393150000,3.14314990234375,-0.40166690945625305,-0.3704022765159607,-0.00993119366466999
1761503579403206000,3.153205810546875,-0.621628999710083,0.13328681886196136,0.49710822105407715
1761503579413261800,3.16326171875,-0.6806393265724182,0.7359167337417603,0.8312300443649292
1761503579423318000,3.173318115234375,-0.4980781376361847,0.8425500392913818,0.9366117715835571
1761503579433373700,3.183373779296875,-0.2282429039478302,0.3328689932823181,0.7641811370849609
1761503579443429600,3.1934296875,0.005381828639656305,-0.3832724094390869,0.66100013256073
1761503579453485800,3.20348583984375,0.11889027804136276,-1.0014517307281494,0.7385289669036865
1761503579463541800,3.213541748046875,0.024352852255105972,-1.2166829109191895,0.9859011769294739
1761503579473597700,3.22359765625,-0.22989380359649658,-0.9200689196586609,1.301279902458191
1761503579483654000,3.23365380859375,-0.5193986892700195,-0.4410041868686676,1.5210931301116943
1761503579493709800,3.243709716796875,-0.6117813587188721,-0.15656714141368866,1.6799874305725098
1761503579503765800,3.253765869140625,-0.5492827296257019,0.09484679251909256,1.8553824424743652
1761503579513822000,3.263822021484375,-0.38755297660827637,0.1990453600883484,1.980829119682312
1761503579523878000,3.2738779296875,-0.1561702936887741,0.30821770429611206,1.9533826112747192
1761503579533933800,3.283933837890625,0.01912803202867508,0.43257907032966614,1.8628138303756714
1761503579543990000,3.293989990234375,0.2535039782524109,0.4714227318763733,1.632178544998169
1761503579554046000,3.3040458984375,0.395901083946228,0.41008853912353516,1.2462130784988403
1761503579564101600,3.3141015625,0.42575961351394653,0.34700989723205566,0.8658214807510376
1761503579574157800,3.32415771484375,0.3262322247028351,0.1108894795179367,0.30939391255378723
1761503579584213800,3.3342138671875,0.06021692976355553,-0.10221553593873978,-0.32015275955200195
1761503579594270700,3.344270751953125,-0.23419338464736938,-0.17975986003875732,-0.7212146520614624
1761503579604326700,3.35432666015625,-0.5304349660873413,-0.3894539773464203,-0.5846309065818787
1761503579614382800,3.3643828125,-0.5817141532897949,-0.5556224584579468,-0.019977334886789322
1761503579624438800,3.374438720703125,-0.3862583637237549,-0.4406278431415558,0.49241989850997925
1761503579634494700,3.38449462890625,-0.1705830842256546,-0.21465331315994263,0.7417375445365906
1761503579644551000,3.394551025390625,-0.03273763507604599,-0.05573207512497902,0.6505070328712463
1761503579654606800,3.40460693359375,0.07399680465459824,-0.06554662436246872,0.3036963641643524
1761503579664662800,3.414662841796875,0.16469746828079224,-0.2144574671983719,-0.1472764015197754
1761503579674719000,3.424718994140625,0.2005864977836609,-0.522773802280426,-0.562651515007019
1761503579684775000,3.43477490234375,0.2102780044078827,-0.9187539219856262,-0.8278812170028687
1761503579694830800,3.444830810546875,0.2437925487756729,-1.280371069908142,-0.9329051375389099
1761503579704887000,3.454886962890625,0.2273842692375183,-1.64946711063385,-0.9491840600967407
1761503579714942700,3.464942626953125,0.13612785935401917,-1.8907939195632935,-0.9781318306922913
1761503579724998700,3.47499853515625,0.060165759176015854,-1.7521458864212036,-1.0506048202514648
1761503579735054800,3.485054931640625,0.02047613635659218,-1.3064134120941162,-1.1151105165481567
1761503579745110800,3.49511083984375,0.0376812219619751,-0.7050896286964417,-1.0624159574508667
1761503579755166700,3.505166748046875,0.01777222752571106,-0.20242521166801453,-0.8463874459266663
1761503579765223000,3.515222900390625,-0.042800650000572205,0.10273844003677368,-0.5400624871253967
1761503579775278800,3.52527880859375,-0.16560618579387665,0.19234369695186615,-0.3480512797832489
1761503579785334800,3.535334716796875,-0.2717571258544922,0.024729479104280472,-0.39041075110435486
1761503579795391700,3.545391845703125,-0.3121761977672577,-0.1341584324836731,-0.5848569273948669
1761503579805448000,3.555447998046875,-0.25431615114212036,-0.12874528765678406,-0.7853698134422302
1761503579815504000,3.56550390625,-0.12883971631526947,0.009453069418668747,-0.8067890405654907
1761503579825559800,3.575559814453125,-0.0022652987390756607,0.1763838529586792,-0.4560184180736542
1761503579835616000,3.585615966796875,0.0195758193731308,0.2855532169342041,0.10968360304832458
1761503579845672000,3.595671875,-0.022110700607299805,0.29897263646125793,0.5436393022537231
1761503579855727900,3.605727783203125,0.0038585818838328123,0.34086495637893677,0.6738281846046448
1761503579865783800,3.61578369140625,0.1636001467704773,0.41364219784736633,0.4065264165401459
1761503579875839700,3.62583984375,0.44740840792655945,0.4678114056587219,-0.109548419713974
1761503579885895700,3.635895751953125,0.6477170586585999,0.3423377573490143,-0.6239776015281677
1761503579895952000,3.645951904296875,0.6098157167434692,0.3190484046936035,-0.6092543005943298
1761503579906007800,3.6560078125,0.30556538701057434,0.12654225528240204,-0.3889906108379364
1761503579916063700,3.666063720703125,-0.15995942056179047,-0.2377033531665802,-0.11935592442750931
1761503579926119700,3.67611962890625,-0.7239295840263367,0.05832274258136749,0.2347714602947235
1761503579936175900,3.68617578125,-0.8199809789657593,0.5639193058013916,0.5535966157913208
1761503579946231800,3.696231689453125,-0.4297563433647156,0.7934606671333313,0.9615811109542847
1761503579956287700,3.706287841796875,0.058115310966968536,0.8052438497543335,1.0771307945251465
1761503579966344000,3.716343994140625,0.16699476540088654,1.0893771648406982,1.3104029893875122
1761503579976400000,3.72639990234375,0.3271665871143341,-0.4650382995605469,0.6511147618293762
1761503579986455600,3.73645556640625,0.3414435386657715,-1.2882864475250244,0.07146505266427994
1761503579996512800,3.7465126953125,0.20872783660888672,-1.933785080909729,0.03184440732002258
1761503580006569000,3.75656884765625,-0.05172068625688553,-1.6656341552734375,0.34103211760520935
1761503580016624600,3.766624755859375,-0.19500833749771118,-0.8933281302452087,0.8968377709388733
1761503580026680800,3.776680908203125,-0.182149738073349,-0.16310840845108032,1.8223371505737305
1761503580036736800,3.78673681640625,-0.18278436362743378,0.18641550838947296,2.771644353866577
1761503580046792700,3.796792724609375,-0.0871548056602478,0.3316611647605896,3.240281820297241
1761503580056848600,3.8068486328125,0.1227254569530487,0.4933589994907379,3.1058521270751953
1761503580066904800,3.81690478515625,0.285845547914505,0.6798200607299805,2.56327223777771
1761503580076960800,3.826960693359375,0.33842459321022034,0.6483716368675232,2.009012222290039
1761503580087016700,3.8370166015625,0.2312091886997223,0.5333238840103149,1.6721458435058594
1761503580097073400,3.847073486328125,0.04137639328837395,0.4592400789260864,1.3224881887435913
1761503580107129300,3.85712939453125,-0.08255987614393234,0.14071905612945557,0.8126143217086792
1761503580117185300,3.867185302734375,-0.3005691468715668,-0.1817748248577118,0.37657949328422546
1761503580127241500,3.877241455078125,-0.42755505442619324,-0.39382725954055786,-0.08479297161102295
1761503580137297400,3.88729736328125,-0.42100632190704346,-0.23587357997894287,-0.667657732963562
1761503580147353300,3.897353271484375,-0.41206908226013184,-0.13465259969234467,-1.188805103302002
1761503580157409500,3.907409423828125,-0.4467948377132416,-0.19410474598407745,-1.4033981561660767
1761503580167465500,3.917465576171875,-0.4625917971134186,-0.3315640091896057,-1.3194454908370972
1761503580177521400,3.927521484375,-0.4960182011127472,-0.4981921315193176,-1.0946426391601562
1761503580187578400,3.937578369140625,-0.48484089970588684,-0.6492627859115601,-0.9229204654693604
1761503580197634600,3.947634521484375,-0.4006136357784271,-0.6959786415100098,-0.8950507640838623
1761503580207690500,3.9576904296875,-0.22010575234889984,-0.6484564542770386,-0.9051035642623901
1761503580217746400,3.967746337890625,-0.03309698775410652,-0.5916852951049805,-0.8774245381355286
1761503580227802400,3.97780224609375,0.0774218961596489,-0.524271547794342,-0.8761447072029114
1761503580237858300,3.9878583984375,0.051408134400844574,-0.4425000250339508,-0.836726188659668
1761503580247914200,3.997914306640625,-0.10741265118122101,-0.27540990710258484,-0.7820359468460083
1761503580257970400,4.007970458984375,-0.2907502353191376,-0.08619924634695053,-0.7653102278709412
1761503580268026400,4.0180263671875,-0.3697265684604645,0.08332568407058716,-0.6780555844306946
1761503580278082300,4.028082275390625,-0.3383401334285736,0.1997462958097458,-0.5549291372299194
1761503580288138500,4.038138427734375,-0.2094476819038391,0.29099196195602417,-0.4269663393497467
1761503580298194400,4.0481943359375,-0.012590015307068825,0.33536288142204285,-0.32393157482147217
1761503580308250400,4.05825048828125,0.14739322662353516,0.29642972350120544,-0.35009706020355225
1761503580318306600,4.068306640625,0.18022972345352173,0.19458112120628357,-0.5598447322845459
1761503580328362500,4.078362548828125,0.12673991918563843,0.07845839858055115,-0.7833721041679382
1761503580338418400,4.08841845703125,0.05496852099895477,0.009632998146116734,-0.87529057264328
1761503580348474400,4.098474365234375,0.002889886498451233,-0.026872452348470688,-0.8781025409698486
1761503580358530300,4.1085302734375,-0.03233760967850685,0.057804081588983536,-0.6859240531921387
1761503580368587500,4.11858740234375,-0.08001352846622467,0.18930396437644958,-0.35261595249176025
1761503580378643200,4.128643310546875,-0.06021319329738617,0.29797184467315674,-0.06011322885751724
1761503580388699400,4.138699462890625,-0.0005289050750434399,0.25714510679244995,0.05872807651758194
1761503580398755300,4.14875537109375,0.07782687991857529,0.07091318815946579,-0.09314747154712677
1761503580408811300,4.158811279296875,0.10711817443370819,-0.22436852753162384,-0.4952004551887512
1761503580418867500,4.168867431640625,0.020454654470086098,-0.4758641719818115,-1.062121868133545
1761503580428923400,4.17892333984375,0.021449364721775055,-0.548448383808136,-1.4502184391021729
1761503580438979300,4.188979248046875,0.1936751902103424,-0.5809581279754639,-1.4849350452423096
1761503580449035500,4.199035400390625,0.4627247154712677,-0.5296629071235657,-1.0943882465362549
1761503580459091500,4.209091552734375,0.28572383522987366,-0.14286114275455475,-0.9256658554077148
1761503580469147400,4.2191474609375,-0.45913222432136536,0.2833521366119385,-0.9625239372253418
1761503580479203600,4.22920361328125,-0.9319559931755066,0.6805739998817444,-0.46101000905036926
1761503580489259500,4.239259521484375,-0.6932578682899475,0.9559465646743774,0.1857687532901764
1761503580499315500,4.2493154296875,-0.10158230364322662,0.848084032535553,0.5839488506317139
1761503580509371400,4.259371337890625,0.6554721593856812,0.2976956069469452,0.647656261920929
1761503580519427300,4.26942724609375,1.3062256574630737,-0.6010075211524963,0.5329688191413879
1761503580529483300,4.279483154296875,1.5166754722595215,-1.2292953729629517,0.44322457909584045
1761503580539539500,4.28953955078125,1.3716849088668823,-1.4050679206848145,0.4973168671131134
1761503580549596400,4.299596435546875,0.8744944334030151,-1.1416072845458984,0.8658013343811035
1761503580559652400,4.30965234375,0.31903278827667236,-0.5744346380233765,1.1539727449417114
1761503580569708300,4.319708251953125,-0.036912236362695694,-0.07218184322118759,1.174069881439209
1761503580579764500,4.329764404296875,-0.16577966511249542,0.3396243453025818,1.2154200077056885
1761503580589820400,4.3398203125,-0.09665996581315994,0.5368310809135437,1.2859032154083252
1761503580599876400,4.34987646484375,0.06796946376562119,0.4985390603542328,1.3196775913238525
1761503580609932500,4.3599326171875,0.215546652674675,0.09569824486970901,1.4003816843032837
1761503580619988500,4.369988525390625,0.3704763352870941,-0.4404112696647644,1.49441659450531
1761503580630044400,4.38004443359375,0.43379753828048706,-0.7037156224250793,1.4545003175735474
1761503580640100400,4.390100341796875,0.34638911485671997,-0.39559799432754517,1.407457947731018
1761503580650156500,4.400156494140625,0.2798786759376526,0.15027958154678345,1.4363844394683838
1761503580660212200,4.410212158203125,0.23131805658340454,0.5849245190620422,1.4302325248718262
1761503580670268400,4.420268310546875,0.05220157653093338,0.8258716464042664,1.2809221744537354
1761503580680324400,4.430324462890625,-0.13332301378250122,0.864906370639801,1.1728804111480713
1761503580690380300,4.44038037109375,-0.2369823157787323,0.6839602589607239,1.18674635887146
1761503580700436500,4.4504365234375,-0.33642181754112244,0.09493029862642288,0.9727362990379333
1761503580710492400,4.460492431640625,-0.32210975885391235,-0.33299100399017334,0.5393176078796387
1761503580720548400,4.47054833984375,-0.17656028270721436,-0.4728010892868042,0.08394446969032288
1761503580730605300,4.480605224609375,0.05999524146318436,-0.28267672657966614,-0.27776777744293213
1761503580740661500,4.49066162109375,0.28325867652893066,0.1934826374053955,-0.5686566233634949
1761503580750717400,4.500717529296875,0.38805627822875977,0.5260869264602661,-0.7272430062294006
1761503580760773400,4.5107734375,0.37272951006889343,0.49306851625442505,-0.8232166767120361
1761503580770829300,4.520829345703125,0.3215656876564026,0.08562176674604416,-0.9190887808799744
1761503580780885500,4.530885498046875,0.2153548151254654,-0.39670148491859436,-1.0817952156066895
1761503580790941400,4.54094140625,0.012516714632511139,-0.7023866772651672,-1.2579152584075928
1761503580800997400,4.550997314453125,-0.2087341845035553,-0.6738573312759399,-1.3645950555801392
1761503580811053300,4.56105322265625,-0.4363950192928314,-0.30957281589508057,-1.2382484674453735
1761503580821109200,4.571109130859375,-0.6579558849334717,0.15281589329242706,-0.9528380036354065
1761503580831165400,4.58116552734375,-0.7028527855873108,0.3363155722618103,-0.6740396618843079
1761503580841221400,4.591221435546875,-0.5525224208831787,0.269458532333374,-0.6048457026481628
1761503580851277300,4.60127734375,-0.32004791498184204,0.04162926599383354,-0.8355604410171509
1761503580861333200,4.611333251953125,-0.1307123303413391,-0.17733371257781982,-1.1709059476852417
1761503580871389400,4.621389404296875,-0.10785983502864838,-0.2117835134267807,-1.3521720170974731
1761503580881445400,4.6314453125,-0.2625569999217987,0.02626260742545128,-1.3725004196166992
1761503580891502300,4.64150244140625,-0.4429652988910675,0.33154797554016113,-1.2480542659759521
1761503580901558300,4.651558349609375,-0.4719058871269226,0.5774775743484497,-1.0644471645355225
1761503580911614500,4.661614501953125,-0.33973708748817444,0.6658740043640137,-0.9619995355606079
1761503580921670400,4.67167041015625,-0.11632101982831955,0.6026148796081543,-0.962446928024292
1761503580931726300,4.681726318359375,0.08307810127735138,0.28234341740608215,-0.9505159854888916
1761503580941782500,4.691782470703125,0.19303950667381287,-0.1554858684539795,-0.9151411652565002
1761503580951838500,4.70183837890625,0.11966753751039505,-0.4590643048286438,-0.9026269912719727
1761503580961894400,4.711894287109375,-0.1330515295267105,-0.5026839375495911,-1.0940814018249512
1761503580971950300,4.721950439453125,-0.3328181207180023,-0.16196776926517487,-1.4803178310394287
1761503580982006300,4.73200634765625,-0.25588443875312805,0.27730628848075867,-1.4332176446914673
1761503580992062200,4.742062255859375,0.05027430132031441,0.6752501726150513,-0.8457293510437012
1761503581002118400,4.752118408203125,0.2543800473213196,0.6299529671669006,-0.474093496799469
1761503581012174300,4.76217431640625,0.11140865087509155,0.4414122998714447,-0.3491227924823761
1761503581022230300,4.772230224609375,-0.09885457158088684,0.30702999234199524,-0.06916065514087677
1761503581032286500,4.782286376953125,-0.06800192594528198,0.16028547286987305,0.6541489958763123
1761503581042342400,4.79234228515625,0.18606072664260864,-0.03672453761100769,1.1282944679260254
1761503581052399400,4.8023994140625,0.3601113259792328,-0.10337215662002563,0.9032663106918335
1761503581062455300,4.812455322265625,0.4043877124786377,-0.045540280640125275,0.3028922975063324
1761503581072511500,4.822511474609375,0.41798970103263855,-0.08444512635469437,0.032921526581048965
1761503581082567400,4.8325673828125,0.3449873924255371,-0.11286637932062149,0.20457078516483307
1761503581092623400,4.842623291015625,0.19034551084041595,-0.21342189610004425,0.42334654927253723
1761503581102679000,4.852678955078125,0.12893566489219666,-0.3082202970981598,0.534745454788208
1761503581112735000,4.86273486328125,0.13991694152355194,-0.32378923892974854,0.6396239995956421
1761503581122791200,4.872791259765625,0.1629040241241455,-0.31452009081840515,0.8755654692649841
1761503581132847000,4.88284716796875,0.19624145328998566,-0.3426567614078522,1.2555691003799438
1761503581142903000,4.892903076171875,0.2068922370672226,-0.45132437348365784,1.6428179740905762
1761503581152959200,4.902959228515625,0.07702233642339706,-0.4777117669582367,1.9671937227249146
1761503581163015200,4.91301513671875,-0.11006925255060196,-0.3861919641494751,2.061134099960327
1761503581173071000,4.923071044921875,-0.2267945557832718,-0.40185388922691345,1.9798227548599243
1761503581183127000,4.933126953125,-0.24664495885372162,-0.44843336939811707,1.7522906064987183
1761503581193183000,4.943182861328125,-0.18104270100593567,-0.43034639954566956,1.5206325054168701
1761503581203239000,4.953239013671875,-0.07591655105352402,-0.4527406692504883,1.241660475730896
1761503581213295000,4.963295166015625,-0.039733294397592545,-0.4856143295764923,0.8483237028121948
1761503581223352000,4.97335205078125,0.0003984137438237667,-0.3774798512458801,0.578660786151886
1761503581233408000,4.983407958984375,0.00998365692794323,-0.30365189909935,0.4697057604789734
1761503581243464000,4.9934638671875,-0.06763017922639847,-0.19024331867694855,0.3143782317638397
1761503581253520100,5.00352001953125,-0.1841326206922531,0.07115811854600906,0.16404907405376434
1761503581263576000,5.013576171875,-0.3409635126590729,0.2574307918548584,0.0909423828125
1761503581273632000,5.023632080078125,-0.35207998752593994,0.4197025001049042,0.08164327591657639
1761503581283688200,5.033688232421875,-0.24809636175632477,0.5274580121040344,0.048539917916059494
1761503581293744000,5.043744140625,-0.10274825990200043,0.5362668633460999,-0.006800297647714615
1761503581303800000,5.053800048828125,0.03990742191672325,0.44056111574172974,-0.033639367669820786
1761503581313856000,5.06385595703125,0.16009818017482758,0.24253736436367035,-0.0443364754319191
1761503581323912200,5.073912109375,0.20804253220558167,-0.012678150087594986,-0.06899814307689667
1761503581333968100,5.083968017578125,0.17334936559200287,-0.18730174005031586,-0.10993201285600662
1761503581344024000,5.094024169921875,-0.01888958178460598,-0.2812820374965668,-0.15563158690929413
1761503581354080000,5.104080078125,-0.22404277324676514,-0.1864018440246582,-0.24754759669303894
1761503581364136000,5.114135986328125,-0.3124360144138336,0.09176799654960632,-0.37479501962661743
1761503581374193000,5.12419287109375,-0.22094500064849854,0.2998571991920471,-0.47609883546829224
1761503581384249000,5.1342490234375,0.04516524821519852,0.40799590945243835,-0.5039871335029602
1761503581394305000,5.144304931640625,0.2694639563560486,0.3565225601196289,-0.567350447177887
1761503581404361000,5.15436083984375,0.2767769992351532,0.2531628906726837,-0.6960706114768982
1761503581414417200,5.164417236328125,0.12047047913074493,0.18397164344787598,-0.9404587745666504
1761503581424473000,5.17447314453125,-0.059047881513834,0.23833182454109192,-1.213552713394165
1761503581434529000,5.184529052734375,-0.1677449345588684,0.40039968490600586,-1.462108850479126
1761503581444585000,5.1945849609375,-0.16750232875347137,0.6254259347915649,-1.6702187061309814
1761503581454641200,5.20464111328125,-0.04608062282204628,0.7939505577087402,-1.7334880828857422
1761503581464697000,5.214697021484375,0.08644253015518188,0.9339076280593872,-1.516764521598816
1761503581474753000,5.2247529296875,0.10830829292535782,0.9420223832130432,-0.9877952337265015
1761503581484809200,5.234809326171875,0.09252746403217316,0.6531562805175781,-0.3284527659416199
1761503581494865000,5.244864990234375,0.11994428932666779,0.1991109848022461,0.1525762379169464
1761503581504920800,5.2549208984375,0.11206479370594025,-0.17537419497966766,0.15871642529964447
1761503581514977000,5.26497705078125,-0.013032719492912292,-0.45148441195487976,-0.23625193536281586
1761503581525034000,5.275033935546875,-0.10605666786432266,-0.28009694814682007,-0.4907582402229309
1761503581535090000,5.28508984375,0.21265064179897308,0.09838612377643585,-0.3177616596221924
1761503581545146000,5.29514599609375,0.6235671043395996,0.487634539604187,-0.10296411067247391
1761503581555202000,5.3052021484375,0.5674381852149963,0.5199103951454163,-0.09284553676843643
1761503581565258000,5.315258056640625,0.2626204788684845,0.0871744155883789,-0.17510446906089783
1761503581575314000,5.32531396484375,0.09020046889781952,-0.024228867143392563,-0.24293747544288635
1761503581585370000,5.3353701171875,0.21633176505565643,0.20194034278392792,-0.09033062309026718
1761503581595426000,5.345426025390625,0.2676202654838562,0.32936373353004456,0.26625335216522217
1761503581605482000,5.35548193359375,0.09779048711061478,0.2302539348602295,0.6500521302223206
1761503581615538200,5.3655380859375,0.07890409976243973,0.1250334233045578,0.9662423729896545
1761503581625594000,5.375593994140625,0.07198493927717209,0.08382075279951096,1.1396974325180054
1761503581635650000,5.385650146484375,-0.02770942635834217,0.1635221540927887,1.1793791055679321
1761503581645706000,5.3957060546875,-0.19687847793102264,0.11184830218553543,1.125211238861084
1761503581655762000,5.405761962890625,-0.3275355100631714,0.04555962607264519,1.1864492893218994
1761503581665817900,5.41581787109375,-0.3805049955844879,-0.12131057679653168,1.1723263263702393
1761503581675874000,5.4258740234375,-0.3888515532016754,-0.3991149663925171,0.9580669403076172
1761503581685930000,5.435929931640625,-0.26524627208709717,-0.37995487451553345,0.848999559879303
1761503581695987000,5.445987060546875,-0.1220719963312149,-0.11883573979139328,1.0680973529815674
1761503581706043000,5.45604296875,-0.15497535467147827,-0.033728308975696564,1.5297189950942993
1761503581716097000,5.466096923828125,-0.3048382103443146,-0.1523892879486084,1.8685264587402344
1761503581726153200,5.4761533203125,-0.26863333582878113,-0.48307347297668457,2.0275650024414062
1761503581736209200,5.486209228515625,-0.14445844292640686,-0.6921935677528381,1.9516246318817139
1761503581746264800,5.496264892578125,-0.03971739113330841,-0.6588377356529236,1.5836513042449951
1761503581756321000,5.506321044921875,0.08716381341218948,-0.30965524911880493,1.274902582168579
1761503581766377000,5.516376953125,0.09705585986375809,0.052679531276226044,1.1129390001296997
1761503581776433000,5.526432861328125,-0.02328329160809517,0.010992280207574368,1.0545963048934937
1761503581786489000,5.536489013671875,-0.2034088671207428,-0.40267279744148254,1.1575645208358765
1761503581796545000,5.546544921875,-0.47168275713920593,-0.7892243266105652,1.2412976026535034
1761503581806601000,5.55660107421875,-0.579596757888794,-0.5792758464813232,1.160544753074646
1761503581816657200,5.5666572265625,-0.39649736881256104,-0.2915821373462677,0.9509443640708923
1761503581826713000,5.576713134765625,-0.12817005813121796,-0.03943299502134323,0.6201112866401672
1761503581836770000,5.58677001953125,0.18550440669059753,0.2496355175971985,0.2825518846511841
1761503581846826000,5.596825927734375,0.4069337248802185,0.5022033452987671,-0.011656317859888077
1761503581856882200,5.606882080078125,0.45574885606765747,0.5622458457946777,-0.37202465534210205
1761503581866938000,5.616938232421875,0.3915379047393799,0.35905781388282776,-0.7511360049247742
1761503581876994000,5.626994140625,0.2753407657146454,-0.0002842927351593971,-1.0426112413406372
1761503581887050200,5.63705029296875,0.10115460306406021,-0.3569260537624359,-1.147988200187683
1761503581897106000,5.64710595703125,-0.04883836209774017,-0.48265522718429565,-1.0891283750534058
1761503581907161900,5.657161865234375,-0.09179088473320007,-0.4355508089065552,-0.9480462670326233
1761503581917218000,5.667218017578125,-0.03730091080069542,-0.3236832618713379,-0.8295681476593018
1761503581927274000,5.67727392578125,0.09741748869419098,-0.11094941198825836,-0.7642384171485901
1761503581937330000,5.687329833984375,0.1730596274137497,0.07177198678255081,-0.7667832970619202
1761503581947386000,5.69738623046875,0.20238609611988068,0.12638436257839203,-0.8375504016876221
1761503581957442000,5.707442138671875,0.1730940192937851,0.04886247217655182,-0.9330539107322693
1761503581967498000,5.717498046875,0.114524707198143,-0.11879469454288483,-1.0270916223526
1761503581977554200,5.72755419921875,0.09348836541175842,-0.32148706912994385,-1.0349466800689697
1761503581987611100,5.737611083984375,0.09739548712968826,-0.44974544644355774,-0.9557229280471802
1761503581997667000,5.7476669921875,0.15936659276485443,-0.4099782705307007,-0.8860501646995544
1761503582007723000,5.757722900390625,0.2685905396938324,-0.21012695133686066,-0.8132606148719788
1761503582017779200,5.767779296875,0.31382232904434204,0.03402779996395111,-0.6917781233787537
1761503582027835100,5.777835205078125,0.2539944052696228,0.25424429774284363,-0.5833461880683899
1761503582037891000,5.78789111328125,0.16107475757598877,0.419773668050766,-0.6300870180130005
1761503582047947000,5.797947021484375,0.12591303884983063,0.46362021565437317,-0.9455506801605225
1761503582058003000,5.8080029296875,0.1749514937400818,0.4273625910282135,-1.4359397888183594
1761503582068059000,5.818058837890625,0.3513222634792328,0.6363198161125183,-1.9133678674697876
1761503582078115000,5.828114990234375,0.5766174793243408,0.8993102312088013,-2.0827627182006836
1761503582088171000,5.8381708984375,0.31486308574676514,0.9406726360321045,-1.7616362571716309
1761503582098227000,5.84822705078125,-0.2913655638694763,0.4550383985042572,-1.0493580102920532
1761503582108279300,5.858279296875,-0.6768515110015869,-0.25614064931869507,-0.25845226645469666
1761503582118335200,5.868335205078125,-0.6967477202415466,-0.29938292503356934,0.47131961584091187
1761503582128394200,5.878394287109375,-0.5003244280815125,-0.007006704807281494,1.2215925455093384
1761503582138450400,5.888450439453125,-0.340333491563797,0.27269455790519714,1.5702755451202393
1761503582148506400,5.89850634765625,-0.16224204003810883,0.32945743203163147,1.2773016691207886
1761503582158562300,5.908562255859375,0.1573142111301422,0.30640703439712524,0.6910392642021179
1761503582168618200,5.9186181640625,0.5123511552810669,0.3412907123565674,0.07100581377744675
1761503582178674200,5.928674072265625,0.8016550540924072,0.15556100010871887,-0.23393863439559937
1761503582188730000,5.938730224609375,0.894699215888977,-0.48928695917129517,-0.22823894023895264
1761503582198786300,5.948786376953125,0.5540865659713745,-1.128273844718933,-0.20650488138198853
1761503582208842200,5.95884228515625,0.048651326447725296,-1.576202630996704,-0.06952039897441864
1761503582218898200,5.968898193359375,-0.48041990399360657,-1.4151841402053833,0.46078723669052124
1761503582228954400,5.978954345703125,-0.8874984979629517,-0.657343327999115,1.274450421333313
1761503582239010300,5.98901025390625,-0.8975123763084412,0.2222035527229309,2.0786075592041016
1761503582249066200,5.999066162109375,-0.7037234902381897,0.9663477540016174,2.4936084747314453
1761503582259122400,6.009122314453125,-0.6034991145133972,1.116072654724121,2.451056718826294
1761503582269178400,6.019178466796875,-0.49485889077186584,0.6702403426170349,1.9951961040496826
1761503582279235300,6.0292353515625,-0.1510223001241684,0.06841009855270386,1.4146242141723633
1761503582289291300,6.039291259765625,0.19467225670814514,-0.42941832542419434,0.9955170154571533
1761503582299347500,6.049347412109375,0.41038641333580017,-0.5144571661949158,0.7686574459075928
1761503582309403100,6.059403076171875,0.4392939507961273,-0.3993667662143707,0.7508912086486816
1761503582319459000,6.069458984375,0.2980308532714844,-0.20730891823768616,0.7817655205726624
1761503582329515300,6.079515380859375,0.002507598139345646,0.012570715509355068,0.7908937335014343
1761503582339571200,6.0895712890625,-0.33556893467903137,0.1329394429922104,0.7414201498031616
1761503582349627100,6.099627197265625,-0.6017209887504578,0.32420581579208374,0.5885635018348694
1761503582359683300,6.109683349609375,-0.7403120398521423,0.4060555696487427,0.3557603061199188
1761503582369739300,6.1197392578125,-0.6615749001502991,0.3652886748313904,0.10645194351673126
1761503582379795200,6.129795166015625,-0.33475470542907715,0.2694931924343109,-0.22002097964286804
1761503582389851400,6.139851318359375,0.06258359551429749,0.19605916738510132,-0.5743218064308167
1761503582399907300,6.1499072265625,0.41122591495513916,0.06750202924013138,-0.8523483276367188
1761503582409963300,6.15996337890625,0.6266979575157166,-0.08444622159004211,-0.9321094751358032
1761503582420020200,6.170020263671875,0.6174744367599487,-0.28414100408554077,-0.8598663210868835
1761503582430076400,6.180076416015625,0.36650872230529785,-0.5176911950111389,-0.7075398564338684
1761503582440132400,6.19013232421875,-0.015623780898749828,-0.6133870482444763,-0.5751701593399048
1761503582450188300,6.200188232421875,-0.3388625681400299,-0.4835473299026489,-0.5407711863517761
1761503582460244500,6.210244384765625,-0.43744173645973206,-0.25795233249664307,-0.5949258804321289
1761503582470300200,6.220300048828125,-0.28177571296691895,-0.06760796159505844,-0.7238844037055969
1761503582480356000,6.230356201171875,-0.05433982238173485,-0.03253840655088425,-0.8528295755386353
1761503582490412300,6.240412353515625,0.0663040354847908,-0.1647246778011322,-0.9399117231369019
1761503582500468200,6.25046826171875,0.08649460226297379,-0.3122730553150177,-1.1054052114486694
1761503582510524200,6.260524169921875,0.03624926880002022,-0.3837967813014984,-1.2957160472869873
1761503582520580400,6.270580322265625,-0.049374014139175415,-0.29667526483535767,-1.4548684358596802
1761503582530636300,6.28063623046875,-0.10975746065378189,-0.1127171441912651,-1.4816476106643677
1761503582540692200,6.290692138671875,-0.10602909326553345,0.030597422271966934,-1.3554853200912476
1761503582550749200,6.300749267578125,-0.055899351835250854,0.12856127321720123,-1.1308163404464722
1761503582560805400,6.310805419921875,0.00527985068038106,0.20361287891864777,-0.8609806299209595
1761503582570861300,6.320861328125,0.002694719936698675,0.2198946475982666,-0.6912355422973633
1761503582580917200,6.330917236328125,-0.046883389353752136,0.36636102199554443,-0.6541241407394409
1761503582590973400,6.340973388671875,-0.1684713363647461,0.3148448169231415,-0.7519252300262451
1761503582601029400,6.351029296875,-0.34550872445106506,0.14070305228233337,-0.9902157783508301
1761503582611085300,6.361085205078125,-0.34349003434181213,0.15441539883613586,-1.4368590116500854
1761503582621141200,6.371141357421875,-0.044984638690948486,0.3415828347206116,-1.7159255743026733
1761503582631197200,6.381197265625,0.4618988037109375,0.47081857919692993,-1.7171711921691895
1761503582641253000,6.391253173828125,0.644218921661377,0.22720859944820404,-1.4916092157363892
1761503582651309300,6.401309326171875,0.3001667559146881,-0.08425074815750122,-1.063926339149475
1761503582661365200,6.411365234375,-0.09115155041217804,-0.052150823175907135,-0.643978476524353
1761503582671421200,6.421421142578125,-0.2148580402135849,0.05692639201879501,-0.15291287004947662
1761503582681477400,6.431477294921875,-0.20114754140377045,0.09903591871261597,0.5798131227493286
1761503582691534300,6.441534423828125,-0.2755940854549408,0.13485649228096008,1.1427249908447266
1761503582701590300,6.45159033203125,-0.21469447016716003,0.36137503385543823,1.2078607082366943
1761503582711646200,6.461646240234375,-0.09791512787342072,0.5186722278594971,0.8865798711776733
1761503582721702400,6.471702392578125,-0.054226890206336975,0.3823606073856354,0.6282039284706116
1761503582731758300,6.48175830078125,-0.008081501349806786,-0.02365987002849579,0.671216607093811
1761503582741814300,6.491814208984375,0.0757000520825386,-0.33723166584968567,0.8272234797477722
1761503582751870500,6.501870361328125,0.1465371996164322,-0.42293059825897217,0.8029714226722717
1761503582761926400,6.511926513671875,0.20016665756702423,-0.34330132603645325,0.7779382467269897
1761503582771982000,6.521982177734375,0.2348538041114807,-0.32335877418518066,1.1975059509277344
1761503582782038300,6.532038330078125,0.25999683141708374,-0.25692328810691833,1.750354528427124
1761503582792094200,6.54209423828125,0.15748056769371033,-0.08412675559520721,2.101984739303589
1761503582802150100,6.552150146484375,0.024418380111455917,0.17777027189731598,2.1896004676818848
1761503582812206300,6.562206298828125,-0.054558996111154556,0.24635519087314606,2.111111640930176
1761503582822262300,6.57226220703125,-0.04577545076608658,0.25393882393836975,2.0785417556762695
1761503582832319200,6.5823193359375,0.07304494082927704,0.2430824637413025,2.0697290897369385
1761503582842375200,6.592375244140625,0.28667372465133667,0.18413874506950378,1.8616790771484375
1761503582852431400,6.602431396484375,0.5408807396888733,0.12012036144733429,1.5016149282455444
1761503582862487300,6.6124873046875,0.5994618535041809,0.004830325022339821,1.1240825653076172
1761503582872543200,6.622543212890625,0.4313896894454956,0.005510495975613594,0.735414981842041
1761503582882599400,6.632599365234375,0.1917286366224289,0.06416209042072296,0.3190843462944031
1761503582892655400,6.6426552734375,-0.125547856092453,0.18472711741924286,0.003550373949110508
1761503582902711300,6.652711181640625,-0.3096863627433777,0.2290465086698532,-0.1779460906982422
1761503582912767500,6.662767578125,-0.2841721773147583,0.27579671144485474,-0.15578432381153107
1761503582922823200,6.6728232421875,-0.15154729783535004,0.20590506494045258,-0.08379556238651276
1761503582932879000,6.682879150390625,0.041573964059352875,0.10426418483257294,-0.14071983098983765
1761503582942935300,6.692935302734375,0.22123630344867706,-0.015617793425917625,-0.31173259019851685
1761503582952991200,6.7029912109375,0.28817296028137207,-0.13346241414546967,-0.5047010183334351
1761503582963048200,6.713048095703125,0.25347745418548584,-0.20654244720935822,-0.6665549278259277
1761503582973104000,6.723104248046875,0.20815232396125793,-0.16861024498939514,-0.7203360795974731
1761503582983160300,6.733160400390625,0.138982892036438,-0.1321181058883667,-0.5691424012184143
1761503582993216300,6.74321630859375,0.09570306539535522,0.009888557717204094,-0.32385221123695374
1761503583003272200,6.753272216796875,0.08240190148353577,0.16911877691745758,-0.08071121573448181
1761503583013328400,6.763328369140625,0.06325430423021317,0.2920713424682617,0.09389947354793549
1761503583023384300,6.77338427734375,0.09748482704162598,0.31267642974853516,0.07999728620052338
1761503583033440300,6.783440185546875,0.1594853550195694,0.2988378405570984,-0.15740087628364563
1761503583043496400,6.793496337890625,0.15009717643260956,0.2759227752685547,-0.5417775511741638
1761503583053552400,6.803552490234375,0.07868319004774094,0.2063080221414566,-0.8391735553741455
1761503583063608300,6.8136083984375,-0.020378433167934418,0.11121053248643875,-0.9168990254402161
1761503583073664300,6.823664306640625,-0.14264948666095734,0.1701452136039734,-0.9466755390167236
1761503583083720200,6.83372021484375,-0.16901160776615143,0.23686718940734863,-0.9546279907226562
1761503583093777200,6.843777099609375,-0.06852815300226212,0.31112945079803467,-0.9643207788467407
1761503583103837000,6.8538369140625,-0.02172091230750084,0.4119642376899719,-0.9853898882865906
1761503583113893000,6.86389306640625,-0.02179361693561077,0.3098602294921875,-1.0144295692443848
1761503583123949000,6.873948974609375,0.07269542664289474,0.10104449093341827,-1.0041170120239258
1761503583134005000,6.8840048828125,0.15790300071239471,0.07902813702821732,-0.8860721588134766
1761503583144061200,6.894061279296875,0.1694779098033905,0.285887211561203,-0.8960136771202087
1761503583154117000,6.9041171875,0.12060144543647766,0.4450515806674957,-1.0452380180358887
1761503583164173000,6.914173095703125,0.08711932599544525,0.47856029868125916,-0.9458513259887695
1761503583174229200,6.924229248046875,0.34476417303085327,0.33335036039352417,-0.5180765390396118
1761503583184285200,6.93428515625,0.45859774947166443,-0.1113845482468605,-0.12882676720619202
1761503583194341000,6.944341064453125,0.19624336063861847,-0.22729463875293732,-0.1067744642496109
1761503583204397300,6.954397216796875,-0.15282414853572845,-0.11443083733320236,-0.10437101125717163
1761503583214453200,6.964453369140625,-0.476963073015213,0.1522517204284668,-0.07425358891487122
1761503583224509200,6.97450927734375,-0.5916528701782227,0.4617495834827423,-0.22127726674079895
1761503583234566100,6.984566162109375,-0.5506585836410522,0.875680148601532,-0.28397873044013977
1761503583244622300,6.994622314453125,-0.4738118052482605,0.8625798225402832,-0.01674971915781498
1761503583254678300,7.00467822265625,-0.2714634835720062,0.34286633133888245,0.39765092730522156
1761503583264734000,7.01473388671875,-0.0005052816122770309,-0.1519339680671692,0.7120402455329895
1761503583274790100,7.0247900390625,0.3310244381427765,-0.37341365218162537,0.8513253927230835
1761503583284846000,7.03484619140625,0.4679992198944092,-0.2932802140712738,0.8249254822731018
1761503583294902000,7.044902099609375,0.2724931240081787,-0.06482228636741638,0.8833552598953247
1761503583304958200,7.054958251953125,-0.14754392206668854,-0.03695795312523842,1.144832730293274
1761503583315014100,7.06501416015625,-0.43065741658210754,-0.16959428787231445,1.3531625270843506
1761503583325070000,7.075070068359375,-0.5368131399154663,-0.21463598310947418,1.271043300628662
1761503583335126300,7.085126220703125,-0.5232637524604797,-0.14430803060531616,0.8910623788833618
1761503583345182200,7.09518212890625,-0.38154104351997375,0.045477017760276794,0.4802730679512024
1761503583355238100,7.105238037109375,-0.10692359507083893,0.3431859314441681,0.16999457776546478
1761503583365295000,7.115295166015625,0.16390453279018402,0.5791342258453369,0.2791987955570221
1761503583375351300,7.125351318359375,0.27312448620796204,0.8478493094444275,0.6595953702926636
1761503583385407200,7.1354072265625,0.18220041692256927,0.9605563879013062,0.7990591526031494
1761503583395463200,7.145463134765625,-0.034237876534461975,0.7044561505317688,0.6945955753326416
1761503583405519400,7.155519287109375,-0.2046835720539093,0.34739992022514343,0.556859016418457
1761503583415575000,7.165574951171875,-0.1935046911239624,0.06718903034925461,0.2332191914319992
1761503583425631000,7.175630859375,-0.16005350649356842,-0.27865666151046753,-0.1986662894487381
1761503583435687200,7.185687255859375,-0.10025008767843246,-0.26229098439216614,-0.497965931892395
1761503583445743000,7.1957431640625,-0.06153274327516556,-0.016237106174230576,-0.21715666353702545
1761503583455799000,7.205799072265625,-0.1958569884300232,0.31351763010025024,0.28418609499931335
1761503583465855200,7.215855224609375,-0.24817341566085815,0.5850585103034973,0.536329448223114
1761503583475911200,7.2259111328125,-0.14531520009040833,0.5768998861312866,0.47481703758239746
1761503583485968100,7.235968017578125,-0.06107062101364136,0.32777103781700134,0.19168388843536377
1761503583496024000,7.246024169921875,-0.03158915787935257,0.1454443633556366,-0.16148002445697784
1761503583506080300,7.256080322265625,-0.031669240444898605,0.03224855288863182,-0.4165295362472534
1761503583516136200,7.26613623046875,-0.07906179130077362,-0.03015144355595112,-0.5103002190589905
1761503583526192000,7.276192138671875,-0.12554892897605896,-0.026966195553541183,-0.44160351157188416
1761503583536248300,7.286248291015625,-0.10958727449178696,0.10001305490732193,-0.3418119549751282
1761503583546304300,7.29630419921875,0.015974093228578568,0.27044737339019775,-0.34479132294654846
1761503583556360200,7.306360107421875,0.10884730517864227,0.3478851616382599,-0.5373397469520569
1761503583566416100,7.316416015625,0.09393490105867386,0.2992829382419586,-0.8426867127418518
1761503583576472000,7.32647216796875,-0.032976437360048294,0.19719520211219788,-1.1701844930648804
1761503583586528000,7.336528076171875,-0.21499629318714142,0.22320273518562317,-1.4347566366195679
1761503583596584200,7.346584228515625,-0.3006177246570587,0.348661869764328,-1.595071792602539
1761503583606641200,7.35664111328125,-0.2749711573123932,0.6105586886405945,-1.4961543083190918
1761503583616697000,7.366697021484375,-0.12606079876422882,0.8921597003936768,-1.2054105997085571
1761503583626753000,7.3767529296875,0.05125303938984871,1.0058085918426514,-0.8478195667266846
1761503583636809200,7.386809326171875,0.026546362787485123,0.8742198348045349,-0.515981137752533
1761503583646865200,7.396865234375,-0.12780800461769104,0.5405862927436829,-0.36281687021255493
1761503583656921000,7.406921142578125,-0.24523688852787018,0.09945650398731232,-0.4602510333061218
1761503583666977300,7.416977294921875,-0.33878153562545776,-0.3487338423728943,-0.7539939284324646
1761503583677033200,7.427033203125,-0.3808019459247589,-0.5824970602989197,-1.1314620971679688
1761503583687089200,7.437089111328125,-0.3049018383026123,-0.435446560382843,-1.3616700172424316
1761503583697145300,7.447145263671875,-0.2533701956272125,0.2608315646648407,-1.4100689888000488
1761503583707201300,7.457201171875,-0.178202822804451,1.1409552097320557,-1.1571124792099
1761503583717257000,7.467257080078125,-0.07302047312259674,1.6444602012634277,-0.6193668246269226
1761503583727313200,7.477313232421875,-0.039171524345874786,1.4786475896835327,-0.11965949088335037
1761503583737370000,7.4873701171875,-0.13337232172489166,0.7479369044303894,0.020774584263563156
1761503583747426000,7.497426025390625,-0.049732521176338196,0.005978986620903015,0.24420784413814545
1761503583757482000,7.50748193359375,-0.02496698684990406,-0.1669725477695465,0.419689416885376
1761503583767538200,7.5175380859375,-0.015282396227121353,-0.03399807959794998,0.5156487226486206
1761503583777594000,7.527593994140625,0.09110183268785477,-0.11229261755943298,0.5286644101142883
1761503583787650000,7.537650146484375,0.3717031180858612,-0.47078943252563477,0.6647571325302124
1761503583797706200,7.547706298828125,0.6969914436340332,-0.7633328437805176,1.1554628610610962
1761503583807762200,7.55776220703125,0.8629639148712158,-0.7516685128211975,1.8034934997558594
1761503583817818000,7.567818115234375,0.5700976848602295,-0.6657634377479553,2.261387825012207
1761503583827874300,7.577874267578125,0.05404799431562424,-0.7488617897033691,2.4283289909362793
1761503583837930200,7.58793017578125,-0.2827473282814026,-0.8963058590888977,2.278287410736084
1761503583847986200,7.597986083984375,-0.4467821419239044,-0.8400458693504333,1.8789911270141602
1761503583858043100,7.608043212890625,-0.3420754373073578,-0.6811896562576294,1.5208702087402344
1761503583868099300,7.618099365234375,-0.0060670142993330956,-0.4933231472969055,1.351935625076294
1761503583878155300,7.6281552734375,0.22408416867256165,-0.40149977803230286,1.3041819334030151
1761503583888211200,7.638211181640625,0.3128999173641205,-0.437760591506958,1.214134931564331
1761503583898267100,7.64826708984375,0.37965282797813416,-0.4992079734802246,1.091440200805664
1761503583908323000,7.658322998046875,0.3557385206222534,-0.4471801221370697,0.8169572353363037
1761503583918379000,7.66837890625,0.35331982374191284,-0.2632598280906677,0.39551225304603577
1761503583928435200,7.678435302734375,0.34838512539863586,-0.04645061492919922,0.14945225417613983
1761503583938491100,7.6884912109375,0.28055867552757263,0.03542560711503029,0.11769990622997284
1761503583948547000,7.698547119140625,0.15870842337608337,0.12134114652872086,0.2426758110523224
1761503583958603300,7.708603271484375,-0.05016542971134186,0.1957961916923523,0.37031126022338867
1761503583968659200,7.7186591796875,-0.24495793879032135,0.16522909700870514,0.5915635228157043
1761503583978716200,7.728716064453125,-0.31794530153274536,0.12630461156368256,0.8559496402740479
1761503583988772000,7.738772216796875,-0.26484981179237366,0.11332753300666809,0.9134634733200073
1761503583998828300,7.748828369140625,-0.1350787729024887,0.14280232787132263,0.6127164363861084
1761503584008884200,7.75888427734375,0.015392730943858624,0.13822026550769806,0.08456090092658997
1761503584018940200,7.768940185546875,0.16526159644126892,0.03404273837804794,-0.38808974623680115
1761503584028996400,7.778996337890625,0.3155795633792877,-0.17212361097335815,-0.6206971406936646
1761503584039052300,7.78905224609375,0.39003223180770874,-0.398263543844223,-0.6593515872955322
1761503584049108000,7.79910791015625,0.39892053604125977,-0.5721657276153564,-0.6245484948158264
1761503584059164200,7.8091640625,0.3266141414642334,-0.6262422800064087,-0.5740165710449219
1761503584069220000,7.81922021484375,0.21797333657741547,-0.5405359268188477,-0.490554541349411
1761503584079276000,7.829276123046875,0.12635207176208496,-0.38300493359565735,-0.3834608495235443
1761503584089333000,7.8393330078125,0.0827827900648117,-0.13536041975021362,-0.37379369139671326
1761503584099385300,7.84938525390625,0.06490578502416611,0.14987371861934662,-0.43055257201194763
1761503584109441300,7.859441162109375,0.007272019051015377,0.3370373845100403,-0.5424448847770691
1761503584119497200,7.869497314453125,-0.0717727318406105,0.3392331600189209,-0.7573851346969604
1761503584129553400,7.879553466796875,-0.10891525447368622,0.1612190306186676,-1.0499528646469116
1761503584139609300,7.889609375,-0.0806330218911171,-0.10210767388343811,-1.283031940460205
1761503584149665300,7.899665283203125,-0.02526707574725151,-0.3184637427330017,-1.438879370689392
1761503584159721500,7.909721435546875,0.051238883286714554,-0.4781031906604767,-1.5834541320800781
1761503584169777200,7.919777099609375,0.12111197412014008,-0.5311850905418396,-1.7339801788330078
1761503584179833000,7.9298330078125,0.16733166575431824,-0.44535431265830994,-1.78708815574646
1761503584189889300,7.93988916015625,0.16828960180282593,-0.33421313762664795,-1.7764403820037842
1761503584199945200,7.9499453125,0.09479408711194992,-0.3218778967857361,-1.9072260856628418
1761503584210002200,7.960002197265625,0.07114380598068237,-0.35272207856178284,-2.325920820236206
1761503584220058000,7.97005810546875,0.0007431432604789734,-0.46466803550720215,-3.3843157291412354
1761503584230114300,7.9801142578125,-0.335218608379364,-0.25672265887260437,-4.537676811218262
1761503584240170200,7.990170166015625,-0.4378504455089569,0.3461240828037262,-4.935614585876465
1761503584250226200,8.00022607421875,-0.2985222339630127,0.5005617737770081,-5.559820652008057
1761503584260282400,8.010282470703125,0.052135124802589417,-0.41723570227622986,-5.514866828918457
1761503584270338300,8.02033837890625,0.4937796890735626,-0.5598241090774536,-4.2203240394592285
1761503584280394200,8.030394287109376,0.78570157289505,-0.3601844906806946,-2.6397523880004883
1761503584290450400,8.040450439453124,0.9487488865852356,-0.3881765902042389,-1.5897504091262817
1761503584300506400,8.05050634765625,0.7055796384811401,-0.5198363661766052,-1.2982397079467773
1761503584310562300,8.060562255859375,0.30333468317985535,-0.6245732307434082,-1.5590029954910278
1761503584320619300,8.070619384765624,0.016033142805099487,-0.7314972877502441,-2.0340640544891357
1761503584330675500,8.080675537109375,-0.013760171830654144,-0.7052035927772522,-2.5940170288085938
1761503584340731100,8.090731201171875,0.07922862470149994,-0.6382392048835754,-3.1307578086853027
1761503584350787000,8.100787109375,0.15033644437789917,-0.5673003792762756,-3.4501335620880127
1761503584360843300,8.11084326171875,0.23137538135051727,-0.24733993411064148,-3.474552869796753
1761503584370899200,8.120899169921875,0.35034191608428955,-0.07830934971570969,-3.383880853652954
1761503584380955100,8.130955078125,0.4585975408554077,-0.046409741044044495,-3.357128143310547
1761503584391011300,8.14101123046875,0.5854527950286865,-0.07504230737686157,-3.480489730834961
1761503584401067300,8.1510673828125,0.7242026925086975,-0.21107284724712372,-3.648536443710327
1761503584411123200,8.161123291015626,0.9154908657073975,-0.6537228226661682,-3.870028018951416
1761503584421179400,8.171179443359375,1.227907657623291,-1.3023320436477661,-4.019876956939697
1761503584431235300,8.1812353515625,1.443060040473938,-1.4604158401489258,-3.9649100303649902
1761503584441292300,8.191292236328126,1.649527907371521,-1.153616189956665,-3.687910556793213
1761503584451348200,8.20134814453125,1.7859541177749634,-0.8822066187858582,-3.165292501449585
1761503584461404400,8.211404296875,1.4282028675079346,-0.8559982180595398,-2.5002503395080566
1761503584471460400,8.22146044921875,0.8657709360122681,-0.3177657127380371,-1.7451456785202026
1761503584481516300,8.231516357421874,0.31986019015312195,0.5439043641090393,-1.0742058753967285
1761503584491572200,8.241572265625,-0.0720682367682457,1.2222390174865723,-0.7619365453720093
1761503584501628200,8.251628173828125,-0.4203457832336426,1.5433675050735474,-0.7838698029518127
1761503584511684000,8.26168408203125,-0.5422992706298828,1.5301291942596436,-0.7386391758918762
1761503584521740300,8.271740234375,-0.6197966933250427,1.4855084419250488,-0.7913609743118286
1761503584531796200,8.281796142578125,-0.7160917520523071,1.5692791938781738,-0.9097563028335571
1761503584541852200,8.29185205078125,-0.6966623663902283,1.4632729291915894,-0.9801309108734131
1761503584551909000,8.3019091796875,-0.6226505637168884,1.3371578454971313,-1.0265882015228271
1761503584561965300,8.31196533203125,-0.560068666934967,1.381107211112976,-1.0657390356063843
1761503584572021200,8.322021240234376,-0.4750937521457672,1.521322250366211,-1.126971960067749
1761503584582077200,8.3320771484375,-0.4672938883304596,1.485741376876831,-1.1992207765579224
1761503584592133400,8.34213330078125,-0.5208964347839355,1.4425759315490723,-1.275524377822876
1761503584602189300,8.352189208984376,-0.5860881805419922,1.6699779033660889,-1.3078773021697998
1761503584612245200,8.362245361328124,-0.5989745259284973,1.6186641454696655,-1.1241968870162964
1761503584622301400,8.372301513671875,-0.5133779048919678,1.4385764598846436,-0.7399248480796814
1761503584632357400,8.382357421875,-0.4411965608596802,1.4237661361694336,-0.35804328322410583
1761503584642413000,8.3924130859375,-0.3928828239440918,1.3567942380905151,-0.09093888103961945
1761503584652469200,8.40246923828125,-0.3225134611129761,0.9213786721229553,0.019785454496741295
1761503584662526500,8.4125263671875,-0.19293759763240814,0.15664128959178925,-0.04584655165672302
1761503584672582100,8.42258203125,-0.010239324532449245,-0.3205741345882416,-0.19103917479515076
1761503584682638000,8.43263818359375,0.17435263097286224,-0.5323324799537659,-0.39621442556381226
1761503584692694300,8.4426943359375,0.29995614290237427,-0.6256620287895203,-0.6268516182899475
1761503584702750200,8.452750244140624,0.37860143184661865,-0.5460910797119141,-0.8345603346824646
1761503584712806100,8.46280615234375,0.4224558472633362,-0.3877182602882385,-0.9862649440765381
1761503584722862300,8.4728623046875,0.40323182940483093,-0.1132720559835434,-1.0718132257461548
1761503584732918300,8.482918212890626,0.31014642119407654,0.107686847448349,-1.069738745689392
1761503584742974200,8.49297412109375,0.17880196869373322,0.2762297987937927,-0.9866941571235657
1761503584753030400,8.503030517578125,0.07012340426445007,0.4692481756210327,-0.8446229696273804
1761503584763086300,8.51308642578125,0.001510517206043005,0.624254047870636,-0.6889236569404602
1761503584773143300,8.523143310546875,-0.011767212301492691,0.7153733372688293,-0.5307039618492126
1761503584783199200,8.53319921875,0.034009598195552826,0.7258619070053101,-0.3764725923538208
1761503584793255400,8.54325537109375,0.12937550246715546,0.6448820233345032,-0.2794412672519684
1761503584803311400,8.553311279296874,0.23494186997413635,0.5661709904670715,-0.24923169612884521
1761503584813367300,8.5633671875,0.2890804409980774,0.48149481415748596,-0.26931774616241455
1761503584823423200,8.57342333984375,0.3092493414878845,0.3482891023159027,-0.31710150837898254
1761503584833479200,8.583479248046874,0.31127268075942993,0.13740843534469604,-0.3448570966720581
1761503584843535000,8.59353515625,0.2963792383670807,-0.06512070447206497,-0.3009767234325409
1761503584853591300,8.60359130859375,0.26717403531074524,-0.22655579447746277,-0.08049850910902023
1761503584863647200,8.613647216796876,0.23773890733718872,-0.3278539180755615,0.025385314598679543
1761503584873704200,8.6237041015625,0.226637065410614,-0.40634697675704956,0.052188605070114136
1761503584883760000,8.633760009765625,0.18441052734851837,-0.39695480465888977,-0.0706757977604866
1761503584893816300,8.64381640625,0.11841029673814774,-0.3812376856803894,-0.33075055480003357
1761503584903872300,8.653872314453125,0.06229536235332489,-0.32527855038642883,-0.58039790391922
1761503584913928200,8.66392822265625,0.037475310266017914,-0.17911255359649658,-0.6622927188873291
