time,seconds_elapsed,z,y,x
1761497448523426600,0.075426513671875,0.060495033860206604,-0.1761004626750946,0.01757153682410717
1761497448533483500,0.0854833984375,0.05958716198801994,-0.13273780047893524,0.016862869262695312
1761497448543539500,0.09553955078125,0.05073481798171997,-0.06519152224063873,0.018699651584029198
1761497448553595600,0.105595703125,0.040416132658720016,-0.006632336415350437,0.0182943195104599
1761497448563652600,0.115652587890625,0.03765203803777695,0.01341940276324749,0.020607274025678635
1761497448573708500,0.12570849609375,0.034267958253622055,0.0017480988753959537,0.01859605498611927
1761497448583764200,0.13576416015625,0.02197400853037834,-0.027880366891622543,0.019540145993232727
1761497448593821400,0.145821533203125,0.005763346794992685,-0.07585961371660233,0.027632692828774452
1761497448603877600,0.155877685546875,-0.0003281014505773783,-0.11064235866069794,0.04005980119109154
1761497448613933300,0.165933349609375,-0.003826696192845702,-0.1475798636674881,0.05234496295452118
1761497448623990500,0.175990478515625,-0.000025300030756625347,-0.17165938019752502,0.06184206157922745
1761497448634046200,0.186046142578125,0.018246915191411972,-0.16145919263362885,0.058696068823337555
1761497448644102400,0.196102294921875,0.040825992822647095,-0.12756115198135376,0.016871124505996704
1761497448654159600,0.20615966796875,0.0427064523100853,-0.11337316036224365,-0.02165895700454712
1761497448664215300,0.21621533203125,0.042517099529504776,-0.0948633924126625,-0.05603929981589317
1761497448674271200,0.226271240234375,0.029018601402640343,-0.10928814113140106,-0.07119081914424896
1761497448684327400,0.236327392578125,0.021211013197898865,-0.13432131707668304,-0.07955048233270645
1761497448694384400,0.24638427734375,0.006449110805988312,-0.1689850240945816,-0.08955438435077667
1761497448704440300,0.2564404296875,-0.0021949773654341698,-0.21146883070468903,-0.10934113711118698
1761497448714496300,0.266496337890625,-0.016885772347450256,-0.2219156175851822,-0.14071904122829437
1761497448724553500,0.276553466796875,-0.04675552248954773,-0.19443126022815704,-0.17074723541736603
1761497448734609400,0.286609375,-0.08894185721874237,-0.14475639164447784,-0.18856112658977509
1761497448744665300,0.296665283203125,-0.12725383043289185,-0.12514273822307587,-0.17796467244625092
1761497448754722300,0.306722412109375,-0.1524001955986023,-0.14256007969379425,-0.16038382053375244
1761497448764778500,0.316778564453125,-0.1547006368637085,-0.2154955416917801,-0.1837541162967682
1761497448774834400,0.32683447265625,-0.13588406145572662,-0.24551628530025482,-0.26020175218582153
1761497448784891400,0.336891357421875,-0.10566411167383194,-0.17993035912513733,-0.35512426495552063
1761497448794947300,0.346947265625,-0.110825315117836,-0.027407921850681305,-0.45359599590301514
1761497448805003500,0.35700341796875,-0.19055290520191193,0.14486052095890045,-0.5307802557945251
1761497448815060500,0.367060546875,-0.2860991358757019,0.3017883598804474,-0.5780907869338989
1761497448825116400,0.377116455078125,-0.33837273716926575,0.4084961414337158,-0.6065365076065063
1761497448835172400,0.38717236328125,-0.3181622624397278,0.43316981196403503,-0.6452879309654236
1761497448845229300,0.397229248046875,-0.22774234414100647,0.4333690106868744,-0.6923230886459351
1761497448855285500,0.407285400390625,-0.07074368000030518,0.4188134968280792,-0.7649397253990173
1761497448865341400,0.417341552734375,0.11772050708532333,0.39872100949287415,-0.8761627078056335
1761497448875398400,0.4273984375,0.2943304181098938,0.37528786063194275,-1.0385748147964478
1761497448885454300,0.437454345703125,0.4030153751373291,0.33748215436935425,-1.2124991416931152
1761497448895510500,0.447510498046875,0.41697272658348083,0.3188115358352661,-1.3321685791015625
1761497448905567500,0.4575673828125,0.3458399474620819,0.36137712001800537,-1.3235127925872803
1761497448915623400,0.46762353515625,0.22104743123054504,0.4648853838443756,-1.2138978242874146
1761497448925679400,0.477679443359375,0.11212920397520065,0.5497536659240723,-0.9732924103736877
1761497448935735600,0.487735595703125,0.05696927756071091,0.6500291228294373,-0.6268556714057922
1761497448945792500,0.49779248046875,0.044260673224925995,0.6700279116630554,-0.20230036973953247
1761497448955848400,0.507848388671875,-0.005125253461301327,0.6615060567855835,0.22356943786144257
1761497448965904400,0.517904296875,-0.14639583230018616,0.5889884233474731,0.5472231507301331
1761497448975961300,0.52796142578125,-0.329763263463974,0.5051409602165222,0.6396361589431763
1761497448986017500,0.538017578125,-0.4063749313354492,0.4641226530075073,0.43839678168296814
1761497448996073500,0.548073486328125,-0.3381996154785156,0.4881907105445862,0.09393874555826187
1761497449006130400,0.55813037109375,-0.162399023771286,0.6152074933052063,-0.24430029094219208
1761497449016186400,0.568186279296875,-0.05676554515957832,0.7527076005935669,-0.43984049558639526
1761497449026242600,0.57824267578125,-0.1392468363046646,0.7093755602836609,-0.5469805002212524
1761497449036299500,0.588299560546875,-0.3635004460811615,0.5506306290626526,-0.5684314966201782
1761497449046355500,0.59835546875,-0.5008519291877747,0.24743002653121948,-0.40869614481925964
1761497449056411400,0.608411376953125,-0.3909839987754822,-0.07424147427082062,-0.10604973882436752
1761497449066468400,0.61846826171875,-0.16464194655418396,-0.29142093658447266,0.2794457674026489
1761497449076524500,0.628524658203125,0.01341380923986435,-0.3854134678840637,0.697788655757904
1761497449086580500,0.63858056640625,0.14760170876979828,-0.3898029029369354,0.9913294911384583
1761497449096636400,0.648636474609375,0.16680335998535156,-0.32984021306037903,0.9818862080574036
1761497449106693600,0.658693603515625,-0.056064069271087646,-0.32925939559936523,0.651695191860199
1761497449116749600,0.66874951171875,-0.3772498071193695,-0.33976849913597107,0.21791768074035645
1761497449126805500,0.678805419921875,-0.568668007850647,-0.34720003604888916,-0.0737953931093216
1761497449136862500,0.688862548828125,-0.5033044219017029,-0.3955015242099762,-0.20142951607704163
1761497449146918700,0.698918701171875,-0.28642722964286804,-0.4159412980079651,-0.25539475679397583
1761497449156974300,0.708974365234375,-0.14812076091766357,-0.4745990037918091,-0.13961514830589294
1761497449167031600,0.719031494140625,-0.1393270045518875,-0.47285836935043335,0.08122721314430237
1761497449177087500,0.72908740234375,-0.1974097490310669,-0.3753557801246643,0.41094812750816345
1761497449187143400,0.739143310546875,-0.20382289588451385,-0.07903996109962463,0.8397093415260315
1761497449197200600,0.74920068359375,-0.2199145257472992,0.31798115372657776,1.2424767017364502
1761497449207256300,0.75925634765625,-0.32180359959602356,0.7202191352844238,1.419834017753601
1761497449217312300,0.769312255859375,-0.3990344703197479,1.0756683349609375,1.3472285270690918
1761497449227369500,0.779369384765625,-0.383110910654068,1.29770827293396,1.0487656593322754
1761497449237425400,0.78942529296875,-0.24228321015834808,1.2391563653945923,0.4955900311470032
1761497449247481300,0.7994814453125,-0.0222065020352602,0.9991823434829712,-0.21304622292518616
1761497449257538300,0.809538330078125,0.2620747685432434,0.7104626893997192,-0.8914194107055664
1761497449267594200,0.81959423828125,0.4833621382713318,0.5067654848098755,-1.3167914152145386
1761497449277650400,0.829650390625,0.5969475507736206,0.4092109501361847,-1.4490717649459839
1761497449287707400,0.839707275390625,0.632781445980072,0.34874892234802246,-1.328527808189392
1761497449297763300,0.849763427734375,0.5973957777023315,0.2277604639530182,-1.0238032341003418
1761497449307819300,0.8598193359375,0.5418545007705688,-0.01979793980717659,-0.6124271750450134
1761497449317875500,0.86987548828125,0.5835183262825012,-0.32875579595565796,-0.22357183694839478
1761497449327932400,0.879932373046875,0.780725359916687,-0.5133568048477173,0.16729871928691864
1761497449337988400,0.88998828125,1.0710043907165527,-0.38079580664634705,0.5902172327041626
1761497449348044300,0.900044189453125,1.2758642435073853,0.11922039836645126,0.9829964637756348
1761497449358101200,0.910101318359375,1.269690752029419,0.7738099694252014,1.2382529973983765
1761497449368157400,0.920157470703125,1.0799027681350708,1.3092308044433594,1.2751766443252563
1761497449378213400,0.93021337890625,0.8064342141151428,1.5618952512741089,1.0845826864242554
1761497449388270300,0.940270263671875,0.5472806692123413,1.6007070541381836,0.7223142385482788
1761497449398326300,0.950326171875,0.29119402170181274,1.5039712190628052,0.29265928268432617
1761497449408382500,0.960382568359375,0.08152148872613907,1.3237217664718628,-0.09983871132135391
1761497449418439400,0.970439453125,-0.02449122816324234,1.1370651721954346,-0.40114930272102356
1761497449428495400,0.980495361328125,-0.04446520283818245,1.0065220594406128,-0.5471166372299194
1761497449438548000,0.9905478515625,0.02587234415113926,0.8601884841918945,-0.5092856287956238
1761497449448605000,1.00060498046875,0.10756321251392365,0.7281433939933777,-0.3168666362762451
1761497449458660900,1.010660888671875,0.1182483434677124,0.5163049101829529,-0.08260193467140198
1761497449468716800,1.020716796875,0.049067411571741104,0.210142582654953,0.10252637416124344
1761497449478773000,1.03077294921875,-0.010608968324959278,-0.11881453543901443,0.17931808531284332
1761497449488830000,1.040829833984375,-0.000467118457891047,-0.5149158239364624,0.10003125667572021
1761497449498886000,1.050885986328125,0.05134468153119087,-0.9342797994613647,-0.08436068892478943
1761497449508941800,1.06094189453125,0.13750672340393066,-1.3209595680236816,-0.2588041424751282
1761497449518998800,1.070998779296875,0.24237588047981262,-1.584295630455017,-0.3643108606338501
1761497449529055000,1.081054931640625,0.304658979177475,-1.6464120149612427,-0.4067525863647461
1761497449539111000,1.09111083984375,0.24689793586730957,-1.6204208135604858,-0.39700886607170105
1761497449549167900,1.10116796875,0.02773336134850979,-1.5092477798461914,-0.3237636983394623
1761497449559223800,1.111223876953125,-0.2438928186893463,-1.262128233909607,-0.22254678606987
1761497449569280000,1.121280029296875,-0.43075430393218994,-0.992324709892273,-0.13597089052200317
1761497449579337000,1.1313369140625,-0.4832364320755005,-0.7804521322250366,-0.06127241253852844
1761497449589393000,1.141392822265625,-0.45395419001579285,-0.5331845283508301,0.05819406360387802
1761497449599448800,1.15144873046875,-0.3955475986003876,-0.34256401658058167,0.24313701689243317
1761497449609505800,1.161505859375,-0.36617958545684814,-0.2355603277683258,0.29807189106941223
1761497449619562000,1.17156201171875,-0.4670715928077698,-0.16553010046482086,-0.038778021931648254
1761497449629618000,1.181617919921875,-0.659387469291687,-0.01452887523919344,-0.7749212980270386
1761497449639675000,1.1916748046875,-0.7427031397819519,0.29363560676574707,-1.5355600118637085
1761497449649730800,1.201730712890625,-0.6954442858695984,0.5200570225715637,-1.9650706052780151
1761497449659787000,1.211787109375,-0.6083301901817322,0.5035046935081482,-1.923142910003662
1761497449669843000,1.221843017578125,-0.4685632288455963,0.2640524208545685,-1.4567197561264038
1761497449679900000,1.23189990234375,-0.34576112031936646,-0.07414213567972183,-0.8052629232406616
1761497449689955800,1.241955810546875,-0.14938229322433472,-0.5381537675857544,-0.26895636320114136
1761497449700012000,1.252011962890625,0.19541503489017487,-0.9510587453842163,-0.00270736962556839
1761497449710069000,1.262069091796875,0.5385015606880188,-1.1649481058120728,0.01224574726074934
1761497449720125000,1.272125,0.7942891120910645,-1.168642520904541,-0.15088431537151337
1761497449730180900,1.282180908203125,0.9342776536941528,-0.9347559809684753,-0.38417989015579224
1761497449740237800,1.29223779296875,0.9484925270080566,-0.5767195224761963,-0.5187917947769165
1761497449750294000,1.3022939453125,0.8598766326904297,-0.44659319519996643,-0.40581727027893066
1761497449760350000,1.312349853515625,0.7440222501754761,-0.26562821865081787,-0.03943395987153053
1761497449770407000,1.322406982421875,0.4226172864437103,0.23344923555850983,0.3714558482170105
1761497449780463000,1.332463134765625,0.038427550345659256,0.629641592502594,0.675072431564331
1761497449790519000,1.34251904296875,-0.26192083954811096,0.9321314096450806,0.8435666561126709
1761497449800575000,1.352574951171875,-0.42337629199028015,1.2545443773269653,0.9385368227958679
1761497449810632000,1.3626318359375,-0.3873474597930908,1.5418272018432617,0.9554141163825989
1761497449820688100,1.372688232421875,-0.22896288335323334,1.6447925567626953,0.8528949022293091
1761497449830744000,1.382744140625,-0.019480757415294647,1.6999952793121338,0.6333601474761963
1761497449840801000,1.392801025390625,0.14598090946674347,1.6931153535842896,0.33536627888679504
1761497449850857000,1.40285693359375,0.2306678295135498,1.555397629737854,0.000291616132017225
1761497449860913200,1.4129130859375,0.1555296778678894,1.2198481559753418,-0.21536530554294586
1761497449870970000,1.42297021484375,-0.011900335550308228,0.6620945930480957,-0.21574294567108154
1761497449881026000,1.433026123046875,-0.027160247787833214,-0.03254435956478119,-0.07879894226789474
1761497449891082000,1.44308203125,0.06694228202104568,-0.579511821269989,0.07033754885196686
1761497449901139000,1.453138916015625,0.17055682837963104,-0.8121450543403625,0.13270717859268188
1761497449911195100,1.463195068359375,0.25144901871681213,-0.7253015041351318,0.10901276767253876
1761497449921250800,1.473250732421875,0.2267540544271469,-0.3883991241455078,0.0978807583451271
1761497449931308000,1.48330810546875,0.12044332176446915,0.004851480480283499,0.1668531596660614
1761497449941364000,1.493364013671875,-0.01900484971702099,0.29848867654800415,0.2921932339668274
1761497449951420000,1.503419921875,-0.15959765017032623,0.4770600199699402,0.30926036834716797
1761497449961475800,1.513475830078125,-0.210236057639122,0.37270405888557434,0.15779708325862885
1761497449971532800,1.52353271484375,-0.18179962038993835,0.09653346240520477,-0.10868839919567108
1761497449981588700,1.533588623046875,-0.12325642257928848,-0.11364800482988358,-0.4211919605731964
1761497449991645000,1.54364501953125,-0.02231835573911667,-0.21424411237239838,-0.7041962742805481
1761497450001702000,1.553701904296875,0.10974966734647751,-0.17924565076828003,-0.9231687784194946
1761497450011757800,1.5637578125,0.2423231601715088,-0.03579874336719513,-1.084238886833191
1761497450021813800,1.573813720703125,0.3459126651287079,0.1764748990535736,-1.1415064334869385
1761497450031870700,1.58387060546875,0.39410415291786194,0.3428593575954437,-1.049687385559082
1761497450041927000,1.593927001953125,0.4003450274467468,0.30720600485801697,-0.7878477573394775
1761497450051982800,1.60398291015625,0.4108940660953522,0.09759153425693512,-0.4494401216506958
1761497450062039800,1.614039794921875,0.4050859808921814,-0.17309056222438812,-0.13165949285030365
1761497450072095700,1.624095703125,0.3668070137500763,-0.4158792197704315,0.12808500230312347
1761497450082152000,1.63415185546875,0.3180461525917053,-0.5416901707649231,0.243186816573143
1761497450092207900,1.644207763671875,0.23844826221466064,-0.5653983950614929,0.17326419055461884
1761497450102264800,1.654264892578125,0.11841399222612381,-0.5522759556770325,-0.019362779334187508
1761497450112321000,1.664321044921875,-0.044621262699365616,-0.4870429039001465,-0.1974467635154724
1761497450122377000,1.674376953125,-0.1801716387271881,-0.36610981822013855,-0.3165252208709717
1761497450132434000,1.684433837890625,-0.25436729192733765,-0.10813206434249878,-0.33723530173301697
1761497450142489900,1.69448974609375,-0.21197856962680817,0.21555545926094055,-0.2973283529281616
1761497450152546000,1.704546142578125,-0.14013154804706573,0.40472671389579773,-0.21099239587783813
1761497450162603000,1.71460302734375,-0.08300434052944183,0.37563595175743103,-0.206743061542511
1761497450172659000,1.724658935546875,-0.12133494764566422,0.19462621212005615,-0.3043020963668823
1761497450182715000,1.73471484375,-0.19543367624282837,0.03317393362522125,-0.3666624128818512
1761497450192771800,1.744771728515625,-0.31356003880500793,-0.06699901074171066,-0.2749791145324707
1761497450202828000,1.754828125,-0.5125432014465332,-0.12164866924285889,0.04114370793104172
1761497450212884000,1.764884033203125,-0.7585217952728271,-0.13922101259231567,0.3856118619441986
1761497450222941000,1.77494091796875,-0.8768918514251709,-0.28961610794067383,0.34106677770614624
1761497450232996900,1.784996826171875,-0.8554299473762512,-0.41932377219200134,-0.24209678173065186
1761497450243053000,1.795052978515625,-0.7900158166885376,-0.5827934145927429,-0.8855282068252563
1761497450253109000,1.80510888671875,-0.6127326488494873,-0.855746865272522,-1.1053279638290405
1761497450263166000,1.815166015625,-0.3691577911376953,-1.101788878440857,-0.7638707756996155
1761497450273222000,1.825221923828125,-0.16386988759040833,-1.2988593578338623,-0.011493138037621975
1761497450283278000,1.835278076171875,-0.13585583865642548,-1.385947346687317,0.8485193252563477
1761497450293335000,1.8453349609375,-0.20377816259860992,-1.4387199878692627,1.3383673429489136
1761497450303391000,1.855390869140625,-0.2817499339580536,-1.3839462995529175,1.3335264921188354
1761497450313447000,1.865447021484375,-0.541623055934906,-1.3101245164871216,1.1204661130905151
1761497450323503900,1.87550390625,-0.7349421977996826,-1.0597867965698242,0.8427189588546753
1761497450333560000,1.88556005859375,-0.6636623740196228,-0.5729119777679443,0.5518216490745544
1761497450343616000,1.895615966796875,-0.40556588768959045,-0.06835509091615677,0.27623051404953003
1761497450353672000,1.905671875,-0.0848831981420517,0.43831637501716614,0.20066891610622406
1761497450363729000,1.91572900390625,0.14622431993484497,0.8099093437194824,0.3951140344142914
1761497450373785000,1.92578515625,0.24217161536216736,1.1207369565963745,0.7614960074424744
1761497450383841000,1.935841064453125,0.10451894998550415,1.35379958152771,1.0989930629730225
1761497450393898000,1.94589794921875,-0.32515305280685425,1.2382785081863403,1.2458821535110474
1761497450403954000,1.955953857421875,-0.8114116191864014,1.3044102191925049,1.3648258447647095
1761497450414010000,1.966010009765625,-1.0558621883392334,1.383757472038269,1.5620230436325073
1761497450424067000,1.976067138671875,-0.8043460249900818,1.2616299390792847,1.6349188089370728
1761497450434123000,1.986123046875,-0.31307563185691833,1.1180472373962402,1.4890016317367554
1761497450444179000,1.996178955078125,0.012924853712320328,0.8696973323822021,1.1928695440292358
1761497450454236000,2.00623583984375,0.22427864372730255,0.5128366947174072,0.8447986245155334
1761497450464291800,2.016291748046875,0.5243023633956909,0.18998858332633972,0.42832818627357483
1761497450474347800,2.02634765625,0.7474467754364014,-0.39743682742118835,0.21634241938591003
1761497450484404000,2.036404052734375,0.9265813827514648,-1.0326566696166992,0.23376215994358063
1761497450494461000,2.0464609375,1.0316582918167114,-1.2919883728027344,0.3486200273036957
1761497450504516900,2.056516845703125,0.8821574449539185,-1.085059404373169,0.4662950038909912
1761497450514572800,2.06657275390625,0.5250936150550842,-0.5860517621040344,0.486969918012619
1761497450524629800,2.076629638671875,0.18557146191596985,-0.07738080620765686,0.3232771158218384
1761497450534686000,2.08668603515625,0.032756879925727844,0.17840063571929932,0.007964183576405048
1761497450544742000,2.096741943359375,0.023876037448644638,0.24614159762859344,-0.32871583104133606
1761497450554798800,2.106798828125,0.0280955508351326,0.22915196418762207,-0.6353194713592529
1761497450564854800,2.116854736328125,-0.018578743562102318,0.13095295429229736,-0.906247615814209
1761497450574911000,2.126910888671875,-0.0429764948785305,0.07806684076786041,-0.9870412349700928
1761497450584968000,2.136968017578125,-0.05644809454679489,0.09599683433771133,-0.8539252877235413
1761497450595024000,2.14702392578125,-0.06843072175979614,0.1142653226852417,-0.6299982070922852
1761497450605079800,2.157079833984375,-0.07786603271961212,0.07994703203439713,-0.42127665877342224
1761497450615136000,2.167135986328125,-0.12071443349123001,0.006673615425825119,-0.22073104977607727
1761497450625193000,2.17719287109375,-0.1550321877002716,-0.13325339555740356,-0.018700184300541878
1761497450635249000,2.187248779296875,-0.15952947735786438,-0.2156960666179657,0.2100222110748291
1761497450645304800,2.197304931640625,-0.19283416867256165,-0.2897873520851135,0.38554877042770386
1761497450655361800,2.20736181640625,-0.17714042961597443,-0.42697927355766296,0.43316155672073364
1761497450665418000,2.21741796875,-0.11639558523893356,-0.5773277878761292,0.30930832028388977
1761497450675473700,2.2274736328125,-0.13024775683879852,-0.6754215955734253,-0.013435647822916508
1761497450685531000,2.23753076171875,-0.18139296770095825,-0.6064832806587219,-0.4061373770236969
1761497450695586800,2.2475869140625,-0.20991967618465424,-0.3941662013530731,-0.6580016016960144
1761497450705642800,2.257642822265625,-0.2241944819688797,-0.13962474465370178,-0.625756561756134
1761497450715700000,2.267699951171875,-0.24307337403297424,0.14851783215999603,-0.33499395847320557
1761497450725755600,2.277755615234375,-0.3012551963329315,0.35347336530685425,0.08931310474872589
1761497450735811600,2.2878115234375,-0.23447056114673615,0.4350965917110443,0.47132331132888794
1761497450745867800,2.29786767578125,-0.04567188024520874,0.4624107778072357,0.6523897647857666
1761497450755924700,2.3079248046875,-0.02869928814470768,0.4558165371417999,0.515022337436676
1761497450765980700,2.317980712890625,-0.20891939103603363,0.46594640612602234,0.1884641796350479
1761497450776036900,2.328036865234375,-0.39370468258857727,0.5686871409416199,-0.1013689637184143
1761497450786093800,2.33809375,-0.5303615927696228,0.6331372261047363,-0.20118556916713715
1761497450796149800,2.348149658203125,-0.5496023893356323,0.5767277479171753,-0.2614276111125946
1761497450806205700,2.358205810546875,-0.5315501689910889,0.30808672308921814,-0.3757837414741516
1761497450816262700,2.3682626953125,-0.36240267753601074,-0.05471863970160484,-0.5518911480903625
1761497450826318800,2.37831884765625,-0.01792360655963421,-0.2976234257221222,-0.5471909046173096
1761497450836374800,2.388374755859375,0.32290536165237427,-0.49170902371406555,-0.5401207804679871
1761497450846431700,2.398431640625,0.41179901361465454,-0.5468148589134216,-0.5915845036506653
1761497450856487700,2.40848779296875,0.22249539196491241,-0.47077497839927673,-0.48451662063598633
1761497450866543900,2.4185439453125,0.05826570466160774,-0.4214012920856476,-0.2085380256175995
1761497450876599800,2.428599853515625,0.0268329456448555,-0.5486737489700317,0.11082079261541367
1761497450886656800,2.43865673828125,0.11577480286359787,-0.9279078841209412,0.4104873836040497
1761497450896712700,2.448712646484375,0.34105613827705383,-1.293277382850647,0.6763795018196106
1761497450906769000,2.458768798828125,0.49687740206718445,-1.3114691972732544,0.7888344526290894
1761497450916825900,2.468825927734375,0.36807337403297424,-1.06218421459198,0.6725972890853882
1761497450926881800,2.4788818359375,0.031013842672109604,-0.6667894721031189,0.5102313160896301
1761497450936937700,2.488937744140625,-0.28046202659606934,-0.11206661909818649,0.514723539352417
1761497450946994700,2.49899462890625,-0.43452802300453186,0.44361552596092224,0.6207921504974365
1761497450957051000,2.50905078125,-0.47405120730400085,1.0713739395141602,0.7489157915115356
1761497450967106800,2.51910693359375,-0.5180607438087463,1.7452991008758545,0.8917935490608215
1761497450977163800,2.529163818359375,-0.5515339970588684,2.171809434890747,1.0815105438232422
1761497450987219700,2.5392197265625,-0.4315980076789856,1.9345183372497559,1.2454272508621216
1761497450997276000,2.54927587890625,-0.021437114104628563,1.3057537078857422,1.2803030014038086
1761497451007331800,2.559331787109375,0.4754352271556854,0.6806613802909851,1.0036077499389648
1761497451017388800,2.569388916015625,0.7572234869003296,0.33188578486442566,0.4492148160934448
1761497451027444700,2.57944482421875,0.8711546063423157,0.21463081240653992,-0.06467486917972565
1761497451037501000,2.5895009765625,0.8368866443634033,0.250639945268631,-0.2700067162513733
1761497451047558000,2.599557861328125,0.611481249332428,0.2555135190486908,-0.15222202241420746
1761497451057613800,2.60961376953125,0.37486788630485535,0.29023370146751404,0.06531109660863876
1761497451067669800,2.619669677734375,0.21799145638942719,0.29758933186531067,0.29265743494033813
1761497451077726700,2.629726806640625,0.16295616328716278,0.20733800530433655,0.5341432690620422
1761497451087783000,2.639782958984375,0.115139901638031,0.09507325291633606,0.7593876123428345
1761497451097838800,2.6498388671875,-0.007933823391795158,-0.004741225857287645,0.8869490027427673
1761497451107894800,2.659894775390625,-0.1310802549123764,-0.10782739520072937,0.8204030394554138
1761497451117951700,2.66995166015625,-0.1533096581697464,-0.28671884536743164,0.5313400626182556
1761497451128008000,2.680008056640625,-0.05696634575724602,-0.5312305688858032,0.11459528654813766
1761497451138064000,2.69006396484375,0.14970266819000244,-0.7136811017990112,-0.37694382667541504
1761497451148120800,2.700120849609375,0.46417325735092163,-0.6349748373031616,-0.8388406038284302
1761497451158177000,2.710177001953125,0.8047567009925842,-0.4327370524406433,-1.1908260583877563
1761497451168233000,2.72023291015625,1.0608632564544678,-0.295956552028656,-1.3728318214416504
1761497451178290000,2.7302900390625,1.1542621850967407,-0.22735245525836945,-1.3144502639770508
1761497451188345900,2.740345947265625,0.9987772703170776,-0.3180690407752991,-1.0534175634384155
1761497451198401800,2.75040185546875,0.695472002029419,-0.412027508020401,-0.6507777571678162
1761497451208459000,2.760458984375,0.3599909245967865,-0.4735798239707947,-0.18079215288162231
1761497451218515000,2.770514892578125,0.04298288747668266,-0.6205908060073853,0.18482764065265656
1761497451228570600,2.780570556640625,-0.1948147565126419,-0.7795405387878418,0.32274556159973145
1761497451238626800,2.790626708984375,-0.26580798625946045,-0.8476053476333618,0.21511124074459076
1761497451248683800,2.800683837890625,-0.2244722545146942,-0.8073431253433228,-0.10931716859340668
1761497451258739700,2.81073974609375,-0.2120763063430786,-0.676645040512085,-0.47968778014183044
1761497451268795600,2.820795654296875,-0.2920273244380951,-0.4421771466732025,-0.6663580536842346
1761497451278852600,2.8308525390625,-0.3623496890068054,-0.1500193178653717,-0.569127082824707
1761497451288908800,2.84090869140625,-0.3917211592197418,0.116287462413311,-0.3160114884376526
1761497451298964700,2.85096484375,-0.30604514479637146,0.30659908056259155,-0.01805836334824562
1761497451309021700,2.861021728515625,-0.19187596440315247,0.582634687423706,0.20364074409008026
1761497451319077600,2.87107763671875,-0.22551888227462769,0.8868861794471741,0.18950921297073364
1761497451329133800,2.8811337890625,-0.4131966233253479,1.0720765590667725,-0.09778887778520584
1761497451339190800,2.891190673828125,-0.5509435534477234,1.0402454137802124,-0.5485749840736389
1761497451349246700,2.901246826171875,-0.5670168399810791,0.8803645968437195,-0.8390272855758667
1761497451359302700,2.911302734375,-0.561424195766449,0.6520768404006958,-0.7907735109329224
1761497451369358800,2.92135888671875,-0.5495600700378418,0.41254815459251404,-0.48696884512901306
1761497451379415800,2.931415771484375,-0.49360013008117676,0.31720060110092163,-0.1360694169998169
1761497451389471700,2.9414716796875,-0.3665580153465271,0.295654833316803,0.04514084756374359
1761497451399527700,2.951527587890625,-0.34826502203941345,0.16918157041072845,-0.08875703066587448
1761497451409584600,2.961584716796875,-0.4030614495277405,-0.1890503466129303,-0.5003563165664673
1761497451419640800,2.971640869140625,-0.3253384232521057,-0.5835012793540955,-0.8416550159454346
1761497451429696800,2.98169677734375,-0.19875358045101166,-0.9283849000930786,-0.7096775770187378
1761497451439753700,2.991753662109375,-0.16388773918151855,-1.2051118612289429,-0.3621528744697571
1761497451449809700,3.0018095703125,-0.16413487493991852,-1.2428160905838013,-0.12924987077713013
1761497451459865600,3.011865478515625,-0.15917447209358215,-1.140562891960144,-0.09626315534114838
1761497451469922800,3.0219228515625,-0.1706516295671463,-1.1424607038497925,-0.1992553174495697
1761497451479978800,3.031978759765625,-0.23156851530075073,-1.094318151473999,-0.18817469477653503
1761497451490034700,3.04203466796875,-0.2836191952228546,-0.9322232604026794,0.016149142757058144
1761497451500090600,3.052090576171875,-0.22966621816158295,-0.8016615509986877,0.11385652422904968
1761497451510147600,3.062147705078125,-0.1138746365904808,-0.6068736910820007,-0.07312986999750137
1761497451520203500,3.07220361328125,0.1476624310016632,-0.23641546070575714,-0.37986478209495544
1761497451530259700,3.082259765625,0.4011079967021942,0.2722051441669464,-0.4784339666366577
1761497451540316700,3.092316650390625,0.46133938431739807,0.8123701214790344,-0.1237027645111084
1761497451550372600,3.10237255859375,0.3556702136993408,1.2897186279296875,0.7267470955848694
1761497451560428500,3.112428466796875,0.14276434481143951,1.48477303981781,1.799507737159729
1761497451570485500,3.122485595703125,-0.07550541311502457,1.4334355592727661,2.6856210231781006
1761497451580541700,3.132541748046875,-0.2601841688156128,1.314191460609436,3.049262762069702
1761497451590597600,3.14259765625,-0.3935086727142334,0.8338050842285156,2.644057035446167
1761497451600654600,3.152654541015625,-0.47385865449905396,0.3867120146751404,1.8471671342849731
1761497451610710500,3.16271044921875,-0.5460734367370605,0.11904170364141464,1.1733142137527466
1761497451620766700,3.1727666015625,-0.5288494825363159,0.08074997365474701,0.8058674931526184
1761497451630822700,3.18282275390625,-0.3872651755809784,0.16674397885799408,0.6432346105575562
1761497451640879600,3.192879638671875,-0.20059941709041595,0.27380889654159546,0.6686627268791199
1761497451650935600,3.202935546875,-0.018580075353384018,0.4215658903121948,0.9095461964607239
1761497451660991700,3.21299169921875,0.07405984401702881,0.6678742170333862,1.3281961679458618
1761497451671048700,3.223048583984375,-0.051780108362436295,0.895780086517334,1.7881139516830444
1761497451681104600,3.233104736328125,-0.2763543725013733,0.9795737862586975,2.0503344535827637
1761497451691160600,3.24316064453125,-0.38112711906433105,0.7767737507820129,1.9647502899169922
1761497451701217500,3.253217529296875,-0.36520299315452576,0.5104054808616638,1.7162712812423706
1761497451711273700,3.263273681640625,-0.3554273545742035,0.3723887503147125,1.5843485593795776
1761497451721329700,3.27332958984375,-0.35902926325798035,0.34102922677993774,1.549849510192871
1761497451731386600,3.28338671875,-0.39159145951271057,0.3353777229785919,1.4766266345977783
1761497451741442600,3.293442626953125,-0.4747729003429413,0.3010546565055847,1.3496559858322144
1761497451751498800,3.303498779296875,-0.5475203394889832,0.15215304493904114,1.1177334785461426
1761497451761554700,3.3135546875,-0.6386526823043823,-0.08482354134321213,0.8029012680053711
1761497451771611600,3.323611572265625,-0.7167735695838928,-0.3455997407436371,0.4637783169746399
1761497451781667600,3.33366748046875,-0.7172555923461914,-0.5000436305999756,0.16649070382118225
1761497451791723800,3.343723876953125,-0.6614485383033752,-0.5271934866905212,-0.03195873275399208
1761497451801780700,3.35378076171875,-0.5242147445678711,-0.5622708201408386,-0.12947224080562592
1761497451811836700,3.363836669921875,-0.28016772866249084,-0.46657755970954895,-0.14946486055850983
1761497451821892900,3.373892822265625,-0.022912772372364998,-0.4433899521827698,-0.10619541257619858
1761497451831949800,3.38394970703125,0.1278085559606552,-0.38366296887397766,0.007387076038867235
1761497451842005800,3.394005859375,0.11660251021385193,-0.3231112062931061,0.15026938915252686
1761497451852061700,3.404061767578125,-0.010684868320822716,-0.32746681571006775,0.22268261015415192
1761497451862118700,3.41411865234375,-0.20680324733257294,-0.31616514921188354,0.1786605566740036
1761497451872174800,3.4241748046875,-0.3805934190750122,-0.3351393938064575,0.008268582634627819
1761497451882230800,3.434230712890625,-0.40778669714927673,-0.4055842459201813,-0.3406044542789459
1761497451892287700,3.444287841796875,-0.302379846572876,-0.5152393579483032,-0.7566027045249939
1761497451902343700,3.45434375,-0.07301215827465057,-0.5668905973434448,-1.1430561542510986
1761497451912400000,3.46439990234375,0.12307452410459518,-0.505536675453186,-1.3771411180496216
1761497451922455800,3.474455810546875,0.23585620522499084,-0.35916057229042053,-1.4819340705871582
1761497451932512800,3.4845126953125,0.3327835500240326,-0.2143051028251648,-1.4798905849456787
1761497451942568700,3.494568603515625,0.4981224536895752,-0.0653875321149826,-1.387940526008606
1761497451952625000,3.504625,0.6597049236297607,0.13818903267383575,-1.2848670482635498
1761497451962681900,3.514681884765625,0.7637006044387817,0.32531365752220154,-1.2558131217956543
1761497451972737800,3.52473779296875,0.820321261882782,0.364137202501297,-1.3720952272415161
1761497451982793500,3.53479345703125,0.7979605793952942,0.24897652864456177,-1.5482127666473389
1761497451992850700,3.5448505859375,0.6054004430770874,-0.026501381769776344,-1.745394229888916
1761497452002907000,3.554906982421875,0.31745973229408264,-0.2834809720516205,-1.9434497356414795
1761497452012962600,3.564962646484375,0.07042676210403442,-0.3834150433540344,-2.1295318603515625
1761497452023019800,3.575019775390625,-0.011509915813803673,-0.36267754435539246,-2.326890707015991
1761497452033075500,3.585075439453125,0.06576063483953476,-0.36018747091293335,-2.432701587677002
1761497452043131600,3.595131591796875,0.22188791632652283,-0.33970215916633606,-2.3915209770202637
1761497452053187600,3.6051875,0.46324676275253296,-0.08678043633699417,-2.1096794605255127
1761497452063244500,3.61524462890625,0.7486105561256409,0.4486449062824249,-1.5490617752075195
1761497452073300500,3.625300537109375,0.7717372179031372,0.9261680841445923,-1.1547743082046509
1761497452083356700,3.635356689453125,0.5478900074958801,0.96430504322052,-1.2872605323791504
1761497452093413600,3.64541357421875,0.28578460216522217,0.8077405095100403,-1.652222990989685
1761497452103469600,3.655469482421875,0.09374060481786728,0.49082937836647034,-1.6870768070220947
1761497452113525500,3.665525390625,0.035591814666986465,-0.03882595896720886,-1.2270972728729248
1761497452123582700,3.675582763671875,0.09081272780895233,-0.6681652665138245,-0.49701589345932007
1761497452133638700,3.685638671875,0.1696753203868866,-1.2140096426010132,0.24347710609436035
1761497452143694600,3.695694580078125,0.2596241235733032,-1.5936821699142456,0.7477493286132812
1761497452153751600,3.70575146484375,0.3123001158237457,-1.7869213819503784,0.8992365598678589
1761497452163807700,3.715807861328125,0.16595488786697388,-1.7257782220840454,0.8264153599739075
1761497452173863700,3.72586376953125,-0.054355915635824203,-1.1169356107711792,0.8719503879547119
1761497452183919600,3.735919677734375,-0.21153195202350616,-0.3852166533470154,1.1441621780395508
1761497452193976600,3.7459765625,-0.23305216431617737,0.40631556510925293,1.4109259843826294
1761497452204032800,3.75603271484375,-0.18448036909103394,1.0479685068130493,1.5972920656204224
1761497452214088700,3.766088623046875,-0.10209867358207703,1.3674315214157104,1.7677050828933716
1761497452224145700,3.776145751953125,0.0165555402636528,1.3946311473846436,1.844180941581726
1761497452234201600,3.78620166015625,0.06254993379116058,1.3100582361221313,1.8767155408859253
1761497452244257800,3.7962578125,0.11536387354135513,1.1113810539245605,1.8292793035507202
1761497452254314800,3.806314697265625,0.1094556525349617,0.9268572926521301,1.6231063604354858
1761497452264370700,3.81637060546875,0.010185792110860348,0.7115851640701294,1.3438841104507446
1761497452274426600,3.826426513671875,-0.1522955298423767,0.49861565232276917,1.1131874322891235
1761497452284483600,3.836483642578125,-0.22003409266471863,0.33655592799186707,0.9822001457214355
1761497452294539800,3.846539794921875,-0.2633669078350067,0.12236665934324265,1.032602310180664
1761497452304595700,3.856595703125,-0.3617696464061737,0.12223030626773834,1.1716669797897339
1761497452314651600,3.866651611328125,-0.4909774363040924,0.1961364895105362,1.3217356204986572
1761497452324708600,3.87670849609375,-0.605506181716919,0.13163818418979645,1.4224579334259033
1761497452334764800,3.886764892578125,-0.6427611112594604,0.019403524696826935,1.3850139379501343
1761497452344820700,3.89682080078125,-0.5470747947692871,-0.0981670469045639,1.159397840499878
1761497452354877700,3.906877685546875,-0.3626282513141632,-0.19789470732212067,0.7604504823684692
1761497452364933600,3.91693359375,-0.22460567951202393,-0.2228298783302307,0.39356860518455505
1761497452374989800,3.92698974609375,-0.18428781628608704,-0.12092162668704987,0.15027205646038055
1761497452385046800,3.937046875,-0.22001199424266815,0.06566236913204193,0.0020562265999615192
1761497452395102700,3.947102783203125,-0.24976962804794312,0.3866177499294281,-0.07407129555940628
1761497452405158700,3.95715869140625,-0.2297128289937973,0.7031802535057068,-0.11485521495342255
1761497452415215600,3.967215576171875,-0.14975248277187347,0.7947863340377808,-0.14647997915744781
1761497452425271800,3.977271728515625,-0.017582722008228302,0.7225400805473328,-0.1334265023469925
1761497452435327700,3.98732763671875,0.1269744634628296,0.6369037628173828,-0.07213570922613144
1761497452445385000,3.997385009765625,0.19899939000606537,0.44173532724380493,-0.05573197081685066
1761497452455441000,4.00744091796875,0.18540021777153015,0.1073022186756134,-0.1197703406214714
1761497452465497000,4.0174970703125,0.16353219747543335,-0.23095491528511047,-0.2507009208202362
1761497452475550200,4.02755029296875,0.23776115477085114,-0.5671872496604919,-0.46340495347976685
1761497452485607200,4.037607177734375,0.41812241077423096,-0.8452383279800415,-0.7623330354690552
1761497452495663000,4.0476630859375,0.5953078269958496,-0.9198435544967651,-1.0492197275161743
1761497452505719000,4.057718994140625,0.6987242698669434,-0.7764573693275452,-1.2874938249588013
1761497452515776300,4.0677763671875,0.6500954627990723,-0.492088258266449,-1.481783390045166
1761497452525832200,4.077832275390625,0.4377102255821228,-0.20925921201705933,-1.6074683666229248
1761497452535888000,4.087887939453125,0.19373537600040436,0.048658616840839386,-1.590427279472351
1761497452545945000,4.097945068359375,0.014199442230165005,0.15474297106266022,-1.518165111541748
1761497452556001000,4.1080009765625,-0.057729076594114304,0.06769755482673645,-1.5334569215774536
1761497452566057000,4.118056884765625,0.014448448084294796,-0.03754391148686409,-1.7045855522155762
1761497452576114000,4.128114013671875,0.20284046232700348,-0.13660497963428497,-2.008936643600464
1761497452586169900,4.138169921875,0.34084945917129517,-0.17044150829315186,-2.142383337020874
1761497452596226000,4.14822607421875,0.3745155334472656,-0.06412039697170258,-1.9864484071731567
1761497452606282000,4.158281982421875,0.30791789293289185,0.1318752020597458,-1.6359143257141113
1761497452616339000,4.1683388671875,0.2678713798522949,0.2291618138551712,-1.3063784837722778
1761497452626395000,4.178394775390625,0.337686151266098,0.13428270816802979,-1.2617710828781128
1761497452636451000,4.188451171875,0.3562641143798828,-0.23903468251228333,-1.5314065217971802
1761497452646508000,4.198508056640625,0.23361168801784515,-0.5431351661682129,-1.9250744581222534
1761497452656564000,4.20856396484375,0.04538585618138313,-0.7932955026626587,-2.173078775405884
1761497452666620000,4.218619873046875,-0.04429582506418228,-0.9612730741500854,-2.096691846847534
1761497452676676900,4.2286767578125,-0.06199173256754875,-1.0076916217803955,-1.7119978666305542
1761497452686733000,4.238733154296875,-0.17328763008117676,-1.0493115186691284,-1.2630257606506348
1761497452696789000,4.2487890625,-0.40983280539512634,-0.8217186331748962,-0.9442935585975647
1761497452706846000,4.258845947265625,-0.629278302192688,-0.3496544063091278,-0.7098549008369446
1761497452716902100,4.268902099609375,-0.6211740374565125,0.0559985525906086,-0.5395830869674683
1761497452726958000,4.2789580078125,-0.4283580183982849,0.061898522078990936,-0.3905288577079773
1761497452737014000,4.289013916015625,-0.07776616513729095,-0.20786026120185852,-0.15615232288837433
1761497452747071000,4.299071044921875,0.2960713505744934,-0.3762702941894531,0.1980113536119461
1761497452757127200,4.309127197265625,0.5473493933677673,-0.29680609703063965,0.6301776766777039
1761497452767183000,4.31918310546875,0.7017336487770081,-0.09204816818237305,1.051946997642517
1761497452777240000,4.329239990234375,0.664096474647522,0.18387502431869507,1.5051754713058472
1761497452787296000,4.3392958984375,0.436310738325119,0.4683837294578552,1.8690173625946045
1761497452797352200,4.349352294921875,0.0764273926615715,0.7775501012802124,2.090623140335083
1761497452807409200,4.3594091796875,-0.31596940755844116,1.0527595281600952,2.184262275695801
1761497452817465000,4.369465087890625,-0.531467080116272,1.1869198083877563,2.180901527404785
1761497452827521000,4.37952099609375,-0.5484415292739868,1.2605644464492798,1.9750596284866333
1761497452837578000,4.389577880859375,-0.45067688822746277,1.1924034357070923,1.6234866380691528
1761497452847634200,4.39963427734375,-0.20376457273960114,0.9187410473823547,1.3274015188217163
1761497452857690000,4.409690185546875,-0.06312277913093567,0.38160088658332825,1.1761637926101685
1761497452867746000,4.41974609375,-0.048057541251182556,0.01721946708858013,1.2278525829315186
1761497452877803000,4.429802978515625,-0.09789087623357773,-0.11867152154445648,1.4146000146865845
1761497452887861000,4.439861083984375,-0.18768414855003357,-0.23280102014541626,1.5972542762756348
1761497452897918000,4.44991796875,-0.20869116485118866,-0.3881557285785675,1.6742569208145142
1761497452907974000,4.459973876953125,-0.13769234716892242,-0.4519413709640503,1.7118237018585205
1761497452918030000,4.470030029296875,-0.03220587223768234,-0.35220545530319214,1.756178379058838
1761497452928086000,4.4800859375,0.12051975727081299,-0.11525867879390717,1.7872745990753174
1761497452938143000,4.49014306640625,0.3721938133239746,0.2259092926979065,1.7014992237091064
1761497452948199000,4.500198974609375,0.5779373645782471,0.31795185804367065,1.455515742301941
1761497452958255000,4.510255126953125,0.6782298684120178,0.186961367726326,1.0627256631851196
1761497452968312000,4.52031201171875,0.6753227710723877,0.0723721981048584,0.5369715690612793
1761497452978368000,4.530367919921875,0.4832204580307007,-0.02208000235259533,-0.02570536360144615
1761497452988424000,4.540423828125,0.19015821814537048,0.05269889906048775,-0.5429242849349976
1761497452998481200,4.550481201171875,-0.0933627039194107,0.16277267038822174,-0.8978946208953857
1761497453008537000,4.560537109375,-0.3021217882633209,0.23024438321590424,-1.0616952180862427
1761497453018593000,4.570593017578125,-0.4113990068435669,0.25031957030296326,-1.0868877172470093
1761497453028650000,4.58064990234375,-0.44040295481681824,0.19728457927703857,-1.0227038860321045
1761497453038706200,4.5907060546875,-0.38228052854537964,0.029577599838376045,-0.9156101942062378
1761497453048762000,4.60076220703125,-0.25483575463294983,-0.21597890555858612,-0.8191990256309509
1761497453058819000,4.610819091796875,-0.06290572881698608,-0.5459533333778381,-0.793722927570343
1761497453068875000,4.620875,0.2164098024368286,-0.8621389865875244,-0.9054870009422302
1761497453078931200,4.63093115234375,0.4458283483982086,-1.0469945669174194,-1.0516839027404785
1761497453088987100,4.640987060546875,0.6178581714630127,-0.9567224979400635,-1.1193031072616577
1761497453099044000,4.651044189453125,0.7070250511169434,-0.6276519298553467,-1.0528814792633057
1761497453109100000,4.66110009765625,0.666847825050354,-0.18231254816055298,-0.9037929773330688
1761497453119156200,4.67115625,0.5153318047523499,0.25421658158302307,-0.7936739325523376
1761497453129213200,4.681213134765625,0.3579123318195343,0.5941845178604126,-0.8255716562271118
1761497453139269000,4.69126904296875,0.24278149008750916,0.7845523357391357,-0.9837210774421692
1761497453149325000,4.701324951171875,0.1968265175819397,0.8653672933578491,-1.1858550310134888
1761497453159382000,4.711382080078125,0.2058655470609665,0.7328172326087952,-1.3008012771606445
1761497453169438200,4.721438232421875,0.24182941019535065,0.5177491307258606,-1.303153395652771
1761497453179494100,4.731494140625,0.2726046144962311,0.30101069808006287,-1.3172823190689087
1761497453189551000,4.741551025390625,0.22137659788131714,0.22874929010868073,-1.3685015439987183
1761497453199607000,4.75160693359375,0.13257162272930145,0.37824371457099915,-1.3834275007247925
1761497453209663200,4.761663330078125,0.034391261637210846,0.7787461280822754,-1.3763346672058105
1761497453219720200,4.77172021484375,-0.05955680459737778,1.0885313749313354,-1.4461408853530884
1761497453229776100,4.781776123046875,-0.1675674319267273,1.096182107925415,-1.5645732879638672
1761497453239832000,4.79183203125,-0.21749956905841827,0.7769045233726501,-1.5550799369812012
1761497453249889000,4.801888916015625,-0.19062641263008118,0.027351995930075645,-1.3025717735290527
1761497453259945200,4.8119453125,-0.10816588252782822,-0.7184175252914429,-1.029672384262085
1761497453270001200,4.822001220703125,-0.1357671469449997,-1.2843294143676758,-0.9474062323570251
1761497453280058000,4.83205810546875,-0.2295146882534027,-1.6997671127319336,-0.8652511835098267
1761497453290114000,4.842114013671875,-0.18960188329219818,-1.876229166984558,-0.4413614273071289
1761497453300170000,4.852169921875,-0.10764896869659424,-1.716105341911316,0.3155931234359741
1761497453310226000,4.862225830078125,-0.06494145095348358,-1.3255034685134888,1.007502555847168
1761497453320283100,4.872283203125,0.011600197292864323,-0.9665077328681946,1.186362624168396
1761497453330339000,4.882339111328125,0.10431814938783646,-0.5455877184867859,0.9105326533317566
1761497453340395000,4.89239501953125,0.15871800482273102,-0.13858184218406677,0.5605826377868652
1761497453350452000,4.902451904296875,0.20068329572677612,0.13669872283935547,0.5826998949050903
1761497453360508000,4.9125078125,0.2898368835449219,0.459399551153183,1.096786379814148
1761497453370564000,4.922564208984375,0.40308433771133423,0.8308506011962891,1.7993067502975464
1761497453380621000,4.93262109375,0.3633020520210266,1.189426064491272,2.362069606781006
1761497453390677000,4.942677001953125,0.1587422490119934,1.3981859683990479,2.5427041053771973
1761497453400733000,4.95273291015625,-0.08426135033369064,1.2352756261825562,2.311469554901123
1761497453410790000,4.962789794921875,-0.32196497917175293,0.6985234618186951,1.9173771142959595
1761497453420846000,4.97284619140625,-0.5246637463569641,0.22288207709789276,1.5933034420013428
1761497453430902000,4.982902099609375,-0.5828133821487427,0.07902797311544418,1.4363828897476196
1761497453440958700,4.992958740234375,-0.6051391959190369,0.17260107398033142,1.4521516561508179
1761497453451014700,5.0030146484375,-0.6431664228439331,0.34132030606269836,1.5847874879837036
1761497453461070800,5.01307080078125,-0.6467811465263367,0.45622771978378296,1.6972357034683228
1761497453471126800,5.023126708984375,-0.6498163342475891,0.42777690291404724,1.785829782485962
1761497453481183700,5.033183837890625,-0.6166576147079468,0.24884949624538422,1.8434171676635742
1761497453491239700,5.04323974609375,-0.578693687915802,-0.07224543392658234,1.925233244895935
1761497453501295900,5.0532958984375,-0.5503779053688049,-0.4496355950832367,2.01497220993042
1761497453511352800,5.063352783203125,-0.5013890862464905,-0.7640390992164612,2.048668146133423
1761497453521408800,5.07340869140625,-0.396857351064682,-0.9152307510375977,1.9836890697479248
1761497453531464700,5.083464599609375,-0.28792712092399597,-0.8494392037391663,1.8494279384613037
1761497453541521700,5.093521728515625,-0.2229880690574646,-0.6608399748802185,1.7529571056365967
1761497453551577900,5.103577880859375,-0.1835479885339737,-0.37770602107048035,1.7247073650360107
1761497453561633800,5.1136337890625,-0.15788577497005463,-0.08606244623661041,1.665986180305481
1761497453571690800,5.123690673828125,-0.1648043990135193,0.12755262851715088,1.460808515548706
1761497453581747000,5.133746826171875,-0.19043892621994019,0.20252487063407898,1.0798609256744385
1761497453591803000,5.143802978515625,-0.24466167390346527,0.21469898521900177,0.6418647170066833
1761497453601859800,5.15385986328125,-0.2698964476585388,0.13379055261611938,0.2836058735847473
1761497453611915800,5.163915771484375,-0.28120851516723633,0.08573407679796219,0.05631360784173012
1761497453621971700,5.1739716796875,-0.26524871587753296,0.02508378215134144,-0.05176279693841934
1761497453632029000,5.18402880859375,-0.2075454741716385,-0.11286929249763489,-0.07778028398752213
1761497453642084900,5.1940849609375,-0.14105059206485748,-0.3019031286239624,-0.10163182020187378
1761497453652140500,5.204140625,-0.07899202406406403,-0.4881440997123718,-0.1417107880115509
1761497453662196700,5.21419677734375,-0.009828129783272743,-0.6894543170928955,-0.21677066385746002
1761497453672253700,5.224253662109375,0.0539921298623085,-0.8931110501289368,-0.2847214937210083
1761497453682309600,5.2343095703125,0.12603169679641724,-1.0265740156173706,-0.33558571338653564
1761497453692365600,5.244365478515625,0.17186176776885986,-1.0835672616958618,-0.4027218818664551
1761497453702422500,5.254422607421875,0.18586014211177826,-1.13936448097229,-0.5211989879608154
1761497453712478700,5.264478759765625,0.1612466722726822,-1.1265970468521118,-0.7039975523948669
1761497453722534700,5.27453466796875,0.13263927400112152,-1.057700514793396,-0.9211445450782776
1761497453732591600,5.284591552734375,0.10797227174043655,-0.8735644817352295,-1.1196410655975342
1761497453742647600,5.2946474609375,0.09658965468406677,-0.6373429298400879,-1.2497466802597046
1761497453752703700,5.304703857421875,0.11179178208112717,-0.47845420241355896,-1.3350389003753662
1761497453762760700,5.3147607421875,0.11341311037540436,-0.39760276675224304,-1.4017071723937988
1761497453772816600,5.324816650390625,0.10579167306423187,-0.4384351372718811,-1.4521253108978271
1761497453782872600,5.33487255859375,0.14115525782108307,-0.6213708519935608,-1.577203392982483
1761497453792929500,5.344929443359375,0.18567532300949097,-0.8589296340942383,-1.8257319927215576
1761497453802985700,5.35498583984375,0.2536082863807678,-1.0617053508758545,-2.209040880203247
1761497453813041700,5.365041748046875,0.48287585377693176,-1.1721317768096924,-2.6435394287109375
1761497453823098600,5.3750986328125,0.7302930951118469,-1.2391464710235596,-3.1707916259765625
1761497453833154600,5.385154541015625,0.7552546262741089,-1.3590960502624512,-3.5322391986846924
1761497453843210800,5.395210693359375,0.5468851923942566,-1.4513274431228638,-3.5195770263671875
1761497453853267700,5.405267822265625,0.14402268826961517,-1.5906955003738403,-3.1425580978393555
1761497453863323600,5.41532373046875,-0.24774934351444244,-1.5027294158935547,-2.621964693069458
1761497453873379600,5.425379638671875,-0.3854912221431732,-1.451845645904541,-2.1420648097991943
1761497453883436800,5.435436767578125,-0.2862868905067444,-1.4488600492477417,-1.6971491575241089
1761497453893492700,5.44549267578125,-0.05495699122548103,-1.2652790546417236,-1.2776331901550293
1761497453903548700,5.455548583984375,0.23950447142124176,-0.9459332227706909,-0.9634648561477661
1761497453913604900,5.46560498046875,0.42916548252105713,-0.44591382145881653,-0.7543116211891174
1761497453923661800,5.475661865234375,0.4500015079975128,0.1682175099849701,-0.6657329797744751
1761497453933717800,5.4857177734375,0.4380764067173004,0.6268306374549866,-0.5866235494613647
1761497453943773700,5.495773681640625,0.49525555968284607,0.9387208819389343,-0.2574094235897064
1761497453953830700,5.50583056640625,0.6416236758232117,1.1799724102020264,0.3886697292327881
1761497453963886800,5.515886962890625,0.7732768058776855,1.2701618671417236,1.1540400981903076
1761497453973942800,5.52594287109375,0.7942143082618713,1.122263789176941,1.7354259490966797
1761497453983999700,5.535999755859375,0.6856046915054321,0.6997231841087341,1.9580495357513428
1761497453994055700,5.5460556640625,0.4611652195453644,0.36160826683044434,1.923597812652588
1761497454004112000,5.55611181640625,0.08986198157072067,0.3607392907142639,1.7543929815292358
1761497454014168800,5.5661689453125,-0.35683321952819824,0.5531681180000305,1.5221209526062012
1761497454024224800,5.576224853515625,-0.696515679359436,0.8650506138801575,1.2822481393814087
1761497454034280700,5.58628076171875,-0.9027754068374634,1.1524920463562012,1.103659749031067
1761497454044337700,5.596337646484375,-0.941148579120636,1.2944883108139038,1.1130508184432983
1761497454054393900,5.606393798828125,-0.8419109582901001,1.3526408672332764,1.2303622961044312
1761497454064449800,5.61644970703125,-0.7731564044952393,1.2685158252716064,1.2869012355804443
1761497454074506800,5.6265068359375,-0.8114697337150574,0.8737647533416748,1.319804310798645
1761497454084562700,5.636562744140625,-0.8160008192062378,0.22271989285945892,1.3592315912246704
1761497454094619000,5.646618896484375,-0.6501913070678711,-0.37292030453681946,1.4669116735458374
1761497454104674800,5.6566748046875,-0.3908998370170593,-0.7996612787246704,1.7189549207687378
1761497454114731800,5.666731689453125,-0.17198240756988525,-1.035800814628601,2.016829252243042
1761497454124787700,5.67678759765625,-0.031083617359399796,-1.10903799533844,2.3715381622314453
1761497454134844000,5.686843994140625,0.10071808844804764,-1.0593702793121338,2.723806381225586
1761497454144900900,5.69690087890625,0.18009893596172333,-0.8678381443023682,2.955231189727783
1761497454154956800,5.706956787109375,0.2647506892681122,-0.4573723375797272,2.9144694805145264
1761497454165012700,5.7170126953125,0.3826674818992615,0.5590161681175232,2.5887670516967773
1761497454175069700,5.727069580078125,0.5350136160850525,0.8128058314323425,2.315826892852783
1761497454185126000,5.7371259765625,0.5503425002098083,0.6892846822738647,2.0030150413513184
1761497454195181600,5.747181640625,0.2685292065143585,0.8602697253227234,1.3686045408248901
1761497454205238800,5.75723876953125,-0.0722222626209259,1.0151761770248413,0.5651755332946777
1761497454215294700,5.767294677734375,-0.3597560524940491,1.1844286918640137,-0.08234414458274841
1761497454225350700,5.7773505859375,-0.4984167218208313,1.0802891254425049,-0.4988452196121216
1761497454235408000,5.787407958984375,-0.5520991086959839,0.8064645528793335,-0.6711333394050598
1761497454245463600,5.797463623046875,-0.5744518041610718,0.47172412276268005,-0.7191632390022278
1761497454255519700,5.807519775390625,-0.5349504947662354,0.07590461522340775,-0.7464600801467896
1761497454265577000,5.817576904296875,-0.40777817368507385,-0.3730399012565613,-0.7924414277076721
1761497454275632600,5.827632568359375,-0.1390548199415207,-0.7768970727920532,-0.8517398834228516
1761497454285688600,5.8376884765625,0.1705656200647354,-0.9991986155509949,-0.9191029667854309
1761497454295745500,5.84774560546875,0.4627050757408142,-1.0236519575119019,-1.0109421014785767
1761497454305801700,5.8578017578125,0.68314129114151,-0.8902502655982971,-1.06038498878479
1761497454315857700,5.867857666015625,0.8054070472717285,-0.6474267244338989,-1.1080704927444458
1761497454325914600,5.87791455078125,0.852373480796814,-0.316843181848526,-1.2514145374298096
1761497454335970600,5.887970458984375,0.7868618369102478,-0.021401163190603256,-1.5555108785629272
1761497454346026800,5.89802685546875,0.593475341796875,0.1357509046792984,-1.9844927787780762
1761497454356083700,5.908083740234375,0.3554968535900116,0.11410872638225555,-2.4166650772094727
1761497454366139600,5.9181396484375,0.15545430779457092,-0.016393087804317474,-2.664224147796631
1761497454376195600,5.928195556640625,0.036807283759117126,-0.14889226853847504,-2.6733222007751465
1761497454386252500,5.93825244140625,0.01013945322483778,-0.07800105959177017,-2.480048179626465
1761497454396308700,5.948308837890625,-0.008737831376492977,0.20643094182014465,-2.1870479583740234
1761497454406364700,5.95836474609375,-0.09865307062864304,0.542147159576416,-2.1171875
1761497454416420600,5.968420654296875,-0.2819267511367798,0.9415680766105652,-2.1944186687469482
1761497454426477600,5.9784775390625,-0.3608284890651703,1.0570787191390991,-2.236809492111206
1761497454436533800,5.98853369140625,-0.043709397315979004,0.8007078766822815,-2.169090986251831
1761497454446590700,5.9985908203125,0.7353408336639404,0.466463565826416,-1.8412821292877197
1761497454456647700,6.008647705078125,1.4233264923095703,0.41498520970344543,-1.0852898359298706
1761497454466703600,6.01870361328125,1.5490481853485107,0.5584518313407898,-0.3298681974411011
1761497454476759600,6.028759521484375,1.1830453872680664,0.5711958408355713,-0.22427092492580414
1761497454486816800,6.038816650390625,0.4851056933403015,0.5303504467010498,-0.7586144804954529
1761497454496872700,6.048872802734375,-0.3102036714553833,0.35478925704956055,-1.206836223602295
1761497454506928600,6.0589287109375,-0.7808401584625244,-0.12384258210659027,-0.9687970280647278
1761497454516985600,6.068985595703125,-0.7346854209899902,-0.5399692058563232,-0.2866711914539337
1761497454527041800,6.079041748046875,-0.33852267265319824,-0.8739591836929321,0.43615788221359253
1761497454537097700,6.08909765625,0.042446527630090714,-1.0290981531143188,1.0691382884979248
1761497454547154700,6.09915478515625,0.12550732493400574,-0.7895694375038147,1.5542048215866089
1761497454557210600,6.109210693359375,0.04689054191112518,-0.41156649589538574,1.7767542600631714
1761497454567266800,6.119266845703125,-0.08606085181236267,0.10650194436311722,1.8996175527572632
1761497454577323800,6.12932373046875,-0.22543364763259888,0.7484492063522339,1.9448578357696533
1761497454587379700,6.139379638671875,-0.2816748321056366,1.2682899236679077,1.830552577972412
1761497454597435600,6.149435546875,-0.27835944294929504,1.5382921695709229,1.587208867073059
1761497454607492600,6.15949267578125,-0.23378878831863403,1.5096796751022339,1.3586223125457764
1761497454617548800,6.169548828125,-0.19435936212539673,1.153658151626587,1.3140606880187988
1761497454627604700,6.179604736328125,-0.17004922032356262,0.7338822484016418,1.4994219541549683
1761497454637660700,6.18966064453125,-0.1286943256855011,0.3961627781391144,1.7119760513305664
1761497454647717600,6.199717529296875,-0.1185210570693016,0.14138935506343842,1.8342119455337524
1761497454657773800,6.20977392578125,-0.1413898915052414,-0.007486145943403244,1.8179397583007812
1761497454667829800,6.219829833984375,-0.19556604325771332,-0.1547139436006546,1.6633597612380981
1761497454677886700,6.22988671875,-0.28535956144332886,-0.2928957939147949,1.4638621807098389
1761497454687942700,6.239942626953125,-0.40228697657585144,-0.4046521484851837,1.289607286453247
1761497454697998800,6.249998779296875,-0.5323917269706726,-0.5818242430686951,1.2162877321243286
1761497454708055800,6.260055908203125,-0.6394462585449219,-0.7768632769584656,1.253678560256958
1761497454718111700,6.27011181640625,-0.6582639217376709,-0.866122305393219,1.3603501319885254
1761497454728167700,6.280167724609375,-0.5406030416488647,-0.7846516966819763,1.4496443271636963
1761497454738224600,6.290224609375,-0.45457202196121216,-0.5566278100013733,1.5058013200759888
1761497454748280800,6.30028076171875,-0.37550783157348633,-0.37448999285697937,1.4883458614349365
1761497454758336800,6.310336669921875,-0.28134939074516296,-0.2991989552974701,1.3717859983444214
1761497454768393700,6.320393798828125,-0.21424518525600433,-0.15853264927864075,1.215063452720642
1761497454778449700,6.33044970703125,-0.14826802909374237,0.060096625238657,1.011521816253662
1761497454788505900,6.340505859375,-0.08959352970123291,0.3019252419471741,0.7495088577270508
1761497454798562800,6.350562744140625,-0.0505467988550663,0.5181973576545715,0.48879843950271606
1761497454808618800,6.36061865234375,-0.003641340183094144,0.6966424584388733,0.270554780960083
1761497454818674700,6.3706748046875,0.08183840662240982,0.8438460230827332,0.11330658197402954
1761497454828731600,6.380731689453125,0.18613284826278687,0.8999140858650208,-0.007134075742214918
1761497454838787800,6.390787841796875,0.2734467089176178,0.8301717638969421,-0.13225071132183075
1761497454848843500,6.400843505859375,0.3119778633117676,0.6413294076919556,-0.29859334230422974
1761497454858900700,6.410900634765625,0.2990644574165344,0.2941964864730835,-0.5085785388946533
1761497454868956700,6.420956787109375,0.26485908031463623,-0.04276663810014725,-0.7285119891166687
1761497454879012600,6.4310126953125,0.21333810687065125,-0.32015031576156616,-0.9132757186889648
1761497454889069800,6.44106982421875,0.1471274048089981,-0.4410855174064636,-1.0424102544784546
1761497454899125500,6.45112548828125,0.09713613986968994,-0.434818834066391,-1.1412113904953003
1761497454909181700,6.461181640625,0.08180724829435349,-0.429926335811615,-1.229347586631775
1761497454919238700,6.47123876953125,0.19703903794288635,-0.3833593726158142,-1.3074480295181274
1761497454929294600,6.481294677734375,0.37788018584251404,-0.27361929416656494,-1.395119547843933
1761497454939350500,6.4913505859375,0.495115727186203,-0.13502971827983856,-1.5605207681655884
1761497454949406700,6.50140673828125,0.5090395212173462,0.003599528456106782,-1.7917702198028564
1761497454959463700,6.511463623046875,0.4155482053756714,0.19786594808101654,-2.0363337993621826
1761497454969519600,6.52151953125,0.22524483501911163,0.4322267770767212,-2.2384114265441895
1761497454979575600,6.531575439453125,-0.02070048451423645,0.668426513671875,-2.362173080444336
1761497454989632500,6.541632568359375,-0.20904269814491272,0.7479008436203003,-2.4400007724761963
1761497454999688700,6.551688720703125,-0.18887697160243988,0.6003627777099609,-2.5323643684387207
1761497455009744600,6.56174462890625,0.2267676293849945,0.10546490550041199,-2.7287161350250244
1761497455019801600,6.571801513671875,0.8137565851211548,-0.34406256675720215,-2.941253662109375
1761497455029857500,6.581857421875,1.1290510892868042,-0.559549868106842,-2.9507927894592285
1761497455039913700,6.591913818359375,1.0266141891479492,-0.3615470230579376,-2.5830743312835693
1761497455049970700,6.601970703125,0.7369771003723145,0.0881519615650177,-2.076829433441162
1761497455060026600,6.612026611328125,0.5153048634529114,0.48009204864501953,-1.8523545265197754
1761497455070082600,6.62208251953125,0.4183274805545807,0.43343931436538696,-1.720910668373108
1761497455080139500,6.632139404296875,0.4188731610774994,0.05615328252315521,-1.390928030014038
1761497455090195700,6.64219580078125,0.3898436427116394,-0.3389303982257843,-0.9780663847923279
1761497455100251600,6.652251708984375,0.3101789057254791,-0.5317301750183105,-0.5541555881500244
1761497455110308600,6.66230859375,0.1788962483406067,-0.5519382953643799,-0.1804659068584442
1761497455120364500,6.672364501953125,0.04159298166632652,-0.5394834876060486,-0.031143005937337875
1761497455130420700,6.682420654296875,-0.05819646269083023,-0.5759149789810181,-0.013016998767852783
1761497455140477700,6.692477783203125,-0.029980270192027092,-0.5179914832115173,0.10450829565525055
1761497455150533600,6.70253369140625,0.11751304566860199,-0.3517013192176819,0.47624990344047546
1761497455160589600,6.712589599609375,0.3840315639972687,-0.058230284601449966,1.0870845317840576
1761497455170645800,6.722645751953125,0.5895453095436096,0.17597129940986633,1.7793151140213013
1761497455180702700,6.73270263671875,0.628898561000824,0.3126239478588104,2.3001115322113037
1761497455190758700,6.742758544921875,0.4740605056285858,0.4267745018005371,2.521266222000122
1761497455200814800,6.75281494140625,0.20843443274497986,0.4634547531604767,2.4535717964172363
1761497455210871800,6.762871826171875,-0.08988754451274872,0.5007855892181396,2.2124183177948
1761497455220927700,6.772927734375,-0.3461510241031647,0.5218482613563538,1.9240974187850952
1761497455230983700,6.782983642578125,-0.5654828548431396,0.545066773891449,1.6392866373062134
1761497455241040600,6.79304052734375,-0.7790984511375427,0.5236632227897644,1.340437412261963
1761497455251096800,6.803096923828125,-1.0626238584518433,0.31243619322776794,1.0898520946502686
1761497455261152800,6.81315283203125,-1.3507730960845947,0.1014707013964653,0.9630863666534424
1761497455271209700,6.823209716796875,-1.533632755279541,-0.03526637703180313,1.0023579597473145
1761497455281265700,6.833265625,-1.564141035079956,-0.20944643020629883,1.1225529909133911
1761497455291321900,6.84332177734375,-1.4477423429489136,-0.44503870606422424,1.2859803438186646
1761497455301378800,6.85337890625,-1.2269140481948853,-0.6167929172515869,1.5178452730178833
1761497455311434800,6.863434814453125,-0.9627183675765991,-0.6753576993942261,1.80204439163208
1761497455321490700,6.87349072265625,-0.7098232507705688,-0.6727661490440369,2.015542984008789
1761497455331547600,6.883547607421875,-0.5051649212837219,-0.6279371380805969,2.1220550537109375
1761497455341603800,6.893603759765625,-0.3035984933376312,-0.5220067501068115,2.107839345932007
1761497455351659800,6.90365966796875,-0.13433223962783813,-0.4641503691673279,1.9870129823684692
1761497455361716700,6.913716796875,-0.03769171983003616,-0.45453235507011414,1.7841732501983643
1761497455371772700,6.923772705078125,-0.01853853091597557,-0.4388652443885803,1.5247145891189575
1761497455381828900,6.933828857421875,-0.023849673569202423,-0.36151400208473206,1.2318872213363647
1761497455391884500,6.943884521484375,-0.06850768625736237,-0.27816903591156006,0.9136080741882324
1761497455401941800,6.953941650390625,-0.14277313649654388,-0.17087294161319733,0.608572781085968
1761497455411997700,6.963997802734375,-0.2199520766735077,-0.030550984665751457,0.3673918545246124
1761497455422053600,6.9740537109375,-0.29528915882110596,0.12097728997468948,0.17718276381492615
1761497455432110800,6.98411083984375,-0.3693700432777405,0.2090301811695099,0.000020240024241502397
1761497455442166500,6.99416650390625,-0.41008099913597107,0.20807357132434845,-0.18792036175727844
1761497455452222500,7.004222412109375,-0.3890779912471771,0.15909378230571747,-0.39245033264160156
1761497455462279700,7.01427978515625,-0.3214257061481476,0.07473842054605484,-0.6093512177467346
1761497455472335600,7.024335693359375,-0.2381180226802826,-0.05991393327713013,-0.8039364218711853
1761497455482391600,7.0343916015625,-0.15599653124809265,-0.20887091755867004,-0.9596535563468933
1761497455492448500,7.044448486328125,-0.11391697824001312,-0.3144940137863159,-1.0998239517211914
1761497455502504700,7.054504638671875,-0.10702844709157944,-0.3048693537712097,-1.2572966814041138
1761497455512560600,7.064560546875,-0.12358824908733368,-0.2284393012523651,-1.4371954202651978
1761497455522617600,7.07461767578125,-0.10925564914941788,-0.1267624795436859,-1.5917625427246094
1761497455532673500,7.084673583984375,0.005391037091612816,-0.03362853452563286,-1.6709388494491577
1761497455542729700,7.094729736328125,0.188062846660614,0.14561419188976288,-1.730664849281311
1761497455552786700,7.10478662109375,0.3680483400821686,0.27114948630332947,-1.8496534824371338
1761497455562842600,7.114842529296875,0.5366203188896179,0.22293135523796082,-2.1098854541778564
1761497455572898600,7.124898681640625,0.6647737622261047,0.034984882920980453,-2.4725513458251953
1761497455582955500,7.13495556640625,0.6650275588035583,-0.34572383761405945,-2.8819682598114014
1761497455593011700,7.14501171875,0.5852272510528564,-0.8610127568244934,-3.3424830436706543
1761497455603067600,7.155067626953125,0.5966429114341736,-1.3444377183914185,-3.7084271907806396
1761497455613124600,7.16512451171875,0.7522982358932495,-0.8753842115402222,-3.7075250148773193
1761497455623180500,7.1751806640625,0.7391654253005981,0.018499914556741714,-3.3746883869171143
1761497455633236700,7.18523681640625,0.3779084086418152,0.7461972236633301,-3.571075916290283
1761497455643292700,7.195292724609375,0.05426590144634247,1.03273344039917,-4.16331672668457
1761497455653349600,7.205349609375,-0.3198448419570923,1.2105894088745117,-4.41517972946167
1761497455663405600,7.215405517578125,-0.67356938123703,1.2310084104537964,-4.349302291870117
1761497455673461800,7.225461669921875,-0.8154886960983276,0.9059724807739258,-4.2454447746276855
1761497455683518700,7.235518798828125,-0.7885380387306213,0.052927661687135696,-4.049324989318848
1761497455693574700,7.24557470703125,-0.5450390577316284,-0.8663212060928345,-3.571336030960083
1761497455703630600,7.255630615234375,-0.10981864482164383,-1.342523217201233,-3.0322458744049072
1761497455713687600,7.2656875,0.28253981471061707,-1.5893529653549194,-2.5803332328796387
1761497455723743700,7.27574365234375,0.46872061491012573,-1.5051020383834839,-2.1217563152313232
1761497455733799700,7.285799560546875,0.563214898109436,-1.1441296339035034,-1.6997953653335571
1761497455743856600,7.295856689453125,0.5234917402267456,-1.1772042512893677,-1.4413599967956543
1761497455753912600,7.30591259765625,0.3671175539493561,-1.1816933155059814,-1.3337284326553345
1761497455763968800,7.31596875,0.16281741857528687,-1.4172618389129639,-1.4219684600830078
1761497455774025700,7.326025634765625,0.002153431996703148,-1.7062641382217407,-1.680478572845459
1761497455784081700,7.33608154296875,-0.022521020844578743,-1.9083354473114014,-2.017536163330078
1761497455794137600,7.3461376953125,0.016645023599267006,-1.93770432472229,-2.345371961593628
1761497455804194800,7.35619482421875,0.027834827080368996,-1.8922739028930664,-2.610370635986328
1761497455814250800,7.366250732421875,0.0840751975774765,-1.8480005264282227,-2.743380069732666
1761497455824306700,7.376306640625,0.18902744352817535,-1.5756235122680664,-2.6008718013763428
1761497455834363600,7.38636376953125,0.19609840214252472,-1.0108709335327148,-2.1728832721710205
1761497455844419800,7.396419921875,0.1577076017856598,-0.11251482367515564,-1.6559162139892578
1761497455854475800,7.406475830078125,0.07665030658245087,0.33055686950683594,-1.1825108528137207
1761497455864531700,7.41653173828125,-0.039088811725378036,0.7084157466888428,-0.8783121109008789
1761497455874588700,7.426588623046875,-0.1349245309829712,1.0790399312973022,-0.7481938004493713
1761497455884644900,7.436644775390625,-0.2241729199886322,1.37735116481781,-0.7307423949241638
1761497455894700800,7.44670068359375,-0.26795822381973267,1.5048023462295532,-0.751814603805542
1761497455904757800,7.4567578125,-0.24495142698287964,1.4269092082977295,-0.7747662663459778
1761497455914813700,7.466813720703125,-0.1870708167552948,1.2399089336395264,-0.7913934588432312
1761497455924870000,7.476869873046875,-0.08954878896474838,0.9791849255561829,-0.7946957945823669
1761497455934926800,7.4869267578125,0.008220911957323551,0.7746933102607727,-0.7781181335449219
1761497455944982800,7.496982666015625,0.07754086703062057,0.6274495124816895,-0.7695254683494568
1761497455955038700,7.507038818359375,0.11857112497091293,0.5913184285163879,-0.7477424144744873
1761497455965095700,7.517095703125,0.13276922702789307,0.5998227000236511,-0.7022705078125
1761497455975151900,7.52715185546875,0.12500078976154327,0.6207213401794434,-0.6287803053855896
1761497455985207800,7.537207763671875,0.09258239716291428,0.5567492842674255,-0.5685611963272095
1761497455995264800,7.5472646484375,0.035408057272434235,0.4080767035484314,-0.516598105430603
1761497456005320700,7.55732080078125,0.02802897058427334,0.2196791023015976,-0.4573822021484375
1761497456015376600,7.567376708984375,0.0749054029583931,0.07919548451900482,-0.3693801760673523
1761497456025433900,7.577433837890625,0.1413869559764862,-0.03320588916540146,-0.27857518196105957
1761497456035489800,7.58748974609375,0.14423547685146332,-0.032695893198251724,-0.2551233768463135
1761497456045545500,7.59754541015625,0.09604956954717636,0.023143667727708817,-0.30326640605926514
1761497456055602700,7.607602783203125,0.06947468221187592,0.030670560896396637,-0.39743390679359436
1761497456065658600,7.61765869140625,0.07295623421669006,0.0753868967294693,-0.4082103967666626
1761497456075714600,7.627714599609375,0.03610420972108841,0.1383695900440216,-0.4368273913860321
1761497456085771800,7.637771728515625,-0.08305680006742477,0.12621678411960602,-0.48494166135787964
1761497456095827500,7.647827392578125,-0.20475101470947266,-0.02315831556916237,-0.6115259528160095
1761497456105883600,7.657883544921875,-0.2676122784614563,-0.22678974270820618,-0.7872567772865295
1761497456115939600,7.667939697265625,-0.2560637295246124,-0.3355306088924408,-0.9163020849227905
1761497456125996500,7.67799658203125,-0.31698620319366455,-0.32761913537979126,-0.894447386264801
