time,seconds_elapsed,z,y,x
1761392298632939000,0.08793896484375,-0.9166378750562667,1.5628493281975389,-0.31090302840583023
1761392298643022000,0.09802197265625,-1.146353808659315,2.5951754833996294,-0.9288503639627248
1761392298653104000,0.108104248046875,-1.8543822510272263,2.551559336774051,-0.9668243399828672
1761392298663186200,0.118186279296875,-1.4577847333967684,2.4051275433182715,-0.8584213214743882
1761392298673268000,0.12826806640625,-0.9979787721812724,2.6366835518300533,-1.0418087076880038
1761392298683351000,0.13835107421875,-0.8205494906544685,2.589465873581171,-1.1859120581962168
1761392298693433000,0.14843310546875,0.03434299910664558,2.185391444198787,-1.0702412406418471
1761392298703515100,0.15851513671875,0.6189730253428221,1.714859798568487,-0.8173878117531538
1761392298713597200,0.16859716796875,0.714211514917016,1.682287900787592,-0.17887641159519552
1761392298723680000,0.178679931640625,0.5788116953462362,2.086796922194958,0.1468335243907757
1761392298733762000,0.188761962890625,0.8148620926678181,2.3558429956674574,0.05153148632738739
1761392298743844000,0.198843994140625,1.3038707674920558,2.5732752017587424,0.042423356644436715
1761392298753927000,0.208927001953125,1.698145395132899,2.684728328552842,0.1855690045690164
1761392298764009000,0.219009033203125,2.1886475233852862,2.6427818687051534,0.41743353104069825
1761392298774091000,0.229091064453125,2.397996960785985,2.6609493935585022,0.7729865060992539
1761392298784173000,0.239173095703125,2.659112241259217,2.810326885077357,0.993074633526802
1761392298794256000,0.249255859375,3.7700118746995925,2.9072844535291194,1.0718018410220742
1761392298804338000,0.259337890625,3.2863059824585914,2.728701910313964,1.3522006447665393
1761392298814420000,0.269419921875,3.481236433884501,2.7379484620869157,1.0373385765366256
1761392298824502000,0.279501953125,3.5964117960721254,2.7775685248136517,0.843272632985562
1761392298834584800,0.289584716796875,3.085246234497428,2.8709312836438414,0.8394326894965022
1761392298844668000,0.29966796875,3.0044261463761326,3.1649960630387066,0.4675568676032126
1761392298854750000,0.30975,2.6025679317384958,3.347363385489583,0.08453370181694626
1761392298864831700,0.319831787109375,2.4724615424007177,3.5221652411222455,-0.26882059415355325
1761392298874914800,0.329914794921875,3.018030893358588,3.615166765424609,-0.9825878724344074
1761392298884996900,0.339996826171875,3.605668284717202,3.5588153481274842,-1.7426516224659978
1761392298895079000,0.350078857421875,3.871754339340329,2.9410978758037087,-1.5422705044187603
1761392298905161000,0.360160888671875,3.774863406383991,1.8721201522916555,-0.6277341316863894
1761392298915243800,0.370243896484375,3.9843829396545885,1.4051584741026162,0.07387642472954467
1761392298925325800,0.380325927734375,5.26787727407217,1.5648808340251446,0.19125961742606012
1761392298935407900,0.390407958984375,7.278821375164389,1.7309505171477793,0.8710984322179108
1761392298945490000,0.400489990234375,7.406487385612726,2.0469249305337667,1.3429828806966542
1761392298955572700,0.41057275390625,3.248540023165941,4.150490616700053,-0.30732911544181407
1761392298965654800,0.42065478515625,-0.233698281237483,6.8670958465069525,-1.9005917751468717
1761392298975736800,0.43073681640625,1.3394050222098826,8.499133569481968,-2.964401009979844
1761392298985819000,0.44081884765625,3.352435866448283,8.6835607470721,-3.573766833543777
1761392298995901700,0.450901611328125,0.49064942776858805,7.855375062450766,-3.4600665123447776
1761392299005983700,0.460983642578125,-0.709203915888071,6.924510509121418,-5.056344062891602
1761392299016065800,0.471065673828125,-0.9756202253788709,6.686172293123603,-4.979800336915254
1761392299026148900,0.48114892578125,-1.1623381442546843,7.058784539532661,-4.807176994365453
1761392299036231000,0.49123095703125,-1.0053110147655009,7.0183876472145315,-5.628402192324399
1761392299046312700,0.501312744140625,-1.2765671655029058,6.353896733278035,-5.779146880543232
1761392299056394800,0.511394775390625,-2.188200364139676,5.275251602232456,-5.632922884619235
1761392299066477800,0.521477783203125,-4.185257978698611,3.986526965945959,-5.878343167832494
1761392299076560000,0.531559814453125,-6.1629860388875,2.5526860027164218,-5.997715981709956
1761392299086641700,0.5416416015625,-6.879234612590074,1.4476751350536943,-6.592929361280799
1761392299096723700,0.5517236328125,-6.063122812122106,1.192458557230234,-7.410131879594922
1761392299106806800,0.561806884765625,-5.182021529871225,1.3618512472957371,-7.548255571171641
1761392299116888800,0.571888916015625,-5.322542345717549,0.5929486495092511,-7.507621947488189
1761392299126971000,0.581970947265625,-5.2659939445436,-1.138714984343946,-7.162330254203081
1761392299137052700,0.592052734375,-5.723642435464263,-2.3745769222319124,-6.606306144726276
1761392299147135700,0.6021357421875,-6.551024987009168,-3.066519322195649,-6.005114859789609
1761392299157217800,0.6122177734375,-7.98235718228817,-4.202345307099819,-5.912088785567879
1761392299167299800,0.6222998046875,-9.550238367173074,-5.595380212688446,-6.388378264072537
1761392299177381600,0.632381591796875,-10.271991383510828,-6.162137313103676,-6.66344257492125
1761392299187464700,0.642464599609375,-10.335030900269746,-6.028450142669677,-6.652034461200237
1761392299197546800,0.652546630859375,-10.717691662484407,-6.330584831273556,-6.278446647757291
1761392299207628800,0.66262890625,-11.494607763117552,-7.605541638970375,-5.232450571382046
1761392299217711600,0.672711669921875,-11.761268987280129,-8.981531886255741,-3.7363486745506522
1761392299227793700,0.682793701171875,-11.371973901617526,-9.712892688894271,-2.2301246121555565
1761392299237875700,0.692875732421875,-10.464535232061147,-9.874774857199192,-0.8332967440247535
1761392299247957800,0.702957763671875,-9.35241044073999,-9.649527008920908,0.31811025637090207
1761392299258039800,0.713039794921875,-8.394668401879072,-9.447783954870701,1.3570949926793574
1761392299268123000,0.723122802734375,-8.525937989777326,-9.77701357114911,2.2951655318647624
1761392299278205000,0.733204833984375,-8.617176596060395,-10.50071129181385,3.6191105346143244
1761392299288286700,0.74328662109375,-8.562289406096935,-11.209499028116465,4.773413256451487
1761392299298369800,0.753369873046875,-8.850704781427979,-11.549359928524494,5.775113094982505
1761392299308451800,0.763451904296875,-9.792574712896347,-11.848265718209742,6.717177087718248
1761392299318534000,0.773533935546875,-10.374500156348944,-12.511306433337927,7.8180463255316015
1761392299328616000,0.783615966796875,-10.527134019315243,-12.578597762322426,8.797205246430634
1761392299338698800,0.79369873046875,-9.89918916748762,-12.650264822173117,9.69504723560214
1761392299348780800,0.80378076171875,-10.094358688366412,-13.752037146306037,10.742114156079293
1761392299358862800,0.81386279296875,-10.9542628688097,-14.676550869303941,12.328955477499962
1761392299368945000,0.82394482421875,-12.21494799004793,-14.779042106485367,13.52472476671338
1761392299379028000,0.834028076171875,-13.276530927133559,-14.521293672096728,13.809010494893789
1761392299389109800,0.84410986328125,-14.071408216392992,-14.520866971117258,13.898090461838244
1761392299399191800,0.85419189453125,-15.668039110422134,-14.849430232441424,12.74095456240177
1761392299409273900,0.86427392578125,-19.054377830994127,-15.162133076810836,10.505005189615487
1761392299419357000,0.87435693359375,-23.21714165381193,-14.89307998907566,8.074155760541558
1761392299429438700,0.884438720703125,-25.692916850805283,-12.779832282328606,4.093550585860013
1761392299439520800,0.894520751953125,-26.63847219278812,-9.943082085227966,-0.09394494263231754
1761392299449602800,0.904602783203125,-25.369201614034175,-7.061525947195291,-4.168879090827703
1761392299459686000,0.914685791015625,-23.97414660079479,-3.2541061328604814,-6.891959069606662
1761392299469768000,0.924767822265625,-22.266592156803608,1.1337298894077539,-8.730081675228476
1761392299479849700,0.934849609375,-21.35392669250965,5.722271147111058,-9.859184489357471
1761392299489931800,0.944931884765625,-20.385009179639816,9.624168111258745,-10.518002618354558
1761392299500014800,0.955014892578125,-19.993819074010847,12.520769842731951,-11.512427497446536
1761392299510097000,0.965096923828125,-19.587244352245328,15.055644878947733,-11.788359238779544
1761392299520178700,0.9751787109375,-18.43767450414896,18.425301344788075,-12.512238161230087
1761392299530260700,0.9852607421875,-16.68731201504469,21.595133157420157,-14.325142154443263
1761392299540343800,0.99534375,-13.511954132467508,24.274048415780065,-15.092419489115477
1761392299550425900,1.00542578125,-9.621483402219415,26.50000129520893,-14.869388147842884
1761392299560507600,1.015507568359375,-4.665929617810249,28.024095360815522,-13.544919998002051
1761392299570589700,1.025589599609375,0.4959330672599375,28.544100062406063,-11.047338627392053
1761392299580672800,1.0356728515625,1.5360943000018596,27.215168503415583,-9.403871163386105
1761392299590754800,1.0457548828125,-0.9204640092156827,25.66369309440851,-9.056645287168026
1761392299600836900,1.0558369140625,-5.509776981943846,25.868645173633098,-11.291339106935261
1761392299610918700,1.065918701171875,-9.796830032253265,29.05813328837156,-16.971421217614413
1761392299621001700,1.076001708984375,-12.782890500855444,33.183326382207866,-22.423756064414977
1761392299631083800,1.086083740234375,-13.3312094427824,35.80705575991869,-25.454039121103285
1761392299641165800,1.096165771484375,-12.320617857265471,35.87132277264595,-25.155956338238713
1761392299651248600,1.10624853515625,-9.967392350620031,34.243868870329855,-22.7833235358119
1761392299661330700,1.11633056640625,-7.599518725419044,32.58301538723707,-20.682198813056946
1761392299671412700,1.126412841796875,-6.311096871471404,30.88878570424318,-19.754211860990523
1761392299681494800,1.136494873046875,-5.993537234720588,29.85327945770025,-20.208128179645538
1761392299691577900,1.146577880859375,-6.702951578488945,29.696681367278096,-22.106491611218452
1761392299701660000,1.156659912109375,-8.898812101992965,29.121212552618978,-24.087197810435292
1761392299711741700,1.16674169921875,-11.355073035699128,27.243209187507627,-25.0939876655817
1761392299721823700,1.17682373046875,-13.128528815621136,25.475516793417928,-25.632318297457694
1761392299731906800,1.18690673828125,-13.75113581355214,23.684165291321275,-25.848731681895256
1761392299741988900,1.19698876953125,-14.40140823252201,21.582975102114677,-26.42985866844654
1761392299752071000,1.20707080078125,-16.1609453772068,19.55449242172241,-27.577901745367047
1761392299762153000,1.217153076171875,-18.534831394565103,15.849823080027102,-28.252407272839545
1761392299772235800,1.22723583984375,-20.184146415555475,11.186882707160711,-28.33999203279018
1761392299782317800,1.23731787109375,-21.417333289015293,7.897769850587844,-28.587805933141706
1761392299792400000,1.24739990234375,-24.042909755897522,6.078989074295759,-29.144513933229444
1761392299802482000,1.25748193359375,-26.701752532565592,4.634109707440436,-28.76442974350452
1761392299812564700,1.267564697265625,-28.691336450242993,2.1605133157908916,-27.518186989116668
1761392299822646800,1.277646728515625,-28.3504760174036,-1.6448885828502475,-24.982086795020102
1761392299832728800,1.287728759765625,-26.31791805039644,-5.729283656221628,-23.19707384829521
1761392299842811100,1.29781103515625,-23.611612096285818,-9.153408209830522,-22.441569953525065
1761392299852894000,1.30789404296875,-21.624476156282423,-10.696260751920939,-21.753136438465116
1761392299862976000,1.31797607421875,-22.218051120996474,-11.70080487396717,-20.784976465964316
1761392299873058000,1.32805810546875,-24.705222156751155,-13.097206625640391,-18.873363092195987
1761392299883140000,1.33814013671875,-28.01488797200918,-14.09114635156393,-17.01116519898176
1761392299893223200,1.34822314453125,-30.401511890387532,-15.744001237118244,-15.563919395256042
1761392299903305000,1.358304931640625,-30.626258218884466,-18.09933920587301,-14.315566516846417
1761392299913387000,1.368386962890625,-30.002412034547326,-21.439327678680417,-11.796035180234908
1761392299923469000,1.378468994140625,-30.651156513297558,-25.8689397726655,-6.910026641216874
1761392299933552000,1.38855224609375,-34.302391201925275,-31.14587713602781,-1.7240075661420822
1761392299943634000,1.398634033203125,-38.80257145460844,-35.04266011816263,2.673184021231532
1761392299953716000,1.408716064453125,-42.23309535386562,-37.49009301776886,5.807956795442104
1761392299963798000,1.418798095703125,-43.97149618701935,-38.55619547810554,8.2201050311774
1761392299973881000,1.428881103515625,-43.350560921692846,-38.69698108236789,9.48788332554698
1761392299983963100,1.438963134765625,-41.18347173464298,-37.82456579539775,8.338710952335596
1761392299994045000,1.449044921875,-38.697465066492555,-35.05533255273104,5.519900316551327
1761392300004127000,1.459126953125,-37.187205464971065,-32.01311355905533,2.3910388122111557
1761392300014210000,1.4692099609375,-36.28990357402563,-28.26927189840078,-1.0202437954813242
1761392300024292000,1.4792919921875,-35.77640109393597,-23.958691842031477,-4.804903788736462
1761392300034374000,1.489373779296875,-35.07940082606077,-19.94778914424181,-7.94970052883327
1761392300044457200,1.499457275390625,-34.36246602365971,-16.397756237506865,-10.907976918452977
1761392300054539300,1.509539306640625,-34.65012561218738,-13.947163412564992,-14.591432791727781
1761392300064621300,1.519621337890625,-34.30379639254808,-11.036351953953504,-18.105336400461194
1761392300074703000,1.529703125,-32.942021717619895,-7.862075436872243,-21.89161201221943
1761392300084786200,1.5397861328125,-30.692379335045814,-5.580086781966686,-25.638177544879913
1761392300094868200,1.5498681640625,-28.987160640525815,-2.1287094797730446,-28.37467054746151
1761392300104950300,1.5599501953125,-29.2049160872221,2.134879985101521,-29.28521770442724
1761392300115032300,1.5700322265625,-30.17728461732864,5.882122101849317,-29.26017444858551
1761392300125115100,1.580115234375,-31.782547730624675,9.688317050564288,-29.36994999755621
1761392300135197200,1.590197265625,-32.33332400257587,14.024217426151036,-28.90815666191578
1761392300145279200,1.600279296875,-31.71114253658056,17.677397403627634,-28.96955016503334
1761392300155361300,1.610361328125,-30.939445047378538,20.139220063114166,-31.32009037811756
1761392300165444000,1.620444091796875,-26.92745981504917,24.30212650927305,-32.885645750403405
1761392300175526100,1.630526123046875,-20.86059489378929,28.328334328222272,-29.498694450891016
1761392300185608200,1.640608154296875,-19.411719443035125,27.597190967726707,-26.71395267344713
1761392300195690200,1.650690185546875,-22.567104212641716,30.601142482328413,-29.89423106129169
1761392300205773000,1.66077294921875,-24.203557413971424,37.72342714186907,-33.87172014977932
1761392300215855000,1.670855224609375,-22.184611792731285,45.8851600635767,-35.04096968085766
1761392300225937200,1.680937255859375,-17.45317480674386,52.748293436193464,-29.38151184053421
1761392300236019200,1.691019287109375,-14.139333167105912,53.97543869140148,-19.72837131729126
1761392300246102000,1.70110205078125,-11.20120466250181,50.99892697238922,-11.713582522475718
1761392300256184000,1.71118408203125,-9.010772009265422,49.31612586138248,-11.090210969913006
1761392300266266000,1.72126611328125,-5.808626657527685,48.57878189268112,-15.431571948993206
1761392300276348200,1.73134814453125,-3.773457046717405,47.738491928768156,-17.79806960966587
1761392300286431000,1.741430908203125,-3.4122587592482563,44.144196686458585,-17.69957767125368
1761392300296513000,1.751512939453125,-3.8730572386324402,38.5790666506052,-17.477841630488633
1761392300306595000,1.761594970703125,-5.265829109370708,33.254175111413,-17.85424216326475
1761392300316677000,1.771677001953125,-7.291369306570291,29.82851443427801,-20.375965456962586
1761392300326760000,1.781760009765625,-9.176102856719494,25.27590490617752,-23.973033671116827
1761392300336842000,1.791842041015625,-11.47280626567602,19.16178139013648,-27.03941679971218
1761392300346924000,1.801924072265625,-15.950345647484063,12.89220778466463,-29.906372749984264
1761392300357006000,1.812006103515625,-21.48162368261814,7.881568072849512,-31.952206378149985
1761392300367089200,1.822089111328125,-27.48824777792692,1.789051408460736,-31.14750210688114
1761392300377171000,1.8321708984375,-32.282650630915164,-6.920562648278475,-28.30450453982353
1761392300387253000,1.8422529296875,-34.87153782782554,-16.107843901616334,-26.070026993155476
1761392300397335000,1.8523349609375,-38.57521582039595,-25.22545599092245,-24.786795693588257
1761392300407418000,1.862418212890625,-43.567329695439334,-35.62224396692514,-22.838331721806526
1761392300417500000,1.8725,-48.35887072925567,-46.309808202171325,-20.85503725966215
1761392300427582000,1.88258203125,-49.85140762708187,-57.48658686394691,-18.09216361515522
1761392300437664000,1.8926640625,-43.922125130128855,-64.8593999434948,-10.24240756163001
1761392300447747000,1.9027470703125,-36.89528821899891,-65.83583206977843,1.0800310324460267
1761392300457829000,1.9128291015625,-32.67368642276525,-64.35684205126762,12.86669574226737
1761392300467911000,1.922910888671875,-30.249823783838746,-60.59279697601795,24.410064321422574
1761392300477993000,1.932992919921875,-26.941453269088267,-58.33232924804687,33.142021727395054
1761392300488076300,1.943076171875,-23.623971227121352,-55.89819772856235,34.002596938967706
1761392300498158000,1.953157958984375,-20.69058319504261,-50.808891891789436,28.056865996038912
1761392300508240000,1.963239990234375,-19.95576669899225,-45.30324747960567,19.750447540020943
1761392300518322000,1.973322021484375,-22.706996667456625,-39.13731545039415,10.888677174699305
1761392300528405200,1.9834052734375,-26.251609887230394,-31.481720032966134,1.6905658997893331
1761392300538487300,1.9934873046875,-30.27751375479698,-22.761616730916497,-5.478188249981403
1761392300548569000,2.003569091796875,-34.82706506437063,-14.654136792922019,-9.90924294399023
1761392300558651100,2.013651123046875,-37.424511999833584,-6.2415411046862594,-13.67150172034502
1761392300568734200,2.023734130859375,-36.496539076292514,2.5111101297467946,-17.628829479813575
1761392300578816300,2.033816162109375,-33.52543067762851,9.980713604485988,-21.294511211466787
1761392300588898300,2.043898193359375,-29.724974564826486,17.140274393975734,-25.830826607370376
1761392300598980000,2.05397998046875,-24.969140804207324,25.26243518375158,-30.271147142374513
1761392300609063200,2.064063232421875,-21.347861693382264,27.740387140262126,-30.191956116759776
1761392300619145200,2.074145263671875,-22.130674450838566,24.18586510541439,-30.674301242041587
1761392300629227300,2.084227294921875,-27.070249160349366,27.671556180620193,-36.748984728097916
1761392300639309000,2.09430908203125,-29.925131226468086,33.95317912032604,-44.85543356947898
1761392300649392000,2.10439208984375,-27.31445305351019,39.49940805635452,-48.179053091287614
1761392300659474200,2.11447412109375,-23.740075979113577,42.67519030182361,-42.65126698992252
1761392300669556200,2.12455615234375,-19.355972421371934,42.76038553628921,-35.72037583985328
1761392300679638300,2.13463818359375,-14.615805016440152,44.72305105190277,-32.908580051267144
1761392300689721000,2.14472119140625,-9.630003977805375,47.428152890920636,-29.535437496876714
1761392300699803100,2.15480322265625,-7.475292626291513,47.42195228271484,-25.016639052963257
1761392300709885200,2.16488525390625,-5.6098775245964525,44.697233889079094,-19.941357065367697
1761392300719967200,2.17496728515625,-3.954899655538797,40.26771765668392,-14.282189147901533
1761392300730050000,2.185050048828125,-2.5334791979432105,37.07241004201173,-10.208359161555766
1761392300740132000,2.195132080078125,-1.945887399291992,32.64610868000984,-8.045960762670635
1761392300750214100,2.205214111328125,-1.8090233523875474,28.001128326725958,-9.352869874945283
1761392300760296200,2.215296142578125,-1.9278870476990937,23.348876521134375,-13.343421274101733
1761392300770379000,2.22537890625,-3.459945808574557,17.6960342995584,-18.91091628552079
1761392300780461000,2.2354609375,-6.550623420470953,10.562290672892331,-23.968172787082192
1761392300790543000,2.245543212890625,-12.732595899379252,3.0316113826826214,-27.013220866703985
1761392300800625200,2.255625244140625,-21.862689869117734,-5.448982029241323,-28.25541405344009
1761392300810708000,2.2657080078125,-32.6940418130517,-16.458073051303625,-30.59689183914661
1761392300820790000,2.2757900390625,-40.08615112922191,-28.286162242925165,-30.319505807352066
1761392300830872000,2.2858720703125,-41.21450750889778,-39.69079922773838,-26.476194887685775
1761392300840954000,2.2959541015625,-39.1976100523591,-49.659651714038844,-19.1204521854043
1761392300851039700,2.306039794921875,-40.84085305995941,-53.46460864539146,-8.550871355503798
1761392300861121500,2.31612158203125,-47.32323822598457,-52.40123239514828,3.0760557968258855
1761392300871203600,2.32620361328125,-55.943795112133024,-52.36505282826423,12.243089211905001
1761392300881285600,2.33628564453125,-56.40345377383232,-50.04885444524288,19.45689947797656
1761392300891368700,2.34636865234375,-45.193801600980755,-45.42326619017124,23.897214167761803
1761392300901450800,2.35645068359375,-29.767665705561637,-41.3618070250988,26.0715841594696
1761392300911532500,2.366532470703125,-16.49243358606696,-36.05340134128332,26.073050140368938
1761392300921614600,2.376614501953125,-11.133877093160152,-31.500873646247385,24.258394919574258
1761392300931697700,2.38669775390625,-12.102081489324569,-24.882241103911397,20.56620161309242
1761392300941779700,2.39677978515625,-14.575273099565505,-18.344876977986097,16.052335364884136
1761392300951861500,2.406861572265625,-16.51958930401802,-12.794233732646703,10.977087279558182
1761392300961943600,2.416943603515625,-17.501632840442657,-8.7622835706532,6.289170286345482
1761392300972025600,2.427025634765625,-18.30356413986683,-4.631314523763955,1.712879438406229
1761392300982108700,2.437108642578125,-18.906825801336765,0.14550561852157115,-2.8501930315196513
1761392300992190700,2.447190673828125,-17.80653933184743,4.8322044681161636,-7.543355524170399
1761392301002272500,2.4572724609375,-15.979546023005247,9.140459296408295,-11.163706414234637
1761392301012354600,2.4673544921875,-13.356660694903134,13.111473635923861,-13.951599933707714
1761392301022437600,2.477437744140625,-12.306954073572157,19.012285240674018,-17.076881825995443
1761392301032519700,2.487519775390625,-13.654188181972502,24.84024203709364,-17.92759147711396
1761392301042601500,2.4976015625,-14.05246620003581,23.229194495177268,-17.23812218926549
1761392301052683500,2.50768359375,-15.146027160662412,23.70889056725502,-20.427604458785055
1761392301062766800,2.517766845703125,-13.890670540970563,28.508921196997164,-25.838584381890296
1761392301072848600,2.5278486328125,-12.42918110783696,31.847114018559456,-32.09138104008436
1761392301082930700,2.5379306640625,-9.755141931080818,38.53295956394672,-35.76968610646725
1761392301093012500,2.548012451171875,-7.459218274325132,41.577196327185625,-33.25672830302715
1761392301103095800,2.558095703125,-7.017634198498725,40.113352439880366,-28.258219758510588
1761392301113177900,2.568177734375,-5.399448475265503,38.308788404989244,-24.625023415398598
1761392301123260000,2.578260009765625,-2.9270383707910774,37.47833945161104,-23.053183263754843
1761392301133341700,2.588341796875,-0.7426917594701051,35.987609895467756,-21.756166599941253
1761392301143424800,2.5984248046875,1.9472329686820506,33.788023629438875,-20.876302166008948
1761392301153506800,2.6085068359375,3.338440658843517,31.762531363034245,-20.384621057105065
1761392301163588900,2.6185888671875,3.220593447098136,29.306690700566765,-20.142778632378576
1761392301173670700,2.628670654296875,2.54256266810894,25.116199497389793,-19.35063222938776
1761392301183753700,2.638753662109375,1.9441928703337907,20.803288367724416,-18.827017520606518
1761392301193835800,2.648835693359375,-1.3611083199739455,16.649355501616,-17.617565742999314
1761392301203917800,2.658917724609375,-8.413034664174914,11.000299812841416,-16.40524513195753
1761392301213999900,2.668999755859375,-17.46503709397316,3.8425492876440286,-16.67615466121435
1761392301224082700,2.679082763671875,-26.551691734957693,-3.036218291956186,-17.24345536698699
1761392301234164700,2.689164794921875,-36.067752522718905,-10.775850421464442,-15.706047061777113
1761392301244246800,2.699246826171875,-42.472875585365294,-19.715654459059238,-11.397692864763735
1761392301254328800,2.709328857421875,-44.20115717556477,-29.539914934551714,-5.964011280506849
1761392301264411600,2.71941162109375,-43.09627519497871,-38.69919057511091,1.6259668786287307
1761392301274493700,2.72949365234375,-42.747273541259766,-44.97815043308734,9.746322080287337
1761392301284575700,2.73957568359375,-43.41135119822025,-46.99605560536384,19.24676853480935
1761392301294657800,2.74965771484375,-43.575410126042364,-47.59037875809669,29.428184744381902
1761392301304739800,2.75973974609375,-41.99231909706592,-44.31351631128788,34.85131103235483
1761392301314822700,2.76982275390625,-38.71420109723806,-37.41251527256966,34.065888969182964
1761392301324904700,2.77990478515625,-34.93140222167968,-31.132056700468063,30.850889981091022
1761392301334986800,2.78998681640625,-29.675386065793035,-24.981930143153665,26.594827112329003
1761392301345068800,2.80006884765625,-23.389248279011248,-18.794908564162252,22.79988888616562
1761392301355151600,2.810151611328125,-18.572910657590626,-14.5847213113904,19.272495681262015
1761392301365233700,2.820233642578125,-15.45094066632986,-11.070611950951815,14.854564672720432
1761392301375315700,2.830315673828125,-13.223130176335573,-7.007761039260029,10.309421827238797
1761392301385397800,2.840397705078125,-10.797994448733329,-2.9915032441779967,6.253202316385507
1761392301395480600,2.85048046875,-9.045080521580577,0.5520803402870893,3.0471628798186776
1761392301405562600,2.860562744140625,-9.093498223268986,3.271163066123426,0.5795388405770063
1761392301415644700,2.870644775390625,-10.518541547536849,5.468941698208451,-2.0631454129725695
1761392301425726700,2.880726806640625,-11.7815039660573,8.06665342208743,-4.935371412602067
1761392301435809500,2.8908095703125,-11.55675296138525,10.590427218574284,-7.1278908089846365
1761392301445891600,2.9008916015625,-10.760602583450078,11.734204454743862,-7.5757836295664305
1761392301455973600,2.9109736328125,-10.152304681378602,12.529417259567975,-8.138338602116704
1761392301466055700,2.9210556640625,-9.816744693034886,14.839306313312052,-10.458390737956762
1761392301476137700,2.9311376953125,-9.865119724625348,18.020832070869208,-13.638683154326676
1761392301486220500,2.941220458984375,-9.544326512780785,20.371268239057063,-17.31984653275013
1761392301496302600,2.951302490234375,-9.082332101610302,22.634899399495122,-20.877618509304522
1761392301506384600,2.961384521484375,-9.962948815214633,24.4724234547019,-24.070688574182984
1761392301516466700,2.971466796875,-11.388632775473594,25.476274333786964,-27.093450003194807
1761392301526549500,2.981549560546875,-12.65908408844471,28.09700862133503,-29.973489891445634
1761392301536631600,2.991631591796875,-13.423068226790427,31.327747614872454,-31.985582578051087
1761392301546713600,3.001713623046875,-13.464597338008879,33.878570746326446,-31.945121972846984
1761392301556795600,3.011795654296875,-11.183329983115195,33.00348536336422,-28.159924219453334
1761392301566878700,3.021878662109375,-7.544356225645542,28.832369891786573,-23.622615136337277
1761392301576960500,3.03196044921875,-5.043062556514144,24.945809028458594,-21.339269221603868
1761392301587042600,3.04204248046875,-3.5258185029327866,22.46345445307493,-19.723758270537854
1761392301597124600,3.05212451171875,-2.6276976968199013,20.316077682232855,-17.83818067077994
1761392301607207700,3.062207763671875,-1.63863171441257,18.112570443367957,-15.523703120201825
1761392301617289700,3.072289794921875,-0.5975111351191997,15.219556507253646,-13.467738558644056
1761392301627371800,3.082371826171875,-0.44896015755236146,12.426879260635376,-11.270334897351264
1761392301637453800,3.092453857421875,-2.26991710883975,9.520416060361265,-8.594193779879808
1761392301647536600,3.10253662109375,-5.284786323297023,7.507121012228727,-5.912761570262909
1761392301657618700,3.11261865234375,-8.645050691413878,5.771307272958755,-2.938191925229132
1761392301667700700,3.12270068359375,-11.637159792530536,1.971327107105404,1.4427490768283604
1761392301677782800,3.13278271484375,-13.035050905978679,-2.70556419583261,6.876636412790417
1761392301687864800,3.14286474609375,-12.65343293081522,-8.194098483261465,12.26403964547515
1761392301697947600,3.15294775390625,-13.038473866164683,-14.417207859200238,17.202348280572892
1761392301708029700,3.16302978515625,-14.200912548184395,-21.00175926823616,21.781375859999656
1761392301718111700,3.17311181640625,-17.497662767767906,-27.172587252795694,25.786704557049273
1761392301728193800,3.18319384765625,-22.674581421542165,-30.309491778337954,30.624549076879024
1761392301738276600,3.193276611328125,-24.67699676374197,-29.87905219686031,36.3592652795434
1761392301748358700,3.203358642578125,-24.477590628206727,-29.1566111982584,43.6945918012619
1761392301758440700,3.213440673828125,-24.39477790496349,-27.355488828253744,48.93989016377925
1761392301768522800,3.223522705078125,-24.288394921040535,-20.762689815354346,49.53267017872333
1761392301778605800,3.233605712890625,-26.709248441278934,-12.5701771399796,47.53996491415501
1761392301788687600,3.2436875,-30.478584608674048,-5.862752799990773,43.59419432148933
1761392301798769700,3.253769775390625,-32.73945214961767,0.18867898981571196,36.14317221310139
1761392301808851700,3.263851806640625,-34.01011389046907,5.23342906102538,26.63985867871046
1761392301818933800,3.273933837890625,-33.780074131739134,8.238620346555113,17.070905674195288
1761392301829016600,3.2840166015625,-29.995624566364288,8.946818884792924,7.930515935891866
1761392301839098600,3.2940986328125,-24.130578687000273,9.27928207616508,-0.09759944655187427
1761392301849180700,3.3041806640625,-18.778944102311133,9.40848888631463,-6.032531859025359
1761392301859262700,3.3142626953125,-14.714286433458327,9.980332496213911,-10.435331349408626
1761392301869345800,3.324345703125,-11.638672535181044,12.195873871743679,-13.624022176289557
1761392301879427600,3.334427490234375,-9.069201986402273,13.705308128356933,-15.04008023006916
1761392301889509600,3.344509521484375,-6.337147843050956,13.808090457439421,-16.345799255776406
1761392301899591700,3.354591796875,-4.510283129024505,16.65262414802313,-20.415264032649993
1761392301909674800,3.3646748046875,-2.9890292552798985,20.437943481969832,-25.42201199772358
1761392301919756500,3.374756591796875,-0.6935223626315593,22.334462162458895,-27.962940342628954
1761392301929838600,3.384838623046875,1.2420756978362797,23.268846122086046,-27.064036861705777
1761392301939920600,3.394920654296875,1.9459072730362414,23.710784418177603,-25.059285770034787
1761392301950003700,3.405003662109375,1.1843021387815476,25.747707594656944,-24.729051945149898
1761392301960085500,3.41508544921875,1.4798048420250416,27.879313964915273,-25.068371578288076
1761392301970167600,3.42516748046875,1.9266238958954809,27.46299877038002,-23.9321662386775
1761392301980249600,3.43524951171875,1.6963029821366071,26.132142965328693,-23.554864373147485
1761392301990331600,3.44533154296875,1.719044975298643,25.86658999466896,-24.65431263824701
1761392302000414700,3.455414794921875,2.054970289823413,26.031072116339207,-25.712608224225043
1761392302010496500,3.46549658203125,0.20208909100890157,20.901780306136608,-22.19228071992397
1761392302020578600,3.47557861328125,-5.863502741575241,14.855946482467651,-17.26755403545499
1761392302030660600,3.48566064453125,-11.980485738700628,13.757111965352296,-14.913610735929012
1761392302040743700,3.49574365234375,-16.90909598660469,14.049571647638082,-11.895318561285734
1761392302050825500,3.505825439453125,-20.242152029800415,11.711146235239505,-7.440654443630575
1761392302060907500,3.515907470703125,-20.161036758124826,8.480639881414174,-4.14202966234684
1761392302070989600,3.525989501953125,-18.936394425648448,5.961842704296112,-3.039067836168408
1761392302081072600,3.53607275390625,-17.626669086909292,3.2842700927168127,-3.9703927004858848
1761392302091154700,3.54615478515625,-16.238471684479713,1.426541161610186,-5.189132238659262
1761392302101236500,3.556236572265625,-14.93782046355605,-0.5898489299282431,-5.338119854077696
1761392302111318500,3.566318603515625,-13.138380347549914,-2.886697592574358,-4.571626947781444
1761392302121400600,3.576400634765625,-10.974006849199533,-4.163986642611026,-3.6034833418935537
1761392302131483600,3.586483642578125,-8.767084833455085,-4.351723675401509,-2.369074525423348
1761392302141565400,3.5965654296875,-6.9017965730100865,-5.056019653242826,-0.10317359342239797
1761392302151647500,3.6066474609375,-6.815356891441345,-6.290021934738755,3.4932732008978724
1761392302161729500,3.6167294921875,-7.4371572491645805,-7.6515727377831935,7.0213546803265805
1761392302171812600,3.6268125,-6.6727990168094635,-8.443025897812843,10.170758037436007
1761392302181894700,3.636894775390625,-4.572260569509863,-10.222537324512004,14.303549915838241
1761392302191976400,3.6469765625,-1.7095190220624208,-15.181770674216747,19.887990216839313
1761392302202058500,3.65705859375,0.18918810838162897,-21.15671602119207,26.89717690498829
1761392302212141600,3.6671416015625,-1.6590630925446748,-26.939234423995018,34.82703700731992
1761392302222223600,3.6772236328125,-7.79441936622858,-30.055292560863492,40.222723499703406
1761392302232305400,3.687305419921875,-14.726301865422725,-27.43761181566715,40.714881578469274
1761392302242387500,3.697387451171875,-19.6536928006649,-22.053405333197116,38.72102597482204
1761392302252469500,3.707469482421875,-22.296260149836538,-16.408198136544225,35.84500993525982
1761392302262552600,3.717552490234375,-22.26752271565199,-11.834099245691299,33.76933295749426
1761392302272634600,3.727634521484375,-20.61863088850975,-8.992902006053924,32.03182527378797
1761392302282716400,3.73771630859375,-19.112149636483192,-6.195221836581826,29.229246226358413
1761392302292798500,3.747798583984375,-17.15519957590699,-2.7500226385012265,24.084576814281938
1761392302302880500,3.757880615234375,-14.557557410132883,0.7834002019554376,17.492126176428794
1761392302312963600,3.767963623046875,-12.07190379320383,3.736388422039151,10.90607020804882
1761392302323045400,3.77804541015625,-9.687596335074305,6.04884820305407,4.955695823228359
1761392302333127400,3.78812744140625,-7.454253345394134,7.7118579873979085,-0.13667626924738288
1761392302343209500,3.79820947265625,-5.610118347615003,8.979246405667066,-3.916849910868704
1761392302353292800,3.808292724609375,-4.4736640016794205,9.364446330970525,-6.0681374254137275
1761392302363374600,3.81837451171875,-3.485820839065313,8.94406227956116,-7.294832014244794
1761392302373456400,3.828456298828125,-3.1445220148086546,9.121546506145595,-8.797045087432862
1761392302383538400,3.838538330078125,-3.5006390534907577,10.142439120924472,-11.30484740780592
1761392302393621800,3.848621826171875,-3.7524399776518345,11.749986545765399,-14.782144748675822
1761392302403703800,3.858703857421875,-4.2103731307327745,14.64151112010479,-19.706234304285047
1761392302413785600,3.86878564453125,-5.112142522481084,18.82557492058277,-23.68620877984762
1761392302423867600,3.87886767578125,-8.190970122107863,21.172474731338024,-26.749267147934436
1761392302433949700,3.88894970703125,-13.53908413145542,21.99923885872364,-31.012014609026906
1761392302444032800,3.89903271484375,-17.484031717300414,23.431960462534427,-35.84963467245102
1761392302454114600,3.909114501953125,-17.91071282302737,25.83523624050617,-37.75462892034054
1761392302464196600,3.919196533203125,-16.85547662461996,27.208245426154136,-34.904848561275
1761392302474278700,3.929278564453125,-13.287535136228799,24.81076810532808,-27.611443949484823
1761392302484361700,3.93936181640625,-8.251039683145285,20.44734960821867,-20.2945438958168
1761392302494443800,3.94944384765625,-4.2757635945320125,15.751529879057406,-14.792999320167302
1761392302504525600,3.959525634765625,-0.7778472440034151,11.785050844883918,-11.586117003035545
1761392302514607600,3.969607666015625,1.3596949460446834,9.732878661346435,-11.08552076627016
1761392302524690700,3.979690673828125,1.776591739860177,9.250694864106178,-11.67933889209032
1761392302534772700,3.989772705078125,0.8476724753797054,8.355285655039548,-11.841844160729647
1761392302544854500,3.9998544921875,-1.2801824333906173,6.947588602370024,-10.546202292400597
1761392302554936600,4.0099365234375,-0.9734785371750593,6.364532693582773,-10.407156225281954
1761392302565018600,4.0200185546875,-3.4342432120412587,5.602078833544254,-8.39745189511776
1761392302575100700,4.0301005859375,-4.894109427887201,4.879850600910187,-5.868415648058057
1761392302585183700,4.040183837890625,-6.121172850030661,2.5496391823664304,-2.143733592034131
1761392302595265500,4.050265625,-6.363927713426947,-0.7098512738808989,1.0614658865772186
1761392302605347600,4.06034765625,-6.573238572382927,-3.082010321316123,2.5249580378353595
1761392302615429600,4.0704296875,-7.381400875151157,-4.760803950247168,2.923697243669629
1761392302625512700,4.0805126953125,-7.187326748293637,-5.702208017769456,2.8608082412973044
1761392302635594500,4.090594482421875,-6.406054790538549,-7.877475250577926,3.9964211679726835
1761392302645676500,4.100676513671875,-6.118327981993556,-12.367124756896494,8.018216431176661
1761392302655758600,4.110758544921875,-8.024943693605065,-17.564989168065786,14.343749824279547
1761392302665840600,4.120840576171875,-12.99510000386238,-19.770695378279683,20.87994958260059
1761392302675923700,4.130923828125,-18.88415453532338,-19.474416429966688,25.77150464982986
1761392302686005500,4.141005615234375,-24.114777891278266,-19.01082627403736,30.241892990839478
1761392302696087600,4.151087646484375,-28.13095297651291,-16.674596325856445,33.38059550571442
1761392302706169600,4.161169677734375,-29.68692218980789,-12.376410471636056,35.018068113219734
1761392302716252700,4.171252685546875,-30.177997734034058,-8.526926416292786,36.34013037096262
1761392302726334500,4.18133447265625,-29.05263176834583,-6.119786948630213,37.611601090109346
1761392302736416500,4.19141650390625,-25.77227388063669,-5.580253955227136,37.483275154447554
1761392302746498600,4.20149853515625,-21.374932071137426,-5.764636124631762,34.71643611344099
1761392302756580600,4.21158056640625,-16.63782872995138,-5.307101030957699,29.8919070022583
1761392302766663400,4.221663330078125,-12.639292177259922,-4.2609070939227935,24.14947978682518
1761392302776745500,4.231745361328125,-9.168266171744465,-2.696451499572396,17.34811518037915
1761392302786827500,4.24182763671875,-5.867281675592064,-0.6728297032147645,10.208201340645552
1761392302796909600,4.25190966796875,-3.5079303795427084,1.7513661131888627,4.049116693110764
1761392302806992600,4.26199267578125,-2.058715321570635,4.015356754589081,-0.5115419936716556
1761392302817074400,4.272074462890625,-1.589315018057823,6.149482414191961,-3.3755162977844475
1761392302827156500,4.282156494140625,-1.8693483494907617,8.427964522281288,-5.852051957756281
1761392302837238500,4.292238525390625,-2.886407669717073,11.418059945487975,-8.012668149399756
1761392302847316700,4.302316650390625,-3.5313387276589867,13.688522997772694,-9.928660761165618
1761392302857400000,4.312400146484375,-2.4538380904734134,16.61144107376337,-12.474660417985916
1761392302867481900,4.32248193359375,-0.6069003102332353,20.14851396116018,-13.720102377384901
1761392302877564000,4.33256396484375,-1.5288018049061298,22.37234619517326,-14.757173973548412
1761392302887646000,4.34264599609375,-5.798182420402765,25.910515645635126,-19.287422032237053
1761392302897729000,4.35272900390625,-10.132274285262822,30.84429189800024,-26.45990309357643
1761392302907810800,4.362810791015625,-13.253623514276741,32.62700884274244,-32.29965086555481
1761392302917892900,4.372892822265625,-15.377267527353762,34.15167340171337,-36.83089494954348
1761392302927975000,4.382974853515625,-15.220496418452262,38.655402871310706,-36.61464523123502
1761392302938058000,4.39305810546875,-12.758656223309039,35.69291266338825,-28.10524804189205
1761392302948140000,4.40314013671875,-9.960645798969269,27.945823203611372,-19.323119953083992
1761392302958221800,4.413221923828125,-6.9192883905589575,22.71157698098421,-15.146488932955265
1761392302968303900,4.423303955078125,-5.746831587871909,19.004328728711602,-13.450463598716258
1761392302978386000,4.433385986328125,-6.289551394617557,15.5254672072649,-13.338812903523444
1761392302988469000,4.443468994140625,-7.674924971798061,12.309724707329272,-13.334190504419803
1761392302998550800,4.45355078125,-9.073345077556372,9.490283372426033,-12.958810546863079
1761392303008632800,4.4636328125,-8.419594168820977,6.231549287503958,-11.83402442688942
1761392303018715000,4.47371484375,-7.5116399509578935,1.5557351122781633,-8.363865851858257
1761392303028798000,4.4837978515625,-5.581672589853405,-3.829493114455044,-4.9403334189236165
1761392303038879700,4.493879638671875,-4.317671475934982,-5.370108983534574,-1.796384089436382
1761392303048961800,4.5039619140625,-7.022504434883594,-6.527657555425167,1.7290156035624444
1761392303059043800,4.5140439453125,-8.497137427228688,-7.954266229313611,3.9277331239327786
1761392303069126000,4.5241259765625,-9.192349642643332,-9.87395652655363,5.280870611158013
1761392303079209000,4.534208984375,-10.421611451613902,-15.416011976289749,9.71627064089477
1761392303089290800,4.544290771484375,-13.206696927928924,-21.39471229188442,16.287421885609625
1761392303099372800,4.554372802734375,-16.935210086548327,-23.54504674348831,24.026568861949443
1761392303109454800,4.564454833984375,-21.24628114130497,-22.53815167440176,32.524946644628045
1761392303119538000,4.574537841796875,-26.445025842440128,-21.60318553097248,38.984519090342516
1761392303129619700,4.58461962890625,-30.183389363944528,-19.505190338414906,41.217561051249504
1761392303139701800,4.59470166015625,-31.004333991396425,-15.192072288000583,40.40715652251243
1761392303149783800,4.60478369140625,-28.692863221418857,-12.668764939981699,39.107537567245956
1761392303159865900,4.614865966796875,-24.33234629096985,-11.162944197690486,37.22796066920757
1761392303169949000,4.624948974609375,-18.964002563542127,-8.708077348691225,34.123803398013116
1761392303180030700,4.63503076171875,-13.545732483428717,-6.946797159731387,30.52072863692045
1761392303190112800,4.64511279296875,-8.489064595410227,-5.009937116503715,26.180903781366347
1761392303200194800,4.65519482421875,-5.023147311210632,-2.36561035644412,21.05607070413828
1761392303210278000,4.66527783203125,-3.598706044489145,0.12413549823462962,15.883533626449108
1761392303220359700,4.675359619140625,-3.1433675840765236,2.619908358117938,10.90332880038619
1761392303230441700,4.685441650390625,-3.0578970398008822,4.751989360150694,6.601182225841283
1761392303240523800,4.695523681640625,-3.6791304112911223,6.143919519367814,2.6681083254024385
1761392303250605800,4.705605712890625,-4.83819815557301,7.272314477488398,-1.1057161663878707
1761392303260689000,4.71568896484375,-5.460238167271018,8.265399632409215,-4.5323122977420685
1761392303270770700,4.725770751953125,-6.303136267855763,9.251202813628316,-7.419819745394587
1761392303280852700,4.735852783203125,-8.402118717885017,10.460143134582042,-10.230705433398484
1761392303290934800,4.745934814453125,-10.113444497108459,13.38197867603302,-13.628598982685803
1761392303301017900,4.756017822265625,-10.96950018543005,16.25697530941963,-17.535697607129812
1761392303311099600,4.766099609375,-16.05626685911417,21.455058331775664,-24.871097778606412
1761392303321181700,4.776181640625,-21.72177567003965,27.775432734680173,-32.10048555303812
1761392303331263700,4.786263671875,-22.898811032688617,26.939381723511218,-37.75202896697521
1761392303341345800,4.796345703125,-20.47170079014301,28.95675381182432,-43.56810594050884
1761392303351428900,4.806428955078125,-14.388395606213807,32.4046660682559,-41.835938448786735
1761392303361510700,4.8165107421875,-8.396485095912217,27.779379426479338,-32.00677967985868
1761392303371592700,4.8265927734375,-3.9155665930598973,22.410756297588346,-23.514805919003486
1761392303381674800,4.8366748046875,-1.1942226442933082,19.010912783277032,-18.66097355644703
1761392303391757800,4.8467578125,0.16594284187257288,15.977707117140293,-15.938876158964632
1761392303401839600,4.856839599609375,1.0211796150267123,13.460575827407837,-14.23178699439764
1761392303411921700,4.866921630859375,0.9200853851616382,11.457466073203086,-12.985379404836893
1761392303422003700,4.877003662109375,0.38440731362104413,9.457225152432917,-11.054105052787065
1761392303432087000,4.887087158203125,-0.2004980224251747,7.05466482925415,-8.989341098701953
1761392303442168800,4.8971689453125,-0.4170072684526443,4.3572500376075505,-6.97081399513483
1761392303452251000,4.9072509765625,0.7906745768725871,1.9659990439504385,-4.920106623452901
1761392303462332700,4.917332763671875,0.12027882280647754,0.5063102304980158,-2.332218812843412
1761392303472414700,4.927414794921875,-1.4370143325686453,-1.7646075798168777,0.670278411296755
1761392303482498000,4.937498046875,-4.480234027719497,-3.4963813960462806,3.072649203252792
1761392303492579800,4.947579833984375,-7.8877102288663385,-3.387626714555919,5.5803977476119995
1761392303502662000,4.957661865234375,-8.744760773444176,-6.4767527130961415,7.981614839488268
1761392303512744000,4.967743896484375,-9.60660907369256,-12.559336597013473,12.659635877108574
1761392303522827000,4.977826904296875,-11.358867751806974,-20.58505828925371,19.999902777838706
1761392303532908800,4.98790869140625,-16.368071877861023,-26.625710910892487,27.956882357764243
1761392303542990800,4.997990966796875,-25.304293965315818,-27.56020008445978,33.578736735880376
1761392303553073000,5.008072998046875,-33.633230542612075,-26.621675371766088,35.273805792307854
1761392303563155000,5.018155029296875,-36.9792536194086,-24.229905322670934,33.97661143383979
1761392303573238000,5.028238037109375,-35.293202566695214,-22.20690545760393,32.942751200938226
1761392303583319800,5.03831982421875,-29.813113451528547,-20.189718078207967,32.45944745975733
1761392303593401900,5.04840185546875,-23.324817600154876,-15.833268251067398,31.360083365809917
1761392303603484000,5.05848388671875,-18.21396745557189,-10.58922544156909,29.331133067905903
1761392303613566000,5.06856591796875,-13.509237274724244,-5.262715945786238,26.066800432324406
1761392303623648800,5.078648681640625,-9.87779800441265,-0.6905702348276972,22.133580693674087
1761392303633730800,5.088730712890625,-8.328198910671473,2.507103232192993,17.908844691067934
1761392303643812900,5.098812744140625,-7.979049372914433,5.132998848026991,13.173235387831925
1761392303653895000,5.10889501953125,-8.007761088135839,7.560045377686619,8.459328213316201
1761392303663978000,5.11897802734375,-8.130314285615086,9.500186342281102,4.081606757827103
1761392303674059800,5.129059814453125,-8.787335009801387,10.890510235345364,0.007494045549817383
1761392303684141800,5.139141845703125,-9.11801599393189,11.67603751245737,-3.705869365134835
1761392303694224000,5.149223876953125,-8.898394168841838,11.59341651239395,-6.323578167381882
1761392303704306000,5.159305908203125,-8.880388556551933,11.228494820487498,-8.178897991520166
1761392303714388700,5.169388671875,-7.369487734517454,14.757202030599116,-11.594907043212652
1761392303724470800,5.179470703125,-5.962506721162796,20.686056657528876,-16.79693441928029
1761392303734552800,5.189552734375,-9.895158304536341,23.515865072667598,-22.769591947579382
1761392303744635000,5.199634765625,-20.515184542560576,27.612091599738598,-28.627445869612693
1761392303754718000,5.209718017578125,-26.252126604580877,29.517976658987997,-35.41234215633869
1761392303764799700,5.2197998046875,-27.333108654141423,27.015215255391595,-44.474264507126804
1761392303774881800,5.2298818359375,-22.852411685085297,31.574535094785688,-50.06830265755653
1761392303784963800,5.2399638671875,-17.5794350420475,30.953085450196266,-42.25929128687382
1761392303795047000,5.250046875,-13.396875800913572,23.722961178183553,-28.442549905467033
1761392303805128700,5.260128662109375,-9.571555295968055,18.73733783420324,-20.079425811886786
1761392303815210800,5.270210693359375,-7.394268540030717,15.191190828990935,-15.672214934802055
1761392303825292800,5.280292724609375,-5.401073446118831,12.053016721904276,-12.973664417123794
1761392303835374800,5.290374755859375,-3.5942087330698964,9.945841028547287,-11.94291851685047
1761392303845458000,5.3004580078125,-3.6774516644239426,8.244405944219231,-11.18751749793291
1761392303855540500,5.31054052734375,-3.8898458763480184,6.07324147055447,-10.428096137458086
1761392303865622500,5.32062255859375,-4.076856640690565,4.7085427248731255,-9.157379451549053
1761392303875704600,5.33070458984375,-4.092706536251306,2.1732556007251143,-6.320448052662611
1761392303885787400,5.340787353515625,-4.453083570465445,-0.98490038716048,-2.552660283753276
1761392303895869400,5.350869384765625,-5.26151709139049,-2.8326091517731546,1.4647890592008828
1761392303905951500,5.360951416015625,-6.4846823370516296,-5.629374836748838,5.840062244755029
1761392303916033500,5.371033447265625,-8.560815826413036,-7.713703907525539,9.28413010071814
1761392303926115600,5.381115478515625,-10.2510795283854,-10.145600215303897,11.551360162431001
1761392303936198400,5.391198486328125,-11.627778216201067,-14.491265613579749,14.31565419512987
1761392303946280400,5.401280517578125,-13.353279820293187,-20.03759041119814,18.507061928629874
1761392303956362500,5.411362548828125,-15.458600241172313,-25.020197622227666,23.600001153469083
1761392303966444500,5.421444580078125,-17.382197482722997,-28.41012063102722,29.445687667846677
1761392303976526600,5.431526611328125,-18.603634297156333,-30.745210761523246,34.20784361722469
1761392303986609400,5.441609375,-19.614763642811774,-32.301614859104156,36.544002253735066
1761392303996691500,5.45169140625,-20.597415082001685,-30.219169117856023,36.082564307403565
1761392304006773500,5.4617734375,-21.10071648607254,-23.61507948013544,33.21325857913494
1761392304016855600,5.47185546875,-20.37938607906103,-15.998172397542,30.074390060043335
1761392304026938400,5.4819384765625,-19.235628716635702,-10.17411202403903,27.227134835541246
1761392304037020400,5.4920205078125,-17.426006229311227,-5.709315803948044,24.429849218344685
1761392304047102500,5.5021025390625,-15.105686966967582,-2.9354011254668233,20.70669495640993
1761392304057184500,5.5121845703125,-12.480144402354956,-0.4128168310254812,15.778769768160581
1761392304067266600,5.5222666015625,-9.914985287034511,2.186200714755058,10.639509521651267
1761392304077349400,5.532349365234375,-7.514063963234424,4.090324025028944,5.89681289050281
1761392304087431400,5.542431396484375,-5.4625511203885075,5.319235705387592,1.9615895569451152
1761392304097513500,5.552513427734375,-3.9331455043703314,6.443485234266519,-1.5990167662523687
1761392304107595500,5.562595458984375,-2.2252035223662854,7.78643655078113,-4.696768408188223
1761392304117678300,5.57267822265625,-0.7812737113207578,8.464622812592983,-5.821788921439647
1761392304127760400,5.582760498046875,-0.2651765385627746,8.282139754807949,-5.535287855297327
1761392304137842400,5.592842529296875,-0.7374795777797698,8.559878253301978,-6.09707651965022
1761392304147924500,5.602924560546875,-1.4556231714487076,10.728328791832924,-8.225537577620148
1761392304158006500,5.613006591796875,-3.6952924415409565,14.24126092518568,-11.625126824909447
1761392304168089300,5.62308935546875,-6.270797594308853,17.67969574369788,-14.707993470793962
1761392304178171400,5.63317138671875,-9.592174305626749,20.697571738755702,-19.19800070450902
1761392304188253400,5.64325341796875,-14.482808750879764,23.66806288230419,-24.093559746682644
1761392304198335500,5.65333544921875,-17.119129899138212,23.22169157220125,-28.01281876451969
1761392304208418300,5.663418212890625,-16.905932554137706,21.900253583836555,-31.333253811073302
1761392304218500400,5.673500244140625,-15.605095455253123,23.02209838966131,-33.34272316343784
1761392304228582400,5.68358251953125,-14.037743262678385,21.09820304194689,-30.800174523854253
1761392304238664400,5.69366455078125,-12.641359046661853,17.273788545930383,-24.801132846498486
1761392304248746500,5.70374658203125,-10.96189087947011,13.499542394661903,-19.34731331409812
1761392304258829300,5.713829345703125,-8.784480789414047,10.309182173264025,-15.760733760732412
1761392304268911400,5.723911376953125,-6.0364902412623165,7.925333564817905,-12.403121952950954
1761392304278993400,5.733993408203125,-3.665833707344532,5.043314485448598,-8.65510154530704
1761392304289075500,5.744075439453125,-1.6367337718367576,2.0056077085003254,-4.978634800267219
1761392304299158300,5.754158203125,-0.44360476799905296,-1.412441616848111,-1.5343027404099703
1761392304309240300,5.764240234375,0.32976094667613504,-5.950956568622589,1.7130474884495137
1761392304319322400,5.774322265625,1.3611381305903196,-11.031792683213949,5.109242709386349
1761392304329404400,5.784404296875,1.230389351695776,-15.640888068646191,8.31954798670411
1761392304339486500,5.794486572265625,-1.1912322303056717,-16.261521720677614,11.130849269771575
1761392304349569300,5.8045693359375,-4.068612543958425,-14.706530997025967,12.350648253870009
1761392304359651300,5.8146513671875,-5.291911645132303,-15.612123746454715,14.43967804968357
1761392304369733400,5.8247333984375,-9.128101334616542,-16.44198350176811,15.78509195691943
1761392304379815400,5.8348154296875,-11.8308913895607,-14.984786797392367,16.357385648673773
1761392304389898500,5.8448984375,-12.403193264621496,-13.039647586119175,14.86064603846073
1761392304399980500,5.85498046875,-14.30856511365175,-11.547281368684768,12.86719609300494
1761392304410062300,5.865062255859375,-11.108480786097049,-8.96502791070044,11.785763961589335
1761392304420144400,5.875144287109375,-9.731636552330851,-6.164617439481615,10.606486372971535
1761392304430226400,5.885226318359375,-8.478425712496042,-5.25819817610085,9.763370830243826
1761392304440309500,5.8953095703125,-6.927142611190677,-4.9616468405872585,9.450092816334962
1761392304450391600,5.9053916015625,-5.974367839348316,-4.245976359033584,8.212115201467276
1761392304460473600,5.9154736328125,-5.891480297303199,-3.3880601375371215,5.801696566003561
1761392304470555600,5.9255556640625,-6.55051703748703,-1.7015606104038654,3.0163647137120364
1761392304480637200,5.93563720703125,-7.028790383285283,1.1228381277110426,0.6815118991032242
1761392304490720500,5.945720458984375,-6.86176734496057,2.5671333380028605,0.035512627407908434
1761392304500802600,5.955802490234375,-5.5213312261372804,1.3012075396321714,0.9931558820694685
1761392304510884600,5.965884521484375,-4.499800313454866,-0.008104761326685547,1.7914508708178996
1761392304520966700,5.975966552734375,-4.2864679438978435,-0.6036074061676859,1.123766713798046
1761392304531049500,5.986049560546875,-3.1974101399093864,0.12108966426532715,0.9700498779006301
1761392304541131500,5.996131591796875,-2.317249353379011,3.2628155090168116,0.9619279462434351
1761392304551213600,6.006213623046875,-1.3421972832769156,4.0529020568683745,0.7221447921343147
1761392304561295600,6.016295654296875,-0.6163841778934002,2.895940637215972,0.08411123862117528
1761392304571377400,6.02637744140625,-0.04597673827707767,2.4292617214910686,-0.034280163003504276
1761392304581460500,6.03646044921875,0.9967109442025422,1.774550443290919,0.3377300258591771
1761392304591542500,6.04654248046875,2.3791700952410695,1.2443848515614866,0.5933388178706169
1761392304601624600,6.05662451171875,3.198604318130016,1.0743144814301282,0.5005883457198739
1761392304611706400,6.066706298828125,3.9888977867305275,0.6722219465799629,0.05259937128722667
1761392304621788400,6.076788330078125,4.177896510019898,0.021189996213372794,-0.3213508457273245
1761392304631871500,6.08687158203125,4.288716015085578,-0.3498510736225173,-0.4829650107458234
1761392304641953500,6.09695361328125,4.1525902193278075,-0.32273075577840205,-0.43922056156545874
1761392304652035600,6.10703564453125,1.3519295727401972,0.324232757839188,-0.861331729028374
1761392304662117400,6.117117431640625,-1.3380623754292726,1.0610128821127116,-1.0749399929173291
1761392304672200400,6.127200439453125,-0.0962298386991024,1.431902250251919,-0.8034276754617691
1761392304682282500,6.137282470703125,0.16701543954014778,1.5832456350162625,-0.14779504463300108
1761392304692364500,6.147364501953125,0.13203823418319224,1.2812173293963074,0.2249403897643089
1761392304702446300,6.1574462890625,-0.16058686779737472,0.9865279152970761,-0.23924042553454636
1761392304712528400,6.1675283203125,-0.5751145943939685,1.2017019671980291,-1.1257974889732896
1761392304722611500,6.177611572265625,-0.6149544373512268,1.8527102261617778,-2.035962368623167
1761392304732693500,6.187693603515625,-0.46975452377796173,2.5768179889321328,-2.499574297992885
1761392304742775600,6.197775634765625,-0.4792220248252153,3.00005772203356,-2.195491251800209
1761392304752857300,6.207857421875,-0.29287352378368375,3.157542824423313,-1.5571853110864757
1761392304762940400,6.2179404296875,0.282794612839818,3.065568305081129,-1.3251894498527048
1761392304773022500,6.2280224609375,1.003731052097678,2.767954601033032,-1.4838880196854471
1761392304783104500,6.2381044921875,1.1834276940345763,2.382821603485942,-1.5591687399886547
1761392304793186300,6.248186279296875,1.3029723573476075,1.9722391073837875,-1.374527042865008
1761392304803268400,6.258268310546875,1.40826579246819,1.4351134673833845,-1.0994793908901512
1761392304813351400,6.268351318359375,1.6591384958684443,0.8053545518711209,-0.7854892831891774
1761392304823433500,6.27843359375,1.860532005828619,0.2327105853743851,-0.5293880314856767
1761392304833515500,6.288515625,1.179092295178771,0.08436141398996114,-0.3844933844693005
1761392304843597300,6.298597412109375,0.507941923353076,0.17522366124130784,-0.2405470511537045
1761392304853678600,6.3086787109375,0.36819559901058674,0.17786248531229792,0.020790420702844856
1761392304863761700,6.31876171875,0.2241267352938652,0.1135959109764546,0.21990254172757268
1761392304873843700,6.32884375,0.15579787995517252,-0.12386829866580665,0.20599428175389767
1761392304883925800,6.33892578125,0.36900983800292014,-0.5526110861629248,0.20194069551415741
1761392304894007800,6.3490078125,0.4486772489577531,-0.7993172444682568,0.21422968372292817
1761392304904090600,6.359090576171875,0.23935236147642133,-0.5905883501186967,0.059639133730903265
1761392304914172700,6.369172607421875,0.17524784583449363,-0.12460216589830815,-0.29536943225264545
1761392304924254700,6.379254638671875,0.4068821802794933,0.09252046278715133,-0.5427255788993091
1761392304934336800,6.389336669921875,0.3984522055864334,0.07172405073493719,-0.6405891562800854
1761392304944418600,6.39941845703125,0.11200549997985362,0.10487710940465331,-0.6217921013515443
1761392304954501600,6.409501708984375,-0.16424246769547463,0.18890417687371372,-0.49314796658605337
1761392304964583700,6.419583740234375,0.11539689598381518,0.09436470241434872,-0.3880735810436308
1761392304974665700,6.429665771484375,0.6155418818503617,-0.07032105206921696,-0.3293636179216206
1761392304984747800,6.439747802734375,0.5540460874021053,-0.1572343424990773,-0.22866123691834508
1761392304994829600,6.44982958984375,0.16908464702963827,-0.11124262584857642,0.05840747304409742
1761392305004912600,6.45991259765625,-0.2382347556233406,-0.01277187635488808,0.34793029816038906
1761392305014994700,6.46999462890625,-0.418895274156332,0.08434943129122256,0.6563314267478882
1761392305025076700,6.48007666015625,-0.31334348036050796,0.09281418503671884,0.780533852738887
1761392305035158500,6.490158447265625,-0.3099363022655248,0.015614917761087416,0.6412707818686961
1761392305045241900,6.500241943359375,-0.4898053781598806,0.003845496447011828,0.29342651802394537
1761392305055323600,6.51032373046875,-0.5687310308367014,0.2565763218693435,0.09154920660220087
1761392305065405700,6.52040576171875,-0.6033002399146556,0.40599348781146105,0.11530139972008764
1761392305075487500,6.530487548828125,-0.4113619560420513,0.23434731973074374,0.27471030977927147
1761392305085569500,6.540569580078125,-0.2111994491815567,-0.0063080141030251976,0.6188900962997228
1761392305095652900,6.55065283203125,-0.2833995929956436,-0.10161423515118657,0.9116114982616156
1761392305105735000,6.56073486328125,-0.31283319275081156,0.08335961653627455,0.9673534784235059
1761392305115816700,6.570816650390625,-0.1511579451948404,0.3312978008545935,0.8741931102976203
1761392305125898800,6.580898681640625,0.10368366183638572,0.27503143149241804,0.7436286749940365
1761392305135981800,6.59098193359375,0.2791594712078571,0.04038637092411518,0.5967512931952252
1761392305146064000,6.60106396484375,0.37869127406179903,-0.06073284725174308,0.626981559753418
1761392305156146000,6.61114599609375,0.3095066786766052,-0.010971621999889611,0.6822459124661981
1761392305166227700,6.621227783203125,0.26237492514550687,0.07174363221824169,0.5516117729272693
1761392305176309800,6.631309814453125,0.3808557586193084,0.12433350502476095,0.4358770963564515
1761392305186392800,6.641392822265625,0.610393997567892,0.08999240561425685,0.4639576010022312
1761392305196475000,6.651474853515625,0.6557400367259979,0.029479923114925623,0.6957062094766646
1761392305206556700,6.661556640625,-0.010607903254032134,0.11663988178223371,1.1417570554535836
1761392305216638700,6.671638671875,-0.9624147068470716,-0.03935483591929078,1.527540698929131
1761392305226720800,6.681720703125,-0.3276537452638149,-0.06614639673307537,1.0945571320571004
1761392305236803800,6.691803955078125,0.21411329080164432,0.23611776346936822,0.604951769981347
1761392305246886000,6.701885986328125,0.4828068975746631,0.25168971887156366,0.5501485685069114
