time,seconds_elapsed,z,y,x
1761392298632939000,0.08793896484375,-0.8772662878036499,-0.891984224319458,1.4197719097137451
1761392298643022000,0.09802197265625,-0.9969365000724792,-1.2528237104415894,1.4358055591583252
1761392298653104000,0.108104248046875,-1.1237337589263916,-1.6164904832839966,1.3867592811584473
1761392298663186200,0.118186279296875,-1.2782779932022095,-1.7916425466537476,1.4068528413772583
1761392298673268000,0.12826806640625,-1.450649619102478,-1.836129903793335,1.4837136268615723
1761392298683351000,0.13835107421875,-1.6162407398223877,-1.7063884735107422,1.561958909034729
1761392298693433000,0.14843310546875,-1.747527003288269,-1.40121591091156,1.614158272743225
1761392298703515100,0.15851513671875,-1.847052812576294,-1.0872888565063477,1.5428715944290161
1761392298713597200,0.16859716796875,-1.8971360921859741,-0.9641748070716858,1.315096378326416
1761392298723680000,0.178679931640625,-1.9241852760314941,-0.9550756216049194,1.0615618228912354
1761392298733762000,0.188761962890625,-1.9343856573104858,-0.9218835234642029,0.8562579154968262
1761392298743844000,0.198843994140625,-1.9327669143676758,-0.8595636487007141,0.6957276463508606
1761392298753927000,0.208927001953125,-1.9078365564346313,-0.7637977600097656,0.5685163736343384
1761392298764009000,0.219009033203125,-1.8791534900665283,-0.7102053761482239,0.4338892996311188
1761392298774091000,0.229091064453125,-1.8535032272338867,-0.7748599648475647,0.26868101954460144
1761392298784173000,0.239173095703125,-1.8516592979431152,-0.6984730958938599,0.15064170956611633
1761392298794256000,0.249255859375,-1.8539586067199707,0.038891732692718506,0.15089622139930725
1761392298804338000,0.259337890625,-1.8174514770507812,0.1351224035024643,0.06295491755008698
1761392298814420000,0.269419921875,-1.7891238927841187,0.26614153385162354,-0.05292394012212753
1761392298824502000,0.279501953125,-1.74985933303833,0.23984785377979279,-0.17968641221523285
1761392298834584800,0.289584716796875,-1.748123288154602,-0.006888359785079956,-0.2601659297943115
1761392298844668000,0.29966796875,-1.7835944890975952,-0.35756781697273254,-0.26998260617256165
1761392298854750000,0.30975,-1.8481682538986206,-0.9473711252212524,-0.23304085433483124
1761392298864831700,0.319831787109375,-1.950439453125,-1.6864241361618042,-0.19904667139053345
1761392298874914800,0.329914794921875,-2.029550790786743,-2.3361005783081055,-0.12145804613828659
1761392298884996900,0.339996826171875,-2.0037918090820312,-2.6709887981414795,0.028851032257080078
1761392298895079000,0.350078857421875,-1.7533239126205444,-2.803366184234619,0.26071664690971375
1761392298905161000,0.360160888671875,-1.2583504915237427,-2.8152613639831543,0.5726180672645569
1761392298915243800,0.370243896484375,-0.6924644708633423,-2.881150245666504,0.9098201394081116
1761392298925325800,0.380325927734375,-0.20439228415489197,-2.8614044189453125,1.2100521326065063
1761392298935407900,0.390407958984375,0.20984701812267303,-2.7097396850585938,1.4612972736358643
1761392298945490000,0.400489990234375,0.48317840695381165,-2.993170738220215,1.5279834270477295
1761392298955572700,0.41057275390625,0.5343961715698242,-4.315800666809082,1.1623514890670776
1761392298965654800,0.42065478515625,0.4333327114582062,-5.715807914733887,0.5497384667396545
1761392298975736800,0.43073681640625,0.3694812059402466,-6.247169017791748,0.025340359658002853
1761392298985819000,0.44081884765625,0.5309427976608276,-5.671572208404541,-0.20222729444503784
1761392298995901700,0.450901611328125,0.8359133005142212,-5.637691497802734,-0.19467926025390625
1761392299005983700,0.460983642578125,1.2368940114974976,-5.474494457244873,-0.001343357376754284
1761392299016065800,0.471065673828125,1.5367753505706787,-5.157924175262451,0.1291014403104782
1761392299026148900,0.48114892578125,1.7317701578140259,-4.850029468536377,0.030143436044454575
1761392299036231000,0.49123095703125,1.8826264142990112,-4.560689926147461,-0.25309133529663086
1761392299046312700,0.501312744140625,2.047048330307007,-4.3460164070129395,-0.6313142776489258
1761392299056394800,0.511394775390625,2.2428207397460938,-4.418333530426025,-0.9497970342636108
1761392299066477800,0.521477783203125,2.4817464351654053,-4.878582954406738,-1.0613303184509277
1761392299076560000,0.531559814453125,2.770880699157715,-5.31581449508667,-0.9298579096794128
1761392299086641700,0.5416416015625,2.976763963699341,-5.259960174560547,-0.7248736023902893
1761392299096723700,0.5517236328125,2.980109453201294,-4.668995380401611,-0.7146477103233337
1761392299106806800,0.561806884765625,2.7712929248809814,-3.9204635620117188,-1.02170991897583
1761392299116888800,0.571888916015625,2.526883363723755,-3.2695419788360596,-1.510422945022583
1761392299126971000,0.581970947265625,2.3727800846099854,-2.705918788909912,-1.9445041418075562
1761392299137052700,0.592052734375,2.2524256706237793,-2.410351037979126,-2.271958827972412
1761392299147135700,0.6021357421875,2.161508798599243,-2.395249128341675,-2.5157628059387207
1761392299157217800,0.6122177734375,2.090017795562744,-2.5409319400787354,-2.6552574634552
1761392299167299800,0.6222998046875,2.0302186012268066,-2.4856889247894287,-2.620499610900879
1761392299177381600,0.632381591796875,1.9248663187026978,-1.9831326007843018,-2.4215824604034424
1761392299187464700,0.642464599609375,1.721009612083435,-1.2179890871047974,-2.1259143352508545
1761392299197546800,0.652546630859375,1.5119171142578125,-0.5658237338066101,-1.7947503328323364
1761392299207628800,0.66262890625,1.3964788913726807,-0.1780424267053604,-1.4772650003433228
1761392299217711600,0.672711669921875,1.3239209651947021,-0.049582742154598236,-1.206787347793579
1761392299227793700,0.682793701171875,1.1905248165130615,-0.05370664596557617,-0.9646314382553101
1761392299237875700,0.692875732421875,0.9874011278152466,0.012150697410106659,-0.764793872833252
1761392299247957800,0.702957763671875,0.6746072173118591,0.3004962205886841,-0.6001162528991699
1761392299258039800,0.713039794921875,0.34044575691223145,0.6434328556060791,-0.4835617244243622
1761392299268123000,0.723122802734375,0.10788972675800323,0.7908281683921814,-0.4603523015975952
1761392299278205000,0.733204833984375,-0.06300854682922363,0.7434954047203064,-0.5055534243583679
1761392299288286700,0.74328662109375,-0.22615167498588562,0.6358720064163208,-0.5929983258247375
1761392299298369800,0.753369873046875,-0.3212997615337372,0.4498324692249298,-0.6043428182601929
1761392299308451800,0.763451904296875,-0.287393718957901,0.4364713728427887,-0.3953627347946167
1761392299318534000,0.773533935546875,-0.17376744747161865,0.744804859161377,-0.016542337834835052
1761392299328616000,0.783615966796875,-0.12127868831157684,1.2210265398025513,0.3493799865245819
1761392299338698800,0.79369873046875,-0.15604783594608307,1.8954880237579346,0.632310688495636
1761392299348780800,0.80378076171875,-0.10163439810276031,2.3860089778900146,1.0220118761062622
1761392299358862800,0.81386279296875,0.02083967626094818,2.5282175540924072,1.6375555992126465
1761392299368945000,0.82394482421875,0.13483336567878723,2.540214776992798,2.4877240657806396
1761392299379028000,0.834028076171875,0.24548542499542236,2.517435312271118,3.420699119567871
1761392299389109800,0.84410986328125,0.36965158581733704,2.6356394290924072,4.28083610534668
1761392299399191800,0.85419189453125,0.4750579297542572,2.8401474952697754,5.016427516937256
1761392299409273900,0.86427392578125,0.359600305557251,3.0338010787963867,5.785887718200684
1761392299419357000,0.87435693359375,-0.08083024621009827,3.0519208908081055,6.8188395500183105
1761392299429438700,0.884438720703125,-0.9411066770553589,3.114046812057495,7.895473480224609
1761392299439520800,0.894520751953125,-1.8784173727035522,3.4956259727478027,8.582307815551758
1761392299449602800,0.904602783203125,-2.5359878540039062,4.266969203948975,8.693900108337402
1761392299459686000,0.914685791015625,-2.9873430728912354,5.103626251220703,8.437165260314941
1761392299469768000,0.924767822265625,-3.311312675476074,5.6769700050354,8.215743064880371
1761392299479849700,0.934849609375,-3.4784247875213623,5.73002815246582,8.314384460449219
1761392299489931800,0.944931884765625,-3.4515786170959473,5.316021919250488,8.688302040100098
1761392299500014800,0.955014892578125,-3.100432872772217,4.385418891906738,9.340981483459473
1761392299510097000,0.965096923828125,-2.667619228363037,3.1139767169952393,10.16285228729248
1761392299520178700,0.9751787109375,-2.3622887134552,1.7186861038208008,10.864996910095215
1761392299530260700,0.9852607421875,-2.148167133331299,0.7179887294769287,11.24596881866455
1761392299540343800,0.99534375,-2.046224355697632,0.1476508527994156,11.146903991699219
1761392299550425900,1.00542578125,-1.933907151222229,-0.07190680503845215,10.466697692871094
1761392299560507600,1.015507568359375,-1.779688835144043,0.29392728209495544,8.999754905700684
1761392299570589700,1.025589599609375,-1.5557606220245361,0.6907976865768433,6.599095821380615
1761392299580672800,1.0356728515625,-1.2890467643737793,0.3971809148788452,3.613706111907959
1761392299590754800,1.0457548828125,-0.7363321781158447,-0.3295406103134155,0.8365876078605652
1761392299600836900,1.0558369140625,0.04134948551654816,-0.8025239706039429,-1.0324108600616455
1761392299610918700,1.065918701171875,0.9198634624481201,-0.7222733497619629,-1.9409517049789429
1761392299621001700,1.076001708984375,2.040395736694336,-0.0808628723025322,-2.046574115753174
1761392299631083800,1.086083740234375,3.215259075164795,0.6416437029838562,-1.7112658023834229
1761392299641165800,1.096165771484375,4.180820465087891,0.9807138442993164,-1.5158172845840454
1761392299651248600,1.10624853515625,4.921983242034912,0.8615749478340149,-2.017754554748535
1761392299661330700,1.11633056640625,5.3697404861450195,0.3469558358192444,-3.118807077407837
1761392299671412700,1.126412841796875,5.668488502502441,-0.35126668214797974,-4.5664167404174805
1761392299681494800,1.136494873046875,5.928537845611572,-0.8199820518493652,-6.161343574523926
1761392299691577900,1.146577880859375,6.144610404968262,-1.0603299140930176,-7.574985504150391
1761392299701660000,1.156659912109375,6.432107925415039,-1.196144700050354,-8.525242805480957
1761392299711741700,1.16674169921875,6.785019397735596,-1.4556503295898438,-9.088020324707031
1761392299721823700,1.17682373046875,7.046545028686523,-1.7497557401657104,-9.455561637878418
1761392299731906800,1.18690673828125,7.163124084472656,-2.0136303901672363,-9.827862739562988
1761392299741988900,1.19698876953125,6.960304260253906,-2.3878531455993652,-10.050869941711426
1761392299752071000,1.20707080078125,6.542870044708252,-3.0249979496002197,-10.029020309448242
1761392299762153000,1.217153076171875,6.2391510009765625,-3.704348564147949,-9.990004539489746
1761392299772235800,1.22723583984375,6.074305057525635,-4.05463171005249,-10.080198287963867
1761392299782317800,1.23731787109375,6.035911560058594,-4.104024887084961,-9.872917175292969
1761392299792400000,1.24739990234375,5.890028953552246,-4.267000198364258,-8.835641860961914
1761392299802482000,1.25748193359375,5.543935775756836,-4.663126468658447,-7.1795454025268555
1761392299812564700,1.267564697265625,5.088943958282471,-5.191403865814209,-5.430840015411377
1761392299822646800,1.277646728515625,4.769716739654541,-5.579977512359619,-4.2946977615356445
1761392299832728800,1.287728759765625,4.530386924743652,-5.409212589263916,-4.206605911254883
1761392299842811100,1.29781103515625,4.075489521026611,-4.5343217849731445,-5.002739429473877
1761392299852894000,1.30789404296875,3.345648765563965,-3.4135982990264893,-6.165616989135742
1761392299862976000,1.31797607421875,2.60609769821167,-2.6238949298858643,-6.936676025390625
1761392299873058000,1.32805810546875,1.935628890991211,-2.5642948150634766,-6.966553688049316
1761392299883140000,1.33814013671875,1.3180468082427979,-3.049703598022461,-6.2222161293029785
1761392299893223200,1.34822314453125,0.6923261880874634,-3.360783100128174,-5.2743635177612305
1761392299903305000,1.358304931640625,0.02016478404402733,-2.9964184761047363,-4.9306159019470215
1761392299913387000,1.368386962890625,-0.7501735091209412,-1.8420907258987427,-5.220057487487793
1761392299923469000,1.378468994140625,-1.4620416164398193,-0.5680190920829773,-5.581974029541016
1761392299933552000,1.38855224609375,-1.9263051748275757,0.3614640533924103,-5.21188497543335
1761392299943634000,1.398634033203125,-2.1993346214294434,0.7329275012016296,-3.763676881790161
1761392299953716000,1.408716064453125,-2.272305488586426,0.6001588106155396,-1.4875842332839966
1761392299963798000,1.418798095703125,-2.152019739151001,0.3482488989830017,0.8934228420257568
1761392299973881000,1.428881103515625,-2.046119213104248,0.6191898584365845,2.810932159423828
1761392299983963100,1.438963134765625,-2.243614435195923,1.709989309310913,4.0155816078186035
1761392299994045000,1.449044921875,-2.6320793628692627,3.1205391883850098,4.766407489776611
1761392300004127000,1.459126953125,-2.975554943084717,4.1692280769348145,5.392448425292969
1761392300014210000,1.4692099609375,-3.1703314781188965,4.672591209411621,6.229828834533691
1761392300024292000,1.4792919921875,-3.2968521118164062,4.749914169311523,7.33461856842041
1761392300034374000,1.489373779296875,-3.600917100906372,4.565555572509766,8.421998977661133
1761392300044457200,1.499457275390625,-4.000607490539551,4.2812581062316895,9.312763214111328
1761392300054539300,1.509539306640625,-4.392755508422852,4.193818092346191,10.136178970336914
1761392300064621300,1.519621337890625,-5.056545734405518,4.27003288269043,10.65538215637207
1761392300074703000,1.529703125,-6.030239105224609,4.481354236602783,10.503843307495117
1761392300084786200,1.5397861328125,-7.140199661254883,5.0227789878845215,9.686829566955566
1761392300094868200,1.5498681640625,-8.123093605041504,5.527206897735596,8.811407089233398
1761392300104950300,1.5599501953125,-8.787370681762695,5.767416954040527,8.406063079833984
1761392300115032300,1.5700322265625,-8.862204551696777,5.6506667137146,8.557214736938477
1761392300125115100,1.580115234375,-8.353178977966309,5.214383125305176,9.439813613891602
1761392300135197200,1.590197265625,-7.543156147003174,4.423851490020752,10.694862365722656
1761392300145279200,1.600279296875,-6.406205654144287,3.223142623901367,11.841602325439453
1761392300155361300,1.610361328125,-5.264626502990723,1.7594343423843384,12.359456062316895
1761392300165444000,1.620444091796875,-4.72441291809082,0.4297584891319275,11.495741844177246
1761392300175526100,1.630526123046875,-4.801814079284668,-0.72630774974823,9.476861000061035
1761392300185608200,1.640608154296875,-4.572993278503418,-2.052246332168579,7.049256324768066
1761392300195690200,1.650690185546875,-4.429506778717041,-2.2436599731445312,4.7246222496032715
1761392300205773000,1.66077294921875,-4.68379020690918,-0.27011069655418396,2.759348154067993
1761392300215855000,1.670855224609375,-4.677619457244873,3.365960121154785,1.312421441078186
1761392300225937200,1.680937255859375,-3.4487380981445312,5.36489725112915,0.18491949141025543
1761392300236019200,1.691019287109375,-1.14481782913208,4.842818260192871,-0.6328928470611572
1761392300246102000,1.70110205078125,1.0492935180664062,2.5904288291931152,-1.386748194694519
1761392300256184000,1.71118408203125,2.71856951713562,0.881582498550415,-2.278593063354492
1761392300266266000,1.72126611328125,3.6936898231506348,0.5551075339317322,-3.1537444591522217
1761392300276348200,1.73134814453125,4.02880334854126,0.4800194799900055,-4.251226902008057
1761392300286431000,1.741430908203125,4.420785903930664,0.2630889415740967,-5.650928020477295
1761392300296513000,1.751512939453125,5.172342300415039,-0.0012566745281219482,-7.0669379234313965
1761392300306595000,1.761594970703125,5.709744930267334,-0.6568689942359924,-8.275540351867676
1761392300316677000,1.771677001953125,5.766356468200684,-1.6186214685440063,-9.203207015991211
1761392300326760000,1.781760009765625,5.665515899658203,-2.289151906967163,-10.194403648376465
1761392300336842000,1.791842041015625,5.683080196380615,-2.706557273864746,-11.257125854492188
1761392300346924000,1.801924072265625,5.665389060974121,-2.6878011226654053,-11.807104110717773
1761392300357006000,1.812006103515625,5.461248397827148,-2.66485857963562,-11.582135200500488
1761392300367089200,1.822089111328125,5.127379417419434,-3.373952865600586,-11.039501190185547
1761392300377171000,1.8321708984375,4.893854141235352,-4.35776424407959,-10.734529495239258
1761392300387253000,1.8422529296875,4.807420253753662,-5.0402092933654785,-10.56197738647461
1761392300397335000,1.8523349609375,4.75617790222168,-5.6365275382995605,-9.775184631347656
1761392300407418000,1.862418212890625,4.620552062988281,-5.387694358825684,-8.019851684570312
1761392300417500000,1.8725,3.9714443683624268,-4.260524749755859,-5.6752610206604
1761392300427582000,1.88258203125,2.6010234355926514,-2.3638226985931396,-4.305960655212402
1761392300437664000,1.8926640625,0.6400374174118042,-0.005237548612058163,-4.5629448890686035
1761392300447747000,1.9027470703125,-1.1941189765930176,2.1267080307006836,-5.055707931518555
1761392300457829000,1.9128291015625,-2.3016042709350586,3.442899465560913,-3.9965856075286865
1761392300467911000,1.922910888671875,-2.4862101078033447,3.7337825298309326,-0.9309658408164978
1761392300477993000,1.932992919921875,-2.1570451259613037,2.966322183609009,2.7930500507354736
1761392300488076300,1.943076171875,-2.3390660285949707,1.8405232429504395,5.683836936950684
1761392300498158000,1.953157958984375,-3.455935001373291,1.304674744606018,6.990485668182373
1761392300508240000,1.963239990234375,-4.965217590332031,1.6354215145111084,7.04207181930542
1761392300518322000,1.973322021484375,-6.3352484703063965,2.834977149963379,6.571534633636475
1761392300528405200,1.9834052734375,-7.263468265533447,4.950532913208008,6.123453617095947
1761392300538487300,1.9934873046875,-7.7020039558410645,6.655034065246582,6.321437835693359
1761392300548569000,2.003569091796875,-7.812080383300781,7.069641590118408,7.320822715759277
1761392300558651100,2.013651123046875,-7.6605634689331055,6.690168857574463,8.7344331741333
1761392300568734200,2.023734130859375,-7.243322372436523,6.031063079833984,10.026305198669434
1761392300578816300,2.033816162109375,-6.683259010314941,5.023343086242676,11.09293270111084
1761392300588898300,2.043898193359375,-5.832884788513184,3.721752882003784,11.534505844116211
1761392300598980000,2.05397998046875,-4.525837421417236,2.88006591796875,11.145715713500977
1761392300609063200,2.064063232421875,-2.8870203495025635,1.9569472074508667,10.224772453308105
1761392300619145200,2.074145263671875,-1.2970895767211914,0.4272362291812897,8.434067726135254
1761392300629227300,2.084227294921875,-0.6548987030982971,-0.5313388705253601,6.888489246368408
1761392300639309000,2.09430908203125,-0.7822827696800232,0.8299910426139832,5.7563886642456055
1761392300649392000,2.10439208984375,-0.9153698682785034,2.624872922897339,4.872365951538086
1761392300659474200,2.11447412109375,-0.2674000859260559,2.9886410236358643,3.719454526901245
1761392300669556200,2.12455615234375,1.090614676475525,2.3396646976470947,2.1766152381896973
1761392300679638300,2.13463818359375,2.0913643836975098,2.0473241806030273,0.3114159405231476
1761392300689721000,2.14472119140625,2.378342628479004,1.827562689781189,-1.4342714548110962
1761392300699803100,2.15480322265625,2.4488978385925293,1.4099470376968384,-3.120687246322632
1761392300709885200,2.16488525390625,2.6770801544189453,1.179184913635254,-4.504327297210693
1761392300719967200,2.17496728515625,3.2038426399230957,0.8782751560211182,-5.630370616912842
1761392300730050000,2.185050048828125,4.235103607177734,0.1833932101726532,-6.695090293884277
1761392300740132000,2.195132080078125,5.433265686035156,-0.8963732123374939,-7.702634334564209
1761392300750214100,2.205214111328125,6.3394246101379395,-1.994144320487976,-8.686003684997559
1761392300760296200,2.215296142578125,6.849043846130371,-2.810054302215576,-9.676487922668457
1761392300770379000,2.22537890625,6.906064033508301,-3.3967323303222656,-10.750080108642578
1761392300780461000,2.2354609375,6.682358741760254,-4.113089084625244,-11.843470573425293
1761392300790543000,2.245543212890625,6.403572082519531,-4.776096820831299,-12.398612976074219
1761392300800625200,2.255625244140625,6.372189044952393,-5.304327487945557,-11.934173583984375
1761392300810708000,2.2657080078125,6.004480838775635,-5.351442813873291,-10.781880378723145
1761392300820790000,2.2757900390625,4.868221759796143,-4.85273551940918,-9.988321304321289
1761392300830872000,2.2858720703125,3.3055763244628906,-3.421656847000122,-10.532983779907227
1761392300840954000,2.2959541015625,1.575972080230713,-1.7634857892990112,-11.313579559326172
1761392300851039700,2.306039794921875,-0.6735626459121704,-0.7501317858695984,-10.960100173950195
1761392300861121500,2.31612158203125,-1.8543933629989624,-0.38236764073371887,-8.507696151733398
1761392300871203600,2.32620361328125,-1.3478882312774658,0.04238323122262955,-3.826244354248047
1761392300881285600,2.33628564453125,-0.6123923063278198,0.572307288646698,1.0977119207382202
1761392300891368700,2.34636865234375,-0.4591551125049591,1.3706392049789429,4.191324234008789
1761392300901450800,2.35645068359375,-0.9333199858665466,2.661166191101074,4.931857109069824
1761392300911532500,2.366532470703125,-1.718666911125183,4.063215255737305,4.093285083770752
1761392300921614600,2.376614501953125,-2.4141690731048584,4.98735237121582,3.1940858364105225
1761392300931697700,2.38669775390625,-2.9211208820343018,5.770167827606201,3.2980706691741943
1761392300941779700,2.39677978515625,-3.2676093578338623,6.361060619354248,4.158571243286133
1761392300951861500,2.406861572265625,-3.544469118118286,6.816132545471191,5.247461318969727
1761392300961943600,2.416943603515625,-3.7650306224823,6.963909149169922,6.098943710327148
1761392300972025600,2.427025634765625,-4.048935890197754,6.678538799285889,6.810263156890869
1761392300982108700,2.437108642578125,-4.399040699005127,6.542991638183594,7.358431339263916
1761392300992190700,2.447190673828125,-4.549422740936279,6.845069885253906,7.479301452636719
1761392301002272500,2.4572724609375,-4.34299373626709,7.3118462562561035,7.175530433654785
1761392301012354600,2.4673544921875,-3.8246877193450928,7.661707878112793,6.468626499176025
1761392301022437600,2.477437744140625,-2.883413076400757,6.924901962280273,6.072535991668701
1761392301032519700,2.487519775390625,-1.4127753973007202,5.129652500152588,6.3052449226379395
1761392301042601500,2.4976015625,0.27285537123680115,2.847382068634033,6.689596176147461
1761392301052683500,2.50768359375,1.032041072845459,0.6057160496711731,5.9465508460998535
1761392301062766800,2.517766845703125,0.9284228682518005,0.11280778795480728,3.990335702896118
1761392301072848600,2.5278486328125,0.41964516043663025,1.3623310327529907,1.566888689994812
1761392301082930700,2.5379306640625,-0.00026502087712287903,2.7907919883728027,-0.6748846173286438
1761392301093012500,2.548012451171875,0.2214658260345459,3.0788302421569824,-2.5750088691711426
1761392301103095800,2.558095703125,0.8070682883262634,2.3368451595306396,-3.7813069820404053
1761392301113177900,2.568177734375,1.5160218477249146,1.8985916376113892,-4.493574142456055
1761392301123260000,2.578260009765625,1.7673804759979248,1.5717248916625977,-4.979866027832031
1761392301133341700,2.588341796875,1.6343837976455688,0.8218269348144531,-5.538166522979736
1761392301143424800,2.5984248046875,1.5233912467956543,-0.372702032327652,-6.265714645385742
1761392301153506800,2.6085068359375,1.4285948276519775,-1.8788583278656006,-6.7996625900268555
1761392301163588900,2.6185888671875,1.578650712966919,-3.4326305389404297,-6.92260217666626
1761392301173670700,2.628670654296875,1.7896500825881958,-4.6966938972473145,-7.146883964538574
1761392301183753700,2.638753662109375,1.8343172073364258,-5.918992519378662,-7.521523475646973
1761392301193835800,2.648835693359375,1.829478144645691,-7.044429779052734,-7.802665710449219
1761392301203917800,2.658917724609375,2.1203625202178955,-7.917367458343506,-7.765227794647217
1761392301213999900,2.668999755859375,2.470869541168213,-7.6284685134887695,-7.611050128936768
1761392301224082700,2.679082763671875,2.4603071212768555,-6.669824123382568,-7.107468605041504
1761392301234164700,2.689164794921875,1.974413275718689,-6.02347469329834,-6.13316011428833
1761392301244246800,2.699246826171875,1.005693793296814,-5.653140068054199,-5.54299259185791
1761392301254328800,2.709328857421875,-0.07098663598299026,-4.724949836730957,-6.100658416748047
1761392301264411600,2.71941162109375,-1.3617513179779053,-3.143827199935913,-6.9027018547058105
1761392301274493700,2.72949365234375,-2.8638415336608887,-1.3330367803573608,-6.701551914215088
1761392301284575700,2.73957568359375,-4.017223358154297,-0.08932757377624512,-5.384209156036377
1761392301294657800,2.74965771484375,-4.187781810760498,0.5570839047431946,-3.547085762023926
1761392301304739800,2.75973974609375,-3.6160078048706055,1.2857178449630737,-1.721168875694275
1761392301314822700,2.76982275390625,-2.786220073699951,2.7331717014312744,-0.1781197041273117
1761392301324904700,2.77990478515625,-1.8608778715133667,4.425286293029785,1.2221368551254272
1761392301334986800,2.78998681640625,-1.0187159776687622,5.757238388061523,2.451646566390991
1761392301345068800,2.80006884765625,-0.29398784041404724,6.385317325592041,3.45961332321167
1761392301355151600,2.810151611328125,0.30600348114967346,6.707481384277344,4.235742092132568
1761392301365233700,2.820233642578125,0.5307841897010803,6.881287097930908,4.941596031188965
1761392301375315700,2.830315673828125,0.3762914836406708,6.924750328063965,5.544588088989258
1761392301385397800,2.840397705078125,-0.00047976430505514145,6.9627203941345215,5.805041790008545
1761392301395480600,2.85048046875,-0.28995150327682495,6.932828903198242,5.770294666290283
1761392301405562600,2.860562744140625,-0.46145349740982056,6.846924781799316,5.629305839538574
1761392301415644700,2.870644775390625,-0.5344632267951965,7.003196716308594,5.731382369995117
1761392301425726700,2.880726806640625,-0.5108412504196167,7.545009136199951,5.897490978240967
1761392301435809500,2.8908095703125,-0.3345409035682678,8.191019058227539,5.84553337097168
1761392301445891600,2.9008916015625,-0.11695852130651474,8.37254810333252,5.66649055480957
1761392301455973600,2.9109736328125,0.11142411828041077,7.86846399307251,5.2547430992126465
1761392301466055700,2.9210556640625,0.3051195740699768,6.912176132202148,4.578246116638184
1761392301476137700,2.9311376953125,0.5383902192115784,5.939554691314697,3.8568313121795654
1761392301486220500,2.941220458984375,0.745456337928772,5.020206928253174,3.082106828689575
1761392301496302600,2.951302490234375,0.2892970144748688,4.047654628753662,2.1522364616394043
1761392301506384600,2.961384521484375,-0.80925452709198,3.260669708251953,0.8324576020240784
1761392301516466700,2.971466796875,-1.6889365911483765,3.3499343395233154,-1.116804599761963
1761392301526549500,2.981549560546875,-2.115125894546509,3.8657994270324707,-2.7886226177215576
1761392301536631600,2.991631591796875,-2.301692247390747,3.6489992141723633,-3.493011951446533
1761392301546713600,3.001713623046875,-2.494610071182251,2.464249849319458,-3.4588449001312256
1761392301556795600,3.011795654296875,-2.502396583557129,1.108952283859253,-3.395237684249878
1761392301566878700,3.021878662109375,-2.053112745285034,-0.18588052690029144,-3.7893564701080322
1761392301576960500,3.03196044921875,-1.4759912490844727,-1.443938136100769,-4.227261066436768
1761392301587042600,3.04204248046875,-1.2550891637802124,-2.94048810005188,-4.277554988861084
1761392301597124600,3.05212451171875,-1.3959578275680542,-4.564723491668701,-4.152763366699219
1761392301607207700,3.062207763671875,-1.6349780559539795,-5.65736198425293,-4.319197654724121
1761392301617289700,3.072289794921875,-1.8644925355911255,-5.935575485229492,-5.065795421600342
1761392301627371800,3.082371826171875,-2.1059935092926025,-5.698276996612549,-6.0528564453125
1761392301637453800,3.092453857421875,-2.2142958641052246,-5.421816349029541,-6.579215049743652
1761392301647536600,3.10253662109375,-2.1807501316070557,-5.187107086181641,-6.307257652282715
1761392301657618700,3.11261865234375,-2.0652947425842285,-5.342829704284668,-5.33469295501709
1761392301667700700,3.12270068359375,-1.7800450325012207,-6.006107330322266,-3.866788864135742
1761392301677782800,3.13278271484375,-1.3096386194229126,-6.631409168243408,-2.4655981063842773
1761392301687864800,3.14286474609375,-1.1494330167770386,-6.725104808807373,-1.7129697799682617
1761392301697947600,3.15294775390625,-1.4412016868591309,-6.299316883087158,-1.5441057682037354
1761392301708029700,3.16302978515625,-2.3445043563842773,-5.162574768066406,-1.941102147102356
1761392301718111700,3.17311181640625,-3.559589385986328,-3.5742578506469727,-2.217761993408203
1761392301728193800,3.18319384765625,-4.444326400756836,-1.3314939737319946,-1.7639364004135132
1761392301738276600,3.193276611328125,-5.043732643127441,1.285992980003357,-0.9380249977111816
1761392301748358700,3.203358642578125,-5.256391525268555,3.1017813682556152,-0.5608534812927246
1761392301758440700,3.213440673828125,-4.825581073760986,4.559880256652832,-0.458064466714859
1761392301768522800,3.223522705078125,-3.7144477367401123,6.10013484954834,-0.0719202309846878
1761392301778605800,3.233605712890625,-1.7402338981628418,6.719305515289307,0.9273160099983215
1761392301788687600,3.2436875,0.7320277690887451,6.379624366760254,2.28914737701416
1761392301798769700,3.253769775390625,3.0358855724334717,5.739818096160889,3.903782844543457
1761392301808851700,3.263851806640625,4.688742637634277,5.077052116394043,5.605830192565918
1761392301818933800,3.273933837890625,5.441525459289551,4.738196849822998,6.994747638702393
1761392301829016600,3.2840166015625,5.407504081726074,5.131567478179932,7.324202060699463
1761392301839098600,3.2940986328125,4.7558746337890625,5.802913665771484,6.598816871643066
1761392301849180700,3.3041806640625,3.8135218620300293,6.225927352905273,5.569638252258301
1761392301859262700,3.3142626953125,3.0302207469940186,6.8166184425354,4.689200401306152
1761392301869345800,3.324345703125,2.584355115890503,7.107515811920166,4.185129165649414
1761392301879427600,3.334427490234375,2.3102123737335205,6.725712776184082,4.071629524230957
1761392301889509600,3.344509521484375,1.9497660398483276,5.4285478591918945,4.086014270782471
1761392301899591700,3.354591796875,1.3828905820846558,3.8840103149414062,3.9156243801116943
1761392301909674800,3.3646748046875,0.6848137974739075,3.3727736473083496,3.4214398860931396
1761392301919756500,3.374756591796875,0.06554713100194931,3.6939191818237305,2.6066770553588867
1761392301929838600,3.384838623046875,-0.27543044090270996,4.068105697631836,1.6963821649551392
1761392301939920600,3.394920654296875,-0.12383610755205154,3.7094998359680176,1.0491715669631958
1761392301950003700,3.405003662109375,0.32311689853668213,2.8791110515594482,0.9749088287353516
1761392301960085500,3.41508544921875,0.8878515958786011,1.8277108669281006,1.2422199249267578
1761392301970167600,3.42516748046875,1.394055724143982,0.19088247418403625,1.437813401222229
1761392301980249600,3.43524951171875,1.612504243850708,-1.7886885404586792,1.1343141794204712
1761392301990331600,3.44533154296875,1.0892345905303955,-3.1870367527008057,-0.018753325566649437
1761392302000414700,3.455414794921875,0.017768628895282745,-3.7682952880859375,-2.1133298873901367
1761392302010496500,3.46549658203125,-1.1426798105239868,-3.8894755840301514,-4.785121917724609
1761392302020578600,3.47557861328125,-1.851686716079712,-3.468703269958496,-7.084381580352783
1761392302030660600,3.48566064453125,-2.1063315868377686,-2.541137456893921,-7.953926086425781
1761392302040743700,3.49574365234375,-2.006899833679199,-2.21199107170105,-7.262684345245361
1761392302050825500,3.505825439453125,-1.5729217529296875,-2.829489231109619,-5.847095966339111
1761392302060907500,3.515907470703125,-0.8212229013442993,-3.864246368408203,-4.545382976531982
1761392302070989600,3.525989501953125,-0.15987823903560638,-4.728151798248291,-3.755779266357422
1761392302081072600,3.53607275390625,0.16028890013694763,-5.050289630889893,-3.2326576709747314
1761392302091154700,3.54615478515625,0.05827358365058899,-5.086122989654541,-2.8745341300964355
1761392302101236500,3.556236572265625,-0.29350873827934265,-4.864926338195801,-2.8991034030914307
1761392302111318500,3.566318603515625,-0.7169798016548157,-4.185408115386963,-3.3233728408813477
1761392302121400600,3.576400634765625,-1.178972601890564,-3.1454737186431885,-3.788060188293457
1761392302131483600,3.586483642578125,-1.7009092569351196,-2.2845489978790283,-4.046372890472412
1761392302141565400,3.5965654296875,-2.070197582244873,-2.2517857551574707,-3.980660915374756
1761392302151647500,3.6066474609375,-2.044098377227783,-3.0326950550079346,-3.309630870819092
1761392302161729500,3.6167294921875,-1.4970691204071045,-3.7946178913116455,-1.868237018585205
1761392302171812600,3.6268125,-0.9293976426124573,-4.2256340980529785,-0.1712360829114914
1761392302181894700,3.636894775390625,-0.5714619755744934,-4.263786792755127,1.0771480798721313
1761392302191976400,3.6469765625,-0.544459342956543,-3.7777140140533447,1.515899896621704
1761392302202058500,3.65705859375,-1.1430037021636963,-3.14426851272583,1.0961755514144897
1761392302212141600,3.6671416015625,-2.034045457839966,-2.597830295562744,0.2862420678138733
1761392302222223600,3.6772236328125,-2.645096778869629,-1.8968995809555054,-0.1516619622707367
1761392302232305400,3.687305419921875,-2.976450204849243,-0.633550763130188,-0.007404925301671028
1761392302242387500,3.697387451171875,-3.0355451107025146,1.3149739503860474,0.5655022263526917
1761392302252469500,3.707469482421875,-2.588681936264038,3.5514976978302,1.1574152708053589
1761392302262552600,3.717552490234375,-1.641775369644165,5.533329963684082,1.605425477027893
1761392302272634600,3.727634521484375,-0.5394266843795776,6.469038009643555,1.9981344938278198
1761392302282716400,3.73771630859375,0.34959158301353455,6.55387544631958,2.5043773651123047
1761392302292798500,3.747798583984375,0.9314427375793457,6.396512985229492,2.948953628540039
1761392302302880500,3.757880615234375,1.3802433013916016,6.376902103424072,3.1593539714813232
1761392302312963600,3.767963623046875,1.6876444816589355,6.608738899230957,3.122771739959717
1761392302323045400,3.77804541015625,1.8041181564331055,7.031152725219727,2.8343725204467773
1761392302333127400,3.78812744140625,1.7896943092346191,7.466439723968506,2.421072006225586
1761392302343209500,3.79820947265625,1.7998847961425781,7.62596321105957,2.0896105766296387
1761392302353292800,3.808292724609375,1.8659462928771973,7.193131446838379,2.0336191654205322
1761392302363374600,3.81837451171875,1.962747573852539,6.2294840812683105,2.2945642471313477
1761392302373456400,3.828456298828125,2.160417079925537,4.904141902923584,2.690356969833374
1761392302383538400,3.838538330078125,2.564089775085449,3.5668234825134277,2.992856502532959
1761392302393621800,3.848621826171875,3.3131120204925537,2.4262807369232178,3.208218574523926
1761392302403703800,3.858703857421875,3.7886276245117188,1.2654776573181152,3.2110960483551025
1761392302413785600,3.86878564453125,3.313035249710083,-0.39906883239746094,2.5968215465545654
1761392302423867600,3.87886767578125,2.112860679626465,-2.3351938724517822,1.2052654027938843
1761392302433949700,3.88894970703125,1.1110960245132446,-3.3146393299102783,-0.668239951133728
1761392302444032800,3.89903271484375,0.539985179901123,-2.2615320682525635,-2.307424545288086
1761392302454114600,3.909114501953125,0.27503320574760437,0.05437454208731651,-3.33058762550354
1761392302464196600,3.919196533203125,0.23035484552383423,1.9789711236953735,-3.480480670928955
1761392302474278700,3.929278564453125,0.28680694103240967,2.463940143585205,-2.9806079864501953
1761392302484361700,3.93936181640625,0.32937997579574585,0.9718959331512451,-2.5092477798461914
1761392302494443800,3.94944384765625,0.33383995294570923,-1.5101797580718994,-2.465606689453125
1761392302504525600,3.959525634765625,0.19996598362922668,-3.6215033531188965,-2.9220316410064697
1761392302514607600,3.969607666015625,-0.11671076714992523,-4.5447235107421875,-3.8036792278289795
1761392302524690700,3.979690673828125,-0.5247407555580139,-4.419302463531494,-4.928919792175293
1761392302534772700,3.989772705078125,-1.0476775169372559,-3.692456007003784,-5.980021953582764
1761392302544854500,3.9998544921875,-1.599165439605713,-2.8178024291992188,-6.515386581420898
1761392302554936600,4.0099365234375,-2.036207675933838,-2.2438929080963135,-6.274075031280518
1761392302565018600,4.0200185546875,-2.2383904457092285,-2.5126800537109375,-5.512449264526367
1761392302575100700,4.0301005859375,-1.8988862037658691,-3.614872932434082,-4.353404998779297
1761392302585183700,4.040183837890625,-1.2681007385253906,-5.080385208129883,-3.0262131690979004
1761392302595265500,4.050265625,-0.7719682455062866,-6.4644670486450195,-1.799648404121399
1761392302605347600,4.06034765625,-0.54062420129776,-7.096713542938232,-0.8308660387992859
1761392302615429600,4.0704296875,-0.6839664578437805,-6.714443683624268,-0.5286715626716614
1761392302625512700,4.0805126953125,-1.230057954788208,-5.535385608673096,-1.3422785997390747
1761392302635594500,4.090594482421875,-1.9276365041732788,-4.041531085968018,-2.8724520206451416
1761392302645676500,4.100676513671875,-2.4933621883392334,-3.0031661987304688,-4.0945143699646
1761392302655758600,4.110758544921875,-3.0034449100494385,-2.7161736488342285,-4.408585071563721
1761392302665840600,4.120840576171875,-3.4267656803131104,-2.548098564147949,-3.9481637477874756
1761392302675923700,4.130923828125,-3.466642141342163,-1.97207772731781,-3.0893168449401855
1761392302686005500,4.141005615234375,-3.0519626140594482,-0.5781548619270325,-2.326164484024048
1761392302696087600,4.151087646484375,-2.0531110763549805,1.5755621194839478,-1.6122667789459229
1761392302706169600,4.161169677734375,-0.5151174068450928,3.177164077758789,-0.5714884996414185
1761392302716252700,4.171252685546875,1.1669316291809082,3.6495041847229004,0.7895225882530212
1761392302726334500,4.18133447265625,2.821399688720703,3.3684298992156982,2.444772720336914
1761392302736416500,4.19141650390625,4.146443843841553,3.008354902267456,4.1118035316467285
1761392302746498600,4.20149853515625,4.935616493225098,2.817394256591797,5.534947395324707
1761392302756580600,4.21158056640625,5.150768280029297,2.826826572418213,6.514334201812744
1761392302766663400,4.221663330078125,4.812277317047119,3.2131354808807373,6.845814228057861
1761392302776745500,4.231745361328125,4.102107524871826,3.96213436126709,6.573797702789307
1761392302786827500,4.24182763671875,3.308103084564209,4.8413262367248535,5.871882438659668
1761392302796909600,4.25190966796875,2.6834628582000732,5.544175624847412,5.043631553649902
1761392302806992600,4.26199267578125,2.36291241645813,5.9458818435668945,4.430441379547119
1761392302817074400,4.272074462890625,2.198662757873535,6.082796096801758,4.326429843902588
1761392302827156500,4.282156494140625,2.1262238025665283,5.757747650146484,4.656335353851318
1761392302837238500,4.292238525390625,2.295928716659546,4.99943208694458,4.995296955108643
1761392302847316700,4.302316650390625,2.7127420902252197,3.803288221359253,5.108069896697998
1761392302857400000,4.312400146484375,3.0172102451324463,1.9382786750793457,5.131624698638916
1761392302867481900,4.32248193359375,2.7004690170288086,-0.9259226322174072,4.767237186431885
1761392302877564000,4.33256396484375,1.6192256212234497,-3.423253059387207,3.379873037338257
1761392302887646000,4.34264599609375,0.13499104976654053,-4.144583702087402,1.05788254737854
1761392302897729000,4.35272900390625,-0.6163897514343262,-2.067490339279175,-1.0565141439437866
1761392302907810800,4.362810791015625,-0.8213583827018738,1.148606300354004,-2.290464162826538
1761392302917892900,4.372892822265625,-1.0853428840637207,3.0349068641662598,-2.95927095413208
1761392302927975000,4.382974853515625,-1.1244653463363647,2.613424062728882,-3.4287476539611816
1761392302938058000,4.39305810546875,-1.0069326162338257,0.5553647875785828,-3.890260696411133
1761392302948140000,4.40314013671875,-1.0495482683181763,-1.764803409576416,-4.211487293243408
1761392302958221800,4.413221923828125,-1.0609729290008545,-3.42378306388855,-4.455848693847656
1761392302968303900,4.423303955078125,-0.9992647171020508,-4.119329929351807,-4.763364791870117
1761392302978386000,4.433385986328125,-0.9750043749809265,-4.029239177703857,-4.908715724945068
1761392302988469000,4.443468994140625,-1.2383548021316528,-3.2954158782958984,-4.703674793243408
1761392302998550800,4.45355078125,-1.796446681022644,-2.881082057952881,-4.457540988922119
1761392303008632800,4.4636328125,-2.39591646194458,-3.287802219390869,-4.407105922698975
1761392303018715000,4.47371484375,-2.7001264095306396,-3.981670379638672,-4.577575206756592
1761392303028798000,4.4837978515625,-2.7157280445098877,-4.8289899826049805,-4.342812538146973
1761392303038879700,4.493879638671875,-2.587618589401245,-6.20928955078125,-3.2085371017456055
1761392303048961800,4.5039619140625,-2.6372015476226807,-6.838985919952393,-2.4275951385498047
1761392303059043800,4.5140439453125,-2.9113831520080566,-6.75840950012207,-2.50429630279541
1761392303069126000,4.5241259765625,-3.438392162322998,-6.374728202819824,-3.062614679336548
1761392303079209000,4.534208984375,-4.187040328979492,-6.0089430809021,-3.4673540592193604
1761392303089290800,4.544290771484375,-4.9661078453063965,-5.537524223327637,-3.5356338024139404
1761392303099372800,4.554372802734375,-5.34926700592041,-4.7677154541015625,-3.2409517765045166
1761392303109454800,4.564454833984375,-5.060803413391113,-3.3356194496154785,-2.5090138912200928
1761392303119538000,4.574537841796875,-4.177748680114746,-1.2627063989639282,-1.2808589935302734
1761392303129619700,4.58461962890625,-2.9541916847229004,0.6791508197784424,0.14490734040737152
1761392303139701800,4.59470166015625,-1.5815788507461548,2.1467928886413574,1.5723785161972046
1761392303149783800,4.60478369140625,-0.3335677683353424,3.212256669998169,2.8598029613494873
1761392303159865900,4.614865966796875,0.5843700766563416,3.8739395141601562,3.9155898094177246
1761392303169949000,4.624948974609375,1.0556201934814453,4.237724304199219,4.593715667724609
1761392303180030700,4.63503076171875,1.2650742530822754,4.657858848571777,4.844424724578857
1761392303190112800,4.64511279296875,1.3601456880569458,5.17317533493042,4.828977108001709
1761392303200194800,4.65519482421875,1.3878052234649658,5.642757892608643,4.754264831542969
1761392303210278000,4.66527783203125,1.3985041379928589,5.921878814697266,4.6887712478637695
1761392303220359700,4.675359619140625,1.387295126914978,6.011025905609131,4.619045734405518
1761392303230441700,4.685441650390625,1.3104901313781738,5.946637153625488,4.566840648651123
1761392303240523800,4.695523681640625,1.0890331268310547,5.96177339553833,4.507989883422852
1761392303250605800,4.705605712890625,0.8484623432159424,6.1993818283081055,4.354583263397217
1761392303260689000,4.71568896484375,0.9984529614448547,6.285301685333252,4.114623546600342
1761392303270770700,4.725770751953125,1.7742161750793457,5.8177170753479,3.7382142543792725
1761392303280852700,4.735852783203125,2.651714324951172,4.628611087799072,3.430079698562622
1761392303290934800,4.745934814453125,3.008762836456299,2.0678961277008057,3.082400321960449
1761392303301017900,4.756017822265625,2.041168212890625,-1.612189531326294,2.001654863357544
1761392303311099600,4.766099609375,0.6454567909240723,-3.289619207382202,0.7383702397346497
1761392303321181700,4.776181640625,0.2129216194152832,-1.4390791654586792,-0.09537122398614883
1761392303331263700,4.786263671875,0.03061004728078842,1.9562182426452637,-0.7034668922424316
1761392303341345800,4.796345703125,-0.26257815957069397,3.851496696472168,-1.407733678817749
1761392303351428900,4.806428955078125,-0.28772997856140137,3.3428447246551514,-2.2894980907440186
1761392303361510700,4.8165107421875,-0.2860806882381439,1.2902348041534424,-3.118612051010132
1761392303371592700,4.8265927734375,-0.40102142095565796,-1.1109257936477661,-3.475158452987671
1761392303381674800,4.8366748046875,-0.6279115676879883,-3.0013787746429443,-3.47945237159729
1761392303391757800,4.8467578125,-0.7975298166275024,-3.96175479888916,-3.5475244522094727
1761392303401839600,4.856839599609375,-0.8854687213897705,-4.230015754699707,-3.702058792114258
1761392303411921700,4.866921630859375,-0.9883230924606323,-4.171886920928955,-3.7959439754486084
1761392303422003700,4.877003662109375,-1.140416145324707,-4.055520057678223,-3.8053112030029297
1761392303432087000,4.887087158203125,-1.4113398790359497,-4.0914130210876465,-3.998375654220581
1761392303442168800,4.8971689453125,-1.7767345905303955,-4.300405502319336,-4.1115570068359375
1761392303452251000,4.9072509765625,-2.0713658332824707,-5.05037784576416,-4.279233932495117
1761392303462332700,4.917332763671875,-2.0760533809661865,-5.711029052734375,-4.32798957824707
1761392303472414700,4.927414794921875,-1.6429126262664795,-6.5358147621154785,-3.4637269973754883
1761392303482498000,4.937498046875,-1.3489007949829102,-6.988622188568115,-2.352043867111206
1761392303492579800,4.947579833984375,-1.3168268203735352,-6.691422462463379,-2.016857624053955
1761392303502662000,4.957661865234375,-1.83367121219635,-5.927507400512695,-2.7595770359039307
1761392303512744000,4.967743896484375,-2.6972830295562744,-4.9853668212890625,-3.781791925430298
1761392303522827000,4.977826904296875,-3.4559285640716553,-4.5649333000183105,-4.21969747543335
1761392303532908800,4.98790869140625,-3.779763698577881,-4.345628261566162,-3.554255723953247
1761392303542990800,4.997990966796875,-3.5966668128967285,-2.9064319133758545,-1.7244229316711426
1761392303553073000,5.008072998046875,-3.0162193775177,-0.4754733145236969,0.22322946786880493
1761392303563155000,5.018155029296875,-2.172767400741577,1.9880564212799072,1.4830001592636108
1761392303573238000,5.028238037109375,-1.4241281747817993,4.063381671905518,2.1210074424743652
1761392303583319800,5.03831982421875,-0.9012026190757751,5.5424652099609375,2.636855363845825
1761392303593401900,5.04840185546875,-0.3618254065513611,6.345571994781494,3.2130606174468994
1761392303603484000,5.05848388671875,0.29358813166618347,6.736206531524658,3.729412317276001
1761392303613566000,5.06856591796875,0.9746725559234619,6.845947265625,4.244162082672119
1761392303623648800,5.078648681640625,1.5919307470321655,6.707981109619141,4.808705806732178
1761392303633730800,5.088730712890625,2.0500690937042236,6.426699161529541,5.3600029945373535
1761392303643812900,5.098812744140625,2.315075635910034,6.130252361297607,5.8150482177734375
1761392303653895000,5.10889501953125,2.4149045944213867,5.940061569213867,6.110810279846191
1761392303663978000,5.11897802734375,2.306591510772705,5.862831115722656,6.264294624328613
1761392303674059800,5.129059814453125,2.0674500465393066,6.124343395233154,6.141514778137207
1761392303684141800,5.139141845703125,2.025968074798584,6.577925205230713,5.579986095428467
1761392303694224000,5.149223876953125,2.2690083980560303,6.813770294189453,4.735760688781738
1761392303704306000,5.159305908203125,2.7466413974761963,6.562994003295898,3.442023515701294
1761392303714388700,5.169388671875,3.771538257598877,5.253480434417725,2.2355895042419434
1761392303724470800,5.179470703125,4.117683410644531,0.997192919254303,1.224566102027893
1761392303734552800,5.189552734375,2.5846428871154785,-3.9561777114868164,0.2036275565624237
1761392303744635000,5.199634765625,1.154832124710083,-5.146877288818359,-0.6292608380317688
1761392303754718000,5.209718017578125,0.362918883562088,-1.5472956895828247,-1.5958963632583618
1761392303764799700,5.2197998046875,-0.45905378460884094,3.4742555618286133,-2.98032283782959
1761392303774881800,5.2298818359375,-0.7849653959274292,5.860814094543457,-4.090878009796143
1761392303784963800,5.2399638671875,-0.7988529801368713,5.044313430786133,-4.734935760498047
1761392303795047000,5.250046875,-0.747930645942688,2.2926783561706543,-4.74548864364624
1761392303805128700,5.260128662109375,-0.6188368797302246,-1.0579239130020142,-4.342441558837891
1761392303815210800,5.270210693359375,-0.47460126876831055,-3.5804483890533447,-3.9836816787719727
1761392303825292800,5.280292724609375,-0.36004698276519775,-5.07942008972168,-4.027018070220947
1761392303835374800,5.290374755859375,-0.4331762492656708,-5.6133904457092285,-4.231216907501221
1761392303845458000,5.3004580078125,-0.7584768533706665,-5.350014686584473,-4.415928363800049
1761392303855540500,5.31054052734375,-1.2716273069381714,-4.851136684417725,-4.684135437011719
1761392303865622500,5.32062255859375,-1.7014268636703491,-4.67385196685791,-4.820743560791016
1761392303875704600,5.33070458984375,-1.877064824104309,-5.132330417633057,-4.770351409912109
1761392303885787400,5.340787353515625,-1.7142878770828247,-6.089726448059082,-4.44152307510376
1761392303895869400,5.350869384765625,-1.3008936643600464,-7.3201470375061035,-3.8134520053863525
1761392303905951500,5.360951416015625,-1.072304129600525,-8.311659812927246,-3.0325164794921875
1761392303916033500,5.371033447265625,-1.118523359298706,-8.42455005645752,-2.4618430137634277
1761392303926115600,5.381115478515625,-1.3452244997024536,-7.759207725524902,-2.078761577606201
1761392303936198400,5.391198486328125,-1.6944539546966553,-6.558274269104004,-1.8869258165359497
1761392303946280400,5.401280517578125,-2.062089443206787,-5.322488784790039,-1.4835989475250244
1761392303956362500,5.411362548828125,-2.5089147090911865,-4.307642936706543,-0.8439522981643677
1761392303966444500,5.421444580078125,-3.059715986251831,-3.3674440383911133,-0.3868446350097656
1761392303976526600,5.431526611328125,-3.643232583999634,-2.1637136936187744,-0.13445644080638885
1761392303986609400,5.441609375,-4.064934253692627,-0.5347201824188232,0.15053188800811768
1761392303996691500,5.45169140625,-3.992299795150757,1.692082166671753,0.5962846279144287
1761392304006773500,5.4617734375,-3.1646504402160645,4.035254955291748,1.2962003946304321
1761392304016855600,5.47185546875,-1.8708751201629639,5.625171661376953,2.2354419231414795
1761392304026938400,5.4819384765625,-0.571319043636322,6.155501365661621,3.2595534324645996
1761392304037020400,5.4920205078125,0.36381879448890686,5.774185657501221,4.237511157989502
1761392304047102500,5.5021025390625,0.7624037265777588,5.231558799743652,4.972859859466553
1761392304057184500,5.5121845703125,0.7842692732810974,4.961392879486084,5.2436370849609375
1761392304067266600,5.5222666015625,0.5701537728309631,5.118621349334717,5.0318603515625
1761392304077349400,5.532349365234375,0.20614202320575714,5.5458574295043945,4.485621929168701
1761392304087431400,5.542431396484375,-0.26646971702575684,6.370450019836426,3.7598280906677246
1761392304097513500,5.552513427734375,-0.6760387420654297,7.329334259033203,2.893548011779785
1761392304107595500,5.562595458984375,-0.8767294883728027,8.073751449584961,1.9984699487686157
1761392304117678300,5.57267822265625,-0.792640209197998,8.054367065429688,1.2071378231048584
1761392304127760400,5.582760498046875,-0.5029234290122986,7.348388195037842,0.7448112368583679
1761392304137842400,5.592842529296875,0.08538684248924255,5.973508358001709,0.6645634174346924
1761392304147924500,5.602924560546875,1.1197941303253174,4.469409465789795,0.9398402571678162
1761392304158006500,5.613006591796875,2.3674285411834717,2.740081310272217,1.4277153015136719
1761392304168089300,5.62308935546875,2.974684953689575,0.3247412443161011,1.652327060699463
1761392304178171400,5.63317138671875,2.349217176437378,-2.0287206172943115,1.163499355316162
1761392304188253400,5.64325341796875,1.425471305847168,-2.6357691287994385,0.27109694480895996
1761392304198335500,5.65333544921875,0.8143371939659119,-1.83330500125885,-1.14273202419281
1761392304208418300,5.663418212890625,0.554824948310852,-0.5379641652107239,-2.9301912784576416
1761392304218500400,5.673500244140625,0.46594613790512085,0.323717325925827,-4.505812168121338
1761392304228582400,5.68358251953125,0.13432586193084717,0.6207988262176514,-5.557534217834473
1761392304238664400,5.69366455078125,-0.20994435250759125,0.38407257199287415,-6.084089756011963
1761392304248746500,5.70374658203125,-0.40763717889785767,-0.23627644777297974,-6.253244876861572
1761392304258829300,5.713829345703125,-0.44121938943862915,-1.2193398475646973,-6.205028057098389
1761392304268911400,5.723911376953125,-0.3985137343406677,-2.269083261489868,-6.016289710998535
1761392304278993400,5.733993408203125,-0.46627339720726013,-3.3871958255767822,-5.695631980895996
1761392304289075500,5.744075439453125,-0.7571204304695129,-4.399329662322998,-5.281590938568115
1761392304299158300,5.754158203125,-1.1741981506347656,-4.793635368347168,-5.054473400115967
1761392304309240300,5.764240234375,-1.623275876045227,-4.619971752166748,-5.641718864440918
1761392304319322400,5.774322265625,-1.9814159870147705,-3.814880847930908,-6.780324935913086
1761392304329404400,5.784404296875,-2.375697374343872,-3.2450127601623535,-7.64808988571167
1761392304339486500,5.794486572265625,-2.5429935455322266,-2.3372716903686523,-8.11312484741211
1761392304349569300,5.8045693359375,-2.139727830886841,-1.4400709867477417,-7.453646659851074
1761392304359651300,5.8146513671875,-1.5825543403625488,-1.443236231803894,-5.720273494720459
1761392304369733400,5.8247333984375,-0.9917727708816528,-1.5956988334655762,-3.4379971027374268
1761392304379815400,5.8348154296875,-0.4224443733692169,-1.740217685699463,-1.0305756330490112
1761392304389898500,5.8448984375,-0.11183935403823853,-1.4894126653671265,1.1785866022109985
1761392304399980500,5.85498046875,-0.32620665431022644,-1.125458836555481,2.905599594116211
1761392304410062300,5.865062255859375,-0.7565010786056519,-1.330327033996582,3.8612818717956543
1761392304420144400,5.875144287109375,-0.9990269541740417,-1.7423940896987915,3.9243266582489014
1761392304430226400,5.885226318359375,-1.066326379776001,-2.0688045024871826,3.21885347366333
1761392304440309500,5.8953095703125,-0.9853160977363586,-1.8389768600463867,2.1115217208862305
1761392304450391600,5.9053916015625,-0.8359513878822327,-0.7088924050331116,1.0886363983154297
1761392304460473600,5.9154736328125,-0.6178854703903198,1.055808663368225,0.38075682520866394
1761392304470555600,5.9255556640625,-0.3129284679889679,2.475919485092163,-0.28252285718917847
1761392304480637200,5.93563720703125,0.030961915850639343,3.226376533508301,-0.9707145690917969
1761392304490720500,5.945720458984375,0.5119072198867798,3.458456516265869,-1.4838521480560303
1761392304500802600,5.955802490234375,0.9835312366485596,3.261470317840576,-1.5988667011260986
1761392304510884600,5.965884521484375,1.4067882299423218,2.5323920249938965,-1.373714804649353
1761392304520966700,5.975966552734375,1.5843303203582764,1.5085846185684204,-1.086100697517395
1761392304531049500,5.986049560546875,1.4617729187011719,0.6364624500274658,-0.8178146481513977
1761392304541131500,5.996131591796875,1.2765265703201294,0.11125048995018005,-0.56029212474823
1761392304551213600,6.006213623046875,1.1161595582962036,-0.38236773014068604,-0.3108338415622711
1761392304561295600,6.016295654296875,0.9175260066986084,-0.9062219858169556,-0.14483517408370972
1761392304571377400,6.02637744140625,0.6816069483757019,-1.1977932453155518,-0.08214487880468369
1761392304581460500,6.03646044921875,0.46786391735076904,-0.8716105222702026,0.03752899542450905
1761392304591542500,6.04654248046875,0.3154991567134857,-0.27401021122932434,0.18063102662563324
1761392304601624600,6.05662451171875,0.26979219913482666,0.4732149839401245,0.3628188371658325
1761392304611706400,6.066706298828125,0.3414698541164398,1.0765762329101562,0.5852870941162109
1761392304621788400,6.076788330078125,0.5436100363731384,1.5893676280975342,0.8125721216201782
1761392304631871500,6.08687158203125,0.7985808253288269,1.8374969959259033,1.0307681560516357
1761392304641953500,6.09695361328125,0.9792218804359436,1.3418169021606445,1.1965818405151367
1761392304652035600,6.10703564453125,1.057250738143921,0.8856539726257324,1.2346439361572266
1761392304662117400,6.117117431640625,1.018082857131958,0.6251137256622314,1.1170746088027954
1761392304672200400,6.127200439453125,0.9009854793548584,0.42679664492607117,0.8770588040351868
1761392304682282500,6.137282470703125,0.7862505316734314,0.5128883123397827,0.7303641438484192
1761392304692364500,6.147364501953125,0.7307105660438538,0.8085535168647766,0.7219006419181824
1761392304702446300,6.1574462890625,0.697885274887085,1.2560229301452637,0.8428114652633667
1761392304712528400,6.1675283203125,0.6284137964248657,1.6287704706192017,0.9844027161598206
1761392304722611500,6.177611572265625,0.4997541606426239,1.621014952659607,0.9760795831680298
1761392304732693500,6.187693603515625,0.32749077677726746,1.122204303741455,0.7163110971450806
1761392304742775600,6.197775634765625,0.15905208885669708,0.3782061040401459,0.31028327345848083
1761392304752857300,6.207857421875,0.049007348716259,-0.10041505098342896,-0.045151807367801666
1761392304762940400,6.2179404296875,-0.02425844594836235,-0.2089223712682724,-0.23574288189411163
1761392304773022500,6.2280224609375,-0.08750052750110626,-0.1909172683954239,-0.3198891878128052
1761392304783104500,6.2381044921875,-0.12719208002090454,-0.051747824996709824,-0.42486411333084106
1761392304793186300,6.248186279296875,-0.13367395102977753,0.18427403271198273,-0.5646015405654907
1761392304803268400,6.258268310546875,-0.09081576764583588,0.5400065183639526,-0.610765278339386
1761392304813351400,6.268351318359375,-0.0037248069420456886,0.8869226574897766,-0.5231504440307617
1761392304823433500,6.27843359375,0.09120655804872513,1.0125776529312134,-0.399771511554718
1761392304833515500,6.288515625,0.12104488164186478,0.9344355463981628,-0.22934837639331818
1761392304843597300,6.298597412109375,0.09539495408535004,0.6914483904838562,-0.07218794524669647
1761392304853678600,6.3086787109375,0.05020590126514435,0.3218431770801544,-0.0005454444326460361
1761392304863761700,6.31876171875,0.019256440922617912,0.026031704619526863,0.03996071591973305
1761392304873843700,6.32884375,0.01183713972568512,-0.08878062665462494,0.10910729318857193
1761392304883925800,6.33892578125,-0.0009505664929747581,-0.08689682185649872,0.2236994206905365
1761392304894007800,6.3490078125,-0.030347604304552078,-0.11034542322158813,0.29447370767593384
1761392304904090600,6.359090576171875,-0.07011053711175919,-0.11941259354352951,0.33157026767730713
1761392304914172700,6.369172607421875,-0.10468635708093643,-0.02615588717162609,0.3698558509349823
1761392304924254700,6.379254638671875,-0.12414540350437164,0.10408899188041687,0.4081132411956787
1761392304934336800,6.389336669921875,-0.1538444459438324,0.17247630655765533,0.3877464532852173
1761392304944418600,6.39941845703125,-0.19522535800933838,0.18639761209487915,0.2973445951938629
1761392304954501600,6.409501708984375,-0.22320187091827393,0.2602151036262512,0.18150267004966736
1761392304964583700,6.419583740234375,-0.23378929495811462,0.417389452457428,0.07221467047929764
1761392304974665700,6.429665771484375,-0.22362427413463593,0.5364381074905396,-0.04218008369207382
1761392304984747800,6.439747802734375,-0.19730277359485626,0.542087197303772,-0.13517804443836212
1761392304994829600,6.44982958984375,-0.17176945507526398,0.43820875883102417,-0.19754742085933685
1761392305004912600,6.45991259765625,-0.1405569314956665,0.2852953374385834,-0.235907644033432
1761392305014994700,6.46999462890625,-0.08424437791109085,0.1788804978132248,-0.2707548439502716
1761392305025076700,6.48007666015625,-0.03215610235929489,0.15106570720672607,-0.23382334411144257
1761392305035158500,6.490158447265625,-0.0494123212993145,0.17873701453208923,-0.09932466596364975
1761392305045241900,6.500241943359375,-0.11162273585796356,0.22776414453983307,0.0816037505865097
1761392305055323600,6.51032373046875,-0.17294496297836304,0.2799256145954132,0.25055786967277527
1761392305065405700,6.52040576171875,-0.2004273533821106,0.27195608615875244,0.3505714535713196
1761392305075487500,6.530487548828125,-0.19334760308265686,0.17165479063987732,0.3672460615634918
1761392305085569500,6.540569580078125,-0.20016926527023315,0.06942763179540634,0.3627001941204071
1761392305095652900,6.55065283203125,-0.2316257357597351,0.03219611197710037,0.36426854133605957
1761392305105735000,6.56073486328125,-0.23895220458507538,0.10091233998537064,0.37916913628578186
1761392305115816700,6.570816650390625,-0.17121656239032745,0.25305846333503723,0.37168991565704346
1761392305125898800,6.580898681640625,-0.07016169279813766,0.4002746045589447,0.3271540105342865
1761392305135981800,6.59098193359375,0.004342100583016872,0.5126515030860901,0.273762971162796
1761392305146064000,6.60106396484375,0.02650998905301094,0.5758408308029175,0.2528137266635895
1761392305156146000,6.61114599609375,0.013073273934423923,0.6279703974723816,0.27430784702301025
1761392305166227700,6.621227783203125,-0.017316224053502083,0.6443502306938171,0.3168482482433319
1761392305176309800,6.631309814453125,-0.044716425240039825,0.6009207367897034,0.3554060161113739
1761392305186392800,6.641392822265625,-0.05520963668823242,0.4489341080188751,0.44216156005859375
1761392305196475000,6.651474853515625,-0.045291490852832794,0.028753621503710747,0.5444477200508118
1761392305206556700,6.661556640625,-0.0110807865858078,-0.3200729489326477,0.6366133093833923
1761392305216638700,6.671638671875,0.013820835389196873,-0.39256444573402405,0.6931002736091614
1761392305226720800,6.681720703125,0.018907267600297928,-0.3259866237640381,0.6625722050666809
1761392305236803800,6.691803955078125,0.023122519254684448,-0.16993656754493713,0.5790221691131592
1761392305246886000,6.701885986328125,0.022619176656007767,-0.020253457129001617,0.47660475969314575
