time,seconds_elapsed,z,y,x
1761380411817535000,0.078534912109375,-0.06923018809258938,-0.03730071640107781,0.043138080785050985
1761380411827617000,0.088616943359375,0.05584171420931816,0.0011843144137412308,-0.014129446709994225
1761380411837698800,0.09869873046875,0.1338864923983812,0.026968999739922582,-0.04120183375915512
1761380411847782000,0.108781982421875,0.016464228066802023,-0.0045600379245355725,0.029449171783635392
1761380411857864000,0.118864013671875,-0.005047346517443657,-0.01427826232984662,0.03196973063666373
1761380411867946000,0.128946044921875,0.09635901803672313,0.014951960340328514,-0.032629363589175044
1761380411878028800,0.13902880859375,0.08063362563848495,0.011150522230751811,-0.024420529966661705
1761380411888110800,0.14911083984375,-0.0019166472762823105,-0.023481559482961892,0.02169648443078622
1761380411898193000,0.15919287109375,0.06017711306512356,-0.0016982187526300549,-0.004204164558416232
1761380411908276000,0.16927587890625,0.09410860876142978,0.009549370644427835,-0.020118320994405074
1761380411918357800,0.179357666015625,0.02829202850461006,-0.009769771929457783,0.008029522399697453
1761380411928439800,0.189439697265625,0.03250876941680908,-0.008989910130761563,0.019457500731805338
1761380411938523100,0.199523193359375,0.08111702524125576,-0.0007951324330642819,-0.00942447475627996
1761380411948605200,0.209605224609375,0.054929860061407085,0.008569090902805328,-0.013950783941149712
1761380411958687000,0.21968701171875,0.018297288712859152,-0.007778232786059379,0.011156303517566994
1761380411968770000,0.22977001953125,0.05136018488109111,-0.0020635814663022755,-0.004259520608000457
1761380411978851300,0.239851318359375,0.0715431412100792,0.01038213167414069,-0.01411736354655586
1761380411988933000,0.24993310546875,0.04222527678906917,-0.0002643134919926524,0.010763815334951505
1761380411999016200,0.26001611328125,0.040736499536037446,-0.008462525255791843,0.010393520717835053
1761380412009098200,0.27009814453125,0.06272095232903957,0.00006784107182174921,-0.008945678263390437
1761380412019180300,0.28018017578125,0.051204117536544795,0.003754932086728513,-0.012552525382628663
1761380412029263400,0.290263427734375,0.04104980326890945,-0.016676153784431515,0.005149281655112281
1761380412039345200,0.30034521484375,0.052719198274612425,-0.003624802901037037,0.0020881770514417437
1761380412049428200,0.31042822265625,0.05494856476187706,0.001168532322719693,-0.016915232370467857
1761380412059510300,0.32051025390625,0.04642915821969509,-0.002551145787537098,-0.0020142350323963908
1761380412069592300,0.33059228515625,0.05331774868965149,-0.009293094328418374,0.012835114316828548
1761380412079675100,0.340675048828125,0.051662967219948765,0.010680420500971377,-0.00463036321438849
1761380412089757200,0.350757080078125,0.04597615375518799,0.004713584518432617,-0.0026912666442804037
1761380412099839200,0.360839111328125,0.04911854343414306,-0.0035674832232296463,0.0008801529685501008
1761380412109922000,0.370922119140625,0.056743046963214874,-0.00024297844301909206,-0.0012326288011856377
1761380412120004000,0.381004150390625,0.05643617297112941,0.0018640403062105178,-0.004636327164294198
1761380412130086100,0.391086181640625,0.04536240577101707,0.0007045680727809667,0.00352187224952504
1761380412140169200,0.401169189453125,0.041021746218204494,0.0017785539798438547,-0.0038353403791785237
1761380412150251300,0.411251220703125,0.05912380461990833,0.004244761430285871,-0.010230850102566183
1761380412160333000,0.4213330078125,0.0643581981420517,0.0020442557113245128,-0.005813928709458559
1761380412170416000,0.431416015625,0.05972586216628551,0.001799341039545834,-0.0021840112418867645
1761380412180498200,0.441498291015625,0.0420627797037363,0.000014466916769742965,-0.0012671703916043043
1761380412190580200,0.451580322265625,0.0493868389815092,0.0025801526863127944,-0.011284021550463512
1761380412200663000,0.4616630859375,0.0577612840950489,0.006211312262900173,-0.0026255901300814
1761380412210745000,0.4717451171875,0.05238426723182201,0.004054791816137731,-0.0008167962756007909
1761380412220827100,0.4818271484375,0.0475964484333992,0.0040413843452930445,-0.002920243961410597
1761380412230910200,0.49191015625,0.04863982000648975,0.0060102732654660936,-0.0005968242488335818
1761380412240992300,0.5019921875,0.04055938940346241,0.0059965004684403534,0.011502559671970084
1761380412251075300,0.512075439453125,0.04324585200846195,0.00344707171395421,-0.0012071838326752186
1761380412261157400,0.522157470703125,0.0453349332422018,0.0048934711299836635,-0.008227501790365204
1761380412271239200,0.5322392578125,0.044286885493993754,-0.004480579480156302,-0.0034997060834895816
1761380412281322200,0.542322265625,0.0478793570280075,-0.005461772537231445,-0.0032379864073824134
1761380412291404300,0.552404296875,0.04757423660159111,-0.0027295710943639278,0.0007376757579389959
1761380412301486300,0.562486328125,0.05685118351280689,-0.0011448957188054918,0.002270164288533851
1761380412311569200,0.572569091796875,0.04922025024294853,-0.003543042901717126,0.003646676806127652
1761380412321651200,0.582651123046875,0.04292845662236214,0.0037789340168237684,-0.003669162632571533
1761380412331733200,0.592733154296875,0.05429857642054557,0.00525185611359775,-0.002553273812541738
1761380412341816000,0.602816162109375,0.049804187610745426,0.001548471551015973,0.00014081497648730872
1761380412351898000,0.612898193359375,0.04336626351773738,0.0025250980308279395,-0.008131064811721444
1761380412361980200,0.622980224609375,0.05443886167407035,-0.0002726063963025808,-0.004032835712656379
1761380412372063200,0.633063232421875,0.05159457815885544,-0.00298369198590517,0.001971245274040848
1761380412382145300,0.643145263671875,0.04066986404061317,0.0011685688553377985,0.004053787169139832
1761380412392227000,0.65322705078125,0.05113982012867927,0.0002069938141852617,-0.0012835370045155285
1761380412402310100,0.66331005859375,0.047097266739606854,0.01107522850483656,0.0049271907364949585
1761380412412392200,0.67339208984375,0.041564767053723334,0.0008587722538039088,-0.0017697952846530824
1761380412422474200,0.68347412109375,0.049206806239485736,0.00753021284174174,0.0010927271401509641
1761380412432557000,0.69355712890625,0.048014381584525104,0.007080642443336546,0.0026935864655300975
1761380412442639000,0.70363916015625,0.05894084926843643,0.0037687048837542533,0.0008930398495867848
1761380412452722400,0.713722412109375,0.05550093794763088,-0.000005552957952022552,-0.0008842811543960124
1761380412462804200,0.72380419921875,0.057145198023319244,0.0000294818228110671,-0.0005997651245910674
1761380412472886000,0.733885986328125,0.06177928756475448,-0.005600085029378533,-0.005862553624156862
1761380412482969300,0.74396923828125,0.0448690692961216,0.00023052082024514674,-0.00552003292995505
1761380412493051400,0.754051513671875,0.04366378515958786,0.004918386375531554,-0.0012257972015999256
1761380412503133200,0.76413330078125,0.04665419914722442,0.0015081760732457042,-0.006408122609788552
1761380412513216300,0.77421630859375,0.04530220001637936,-0.0007884469639509916,-0.003677263740636408
1761380412523298300,0.78429833984375,0.04888999537527561,-0.0016479133374989032,0.0021661467916332185
1761380412533380400,0.79438037109375,0.04708791438937187,0.0018272884923964737,0.0077163008652161805
1761380412543463200,0.804463134765625,0.05756020856499672,0.002033515121601522,0.004556594725279137
1761380412553545200,0.814545166015625,0.05262333668470382,0.0014073095146566628,0.002494027039129287
1761380412563627300,0.824627197265625,0.052471945515274995,0.0048954073587432504,0.0015698339994531124
1761380412573710000,0.8347099609375,0.05082534735202789,0.005252002244070172,0.0003887709887232631
1761380412583792000,0.844792236328125,0.040351884132623674,0.004774776653759181,0.0038217502452433105
1761380412593875200,0.854875244140625,0.04933364748954773,0.0006389189580455422,0.0047510304519906635
1761380412603957200,0.864957275390625,0.056064417049288745,0.0010967457281425594,-0.0008185407081153243
1761380412614039300,0.875039306640625,0.046640170621871944,0.005347206246852874,-0.005494460097281262
1761380412624122000,0.8851220703125,0.042154549640417094,0.0075095353798940775,-0.003065890376642346
1761380412634204200,0.8952041015625,0.05262742833793163,0.006619637335464358,-0.005150596829364076
1761380412644286200,0.9052861328125,0.056519759601354594,-0.00004920943658798933,0.0013477522139903157
1761380412654369000,0.915369140625,0.045747021174430844,0.0000868380332365632,-0.002054411779157817
1761380412664451000,0.925451171875,0.041406361621618266,-0.0005137582084164023,0.0017629180192947386
1761380412674533000,0.935533203125,0.043055297872424125,0.0018088029876351355,-0.00542747754198499
1761380412684616200,0.9456162109375,0.047991000708937644,-0.002069024826399982,-0.011065693491511047
1761380412694698000,0.955697998046875,0.04559738357067108,0.0025611557248979805,-0.010915526164788752
1761380412704780000,0.965780029296875,0.045748774740099904,0.007122691486775874,0.0006949782605282962
1761380412714863400,0.97586328125,0.04784837736785411,0.0009120002783834934,-0.005751631462434306
1761380412724945400,0.9859453125,0.05053834710419178,-0.0009376827089115976,-0.00306810973319225
1761380412735027200,0.996027099609375,0.043512393990159035,0.00011712357364594936,-0.0038692152493167665
1761380412745110300,1.0061103515625,0.0439624758452177,0.004289586952701211,-0.008303708831733092
1761380412755192300,1.0161923828125,0.06206570329070091,0.0007274740243330597,-0.0034827458155341443
1761380412765275100,1.026275146484375,0.05278875637948513,-0.00423672425430268,-0.0008164035499561577
1761380412775357200,1.036357177734375,0.05473346070647239,0.0005333396917209029,-0.002729607626982033
1761380412785439200,1.046439208984375,0.05308218636810779,-0.0030263986164703965,0.004559453402645886
1761380412795522300,1.056522216796875,0.05651859055757522,0.0024827567264437676,-0.0032531565770506856
1761380412805604000,1.06660400390625,0.05427051936984062,-0.001468647780455649,-0.0013246088004205375
1761380412815686100,1.07668603515625,0.04932780227065086,-0.005373180938325822,-0.004599136959062889
1761380412825769200,1.086769287109375,0.05067512522637844,-0.002671813025139272,-0.0052531804210040715
1761380412835851300,1.096851318359375,0.05411620559096336,-0.0025025939380750057,0.0014758081736043094
1761380412845933300,1.106933349609375,0.05292027380466461,0.005085924962162971,0.005014695490011945
1761380412856016100,1.11701611328125,0.04408522544205189,0.008418284255266188,-0.001962678375095129
1761380412866098200,1.12709814453125,0.06354162106215953,0.0009965002240613103,-0.009730197970895096
1761380412876180200,1.13718017578125,0.0550076014727354,-0.004153429885022342,-0.0027739856248255815
1761380412886263000,1.147262939453125,0.04527881914079189,-0.000693937080912292,0.0063554517076350745
1761380412896345000,1.157344970703125,0.04393032714128494,0.0011017872294411062,0.0011497271575499324
1761380412906428200,1.16742822265625,0.05559972214698791,-0.0010746069615706802,-0.006469670938141644
1761380412916510200,1.17751025390625,0.06353168419003487,-0.00014876082092523573,-0.005183850644994527
1761380412926592000,1.187592041015625,0.046321606191992756,0.0012805778624489902,0.0023754695602227
1761380412936675300,1.19767529296875,0.05364800355732441,0.00021305822879076004,-0.002948620672523975
1761380412946757400,1.20775732421875,0.05918634846210479,-0.00021525018587708472,-0.00604511624998413
1761380412956839200,1.217839111328125,0.057393035304546355,0.0021493235209956766,-0.012699286042712627
1761380412966922200,1.227922119140625,0.05005670106709003,0.00428728539776057,-0.00732531965309754
1761380412977004300,1.23800439453125,0.037792847299575806,-0.005183832378685474,-0.0035039438671898094
1761380412987087000,1.248087158203125,0.04886719902157783,0.004690422838553786,-0.005203477794071659
1761380412997170000,1.258169921875,0.05081014978289604,-0.001675495464168489,-0.010284589583799242
1761380413007252000,1.268251953125,0.052311201995611185,0.00013067717496305703,-0.0024139201407786456
1761380413017335300,1.278335205078125,0.0518663808375597,0.004328421125747263,-0.0024902459131553767
1761380413027417000,1.2884169921875,0.057555532389879226,-0.004404372438788414,-0.002417984394542873
1761380413037499100,1.2984990234375,0.054264674150943756,-0.004313040893524885,-0.0012945881214924157
1761380413047582200,1.308582275390625,0.047832010754942894,-0.00031728578824549914,-0.002799302729172632
1761380413057664300,1.318664306640625,0.057707508081197734,0.004155804505199194,-0.003149641403649002
1761380413067746000,1.32874609375,0.04812485622167587,0.005199395273998379,0.0009753569713328033
1761380413077829000,1.3388291015625,0.041838907819986344,0.0026915771715343,-0.0007802088585682213
1761380413087911200,1.3489111328125,0.048420039775967594,0.0031840733962133524,-0.0049362051600124685
1761380413097993200,1.3589931640625,0.04946224230527878,-0.0025235271282494066,-0.004792111381050199
1761380413108076000,1.369075927734375,0.04467500802874565,0.002058028508350253,-0.00007268164372071623
1761380413118158000,1.379157958984375,0.04062427133321762,-0.001420461257174611,-0.009723220240836963
1761380413128240000,1.389240234375,0.055580432924628255,-0.00046765404436737297,-0.0025226320791058242
1761380413138323000,1.399322998046875,0.059313189712166786,0.0027271599415689706,-0.004958042532484978
1761380413148405000,1.409405029296875,0.04809270751774311,0.0029384280720725652,-0.0023467823218554255
1761380413158488000,1.419488037109375,0.05706979469954967,0.0006706658031791448,-0.006691433063196018
1761380413168570000,1.429570068359375,0.0533300236493349,0.004216448651254177,-0.008512419678969308
1761380413178652200,1.439652099609375,0.053635144075751304,-0.002321684413217008,-0.005085742299072444
1761380413188735000,1.44973486328125,0.048397243422269816,0.0030595337010920045,-0.0031722642274107783
1761380413198817000,1.459817138671875,0.05049275439679622,-0.001150777470320463,-0.0036666144824586805
1761380413208899000,1.469899169921875,0.05468026921451091,0.003996851083822548,0.0006690675011370331
1761380413218982000,1.47998193359375,0.05857084691226482,0.001027187623269856,-0.00314591507660225
1761380413229064000,1.49006396484375,0.06081424192488193,-0.004665324929915368,0.0033439401330426334
1761380413239146000,1.50014599609375,0.049290977391600606,-0.0038718729972839353,-0.0008100103417877108
1761380413249229300,1.510229248046875,0.05258651180565357,0.0007988952927291393,-0.010286671943031251
1761380413259310800,1.520310791015625,0.047800446572899814,-0.0020832725474610922,0.002914243478886783
1761380413269394200,1.530394287109375,0.05139700976014137,0.005879559557884931,-0.009140415384201333
1761380413279476200,1.540476318359375,0.047505847540497775,0.0032121304469183085,-0.004479894493566825
1761380413289558300,1.550558349609375,0.0503501310557127,-0.00022646569963544606,-0.006483818194502965
1761380413299641000,1.56064111328125,0.05618249047100544,0.0045478725627064705,-0.00785327991680242
1761380413309723100,1.57072314453125,0.04825578912496566,0.005321962207742035,-0.001167080151150003
1761380413319805200,1.58080517578125,0.049905309897661204,0.0007146510753780603,-0.005557031338941305
1761380413329888000,1.590887939453125,0.05214402873516082,-0.0019707886163145305,-0.004082876266306266
1761380413339970000,1.600969970703125,0.05618249047100544,0.0029864684648811817,0.0031818905722815543
1761380413350052000,1.611052001953125,0.05438625470399856,0.007775237111374736,-0.0019375348006840795
1761380413360135200,1.62113525390625,0.05333119269311428,0.0040814240947365755,-0.00343960992670618
1761380413370217000,1.631217041015625,0.04853928224146366,0.002566087628342211,-0.005136486105620861
1761380413380299000,1.641299072265625,0.04794365443587303,-0.0022427374254912137,-0.0030365090185310688
1761380413390382000,1.651382080078125,0.04884089553654194,0.001073620580881834,0.0007267159725073724
1761380413400464100,1.661464111328125,0.0546720859080553,0.005988499825075268,-0.010026468370575458
1761380413410547000,1.671546875,0.05287234300971031,-0.0018277634164318441,-0.005981914820661768
1761380413420629000,1.68162890625,0.049130233871936796,-0.0016344328014180063,0.0031611674446612595
1761380413430711000,1.6917109375,0.05302256513535976,-0.003479293483123183,0.0006050623542163521
1761380413440794000,1.701794189453125,0.03866203134953976,0.002251322590745985,0.0018626155341044067
1761380413450876000,1.7118759765625,0.04838964463770389,0.0020541925834491846,-0.003991572120506316
1761380413460958000,1.7219580078125,0.057065118524432176,0.0016702347671613096,0.0006893431041855364
1761380413471041000,1.732041015625,0.04943476977646351,0.0007321501994505524,0.0020405019848141817
1761380413481123000,1.742123046875,0.04509703283309936,0.003268354146182537,-0.007149095436511561
1761380413491204900,1.752204833984375,0.05332710103988647,0.005694594912417233,-0.005100784604577347
1761380413501288200,1.7622880859375,0.04450315859317779,0.0036427038839086886,0.001662635982595384
1761380413511370200,1.772370361328125,0.047349195674061775,0.0061400736575946205,0.0011396258886437862
1761380413521453000,1.782453125,0.04001052334904671,-0.003434212232381105,0.00379092584871687
1761380413531535000,1.79253515625,0.041052725878357885,0.004045841324701905,-0.0012600373979192226
1761380413541617200,1.8026171875,0.04404606247544288,-0.000304316708818078,-0.0021721198746934532
1761380413551700200,1.8127001953125,0.04583879111111164,-0.00027717297356575726,0.0035269320171326395
1761380413561782000,1.822781982421875,0.053770168632268904,0.006282368205115199,-0.002180138784367591
1761380413571864000,1.832864013671875,0.05616963098943233,-0.00209149238653481,0.0029086631214711813
1761380413581947100,1.842947021484375,0.05302431870102882,-0.0014597703542560338,-0.011557477330137043
1761380413592029200,1.853029296875,0.04315115946233272,-0.003423836968839168,0.0011322006340138612
1761380413602111000,1.863111083984375,0.054821723511815065,0.0001752469690516591,-0.0034091873889788983
1761380413612194000,1.873194091796875,0.05362403815984726,0.0001911386579275131,-0.004429251151718199
1761380413622276000,1.883276123046875,0.04898351887762546,-0.00034866730719804764,-0.001274385583680123
1761380413632359000,1.89335888671875,0.05795476084053516,-0.006302570742927492,-0.0036644864574540406
1761380413642441000,1.90344091796875,0.0476268435716629,0.009638437167368829,-0.000688996044313535
1761380413652523000,1.91352294921875,0.04792904138863086,-0.0019191680269315839,-0.004766063624341041
1761380413662606000,1.923606201171875,0.048074587339162825,-0.0030063056765124202,0.0007879811730701476
1761380413672688000,1.933688232421875,0.0531646039545536,0.0066998629648238415,0.006738368344306946
1761380413682770000,1.94377001953125,0.0560053803384304,0.0028373057851567864,0.0016879530869424342
1761380413692853000,1.95385302734375,0.043137130936980246,0.008289397178590297,-0.001339660239079967
1761380413702935000,1.96393505859375,0.056009471991658205,0.006815269505418837,-0.007279526016302406
1761380413713018000,1.97401806640625,0.05032265852689743,0.005506305798701942,0.00028097236584872007
1761380413723100200,1.98410009765625,0.051072600111365316,-0.0020450228963047267,0.0021675441642757505
1761380413733182200,1.99418212890625,0.057958852493762966,0.005512406745925545,-0.008127676411392167
1761380413743265000,2.00426513671875,0.04673837029933929,0.0010922522161155939,-0.0052092316814232615
1761380413753347000,2.01434716796875,0.04225216479599476,-0.0011949454056099057,-0.0022732695610728115
1761380413763429000,2.02442919921875,0.05063362417221069,0.0051790466057136655,0.003064465604536235
1761380413773512200,2.03451220703125,0.05692424874901771,0.0033661519648507236,-0.004893461996829137
1761380413783594200,2.04459423828125,0.05049450796246528,-0.002860978921689093,-0.007322661905130371
1761380413793676000,2.054676025390625,0.040166590693593025,-0.007284165658801794,0.0037272038295865055
1761380413803759000,2.064759033203125,0.05048574013411999,0.005005187876150011,-0.004950882139336318
1761380413813841200,2.074841064453125,0.045995442977547644,0.008171396822109819,-0.0046706038932316
1761380413823924000,2.084924072265625,0.04390343913435936,0.00438855381514877,-0.0027805797623936084
1761380413834006000,2.095006103515625,0.057817398196458814,0.0023217209458351136,-0.0013663564497604966
1761380413844088000,2.105088134765625,0.04735036471784115,-0.003816708743944764,-0.004524372956110165
1761380413854171100,2.115171142578125,0.04989771111309528,0.0101769644908607,-0.0008754767934326082
1761380413864253000,2.1252529296875,0.05483399847149849,0.0017154986809939145,-0.005137646016245708
1761380413874335000,2.1353349609375,0.056634325891733166,-0.0012585121611133217,-0.007397042315592989
1761380413884418000,2.14541796875,0.04676058213114738,0.00737034610491246,-0.002131687399605289
1761380413894500000,2.1555,0.04796002104878425,-0.0019181451136246323,-0.0020050288126338273
1761380413904582100,2.16558203125,0.05199672921895981,-0.0007814327012747526,-0.011429540101531892
1761380413914665000,2.1756650390625,0.05065466696023941,0.0038996743196621536,0.0002598199799656868
1761380413924747000,2.1857470703125,0.05230418773293495,-0.006005889351293444,0.011235232238983735
1761380413934830000,2.195830078125,0.04526888226866722,-0.0036840222749859094,-0.0014718991834670305
1761380413944912000,2.205911865234375,0.05051029005348682,-0.002525682552717626,-0.0030764665695838626
1761380413954994000,2.215993896484375,0.05260638554990291,-0.0025214082363992927,0.002570763803459704
1761380413965077200,2.2260771484375,0.059040802511572836,0.005711290318891405,-0.009542155452352017
1761380413975159300,2.2361591796875,0.03853635914325714,-0.0012590966830030082,0.004537862625345587
1761380413985240600,2.246240478515625,0.03614683365821838,-0.0017817688502371311,0.006026849940931424
1761380413995323400,2.256323486328125,0.04976444012224674,-0.0006087064828723669,-0.004315196317993104
1761380414005405400,2.266405517578125,0.05186112014055252,0.0007073810843750834,-0.003089983638282865
1761380414015487500,2.276487548828125,0.047669513669610024,-0.0007325155256316066,-0.0018551811463199555
1761380414025570300,2.2865703125,0.05275777671933174,-0.004030205364152789,-0.0019931283122859894
1761380414035652400,2.29665234375,0.043324177941679955,0.0003456350998952985,-0.005847438253415748
1761380414045735700,2.306735595703125,0.0433177482008934,0.0027577377429232,-0.005835071962187066
1761380414055817700,2.316817626953125,0.05619067377746105,0.0019126652209088206,-0.0038511772691272195
1761380414065899500,2.3268994140625,0.042429859450459476,0.0062840487055480475,-0.006173364005843177
1761380414075982600,2.336982666015625,0.04452595494687557,0.0018256810571998356,-0.008928982856916264
1761380414086064600,2.347064697265625,0.048266310518980025,0.0014342705868184565,-0.0026717399599030613
1761380414096146700,2.357146728515625,0.06293664090633391,0.006915697672590613,-0.008988448826037347
1761380414106229500,2.3672294921875,0.04542962578833103,0.0023755334923043847,-0.0029669509136583654
1761380414116311600,2.3773115234375,0.051259647116065024,0.0030780922710895537,0.0034822526251897215
1761380414126393600,2.3873935546875,0.05560322927832603,-0.0013336232239380477,0.0023860366200096905
1761380414136476400,2.397476318359375,0.050368835756182666,0.005399046031944453,-0.0008534384915605187
1761380414146558500,2.407558349609375,0.0574082328736782,0.002875445838458836,0.000776162871113047
1761380414156641500,2.4176416015625,0.04603752855360508,0.003621697628498077,-0.000028248846950009462
1761380414166723600,2.4277236328125,0.04813596213757992,0.005254084603302181,-0.003536804957175627
1761380414176805400,2.437805419921875,0.05322013353407383,0.0008311535945162177,0.001626450424361974
1761380414186888400,2.447888427734375,0.047238136515021324,0.0059847734980285165,-0.011650690305233
1761380414196970500,2.457970458984375,0.05083411518037319,-0.0013709595596417784,-0.004505047201132401
1761380414207052500,2.468052490234375,0.045747021174430844,-0.0030065979374572635,0.004259356211218983
1761380414217135400,2.47813525390625,0.041861704173684115,0.0032668928414583205,-0.005999898001924157
1761380414227217400,2.488217529296875,0.047993338796496386,0.001097768641449511,-0.004078254890115931
1761380414237299500,2.498299560546875,0.04065642003715038,0.004514335619285702,0.003524456932255998
1761380414247382500,2.508382568359375,0.04978139125704765,-0.0010948825646191834,0.0024965112571604547
1761380414257464300,2.51846435546875,0.05202653983533382,-0.004408135298453271,-0.005154624550510197
1761380414267547600,2.528547607421875,0.05172784914970398,0.0014486279057338834,-0.0025132431962527333
1761380414277629400,2.53862939453125,0.040813656425476075,0.0017219649543985724,0.003957541986741126
1761380414287711500,2.54871142578125,0.04905073889493942,0.006571706540510058,0.002782689521089196
1761380414297794600,2.558794677734375,0.040675709259510036,0.003463584457337856,-0.007822875645384192
1761380414307876600,2.568876708984375,0.04681669623255729,-0.0043297728326171635,-0.005289000653056428
1761380414317958700,2.578958740234375,0.051311669564247125,0.0015522709432989358,-0.003517278272798285
1761380414328041500,2.58904150390625,0.052661915129423136,-0.0015260770561173558,-0.006306479733064771
1761380414338123500,2.59912353515625,0.04758066634237766,-0.0004633797280490398,-0.009378379725385457
1761380414348205600,2.60920556640625,0.046235096952319144,0.003391249873489141,0.003930507849343121
1761380414358288600,2.61928857421875,0.04309095370769501,-0.0023684461643919347,0.003104423155589029
1761380414368370400,2.629370361328125,0.05237257679402828,0.001072561134956777,0.00015587554830126464
1761380414378453500,2.63945361328125,0.04474105900228023,0.0007407353647053242,0.0021992544767912474
1761380414388535600,2.64953564453125,0.0555173045605421,-0.0026097806395962834,-0.001562344812741503
1761380414398617600,2.65961767578125,0.05133095878660678,-0.0001578209102153778,-0.0016768837036564945
1761380414408700400,2.669700439453125,0.04758358895182609,0.0021176132084801793,-0.0006132091280538588
1761380414418782500,2.679782470703125,0.0565589225679636,-0.004359619981609285,-0.00041476394650526345
1761380414428864500,2.689864501953125,0.06209609842896461,-0.0017248875638470054,-0.004242779535753652
1761380414438947300,2.699947265625,0.057608139359951016,0.0007813961686566472,0.002167124039167538
1761380414449029400,2.710029296875,0.047880526071786875,-0.0033830300344154236,-0.005472951518371701
1761380414459112400,2.720112548828125,0.04937573306560516,0.0029234131660312414,-0.00040675416998565197
1761380414469194500,2.730194580078125,0.05880173305869102,0.0028123540069907903,-0.002366199408378452
1761380414479276500,2.740276611328125,0.059848027241230006,0.003146846658363938,-0.0025040917754173275
1761380414489359400,2.750359375,0.05146773690879344,0.004676248182728887,0.00024139840728603303
1761380414499441400,2.76044140625,0.04757715921103954,0.002102963628619909,-0.0031180224226787685
1761380414509523500,2.7705234375,0.046232758864760394,-0.002592354580760002,-0.005966580254212021
1761380414519606500,2.7806064453125,0.05207447063028812,-0.0018159633807837963,-0.012901028293045238
1761380414529688600,2.7906884765625,0.05551555099487304,-0.0030195670168846845,0.0009613832449074834
1761380414539770600,2.8007705078125,0.046234512430429454,0.007237111646682024,0.0034917967716697603
1761380414549853400,2.810853515625,0.04054945253133774,0.0029986338267102837,0.0014706296749878675
1761380414559935500,2.820935546875,0.04368891960084438,-0.003402574985101819,-0.00012157141990028321
1761380414570018600,2.8310185546875,0.049517771884799,0.006153846454620361,0.000021883038245141504
1761380414580100600,2.8411005859375,0.043531098690629,0.00408314112778753,0.007789841025462374
1761380414590182700,2.8511826171875,0.04787234276533127,0.0032324425825849172,-0.004817465018015355
1761380414600265500,2.861265380859375,0.03934475291669368,-0.0068975774940103285,-0.012286503990739583
1761380414610347500,2.871347412109375,0.057447395840287206,-0.0033387890338897703,-0.0084699961761944
1761380414620429600,2.8814296875,0.059843351066112514,-0.00038151013087481256,0.008759663305152206
1761380414630512400,2.891512451171875,0.055957449543476104,0.002629617851227522,0.005293448499310761
1761380414640594400,2.901594482421875,0.05506254653036594,0.00015387538745999336,-0.0026355361353605986
1761380414650676500,2.911676513671875,0.04951952545046806,-0.002367569381557405,0.003786395804071799
1761380414660759600,2.921759521484375,0.055357730084657664,-0.006213796480931341,0.003979534622840583
1761380414670841300,2.93184130859375,0.0564104540079832,0.001162394842877984,-0.009107536027906461
1761380414680924400,2.94192431640625,0.04473638282716274,0.0023635507935658097,-0.005346639991272241
1761380414691006500,2.95200634765625,0.0438362191170454,-0.00433967317212373,-0.0037924419523682443
1761380414701088500,2.962088623046875,0.04054711444377899,0.009480652789771556,-0.0038460170368198304
1761380414711171300,2.97217138671875,0.04832651627361774,0.003975150708667934,-0.008397424130327999
1761380414721253400,2.98225341796875,0.059850365328788756,0.00967679641637951,-0.005777204295108094
1761380414731335400,2.99233544921875,0.0565630142211914,0.002077098535001278,0.0014214659041725099
1761380414741418500,3.00241845703125,0.04593932887613773,-0.0018146847391501068,-0.0024145594615954903
1761380414751500500,3.01250048828125,0.05313187072873115,0.00010090309120714663,0.0018375541580840943
1761380414761582300,3.022582275390625,0.038463878428936005,0.002388831365294754,0.005619237254420295
1761380414771665700,3.032665771484375,0.04969020584225654,-0.0012521189529448747,-0.000876947231311351
1761380414781747500,3.04274755859375,0.05792144309282302,0.0015219854028895496,-0.0015599793257191777
1761380414791830500,3.05283056640625,0.04430559019446373,-0.0031608751837164163,-0.0014372114625759423
1761380414801912600,3.06291259765625,0.04536182124912738,-0.0018502675091847777,-0.003698982382100075
1761380414811994600,3.07299462890625,0.048503626406192775,0.001752287027426064,-0.0007029241049662232
1761380414822077400,3.083077392578125,0.05523731857538223,-0.002750102425739169,0.001356328246090561
1761380414832159500,3.093159423828125,0.046401101168990135,-0.00135868459995836,-0.00334830578090623
1761380414842241500,3.103241455078125,0.052989247387647626,-0.0014425269585102796,0.00004562010685913265
1761380414852324600,3.11332470703125,0.053290860682725906,0.003134863959625363,-0.004308054191153496
1761380414862406400,3.123406494140625,0.048507133537530896,-0.007151661852933466,-0.00490104251508601
1761380414872488400,3.133488525390625,0.046264323046803474,-0.004346102912910282,-0.0008238744703587144
1761380414882571500,3.143571533203125,0.04296528150141239,0.0020590514216572045,-0.007269452146859839
1761380414892653600,3.153653564453125,0.046855859199166294,0.0014351473696529865,-0.0010605145041365175
1761380414902736400,3.163736328125,0.052395373147726056,0.005979768529348075,-0.007502603315608576
1761380414912818400,3.173818359375,0.041619127589464185,0.0030662922354415057,0.0020909809298813344
1761380414922900500,3.183900390625,0.05343406854569912,-0.007701989212073385,-0.00436458841767162
1761380414932983300,3.1939833984375,0.05119125805497169,-0.0011431421531364321,-0.0002697842515539378
1761380414943065300,3.2040654296875,0.05672492678463459,0.004539323930069804,0.0033412275861483065
1761380414953147400,3.2141474609375,0.047288989919424054,-0.0015736059922724962,0.00016548362686298786
1761380414963230700,3.224230712890625,0.04355389504432678,0.00634509471040219,0.004794385536527261
1761380414973312300,3.234312255859375,0.057169747942686075,0.004838708735443651,0.004412601411016658
1761380414983398400,3.2443984375,0.048045361244678494,0.007570946710929274,0.0032945115007460115
1761380414993481500,3.2544814453125,0.047747839602828024,-0.0010038798129186034,-0.002680973579129204
1761380415003563500,3.2645634765625,0.046399347603321074,-0.004543050257116556,-0.0007355477329343557
1761380415013646300,3.274646240234375,0.0454962612837553,-0.0008916881427168846,-0.002724940585019067
1761380415023728400,3.284728271484375,0.04325111270546913,-0.00011135141998529433,0.0038776451509445905
1761380415033810400,3.294810546875,0.043403672918677326,0.0020493702778592703,0.00012537994533777237
1761380415043893200,3.304893310546875,0.0426554848998785,-0.004683408575877547,0.006255498464498669
1761380415053975300,3.314975341796875,0.054474517509341236,-0.004050554032437503,0.0033452553072944283
1761380415064057300,3.325057373046875,0.042355040648579596,-0.0013967515880241989,-0.004456751079997047
1761380415074140400,3.335140380859375,0.04608487482666969,0.00275017549097538,0.0027816118088550864
1761380415084222200,3.34522216796875,0.054308513292670245,0.011176314259134233,0.00012850348418578505
1761380415094304300,3.35530419921875,0.04369008864462375,0.0035704788979142904,-0.005004731218423694
1761380415104387300,3.36538720703125,0.04683598545491695,0.002595752114243805,-0.002710793328657746
1761380415114469400,3.375469482421875,0.041298809593915936,-0.0021851985519751906,-0.0055905408828984945
1761380415124552200,3.38555224609375,0.052667760348320006,0.0023491569420322775,-0.0016513930693734435
1761380415134634200,3.39563427734375,0.05237257679402828,0.003928717751055955,-0.0026019991919398306
1761380415144716300,3.40571630859375,0.04354395817220211,-0.002929002656601369,-0.009264306625351309
1761380415154799000,3.415799072265625,0.04833353053629398,0.0034556568792089818,-0.0052861054430715735
1761380415164881200,3.425881103515625,0.0516267268627882,0.003131722154468298,-0.006149398608366027
1761380415174963200,3.435963134765625,0.05537351217567921,-0.0013587211325764654,-0.0065790495967492455
1761380415185046500,3.446046630859375,0.05388415040075779,-0.0012535802576690912,-0.003601887816330418
1761380415195128300,3.45612841796875,0.05238777436316013,0.0013069909453392028,-0.01060618622098118
1761380415205210000,3.466210205078125,0.04819382980465889,-0.003690926939807832,-0.0028608875901438295
1761380415215293400,3.47629345703125,0.04639467142820358,-0.0007941460523754358,0.0005937646420672535
1761380415225375500,3.48637548828125,0.038759061983227726,0.00016691753212362526,-0.003265742063988
1761380415235457500,3.49645751953125,0.05416179829835891,0.0013204714814200997,-0.007342864442942664
1761380415245540400,3.506540283203125,0.043237668702006335,-0.005908602989278733,0.0010498287133406847
1761380415255622400,3.516622314453125,0.045479894670844075,0.0063845134053379295,-0.006855354920635
1761380415265705500,3.52670556640625,0.05176058237552642,0.0025959713099524377,-0.011817361242184415
1761380415275787300,3.536787353515625,0.03649813131392002,0.0005308189410716295,-0.006913049057777971
1761380415285869300,3.546869384765625,0.052209495186805725,-0.000053118426725268364,-0.004374433958251029
1761380415295952400,3.556952392578125,0.046373044118285175,-0.0022102233953773974,-0.003351146191963926
1761380415306034400,3.567034423828125,0.04651975911259651,-0.004081716355681419,-0.00413991281632334
1761380415316116200,3.5771162109375,0.041131636333465574,-0.00019347674548625944,-0.003904113032761961
1761380415326199300,3.58719921875,0.04622106842696667,0.008414521395601332,-0.009086100514233112
1761380415336281300,3.59728125,0.04098141420781612,0.006228884452208876,-0.0018869279914535582
1761380415346363400,3.60736328125,0.03753215053677559,-0.00016293547675013542,-0.005358366961684078
1761380415356446200,3.6174462890625,0.03977145389616489,0.004015190458111465,-0.005543139810906723
1761380415366528300,3.6275283203125,0.037975802651047705,0.006506678480282426,-0.008492354138474911
1761380415376611300,3.637611328125,0.04066460334360599,0.009031666913256048,-0.007762615091819316
1761380415386693000,3.647693115234375,0.04380056328177452,0.0034870383981615303,-0.00406618999298662
1761380415396775200,3.657775146484375,0.04126023114919662,-0.001801825257577002,-0.0017139734441880136
1761380415406858500,3.6678583984375,0.04755144024789333,0.0000196545485407114,-0.0041230256136041135
1761380415416940300,3.677940185546875,0.05114391178190708,0.004481858121789991,-0.00008881079461425543
1761380415427022300,3.688022216796875,0.05099544322192669,-0.000246522106975317,0.0013910890322178602
1761380415437105400,3.69810546875,0.044107437273859976,-0.0018112872056663036,-0.009192985821655019
1761380415447187500,3.7081875,0.039168811827898026,0.004742591417208314,-0.005443131768843159
1761380415457269500,3.71826953125,0.04530687619149685,0.002579568164423108,-0.010646472565596922
1761380415467352300,3.728352294921875,0.046505146065354344,0.0020742489907890557,-0.0002204652171116322
1761380415477434400,3.738434326171875,0.05294307015836239,0.005031600959040225,-0.006206754818791523
1761380415487516400,3.748516357421875,0.04725859478116035,0.008457008830457925,-0.009848846781346947
1761380415497599500,3.758599609375,0.048458033698797226,-0.0023581439660862085,-0.0068254073069430885
1761380415507681300,3.768681396484375,0.045024552118778226,-0.007641491196490824,-0.009735339936893433
1761380415517764400,3.778764404296875,0.04727437687218189,0.00047967327572405336,-0.006506404485646635
1761380415527846400,3.788846435546875,0.05745148749351501,0.007478994111157954,-0.006180277803819626
1761380415537928400,3.798928466796875,0.04562660966515541,0.004577719711698592,-0.008274857196584343
1761380415548011300,3.80901123046875,0.03470248006880283,-0.0022474501332268118,-0.009080191363254561
1761380415558093300,3.81909326171875,0.041136312508583066,0.0014082593627274035,-0.0027863245165906845
1761380415568175400,3.82917529296875,0.040683308044075966,-0.000400105233490467,0.0011648699277546255
1761380415578258200,3.839258056640625,0.04906593646407127,0.004015848045237362,-0.007669246853096411
1761380415588340200,3.84934033203125,0.048319502010941505,0.0006370557945221662,-0.003111099491547793
1761380415598422300,3.85942236328125,0.041732524836063385,0.0003704772802069783,-0.0007139569556340575
1761380415608505300,3.86950537109375,0.048021980369091034,-0.0013909429017454386,-0.012342353230668231
1761380415618587100,3.879587158203125,0.04787760346233844,-0.0020570055950433013,-0.005732652767328545
1761380415628670200,3.889670166015625,0.051315761217474935,-0.0002982888268306851,-0.007179664104711264
1761380415638752300,3.899752197265625,0.05206161114871501,0.005902319378964602,0.0000386515099555254
1761380415648834300,3.909834228515625,0.03918810105025768,0.00018744886349886654,-0.008046683597052469
1761380415658917400,3.91991748046875,0.04770809211432934,-0.006467515513673424,-0.00032934155222028494
1761380415668999400,3.92999951171875,0.04905541507005691,-0.0037370676364749666,0.000989403762994334
1761380415679081500,3.94008154296875,0.04486673120856285,0.0014362068155780435,-0.002994715703418478
1761380415689164300,3.950164306640625,0.058927989786863325,0.0001771466651931405,-0.0005486011929344385
1761380415699246300,3.960246337890625,0.04755085572600364,0.0005467106299474836,0.0017052512816153466
1761380415709328400,3.970328369140625,0.04276245240569115,0.003516593286208808,0.0040217663293704384
1761380415719411500,3.980411376953125,0.05772095208466053,0.0028804508071392774,-0.003520913268299773
1761380415729493500,3.990493408203125,0.04978899004161358,0.0018705796448513865,-0.007255862012924626
1761380415739575300,4.0005751953125,0.037220015847682954,-0.002519727735966444,0.0013293123750016092
1761380415749658400,4.010658447265625,0.04470423412322998,0.001480557413958013,0.006774243375286459
1761380415759740400,4.020740478515625,0.040514965739846226,0.004583747593685984,-0.0063001504569780075
1761380415769823200,4.0308232421875,0.049938043123483655,0.002216324342601001,-0.009061870255274697
1761380415779905300,4.0409052734375,0.04619418042004108,0.005423486353456974,-0.002190431849518791
1761380415789987300,4.0509873046875,0.05368190582692623,0.0011557824390009046,0.0011259078905452042
1761380415800070400,4.0610703125,0.04814472996592521,-0.0010655103396624327,-0.004227189240977168
1761380415810152200,4.071152099609375,0.03707622346282005,-0.0025278745098039506,0.0014803564845584333
1761380415820234200,4.081234130859375,0.044411388656497,0.004117079930007457,-0.004360085772490129
1761380415830317300,4.0913173828125,0.04740940142869949,0.0013097308916971086,-0.001163225959939882
1761380415840399400,4.1013994140625,0.045017537856101984,0.0015715236330404877,-0.0000483235205989331
1761380415850481200,4.111481201171875,0.0521972202271223,0.002460179568454623,-0.004968646124890074
1761380415860564200,4.121564208984375,0.04949906718432903,-0.0025200565295293927,-0.004435342965787277
1761380415870646300,4.131646240234375,0.04381283824145794,0.0056991980222985145,-0.0014596059574745594
1761380415880728300,4.141728271484375,0.04740998595058918,0.004734188915044069,-0.002100753405224532
1761380415890811400,4.151811279296875,0.04695756600797176,-0.0028449411023408174,0.0015156469936482607
1761380415900893200,4.16189306640625,0.03842646902799606,-0.0006989055169746279,-0.002369825270725414
1761380415910975200,4.171975341796875,0.04171908083260059,0.0018311609499156473,0.002146464843628928
1761380415921058300,4.182058349609375,0.04934709149301052,0.0023548560304567216,0.0016292543028015643
1761380415931140400,4.192140380859375,0.04590601112842559,-0.0009358195453882217,-0.003714143418613821
1761380415941223400,4.202223388671875,0.038866614010930056,-0.00014521715696901082,-0.00202725891075097
1761380415951305500,4.212305419921875,0.04933773914277553,0.0033643618665635585,-0.0047836175473406906
1761380415961387500,4.222387451171875,0.046942952960729596,-0.004829100656881928,0.0006643365270923823
1761380415971470300,4.23247021484375,0.04499298793673515,-0.003996887616440654,0.0038667766970582303
1761380415981552600,4.242552734375,0.046644846796989436,0.004258205433748662,-0.0011681121976114808
1761380415991634700,4.252634765625,0.04724398173391819,0.002759600906446576,-0.00006932977600954472
1761380416001717800,4.2627177734375,0.05233166026175022,0.001981784934364259,-0.007915942490007728
1761380416011799800,4.2727998046875,0.046053310644626616,-0.007426350608468055,0.005664364170935005
1761380416021881900,4.2828818359375,0.05054068519175052,0.004136917141638696,-0.006338756301160901
1761380416031964700,4.292964599609375,0.0436532637655735,0.000023490473441779613,-0.007458736774418503
1761380416042046700,4.303046630859375,0.041706805872917176,0.00739573627449572,-0.00205598268173635
1761380416052128800,4.313128662109375,0.04695113626718521,0.008287680145539343,-0.007054978279117495
1761380416062211800,4.3232119140625,0.03841945476531982,0.001507737681828439,-0.004411560231400653
1761380416072293600,4.333293701171875,0.05053893162608147,0.0027053134359419344,0.00582760104178451
1761380416082376700,4.343376708984375,0.05114215821623802,-0.0011439824033528565,-0.004282837551506236
1761380416092458800,4.353458740234375,0.05114040465056896,0.000643339404836297,0.0001770279341842979
1761380416102540800,4.363540771484375,0.04605681777596474,0.003977707991935312,0.004238167292717844
1761380416112623600,4.37362353515625,0.04276654405891895,0.0032069793477654453,-0.00034162564505822957
1761380416122705700,4.38370556640625,0.047559623554348944,-0.0010520298035815358,-0.0036321185578126456
1761380416132787700,4.39378759765625,0.053397243666648865,0.0038601825594902035,-0.00025903452867642046
1761380416142870800,4.403870849609375,0.056388242176175114,0.0006810775993391871,0.0006518423717003316
1761380416152952600,4.41395263671875,0.04351648564338684,0.007005348717421293,0.002796590182278305
1761380416163034600,4.42403466796875,0.04471709360480308,0.0016872589671984314,-0.0031616515018511562
1761380416173117700,4.43411767578125,0.04621697677373886,0.0038264264203608034,0.0015847119081765413
1761380416183199700,4.44419970703125,0.04441606483161449,0.0008248699842020869,-0.006038302916707471
1761380416193281500,4.454281494140625,0.045613165661692615,0.0006936448199674486,-0.0009100092506967484
1761380416203364600,4.464364501953125,0.04052724069952965,-0.00425798623804003,0.0014367639380041509
1761380416213446700,4.47444677734375,0.04681494266688824,0.0018116890644654631,-0.007223777241073548
1761380416223528700,4.48452880859375,0.04696224218308925,0.00739478642642498,-0.001559184741275385
1761380416233611500,4.494611572265625,0.04741583116948604,0.01047704341597855,0.0010169128244277089
1761380416243693600,4.504693603515625,0.04921382050216198,0.005050488322600722,-0.0019331965522840619
1761380416253777000,4.51477685546875,0.045024552118778226,-0.002207848775200546,-0.004202885916782543
1761380416263858700,4.524858642578125,0.04816518823206425,0.0027450609244406223,-0.0026222108629066496
1761380416273940700,4.534940673828125,0.048316579401493066,0.010884601303562521,-0.0019742318155709653
1761380416284023800,4.54502392578125,0.046074937954545016,-0.00023709669150412082,-0.0016220665101893245
1761380416294105900,4.55510595703125,0.047128246399760244,0.004699848254024982,-0.004302766094682738
1761380416304187600,4.565187744140625,0.04174246170818805,0.0007602803153917193,0.0013410941443406045
1761380416314270700,4.575270751953125,0.04952770875692367,-0.0013968246532604098,-0.00467944478681311
1761380416324352800,4.585352783203125,0.052523383441567414,0.0007489552037790418,-0.006080589422164485
1761380416334434800,4.595434814453125,0.03725859429240227,-0.003513561078906059,-0.004172883504163474
1761380416344517600,4.605517578125,0.04937924019694328,0.0044243192482739686,-0.004473428220162168
1761380416354599700,4.615599609375,0.039352351701259614,0.005340666908212006,-0.004500982947368175
1761380416364681700,4.625681640625,0.049671501141786575,0.0010004092141985893,-0.00034358014012686905
1761380416374764800,4.635764892578125,0.05310965889692306,0.007978102739714086,0.0033938436893746256
1761380416384846600,4.6458466796875,0.03934592196047306,0.004341682466119528,-0.007112023962289094
1761380416394928600,4.6559287109375,0.042488896161317825,0.006317914442531764,-0.011780865156697108
1761380416405011700,4.66601171875,0.047124154746532435,0.00278393163010478,-0.008273825150122866
1761380416415093800,4.67609375,0.04832184009850025,0.005105104586668312,0.0015105598265770822
1761380416425176600,4.686176513671875,0.04069324491620063,-0.004000065954215824,-0.0036676282626111056
1761380416435258600,4.696258544921875,0.046534956681728364,0.0007831132017076015,-0.002486473920335993
1761380416445340700,4.706340576171875,0.055523734301328655,0.00038618630599230523,-0.0003034855917561799
1761380416455423500,4.716423583984375,0.05208499202430248,-0.001872150547429919,-0.0019058244881685821
1761380416465505500,4.726505615234375,0.05613046802282333,0.006228044201992452,-0.0005371938829310238
1761380416475587600,4.736587646484375,0.04520400033891201,0.00153400463424623,-0.01396799080427736
1761380416485671000,4.7466708984375,0.04535539150834083,0.005396123422496021,-0.0011919131983071565
1761380416495752700,4.756752685546875,0.04895487730503082,-0.003340798327885568,-0.00041997897773981093
1761380416505834800,4.766834716796875,0.04970364984571934,-0.0023018472015857694,-0.005493501116055995
1761380416515917800,4.776917724609375,0.04701075749993324,0.004285166505910456,0.0029137594216968863
1761380416525999900,4.786999755859375,0.04117605999708175,0.0007952420309185981,-0.00565072837122716
1761380416536081700,4.79708154296875,0.05688917743563652,0.0063552873108536,-0.0043180184627417476
1761380416546164700,4.807164794921875,0.06077858608961105,-0.003333966728299856,-0.00564459089138545
1761380416556246800,4.817246826171875,0.04447042536735534,-0.0015656418815255164,-0.003312622546171769
1761380416566328800,4.827328857421875,0.034146015229821206,0.0025934505593031643,-0.005868572372989728
1761380416576411600,4.83741162109375,0.053153498038649556,0.008242014372907579,-0.003178447373025119
1761380416586493700,4.84749365234375,0.05330313564240932,0.005166662048175931,-0.0018163104406557977
1761380416596576800,4.85757666015625,0.04641629873812198,0.004652465448342263,-0.0016909304953180253
1761380416606658800,4.867658935546875,0.06167173553705215,-0.0030949703406542538,0.000520946001028642
1761380416616740600,4.87774072265625,0.048801732569932935,0.0036647330526262518,-0.0011365571487229316
1761380416626823700,4.88782373046875,0.041166123124957085,0.0038140783954411744,-0.0014779544649180024
1761380416636905700,4.89790576171875,0.05238777436316013,0.008625899123959243,0.006581004091817885
1761380416646987800,4.90798779296875,0.05477905341386795,-0.005485847532562912,-0.002015057016303763
1761380416657070600,4.918070556640625,0.04355331052243709,0.0037563568588346243,0.0009249236920382827
1761380416667152600,4.928152587890625,0.05148527256548405,-0.00584923748485744,0.0009078994920011609
1761380416677234700,4.938234619140625,0.047291328006982804,-0.0037926702812314033,-0.004930688734678551
1761380416687317500,4.9483173828125,0.05208206941485405,0.006517272939532995,-0.001360593429254368
1761380416697399600,4.958399658203125,0.04490297156572342,0.0018988193586468695,0.00037185638654045757
1761380416707481600,4.968481689453125,0.05283844074010849,0.004024835069291293,0.0021643932259641585
1761380416717564700,4.978564697265625,0.043563831916451454,0.0008266235498711466,-0.0025438118644524363
1761380416727646500,4.988646484375,0.032791678011417386,0.0012973098015412686,-0.0086448412864469
1761380416737728500,4.998728515625,0.05284019430577755,-0.0020449132984504104,0.0011461012952029704
1761380416747811800,5.008811767578125,0.051936523464322086,0.0016093348927795886,-0.002440506753604859
1761380416757894000,5.018893798828125,0.041024668827652926,-0.000305558817833662,0.004661644268641248
1761380416767976700,5.028976806640625,0.041778117543458934,0.003017228929325938,0.005625319935334846
1761380416778058800,5.039058837890625,0.05660100814402103,-0.00035195524282753465,-0.006033060486009344
1761380416788140800,5.049140869140625,0.038948447075486184,-0.0027348683239892123,0.0015660072077065706
1761380416798223600,5.0592236328125,0.053011459219455714,0.0035934944473206996,-0.007636184833711012
1761380416808305700,5.0693056640625,0.06198679283559322,0.005674575037695467,-0.005524270713655278
1761380416818387700,5.0793876953125,0.045831776848435396,0.0006095832657068967,0.006508039320306852
1761380416828470800,5.089470703125,0.040597383326292036,-0.0005037482710555195,0.006673139354679733
1761380416838552800,5.099552734375,0.04732932192981243,0.0012773264594376087,0.00592403802042827
1761380416848634600,5.109634521484375,0.04568330828845501,0.004887589378468692,-0.00014294300149194896
1761380416858717700,5.1197177734375,0.038655017086863516,-0.004459755887836218,-0.004347354155080392
1761380416868799700,5.1297998046875,0.050318566873669625,0.0022067527966573835,0.003629689138708636
1761380416878881800,5.1398818359375,0.04268821812570095,-0.002575513043813407,0.004617302803415805
1761380416888964600,5.149964599609375,0.046727848905324935,0.002434716333635151,0.004915134972520173
1761380416899046700,5.160046630859375,0.052263855722546576,0.0005380158668383955,0.0020331954611930996
1761380416909128700,5.170128662109375,0.04687281033396721,-0.001169409105554223,-0.008793611240526661
1761380416919211500,5.18021142578125,0.04342530022859573,0.003014306319877505,0.0005910429620184004
1761380416929293600,5.19029345703125,0.052850715699791904,0.0032540333598852157,0.00486563327498734
1761380416939375600,5.200375732421875,0.057334583115577695,-0.0021840660408139227,0.008081380451098083
1761380416949458700,5.210458740234375,0.04940203655064106,0.003568469603918493,-0.004898841424845159
1761380416959540500,5.22054052734375,0.04970248080193996,-0.0011544307321310042,0.0012390220093540846
1761380416969623800,5.230623779296875,0.05508475836217403,0.00012402823846787214,0.0006817808522377163
1761380416979705900,5.240705810546875,0.051797991776466365,0.006287921163067221,-0.004947676402097568
1761380416989784000,5.2507841796875,0.04162672637403011,0.0031832696786150334,-0.0009478661762084812
1761380416999867100,5.2608671875,0.04806055881381035,-0.0014672230083495378,-0.0014341061900369821
1761380417009949200,5.27094921875,0.0571861145555973,0.007138108251616359,0.00036509785219095646
1761380417020031200,5.28103125,0.04207680822908878,-0.0002962795328348875,-0.005002822389127686
1761380417030114000,5.291114013671875,0.05943652383089065,0.004889708270318806,-0.008592709240410477
1761380417040196000,5.301196044921875,0.049263504862785336,0.0008437573477625847,0.004731220639823004
1761380417050278100,5.311278076171875,0.046125206837058064,0.0029832170618698,-0.0030447288576047867
1761380417060361200,5.321361328125,0.04911912795603275,-0.0040315936036407945,0.0023482344934251157
1761380417070443300,5.331443359375,0.036248540467023846,0.004268617229908705,-0.000016056085657328368
1761380417080525000,5.341525146484375,0.04358429018259048,0.005985248422063887,0.0006527830866165458
1761380417090608000,5.351608154296875,0.04148819468617439,-0.0036763869578018784,0.003131886551249772
1761380417100690200,5.361690185546875,0.0471779307603836,-0.0034708909809589386,0.0011757109821774064
1761380417110772200,5.371772216796875,0.04284019381701946,-0.007085939672961831,-0.00010293065151199697
1761380417120855000,5.38185498046875,0.04344166684150696,0.0003301087372004986,0.002191299499198794
1761380417130937000,5.39193701171875,0.05271978279650211,0.0003174684513360262,-0.004681390148727223
1761380417141019100,5.40201904296875,0.0470300467222929,0.0007200579028576612,-0.0034740784518886357
1761380417151102000,5.41210205078125,0.056905544048547745,-0.005274652467295527,0.00515930072562769
1761380417161184000,5.42218408203125,0.041648938205838204,0.008383980126865209,0.0057552573247812685
1761380417171266000,5.43226611328125,0.046585810086131094,0.005544336254149675,-0.0012045900167897343
1761380417181349000,5.44234912109375,0.050478141349554057,0.0029758374730125066,0.004408783752424642
1761380417191431200,5.45243115234375,0.05616963098943233,-0.0015091259213164448,0.0038018673678394403
1761380417201514000,5.462513916015625,0.04404664699733257,0.0034920433668419715,-0.004590780122671276
1761380417211596000,5.472595947265625,0.04180208294093608,-0.00043875674344599243,0.0008494655693415552
1761380417221678000,5.482677978515625,0.040461189725995064,0.008429865095205604,0.009498170180153101
1761380417231761200,5.49276123046875,0.04884381814599037,0.0019390783037990331,0.002529025287274271
1761380417241843200,5.50284326171875,0.0522802223354578,-0.0020570786602795124,0.0013139504090882838
1761380417251925200,5.51292529296875,0.04360007227361202,-0.0030200784735381603,-0.004524546486046165
1761380417262008000,5.523008056640625,0.04734276593327522,-0.00003543663956224918,0.0021823398746084422
1761380417272090000,5.533090087890625,0.047045244291424745,0.006681194796971976,-0.0025403412657324224
1761380417282172200,5.543172119140625,0.04629764079451561,-0.0009464870698750018,-0.0005461443743668496
1761380417292255200,5.553255126953125,0.04195873480737209,-0.002276749292947352,0.005548345708986744
1761380417302337300,5.563337158203125,0.044352351945638656,0.002973608983308077,0.006751721016224474
1761380417312419000,5.573419189453125,0.04704173716008663,-0.0024692761903628707,0.004126980269514024
1761380417322502100,5.583502197265625,0.05092822320461273,-0.0026738588517531752,0.002747663873480633
1761380417332584200,5.593584228515625,0.04568973802924156,-0.007153123157657683,0.0025635668776929376
1761380417342666200,5.603666259765625,0.05257599041163921,-0.0015717062961310146,-0.0007986121649388223
1761380417352749000,5.6137490234375,0.0452478394806385,0.0069928910946473475,0.002464088558591902
1761380417362831000,5.6238310546875,0.036413375639915466,-0.002483523911423981,0.005767961542727426
1761380417372913200,5.6339130859375,0.04120353252589702,-0.005378368570096791,0.0017158640071749686
1761380417382996000,5.643995849609375,0.04809095395207405,0.00036740854028612373,0.0014382709085009992
1761380417393078000,5.654078125,0.049583822858333584,-0.0019027283487841485,0.004364761947607622
1761380417403160000,5.66416015625,0.045240825217962265,-0.0010460019215941428,-0.00037901677968911826
1761380417413243100,5.6742431640625,0.04987842189073562,-0.0010268222970888018,0.005138431467534974
1761380417423325200,5.6843251953125,0.04733750523626804,-0.0029832535944879055,0.007089629467390477
1761380417433407000,5.694406982421875,0.04374620274603366,0.004664850005879998,0.0023767025360837577
1761380417443490000,5.704489990234375,0.04060030593574047,0.0023624913476407525,-0.0037816556968726218
1761380417453572000,5.714572021484375,0.041945290803909296,0.0011991101240739226,-0.0024451737955678253
1761380417463655200,5.7246552734375,0.05675824453234672,-0.00792089265976101,-0.004033612030791119
1761380417473737000,5.734737060546875,0.033714638075232506,0.0024002660747617483,-0.005478568408405408
1761380417483819000,5.744819091796875,0.04403846369087696,0.002943615703843534,0.0023009156198240815
1761380417493902000,5.754902099609375,0.046882747206091875,-0.001546243061311543,0.004200575228687375
1761380417503984000,5.764984130859375,0.055559974658489227,-0.004670841355249285,0.0020317706890869884
1761380417514066200,5.775066162109375,0.05256897614896297,-0.006832622499018907,-0.0056803563245106485
1761380417524149200,5.785149169921875,0.047183191457390784,0.0015113909436389804,0.006875046001793816
1761380417534231300,5.795231201171875,0.046587563651800154,-0.004794833061099052,0.003765197752416134
1761380417544313000,5.80531298828125,0.039704818400740624,0.004451974440179765,0.003276720115728676
1761380417554396200,5.815396240234375,0.034012159717082976,-0.0007812500381842255,-0.0005138221404980867
1761380417564478200,5.825478271484375,0.0417927305907011,-0.0006540069293230772,0.0023424806060735135
1761380417574560300,5.835560302734375,0.053468555337190624,-0.0008845642821863293,0.007060896563250571
1761380417584643000,5.84564306640625,0.04509469474554061,0.0031694238163530826,0.008014534893119707
1761380417594725000,5.85572509765625,0.040003509086370466,-0.009791728032939135,0.008547107399860396
1761380417604807200,5.86580712890625,0.04568681541979313,-0.00001508797127753496,0.005751129138935357
1761380417614890000,5.875889892578125,0.05197451738715172,0.0009699775433167814,0.00746277362871915
1761380417624972000,5.885971923828125,0.042994507595896715,0.004714826627448201,-0.00029469949710182844
1761380417635054000,5.89605419921875,0.04509411022365093,0.0014764292281121015,0.00053575084451586
1761380417645137200,5.90613720703125,0.04001578404605388,-4.7492403537034985e-7,-0.0001404131176881492
1761380417655219200,5.91621923828125,0.04375906222760677,0.004441453046165406,0.007535281742503866
1761380417665301000,5.926301025390625,0.04643851056993007,-0.0006288359554484487,-0.0006965217636432498
1761380417675384000,5.936384033203125,0.04957797763943672,-0.0023500337248668073,-0.005066717938194051
1761380417685466000,5.946466064453125,0.04927753338813781,0.004642966967634856,-0.0007760624064132571
1761380417695548200,5.956548095703125,0.044186347728967665,0.0003771262167021632,0.0018488153376150875
1761380417705631000,5.966630859375,0.04718026884794235,0.0004995470199733972,0.00007216105391271413
1761380417715713000,5.976713134765625,0.035357144585251805,0.00029050737917423245,0.004070583040313795
1761380417725795000,5.986795166015625,0.043588381835818285,-0.0036269583255052564,-0.0008573109490796923
1761380417735878100,5.996878173828125,0.049720600980520245,0.0007714958291500806,-0.005222008964605629
1761380417745960200,6.006960205078125,0.04328092332184314,0.00030643560066819186,0.0006026238019578158
1761380417756042000,6.0170419921875,0.04941431151032447,0.010840433368273079,-0.0025189879504498094
1761380417766125300,6.027125244140625,0.05254734883904457,0.01154638968054205,-0.001756296482263133
1761380417776207000,6.03720703125,0.053146483775973315,-0.0016263225601986049,0.003348488443996757
1761380417786290200,6.047290283203125,0.0461193616181612,-0.005976297930628061,0.00469048677063547
1761380417796372200,6.057372314453125,0.04387187495231628,0.0038359979663044213,-0.0006770681445021182
1761380417806454300,6.067454345703125,0.05045592951774597,0.0008849296083673834,-0.002948748536687344
1761380417816537000,6.077537109375,0.042075639185309405,-0.0016957345345988868,0.007081199565762654
1761380417826619100,6.087619140625,0.04805938977003097,-0.009294007643871009,0.009286646321322768
1761380417836701200,6.097701171875,0.04895370826125145,-0.0026847455719485875,0.002838246500073001
1761380417846784000,6.107783935546875,0.04866144731640815,0.003119556792639196,0.00464663849575445
1761380417856866000,6.117865966796875,0.04836275663077831,-0.00506944875139743,-0.00705268585733138
1761380417866948000,6.127947998046875,0.05194938294589519,0.0005767769746482372,0.002365368291316554
1761380417877031200,6.13803125,0.04641396065056324,0.003972301164455711,0.0018393990552984178
1761380417887113200,6.14811328125,0.036245617857575414,0.004457015941478312,-0.0025560502915177494
1761380417897195000,6.158195068359375,0.03893675663769245,0.0032999183282256123,-0.00923710809117183
1761380417907278000,6.168278076171875,0.05405658435821533,0.0010317176679149268,0.0014085333573631942
1761380417917360000,6.178360107421875,0.0462719218313694,0.015467764375358819,-0.0007554123440291732
1761380417927442200,6.188442138671875,0.04522445860505104,0.00263122528642416,-0.0027818492708727716
1761380417937525000,6.19852490234375,0.044778468403220174,-0.004189597176946699,-0.0003862867706920951
1761380417947607000,6.20860693359375,0.04911562082469463,-0.0009819967746734618,0.0003784961898811161
1761380417957689000,6.218689208984375,0.05465571929514408,-0.005252002244070172,-0.00032946941638365383
1761380417967772000,6.22877197265625,0.0518137738674879,-0.0010745338963344692,0.005257125943759456
1761380417977854000,6.23885400390625,0.04044190050363541,-0.0011351049771532416,0.001244072643807158
1761380417987935200,6.248935302734375,0.05405132366120815,-0.001406688460148871,-0.005896072301268577
1761380417998018300,6.259018310546875,0.046864627027511596,0.003873334302008152,-0.0033517855127807705
1761380418008100400,6.269100341796875,0.047016602718830104,0.002617744750343263,0.00025276918467134236
1761380418018182400,6.279182373046875,0.04506137699782848,-0.0031253289462998507,0.005746909621544182
1761380418028265200,6.28926513671875,0.04341653240025043,0.0003039513826370239,0.004298665308300405
1761380418038347300,6.29934716796875,0.059275195789337154,-0.00022745208032429217,-0.0008387341127730905
1761380418048429300,6.30942919921875,0.04371230047643184,0.0034798780050128695,0.00428067299388349
1761380418058512100,6.31951220703125,0.04281447485387325,0.0040539880985394116,-0.006866488236002623
1761380418068594200,6.32959423828125,0.053288522595167157,-0.0006745382606983184,-0.002102799231838435
1761380418078676200,6.33967626953125,0.046110009267926216,-0.003937047187983989,0.002661565625760704
1761380418088759300,6.34975927734375,0.04625730878412723,-0.002979929126240313,-0.000046040231967344875
1761380418098841000,6.359841064453125,0.04266308368444442,0.007085245553217828,0.0055426648868713525
1761380418108924200,6.369924072265625,0.051942368683218956,-0.0025467618733644483,0.0002812646267935633
1761380418119006200,6.380006103515625,0.03758709559440612,0.0030734526285901664,0.0021885412865318356
1761380418129088300,6.390088134765625,0.046563013732433316,-0.002378602232225239,0.005077796454634517
1761380418139171000,6.400171142578125,0.04911328273713588,-0.0016247516576200723,-0.0018639307083562016
1761380418149253000,6.410253173828125,0.03131283763051033,-0.003699329441972077,0.0013674706946127115
1761380418159335200,6.420335205078125,0.04388181182444095,-0.003549655305594206,-0.0020920951747335492
1761380418169418200,6.430418212890625,0.05286182161569595,0.0064048620736226435,0.006827051274757832
1761380418179500300,6.440500244140625,0.03925415202379227,0.006332016033120453,0.0010320464614778757
1761380418189582300,6.450582275390625,0.03985036435127258,0.0009488251574337482,0.004634829326951876
1761380418199665400,6.46066552734375,0.046427989175915715,0.005131298473849892,-0.008315298804827034
1761380418209747200,6.470747314453125,0.05315466708242893,0.0022877456109970805,0.0006848221926949918
1761380418219829200,6.480829345703125,0.046123453271389,0.0035751185404136773,0.0003624675036873668
1761380418229912300,6.490912353515625,0.04388590347766876,0.002504384036362171,-0.0019977588216308502
1761380418239994400,6.500994384765625,0.048969490352272986,0.004126651475951076,0.007016883891588077
1761380418250076400,6.511076416015625,0.04148994825184345,-0.001646561630629003,0.002797649628203362
1761380418260159200,6.5211591796875,0.0402677129805088,0.004445690829865634,0.003249594646785408
1761380418270241300,6.5312412109375,0.08769348102211952,0.015444566162861884,-0.02576310368203558
1761380418280323300,6.5413232421875,0.12110942841172218,0.019178017070144413,-0.04288087288727983
1761380418290406100,6.55140625,0.04598082993030548,0.013564999493956564,-0.02145420010751113
1761380418300488200,6.56148828125,0.08352700899243354,0.02642203338164836,-0.026725034916214644
1761380418310570200,6.5715703125,0.11465689127147197,0.04018368795886636,-0.050508134629018604
1761380418320653300,6.5816533203125,-0.16145079115033148,-0.10074402818791568,0.14742133421609177
1761380418330735000,6.591735107421875,0.05365151068866253,0.012083419166691601,-0.00784379056924954
1761380418340817200,6.601817138671875,-0.031108254969120022,-0.03666870210785419,0.05916914159897715
1761380418350900200,6.611900146484375,-0.2318728193759918,-0.10411745014376937,0.18533605432966724
1761380418360982300,6.621982177734375,0.0112368488073349,-0.022293080350756642,0.04012309861173853
