time,seconds_elapsed,z,y,x
1761380411817535000,0.078534912109375,0.0002620536834001541,-0.015983983874320984,-0.00901971384882927
1761380411827617000,0.088616943359375,0.0005067987367510796,0.02429073676466942,0.01516684703528881
1761380411837698800,0.09869873046875,0.001127130351960659,0.004715896211564541,0.0016254710499197245
1761380411847782000,0.108781982421875,0.0016589639708399773,-0.02191145345568657,-0.01234493963420391
1761380411857864000,0.118864013671875,-0.0017366288229823112,0.005732345394790173,0.0033166464418172836
1761380411867946000,0.128946044921875,-0.0007880106568336487,0.016255825757980347,0.008025914430618286
1761380411878028800,0.13902880859375,-0.000708981417119503,-0.009861291386187077,-0.00439926702529192
1761380411888110800,0.14911083984375,-0.0003491891548037529,-0.01198542956262827,-0.007311167661100626
1761380411898193000,0.15919287109375,-0.0008700741454958916,0.011212481185793877,0.009461628273129463
1761380411908276000,0.16927587890625,0.0005789510905742645,0.004797193221747875,-0.0004059163620695472
1761380411918357800,0.179357666015625,0.0021902089938521385,-0.014306433498859406,-0.008659329265356064
1761380411928439800,0.189439697265625,-0.0016367537900805473,0.0005643917247653008,0.0017038285732269287
1761380411938523100,0.199523193359375,-0.00010451022535562515,0.007635180372744799,0.004122715909034014
1761380411948605200,0.209605224609375,-0.00020650960505008698,-0.004141051322221756,-0.005757611710578203
1761380411958687000,0.21968701171875,0.0015076994895935059,-0.005290664732456207,-0.003299246309325099
1761380411968770000,0.22977001953125,-0.00015411339700222015,0.005251191556453705,0.0044044796377420425
1761380411978851300,0.239851318359375,0.00046477094292640686,-0.0006826166063547134,-0.00028322217985987663
1761380411988933000,0.24993310546875,-0.001761099323630333,-0.007965031079947948,-0.0023314591962844133
1761380411999016200,0.26001611328125,-0.00046487338840961456,0.0023015597835183144,0.0014604846946895123
1761380412009098200,0.27009814453125,-0.00048005301505327225,0.00678685586899519,0.0017406493425369263
1761380412019180300,0.28018017578125,-0.000759403221309185,-0.005305306054651737,-0.0026625539176166058
1761380412029263400,0.290263427734375,0.00025632698088884354,-0.0049457792192697525,-0.0025722726713865995
1761380412039345200,0.30034521484375,0.0010041715577244759,0.004077009856700897,0.001517011085525155
1761380412049428200,0.31042822265625,0.0028462791815400124,0.0008212956599891186,0.0012632119469344616
1761380412059510300,0.32051025390625,-0.0011230148375034332,-0.005345829762518406,-0.001996029168367386
1761380412069592300,0.33059228515625,-0.0009456481784582138,0.0010375012643635273,0.00000879843719303608
1761380412079675100,0.340675048828125,-0.00001612585037946701,0.0031592375598847866,0.0014572180807590485
1761380412089757200,0.350757080078125,-0.0015959134325385094,-0.0019175466150045395,0.000018578488379716873
1761380412099839200,0.360839111328125,-0.002936270087957382,-0.0027411459013819695,0.00019681011326611042
1761380412109922000,0.370922119140625,0.0017210664227604866,0.0023236540146172047,0.0008431593887507915
1761380412120004000,0.381004150390625,-0.0003015054389834404,0.0013734414242208004,0.0008850449230521917
1761380412130086100,0.391086181640625,0.00008092448115348816,-0.0003490913659334183,0.0013060905039310455
1761380412140169200,0.401169189453125,-0.00010982248932123184,0.0007397420704364777,-0.0008788384729996324
1761380412150251300,0.411251220703125,-0.0005907891318202019,0.001231894362717867,0.0008290465921163559
1761380412160333000,0.4213330078125,-0.0008046859875321388,-0.0014326535165309906,0.00010786647908389568
1761380412170416000,0.431416015625,0.000270964577794075,-0.0011498257517814636,0.001715084072202444
1761380412180498200,0.441498291015625,0.0005733007565140724,0.001416034996509552,0.00399561133235693
1761380412190580200,0.451580322265625,-0.0006216596812009811,0.0005920529365539551,0.0012522893957793713
1761380412200663000,0.4616630859375,0.002116990275681019,-0.003940442577004433,0.0016590268351137638
1761380412210745000,0.4717451171875,-0.0002905065193772316,-0.0007782047614455223,-0.0029050984885543585
1761380412220827100,0.4818271484375,-0.0003567226231098175,0.0019156793132424355,0.00217867037281394
1761380412230910200,0.49191015625,0.00009095482528209686,0.0014751926064491272,-0.00037024111952632666
1761380412240992300,0.5019921875,0.0005071945488452911,0.0002075769007205963,-0.000997402356006205
1761380412251075300,0.512075439453125,-0.00040680263191461563,0.0026779253967106342,0.004419999662786722
1761380412261157400,0.522157470703125,-0.0009098406881093979,-0.0005996301770210266,0.0014213325921446085
1761380412271239200,0.5322392578125,0.00016261450946331024,-0.003454538993537426,-0.00034034845884889364
1761380412281322200,0.542322265625,-0.0011591492220759392,-0.000600811094045639,0.0037909469101577997
1761380412291404300,0.552404296875,0.00011996645480394363,-0.00026498641818761826,-0.00007063662633299828
1761380412301486300,0.562486328125,0.0009074453264474869,-0.000660221092402935,0.0021332665346562862
1761380412311569200,0.572569091796875,0.00015004165470600128,0.00011156313121318817,0.0013729340862482786
1761380412321651200,0.582651123046875,0.00008369423449039459,0.00030553247779607773,-0.00007835868746042252
1761380412331733200,0.592733154296875,0.0038627199828624725,0.0014120754785835743,0.00012563937343657017
1761380412341816000,0.602816162109375,0.0005205990746617317,-0.0029116924852132797,0.0018798662349581718
1761380412351898000,0.612898193359375,-0.000020555220544338226,0.0006769169121980667,-0.00043308897875249386
1761380412361980200,0.622980224609375,0.0002737129107117653,-0.00043955910950899124,0.000676378607749939
1761380412372063200,0.633063232421875,0.0015605520457029343,0.00048775412142276764,0.0010875705629587173
1761380412382145300,0.643145263671875,0.0011104261502623558,0.0012974687851965427,-0.0015301777748391032
1761380412392227000,0.65322705078125,0.0010427813977003098,-0.0006096204742789268,0.0011084822472184896
1761380412402310100,0.66331005859375,0.00011310633271932602,0.001478502992540598,0.0010093427263200283
1761380412412392200,0.67339208984375,0.0005605164915323257,-0.004540241323411465,0.00028123450465500355
1761380412422474200,0.68347412109375,0.002343088388442993,0.001190108247101307,-0.0016261851415038109
1761380412432557000,0.69355712890625,-0.00009796582162380219,-0.00012735743075609207,0.0006707913707941771
1761380412442639000,0.70363916015625,0.0025642532855272293,-0.00006703101098537445,-0.0015114740235731006
1761380412452722400,0.713722412109375,0.002127494663000107,0.0012738700024783611,0.0023296033032238483
1761380412462804200,0.72380419921875,-0.0012434525415301323,0.001086417119950056,0.0005387610290199518
1761380412472886000,0.733885986328125,0.00047082360833883286,0.0015087942592799664,-0.00028868322260677814
1761380412482969300,0.74396923828125,0.0008663386106491089,0.00022133812308311462,0.001994242426007986
1761380412493051400,0.754051513671875,0.0004942947998642921,-0.0008668294176459312,0.00107784871943295
1761380412503133200,0.76413330078125,-0.00035644229501485825,0.002187842968851328,0.0010444989893585443
1761380412513216300,0.77421630859375,-0.00046536512672901154,0.0006133820861577988,0.0007179952226579189
1761380412523298300,0.78429833984375,-0.0017572790384292603,0.0013888021931052208,-0.002749910345301032
1761380412533380400,0.79438037109375,-0.000227292999625206,0.002446343656629324,0.005640112794935703
1761380412543463200,0.804463134765625,0.0018733516335487366,-0.0006696367636322975,-0.0020635463297367096
1761380412553545200,0.814545166015625,-0.0010742349550127983,-0.0005655074492096901,0.002915499731898308
1761380412563627300,0.824627197265625,-0.00045594386756420135,0.00221062358468771,0.0008245247881859541
1761380412573710000,0.8347099609375,0.0006375499069690704,-0.00009807106107473373,-0.000702265533618629
1761380412583792000,0.844792236328125,0.0018322328105568886,0.00039883702993392944,-0.0009046068880707026
1761380412593875200,0.854875244140625,-0.0009070951491594315,0.0013557104393839836,0.00017423974350094795
1761380412603957200,0.864957275390625,-0.00213518925011158,0.0007118480280041695,-0.0009899180149659514
1761380412614039300,0.875039306640625,-0.0011745868250727654,0.0016213171184062958,-0.001441323896870017
1761380412624122000,0.8851220703125,0.0011020898818969727,-0.001175547018647194,-0.0015845777234062552
1761380412634204200,0.8952041015625,0.00026825349777936935,0.001090004574507475,0.0018628842663019896
1761380412644286200,0.9052861328125,0.0010683592408895493,-0.0005063638091087341,-0.0021502897143363953
1761380412654369000,0.915369140625,-0.0003148866817355156,-0.000270940363407135,-0.00182618317194283
1761380412664451000,0.925451171875,0.0026348382234573364,-0.0001450842246413231,-0.000583469751290977
1761380412674533000,0.935533203125,0.00024118926376104355,0.0007129861041903496,0.0003217386547476053
1761380412684616200,0.9456162109375,-0.0005956832319498062,-0.0004249066114425659,0.0010104633402079344
1761380412694698000,0.955697998046875,0.0005465466529130936,-0.00022117514163255692,-0.00037091830745339394
1761380412704780000,0.965780029296875,-0.0015892954543232918,-0.0022354181855916977,-0.00015249964781105518
1761380412714863400,0.97586328125,0.0008466979488730431,-0.000959496945142746,-0.0001892514992505312
1761380412724945400,0.9859453125,-0.0007873727008700371,-0.0033101262524724007,-0.00021018041297793388
1761380412735027200,0.996027099609375,0.00018281769007444382,0.00010750815272331238,-0.0010876919841393828
1761380412745110300,1.0061103515625,0.0001716678962111473,0.00035898666828870773,-0.0016989586874842644
1761380412755192300,1.0161923828125,-0.00032874010503292084,0.002283120062202215,-0.0005492719355970621
1761380412765275100,1.026275146484375,-0.00044288672506809235,-0.0005322014912962914,0.003197855781763792
1761380412775357200,1.036357177734375,-0.0007273126393556595,0.0024052648805081844,0.0015003567095845938
1761380412785439200,1.046439208984375,-0.004316594451665878,-0.0008524470031261444,0.0022369620855897665
1761380412795522300,1.056522216796875,-0.0014462396502494812,0.0013859402388334274,0.0013229651376605034
1761380412805604000,1.06660400390625,0.0004353150725364685,0.0001743333414196968,-0.0003449579235166311
1761380412815686100,1.07668603515625,-0.002349019981920719,-0.0005319369956851006,-0.0007058163173496723
1761380412825769200,1.086769287109375,0.0016514202579855919,-0.0033562807366251945,-0.001457420876249671
1761380412835851300,1.096851318359375,-0.0016873842105269432,0.0021687126718461514,-0.0010137382196262479
1761380412845933300,1.106933349609375,0.0003651352599263191,-0.0034378478303551674,0.0005522377323359251
1761380412856016100,1.11701611328125,0.0013097580522298813,0.0007989746518433094,0.0005762062501162291
1761380412866098200,1.12709814453125,0.0008469549939036369,0.0006254138424992561,0.00039815669879317284
1761380412876180200,1.13718017578125,0.0004956843331456184,0.0026448885910212994,0.0014237400609999895
1761380412886263000,1.147262939453125,-0.0003454061225056648,0.0015920368023216724,-0.002010053489357233
1761380412896345000,1.157344970703125,-0.0008332971483469009,0.000058055855333805084,-0.0005192160606384277
1761380412906428200,1.16742822265625,-0.00010048411786556244,0.0011066966690123081,0.000029479851946234703
1761380412916510200,1.17751025390625,0.0005645072087645531,0.0007354523986577988,-0.00003283820115029812
1761380412926592000,1.187592041015625,0.00051885936409235,-0.0019968897104263306,-0.00034497654996812344
1761380412936675300,1.19767529296875,-0.00034826621413230896,-0.00003174319863319397,-0.0001487014815211296
1761380412946757400,1.20775732421875,-0.00042580999433994293,-0.0005040951073169708,0.00002856459468603134
1761380412956839200,1.217839111328125,0.0027896910905838013,0.0018749064765870571,-0.0019309892086312175
1761380412966922200,1.227922119140625,0.0008078822866082191,-0.0007554385811090469,-0.0007306449115276337
1761380412977004300,1.23800439453125,0.0007277205586433411,-0.001292332075536251,0.0010432866401970387
1761380412987087000,1.248087158203125,-0.000960860401391983,0.0015969667583703995,0.0010326032061129808
1761380412997170000,1.258169921875,-0.00001996569335460663,0.000594552606344223,-0.0012278880458325148
1761380413007252000,1.268251953125,0.0008860025554895401,0.00040003377944231033,-0.0005491880001500249
1761380413017335300,1.278335205078125,-0.0002900492399930954,0.001535339280962944,-0.0008261566981673241
1761380413027417000,1.2884169921875,0.0004796944558620453,0.0006082579493522644,0.0005588971544057131
1761380413037499100,1.2984990234375,0.0005406802520155907,0.0011214492842555046,0.0011165631003677845
1761380413047582200,1.308582275390625,0.001966552808880806,-0.0010108798742294312,-0.0031147992704063654
1761380413057664300,1.318664306640625,0.0011071506887674332,-0.0002161925658583641,0.001259442651644349
1761380413067746000,1.32874609375,-0.0012664441019296646,0.001525356899946928,0.0025436519645154476
1761380413077829000,1.3388291015625,-0.00021928921341896057,-0.000927947461605072,-0.0016795890405774117
1761380413087911200,1.3489111328125,0.0005609691143035889,0.0017027840949594975,0.0009432972874492407
1761380413097993200,1.3589931640625,0.0021452829241752625,-0.0010037869215011597,-0.00023728213272988796
1761380413108076000,1.369075927734375,0.0010184934362769127,0.0013727685436606407,0.0020736348815262318
1761380413118158000,1.379157958984375,0.0014874758198857307,0.0023032771423459053,0.003565804101526737
1761380413128240000,1.389240234375,-0.00044764578342437744,0.0006027128547430038,0.0002670353278517723
1761380413138323000,1.399322998046875,-0.00023405998945236206,0.001358517911285162,-0.000004873378202319145
1761380413148405000,1.409405029296875,-0.0001669926568865776,0.004743584431707859,-0.0016357398126274347
1761380413158488000,1.419488037109375,-0.0011510299518704414,-0.00126716960221529,0.00022367923520505428
1761380413168570000,1.429570068359375,-0.00028318632394075394,0.0019482579082250595,-0.0008901780238375068
1761380413178652200,1.439652099609375,0.00007207971066236496,-0.0011340845376253128,-0.0009679424110800028
1761380413188735000,1.44973486328125,0.001109318807721138,0.0015173261053860188,0.001488290261477232
1761380413198817000,1.459817138671875,-0.0017125671729445457,-0.0008853776380419731,-0.0006140090990811586
1761380413208899000,1.469899169921875,0.00016739871352910995,-0.0009890366345643997,0.0007158860098570585
1761380413218982000,1.47998193359375,-0.002917073667049408,0.000700206495821476,0.0015084424521774054
1761380413229064000,1.49006396484375,-0.0007563615217804909,0.001964674796909094,0.000498155364766717
1761380413239146000,1.50014599609375,-0.001664498820900917,-0.001575998030602932,0.0005170637741684914
1761380413249229300,1.510229248046875,0.00030706077814102173,0.00011925213038921356,-0.0013083970407024026
1761380413259310800,1.520310791015625,0.0014506224542856216,-0.0008376222103834152,-0.0021315801423043013
1761380413269394200,1.530394287109375,-0.00036676228046417236,-0.0001077745109796524,-0.0014769890112802386
1761380413279476200,1.540476318359375,-0.0008037872612476349,-0.0009043263271450996,-0.0011566107859835029
1761380413289558300,1.550558349609375,-0.0009059915319085121,-0.0015039434656500816,0.0007271459326148033
1761380413299641000,1.56064111328125,-2.505257725715637e-7,0.0005075419321656227,0.0015849501360207796
1761380413309723100,1.57072314453125,0.0012920442968606949,-0.0019637970253825188,-0.0018840066622942686
1761380413319805200,1.58080517578125,0.0020912587642669678,0.002298059407621622,-0.0004174038767814636
1761380413329888000,1.590887939453125,-0.0024608690291643143,0.00014054030179977417,0.000059436075389385223
1761380413339970000,1.600969970703125,-0.0008967947214841843,0.0013578711077570915,0.00003813090734183788
1761380413350052000,1.611052001953125,-0.0016828067600727081,-0.0016153063625097275,0.002101500751450658
1761380413360135200,1.62113525390625,-0.002376827411353588,0.0017349501140415668,0.0030184269417077303
1761380413370217000,1.631217041015625,-0.0005391091108322144,-0.00025801360607147217,0.0012622938957065344
1761380413380299000,1.641299072265625,0.00019086338579654694,-0.00035335496068000793,-0.00012681097723543644
1761380413390382000,1.651382080078125,-0.0020374590530991554,-0.0004602475091814995,0.0006520410533994436
1761380413400464100,1.661464111328125,0.0000624433159828186,-0.0000019175931811332703,0.00026774685829877853
1761380413410547000,1.671546875,0.001878194510936737,-0.0012226849794387817,0.00028365757316350937
1761380413420629000,1.68162890625,0.0006387596949934959,0.0013326182961463928,0.0011193575337529182
1761380413430711000,1.6917109375,0.001134299673140049,-0.000318760983645916,-0.0002875281497836113
1761380413440794000,1.701794189453125,-0.0009658690541982651,0.0004495615139603615,-0.00006089312955737114
1761380413450876000,1.7118759765625,0.00018951576203107834,-0.002359062433242798,-0.0002787495031952858
1761380413460958000,1.7219580078125,-0.000522080808877945,0.0012665651738643646,0.00048637669533491135
1761380413471041000,1.732041015625,-0.001876012422144413,-0.0014424407854676247,0.0009619304910302162
1761380413481123000,1.742123046875,0.0007317550480365753,-0.0022789398208260536,-0.00016938033513724804
1761380413491204900,1.752204833984375,-0.0008529080078005791,-0.0009952383115887642,-0.0008529808837920427
1761380413501288200,1.7622880859375,-0.0008241459727287292,-0.0010290602222085,-0.0003943846095353365
1761380413511370200,1.772370361328125,-0.0007669376209378242,-0.000505366362631321,0.001249023713171482
1761380413521453000,1.782453125,0.001959339715540409,0.00042221229523420334,0.0008127978071570396
1761380413531535000,1.79253515625,0.0017916401848196983,0.0015561208128929138,0.0018621408380568027
1761380413541617200,1.8026171875,-0.0009484859183430672,0.00398439122363925,0.000982232391834259
1761380413551700200,1.8127001953125,-0.0014590676873922348,-0.0009495140984654427,-0.0002661666367202997
1761380413561782000,1.822781982421875,0.0011886470019817352,-0.00031221937388181686,-0.0009258316131308675
1761380413571864000,1.832864013671875,0.0016816062852740288,0.002025080844759941,-0.0007616959046572447
1761380413581947100,1.842947021484375,0.001025935634970665,-0.00016803201287984848,-0.0012011174112558365
1761380413592029200,1.853029296875,-0.003029061481356621,-0.0003847852349281311,-0.00049415766261518
1761380413602111000,1.863111083984375,-0.0013792328536510468,0.0007225568406283855,-0.0003380964044481516
1761380413612194000,1.873194091796875,-0.0009199129417538643,0.0009356983937323093,0.0010375704150646925
1761380413622276000,1.883276123046875,0.00014268793165683746,-0.002648649737238884,0.00020693033002316952
1761380413632359000,1.89335888671875,-0.0005319109186530113,0.0012830574996769428,-0.0002505774609744549
1761380413642441000,1.90344091796875,0.0007698424160480499,-0.0016424255445599556,-0.0004146280698478222
1761380413652523000,1.91352294921875,0.0009152181446552277,-0.00024575553834438324,-0.0006555874133482575
1761380413662606000,1.923606201171875,-0.002865404821932316,-0.0013957079499959946,0.0006067510694265366
1761380413672688000,1.933688232421875,0.0010031424462795258,0.0012243245728313923,-0.00030406611040234566
1761380413682770000,1.94377001953125,-0.0007457556203007698,0.0025859992019832134,-0.0005813011666759849
1761380413692853000,1.95385302734375,-0.0006181579083204269,0.004452450666576624,-0.003018487710505724
1761380413702935000,1.96393505859375,0.0009240787476301193,-0.0010528359562158585,-0.0014783815713599324
1761380413713018000,1.97401806640625,-0.0008839108049869537,0.0002037612721323967,-0.002242067828774452
1761380413723100200,1.98410009765625,-0.00012544263154268265,-0.00012061093002557755,-0.0005642763571813703
1761380413733182200,1.99418212890625,-0.0009401915594935417,-0.0006899433210492134,-0.0036815577186644077
1761380413743265000,2.00426513671875,0.0003157546743750572,-0.0005882102996110916,-0.0016325215110555291
1761380413753347000,2.01434716796875,-0.0002521742135286331,0.001256737858057022,0.0015479098074138165
1761380413763429000,2.02442919921875,-0.0008913325145840645,0.002358487341552973,-0.0009360206313431263
1761380413773512200,2.03451220703125,0.001250511035323143,0.002125876024365425,-0.0014600653667002916
1761380413783594200,2.04459423828125,-0.0009777555242180824,-0.005682778544723988,0.0005058799870312214
1761380413793676000,2.054676025390625,0.0019694287329912186,0.0024681799113750458,-0.0006404570303857327
1761380413803759000,2.064759033203125,-0.00028387270867824554,-0.0006570396944880486,0.0009862016886472702
1761380413813841200,2.074841064453125,0.00038869399577379227,-0.0005786111578345299,-0.0010284935124218464
1761380413823924000,2.084924072265625,-0.00033462047576904297,-0.000041185878217220306,0.00010121939703822136
1761380413834006000,2.095006103515625,-0.0014257831498980522,0.003511158749461174,0.0005673128180205822
1761380413844088000,2.105088134765625,-0.0007866239175200462,-0.0024993298575282097,-0.0032415399327874184
1761380413854171100,2.115171142578125,-0.0006961887702345848,0.0007974421605467796,0.0009228531271219254
1761380413864253000,2.1252529296875,0.0005288654938340187,-0.00046383123844861984,-0.00024680723436176777
1761380413874335000,2.1353349609375,0.0010147616267204285,0.003468310460448265,0.00001067272387444973
1761380413884418000,2.14541796875,0.0006131567060947418,-0.0021674707531929016,0.000004281289875507355
1761380413894500000,2.1555,0.003293805755674839,0.0026702750474214554,0.0006443397141993046
1761380413904582100,2.16558203125,-0.0007163826376199722,0.0004100501537322998,-0.0018683526432141662
1761380413914665000,2.1756650390625,-0.0009395182132720947,-0.0009378576651215553,-0.0020905747078359127
1761380413924747000,2.1857470703125,0.0021630646660923958,-0.0016917986795306206,0.0006913633551448584
1761380413934830000,2.195830078125,-0.0020309938117861748,-0.0005653481930494308,0.002043863059952855
1761380413944912000,2.205911865234375,-0.0009516142308712006,-0.001901722513139248,0.0003602122887969017
1761380413954994000,2.215993896484375,0.0011282889172434807,-0.0020682401955127716,-0.0005571446381509304
1761380413965077200,2.2260771484375,0.00013998989015817642,0.000390123575925827,-0.00300725270062685
1761380413975159300,2.2361591796875,0.0010764868929982185,0.00021392758935689926,-0.00020033190958201885
1761380413985240600,2.246240478515625,-0.0005554985255002975,-0.0022199349477887154,-0.002931936178356409
1761380413995323400,2.256323486328125,-0.0012507624924182892,-0.0004805373027920723,-0.0007442525820806623
1761380414005405400,2.266405517578125,0.0005772309377789497,0.001320824958384037,-0.0006435851100832224
1761380414015487500,2.276487548828125,0.0002410905435681343,0.000443444587290287,-0.0005208736984059215
1761380414025570300,2.2865703125,-0.001418856903910637,-0.00017014797776937485,0.00011215964332222939
1761380414035652400,2.29665234375,-0.001367097720503807,0.0010574045591056347,0.003232570830732584
1761380414045735700,2.306735595703125,-0.0010073045268654823,-0.0004334328696131706,0.0013148286379873753
1761380414055817700,2.316817626953125,-0.00008784141391515732,0.0013955691829323769,-0.001840017968788743
1761380414065899500,2.3268994140625,0.0003052409738302231,0.00041073281317949295,-0.0009292168542742729
1761380414075982600,2.336982666015625,-0.0006912499666213989,0.0031897472217679024,-0.00003890879452228546
1761380414086064600,2.347064697265625,-0.0005852561444044113,-0.0011354926973581314,0.00010117352940142155
1761380414096146700,2.357146728515625,-0.0008559022098779678,-0.00205372367054224,-0.0010483976220712066
1761380414106229500,2.3672294921875,0.0010690297931432724,0.003448633011430502,0.0004008945543318987
1761380414116311600,2.3773115234375,0.001349145546555519,0.00020397361367940903,0.00017602252773940563
1761380414126393600,2.3873935546875,0.0007206397131085396,-0.002305257134139538,0.0014559377450495958
1761380414136476400,2.397476318359375,0.0019382983446121216,-0.0000778520479798317,-0.001180583261884749
1761380414146558500,2.407558349609375,-0.0005307178944349289,-0.00220438651740551,-0.0005813720636069775
1761380414156641500,2.4176416015625,0.0013441964983940125,-0.0022004293277859688,0.0006342337001115084
1761380414166723600,2.4277236328125,0.0018619149923324585,-0.0014185253530740738,-0.0021801949478685856
1761380414176805400,2.437805419921875,0.001002962701022625,0.0010894611477851868,0.000267380615696311
1761380414186888400,2.447888427734375,-0.0012575285509228706,-0.0022157877683639526,-0.00018668826669454575
1761380414196970500,2.457970458984375,-0.0009554103016853333,-0.0017570536583662033,-0.0006992456037551165
1761380414207052500,2.468052490234375,-0.0017466358840465546,0.0015537883155047894,-0.0006537054432556033
1761380414217135400,2.47813525390625,0.001337328925728798,-0.0013238899409770966,0.0002373470924794674
1761380414227217400,2.488217529296875,-0.0010363468900322914,-0.001033872365951538,0.0007425488438457251
1761380414237299500,2.498299560546875,-0.0005762176588177681,-0.002128033898770809,0.0018097131978720427
1761380414247382500,2.508382568359375,-0.0018345611169934273,0.0005143536254763603,0.0010395271237939596
1761380414257464300,2.51846435546875,-0.0004331786185503006,0.0005179746076464653,-0.0002025787252932787
1761380414267547600,2.528547607421875,0.0004142392426729202,-0.0029183020815253258,0.00041420944035053253
1761380414277629400,2.53862939453125,-0.0018535573035478592,-0.0008910512551665306,-0.002601773478090763
1761380414287711500,2.54871142578125,0.001066332682967186,0.0006397329270839691,-0.0017855146434158087
1761380414297794600,2.558794677734375,-0.00020186230540275574,-0.0004894649609923363,-0.0016581490635871887
1761380414307876600,2.568876708984375,-0.0005837595090270042,-0.001403195783495903,-0.0003659832291305065
1761380414317958700,2.578958740234375,0.0004420895129442215,0.0001735752448439598,-0.0006300871027633548
1761380414328041500,2.58904150390625,0.00048816297203302383,-0.0004690457135438919,-0.001951547572389245
1761380414338123500,2.59912353515625,0.00067917350679636,0.0006348229944705963,-0.00010226108133792877
1761380414348205600,2.60920556640625,-0.00035519804805517197,0.0009591961279511452,0.00031984993256628513
1761380414358288600,2.61928857421875,0.00013046711683273315,-0.0015604058280587196,-0.0013225722359493375
1761380414368370400,2.629370361328125,0.0005459198728203773,0.002530475612729788,0.0009818610269576311
1761380414378453500,2.63945361328125,-0.0011945581063628197,0.0005185035988688469,-0.002959643257781863
1761380414388535600,2.64953564453125,-0.00003155507147312164,-0.001431463286280632,-0.0005361667135730386
1761380414398617600,2.65961767578125,-0.0008841073140501976,-0.00019185524433851242,-0.0006071683019399643
1761380414408700400,2.669700439453125,-0.0004867641255259514,0.0000893743708729744,-0.0008465864229947329
1761380414418782500,2.679782470703125,0.0020263632759451866,0.0015463070012629032,0.0026641825679689646
1761380414428864500,2.689864501953125,-0.00017979927361011505,-0.00113762728869915,-0.001780367107130587
1761380414438947300,2.699947265625,0.0009621037170290947,0.0019225627183914185,0.0031144774984568357
1761380414449029400,2.710029296875,-0.0005516363307833672,-0.0008244877681136131,-0.0010352599201723933
1761380414459112400,2.720112548828125,-0.0005566328763961792,0.0016335463151335716,0.000948094530031085
1761380414469194500,2.730194580078125,-0.0007302705198526382,-0.0011225584894418716,0.00025567272678017616
1761380414479276500,2.740276611328125,-0.000027647241950035095,0.00007106643170118332,0.0006084905471652746
1761380414489359400,2.750359375,-0.00019489414989948273,0.0011475160717964172,0.0009182160720229149
1761380414499441400,2.76044140625,0.0011626239866018295,0.0005200030282139778,-0.001704034861177206
1761380414509523500,2.7705234375,-0.0019857650622725487,-0.0017162533476948738,0.0005223678890615702
1761380414519606500,2.7806064453125,0.0006754714995622635,-0.0007035965099930763,-0.0012468495406210423
1761380414529688600,2.7906884765625,0.0009319335222244263,-0.000036207959055900574,-0.00007665669545531273
1761380414539770600,2.8007705078125,0.0021723657846450806,-0.0003783423453569412,-0.000825623283162713
1761380414549853400,2.810853515625,-0.0009147711098194122,-0.0006843395531177521,0.0005267299711704254
1761380414559935500,2.820935546875,-0.0006570229306817055,0.0037005851045250893,0.0023987088352441788
1761380414570018600,2.8310185546875,0.00041143689304590225,-0.0006249211728572845,0.00017736619338393211
1761380414580100600,2.8411005859375,0.0010734070092439651,0.0014455700293183327,0.0007219149265438318
1761380414590182700,2.8511826171875,-0.0008443351835012436,0.0014687394723296165,-0.004237157292664051
1761380414600265500,2.861265380859375,0.0013249795883893967,0.001482921652495861,0.0011120415292680264
1761380414610347500,2.871347412109375,0.0018610740080475807,-0.00017036870121955872,0.0017405475955456495
1761380414620429600,2.8814296875,0.00014575384557247162,-0.0012665092945098877,-0.0009583131177350879
1761380414630512400,2.891512451171875,-0.00009552855044603348,-0.0016385531052947044,-0.0024709885474294424
1761380414640594400,2.901594482421875,0.00006427522748708725,0.0006995471194386482,0.0012927735224366188
1761380414650676500,2.911676513671875,0.0001961011439561844,0.0005131252110004425,0.0016009013634175062
1761380414660759600,2.921759521484375,-0.000022050924599170685,0.0010617407970130444,-0.0019235257059335709
1761380414670841300,2.93184130859375,0.0005209678784012794,-0.002240578643977642,-0.0005067241145297885
1761380414680924400,2.94192431640625,-0.00035865046083927155,0.002049241680651903,0.0012536831200122833
1761380414691006500,2.95200634765625,-0.0014105988666415215,0.0008590747602283955,0.0015498267021030188
1761380414701088500,2.962088623046875,0.0023391814902424812,0.0017532180063426495,0.00021672574803233147
1761380414711171300,2.97217138671875,0.00024487171322107315,0.0016863723285496235,-0.0008168470812961459
1761380414721253400,2.98225341796875,-0.0008424045518040657,0.00186447286978364,0.0004406238440424204
1761380414731335400,2.99233544921875,0.0005911756306886673,-0.0022738128900527954,-0.0008342313813045621
1761380414741418500,3.00241845703125,0.002128203399479389,-0.002916703000664711,-0.00027198856696486473
1761380414751500500,3.01250048828125,-0.0018252590671181679,-0.00032091978937387466,-0.0011516307713463902
1761380414761582300,3.022582275390625,0.0014515379443764687,0.0017437390051782131,0.00024020415730774403
1761380414771665700,3.032665771484375,-0.001807638444006443,0.00033066608011722565,-0.001577669521793723
1761380414781747500,3.04274755859375,0.0013963626697659492,0.0013797427527606487,0.002055771416053176
1761380414791830500,3.05283056640625,0.002171075902879238,0.00010888278484344482,-0.0003248280845582485
1761380414801912600,3.06291259765625,0.0002322811633348465,-0.0024277055636048317,-0.0015134256100282073
1761380414811994600,3.07299462890625,0.00039952807128429413,0.0023619895800948143,0.0007342824246734381
1761380414822077400,3.083077392578125,0.001640094444155693,-0.000772581435739994,-0.0007968106074258685
1761380414832159500,3.093159423828125,0.001404670998454094,0.0007115975022315979,0.0008016186766326427
1761380414842241500,3.103241455078125,-0.0015114499256014824,-0.0005191303789615631,-0.002813898026943207
1761380414852324600,3.11332470703125,0.0019021900370717049,-0.00007171928882598877,0.0011504834983497858
1761380414862406400,3.123406494140625,-0.0016618883237242699,-0.0022099753841757774,0.000003828667104244232
1761380414872488400,3.133488525390625,0.00023907609283924103,0.0009602517820894718,-0.000622280640527606
1761380414882571500,3.143571533203125,-0.001487809233367443,0.00023614242672920227,0.001730659045279026
1761380414892653600,3.153653564453125,-0.0007013780996203423,0.001350142527371645,-0.002247304655611515
1761380414902736400,3.163736328125,0.001635049469769001,-0.0010349098592996597,-0.0019461987540125847
1761380414912818400,3.173818359375,0.0011956281960010529,0.0004982715472579002,-0.00029210932552814484
1761380414922900500,3.183900390625,0.002330864779651165,-0.002781875431537628,-0.00044342433102428913
1761380414932983300,3.1939833984375,-0.0003642542287707329,-0.0004974156618118286,-0.00022557773627340794
1761380414943065300,3.2040654296875,-0.00013112183660268784,0.00009727943688631058,0.002777456771582365
1761380414953147400,3.2141474609375,-0.00008052121847867966,0.003565514460206032,0.0021936921402812004
1761380414963230700,3.224230712890625,0.0022833384573459625,-0.0016624992713332176,-0.0008430153829976916
1761380414973312300,3.234312255859375,0.0022652288898825645,-0.00024223607033491135,0.0019810006488114595
1761380414983398400,3.2443984375,-0.0006350018084049225,0.0015890877693891525,-0.00031834118999540806
1761380414993481500,3.2544814453125,-0.0009764190763235092,0.0006114412099123001,-0.0009686851408332586
1761380415003563500,3.2645634765625,-0.0005002012476325035,0.0016985260881483555,0.0015521636232733727
1761380415013646300,3.274646240234375,-0.000364646315574646,0.0012212879955768585,0.0012855811510235071
1761380415023728400,3.284728271484375,-0.001730787567794323,0.00134354829788208,-0.0023326105438172817
1761380415033810400,3.294810546875,0.00047910306602716446,-0.0017076358199119568,-0.0005775874014943838
1761380415043893200,3.304893310546875,-0.00022193044424057007,0.001325161661952734,0.0017146279569715261
1761380415053975300,3.314975341796875,0.0012723691761493683,0.0007874695584177971,-0.0030375164933502674
1761380415064057300,3.325057373046875,0.0014266669750213623,0.0010343207977712154,0.00191596825607121
1761380415074140400,3.335140380859375,-0.0019092084839940071,0.001169875729829073,0.003241157392039895
1761380415084222200,3.34522216796875,0.0001306440681219101,-0.0008636210113763809,-0.0017300789477303624
1761380415094304300,3.35530419921875,0.0011250684037804604,-0.0012854663655161858,-0.0005324553931131959
1761380415104387300,3.36538720703125,0.0003296509385108948,0.0002753082662820816,0.0001824528444558382
1761380415114469400,3.375469482421875,0.0010068928822875023,0.002804512158036232,0.0006628870032727718
1761380415124552200,3.38555224609375,0.0009767208248376846,-0.00012721214443445206,-0.00004237215034663677
1761380415134634200,3.39563427734375,0.00000786222517490387,0.0004150066524744034,0.00005802907980978489
1761380415144716300,3.40571630859375,0.00008783582597970963,-0.0009249746799468994,0.0000944619532674551
1761380415154799000,3.415799072265625,-0.001286088488996029,-0.0005476055666804314,-0.0003279151860624552
1761380415164881200,3.425881103515625,0.0006597777828574181,-0.000339713878929615,-0.002035098848864436
1761380415174963200,3.435963134765625,0.0002315416932106018,-0.0028571998700499535,-0.0002648958470672369
1761380415185046500,3.446046630859375,0.0009094756096601486,0.001242329366505146,0.0008903048001229763
1761380415195128300,3.45612841796875,-0.0013342369347810745,-0.0014221630990505219,-0.0013795073609799147
1761380415205210000,3.466210205078125,0.00026010163128376007,0.002647171728312969,0.00029572960920631886
1761380415215293400,3.47629345703125,-0.0006554927676916122,0.0015552761033177376,-0.00014901813119649887
1761380415225375500,3.48637548828125,0.0008382732048630714,0.00009375438094139099,0.001460361061617732
1761380415235457500,3.49645751953125,0.0012832870706915855,-0.000688682310283184,0.0016337328124791384
1761380415245540400,3.506540283203125,-0.0008832337334752083,0.0036709154956042767,0.0010657890234142542
1761380415255622400,3.516622314453125,0.0008587399497628212,-0.0014910893514752388,0.0011824355460703373
1761380415265705500,3.52670556640625,0.0002796817570924759,0.0007558632642030716,-0.0010393796255812049
1761380415275787300,3.536787353515625,0.0005313511937856674,0.000032815150916576385,0.0008986026514321566
1761380415285869300,3.546869384765625,-0.0006258469074964523,0.0011879312805831432,-0.00008421577513217926
1761380415295952400,3.556952392578125,-0.0011020200327038765,0.0014742212370038033,-0.00107384636066854
1761380415306034400,3.567034423828125,-0.002000320702791214,0.001483336091041565,0.00017083995044231415
1761380415316116200,3.5771162109375,-0.0002482272684574127,0.0024380795657634735,-0.0005982808070257306
1761380415326199300,3.58719921875,0.00030683353543281555,-0.000293889082968235,0.0008633006364107132
1761380415336281300,3.59728125,0.0022304346784949303,0.00010558497160673141,-0.0005287335952743888
1761380415346363400,3.60736328125,0.00002666376531124115,0.0016877949237823486,0.0018776501528918743
1761380415356446200,3.6174462890625,-0.000021272338926792145,0.0006989631801843643,0.0011269052047282457
1761380415366528300,3.6275283203125,-0.0027784202247858047,0.00009294133633375168,-0.0015633453149348497
1761380415376611300,3.637611328125,0.0011260397732257843,0.0011318409815430641,0.0015158015303313732
1761380415386693000,3.647693115234375,-0.0003199353814125061,-0.0010814489796757698,-0.0008067572489380836
1761380415396775200,3.657775146484375,-0.0020232927054166794,-0.00016159377992153168,0.0001565080601722002
1761380415406858500,3.6678583984375,0.001141650602221489,-0.003228183835744858,-0.0016002565389499068
1761380415416940300,3.677940185546875,0.0005387114360928535,0.0007322025485336781,0.0002823320683091879
1761380415427022300,3.688022216796875,-0.0015196874737739563,0.0019675674848258495,-0.0004995469935238361
1761380415437105400,3.69810546875,-0.0015734834596514702,0.0035276473499834538,0.002074930816888809
1761380415447187500,3.7081875,-0.0007908521220088005,0.000010788440704345703,-0.0008292715065181255
1761380415457269500,3.71826953125,0.0003132941201329231,-0.00036045629531145096,0.00047940597869455814
1761380415467352300,3.728352294921875,0.0010679587721824646,-0.0014438657090067863,0.0004929902497678995
1761380415477434400,3.738434326171875,0.00032307207584381104,-0.0014049839228391647,0.0021702488884329796
1761380415487516400,3.748516357421875,0.003010380081832409,-0.0006965985521674156,-0.00035676080733537674
1761380415497599500,3.758599609375,0.0007988912984728813,0.001041114330291748,-0.001048117526806891
1761380415507681300,3.768681396484375,-0.000163152813911438,-0.003070298582315445,-0.0012333793565630913
1761380415517764400,3.778764404296875,-0.0009399969130754471,-0.00041166506707668304,-0.0008557431865483522
1761380415527846400,3.788846435546875,0.0004601152613759041,0.0009133806452155113,-0.0010155783966183662
1761380415537928400,3.798928466796875,0.0009914161637425423,-0.00017452053725719452,0.0018406619783490896
1761380415548011300,3.80901123046875,0.0009454833343625069,-0.0021976446732878685,-0.0003226750995963812
1761380415558093300,3.81909326171875,0.0009950175881385803,-0.000977916643023491,0.001893873792141676
1761380415568175400,3.82917529296875,-0.0007107164710760117,-0.00043618399649858475,0.0015077902935445309
1761380415578258200,3.839258056640625,-0.0006172386929392815,0.0006112372502684593,-0.003064590971916914
1761380415588340200,3.84934033203125,-0.00038164015859365463,0.00041097868233919144,-0.0003254322800785303
1761380415598422300,3.85942236328125,0.00019014067947864532,0.0035013104788959026,-0.0006929485825821757
1761380415608505300,3.86950537109375,-0.002562146633863449,-0.0026414887979626656,0.0007389949169009924
1761380415618587100,3.879587158203125,0.0019668247550725937,-0.0006089638918638229,-0.0001859208568930626
1761380415628670200,3.889670166015625,0.001108100637793541,-0.000775403343141079,0.00022540451027452946
1761380415638752300,3.899752197265625,0.002863124944269657,0.00048533640801906586,0.0032275861594825983
1761380415648834300,3.909834228515625,0.00031721126288175583,0.0025037857703864574,-0.0012171732960268855
1761380415658917400,3.91991748046875,0.00035183224827051163,0.001033454667776823,0.0003271938767284155
1761380415668999400,3.92999951171875,0.000016060657799243927,-0.0010668504983186722,-0.0008780364878475666
1761380415679081500,3.94008154296875,-0.00011603161692619324,0.003736160695552826,0.0001997447106987238
1761380415689164300,3.950164306640625,-0.00010747089982032776,0.0004404336214065552,0.0011253319680690765
1761380415699246300,3.960246337890625,-0.0002643316984176636,0.0015914523974061012,0.0006494249682873487
1761380415709328400,3.970328369140625,0.0011630561202764511,0.0012241699732840061,0.00042537692934274673
1761380415719411500,3.980411376953125,-0.00004335585981607437,0.0016441503539681435,-0.0008004760602489114
1761380415729493500,3.990493408203125,0.0006075268611311913,0.0015011942014098167,-0.001392143894918263
1761380415739575300,4.0005751953125,0.001579047180712223,0.00002393871545791626,0.0003165402449667454
1761380415749658400,4.010658447265625,-0.000919845886528492,0.0002094050869345665,0.0005227073561400175
1761380415759740400,4.020740478515625,-0.00015924684703350067,0.0024512545205652714,0.0010886290110647678
1761380415769823200,4.0308232421875,-0.0012183329090476036,0.0013708584010601044,0.0007455560844391584
1761380415779905300,4.0409052734375,0.0002093873918056488,-0.0005546072497963905,0.0011375732719898224
1761380415789987300,4.0509873046875,0.0004863729700446129,-0.0004329383373260498,-0.0000023909378796815872
1761380415800070400,4.0610703125,0.00026613008230924606,-0.00008060131222009659,-0.000059116166085004807
1761380415810152200,4.071152099609375,-0.0010492382571101189,-0.0008722692728042603,0.00009311782196164131
1761380415820234200,4.081234130859375,-0.0008034287020564079,-0.0005255257710814476,-0.0006706768181174994
1761380415830317300,4.0913173828125,0.000884433276951313,-0.0005600759759545326,-0.0005170992808416486
1761380415840399400,4.1013994140625,0.00013475306332111359,-0.0018860641866922379,-0.0015741079114377499
1761380415850481200,4.111481201171875,-0.0006583482027053833,-0.0006301207467913628,0.0031472640112042427
1761380415860564200,4.121564208984375,-0.0006833821535110474,0.00011583138257265091,0.0024359337985515594
1761380415870646300,4.131646240234375,0.00038961879909038544,0.000017270445823669434,-0.004058140330016613
1761380415880728300,4.141728271484375,0.0021787304431200027,0.0009568333625793457,0.0011805638205260038
1761380415890811400,4.151811279296875,-0.0007408373057842255,0.0015359269455075264,0.0016223848797380924
1761380415900893200,4.16189306640625,-0.002616235986351967,-0.0012103253975510597,-0.000307608162984252
1761380415910975200,4.171975341796875,-0.0006028907373547554,0.0013088453561067581,-0.0019703388679772615
1761380415921058300,4.182058349609375,0.000977695919573307,-0.00015589315444231033,-0.0029253484681248665
1761380415931140400,4.192140380859375,0.000359952449798584,-0.0010966453701257706,-0.0010735379764810205
1761380415941223400,4.202223388671875,-0.001253657042980194,0.00036356598138809204,-0.00008577154949307442
1761380415951305500,4.212305419921875,0.0004183407872915268,0.000169266015291214,0.002183381700888276
1761380415961387500,4.222387451171875,-0.0004421267658472061,-0.00010477285832166672,0.0033834020141512156
1761380415971470300,4.23247021484375,0.000006724148988723755,0.00211167661473155,0.0007303948514163494
1761380415981552600,4.242552734375,0.0018229996785521507,-0.0017107585445046425,-0.0019135914044454694
1761380415991634700,4.252634765625,0.003186582587659359,0.0013146940618753433,0.0005408488214015961
1761380416001717800,4.2627177734375,0.00020783673971891403,-0.0006041135638952255,-0.0006264146650210023
1761380416011799800,4.2727998046875,-0.0003725830465555191,0.0009609735570847988,-0.0007547091227024794
1761380416021881900,4.2828818359375,0.0014604702591896057,-0.00043239258229732513,0.0018197689205408096
1761380416031964700,4.292964599609375,0.0004629027098417282,-0.00039688218384981155,-0.0004664398729801178
1761380416042046700,4.303046630859375,-0.0018223552033305168,-0.0001795683056116104,-0.0016494160518050194
1761380416052128800,4.313128662109375,0.0007589608430862427,-0.0018766922876238823,0.0005712083075195551
1761380416062211800,4.3232119140625,-0.0001766076311469078,0.0010096412152051926,0.0015118368901312351
1761380416072293600,4.333293701171875,-0.0007429327815771103,0.00009119417518377304,0.0006480298470705748
1761380416082376700,4.343376708984375,-0.003888659179210663,0.0005908031016588211,0.00007092277519404888
1761380416092458800,4.353458740234375,-0.0007928060367703438,0.0015851538628339767,-0.0008689466631039977
1761380416102540800,4.363540771484375,-0.00025591254234313965,-0.001686273142695427,-0.003089223988354206
1761380416112623600,4.37362353515625,-0.0006981482729315758,-0.0021071042865514755,0.00015823263674974442
1761380416122705700,4.38370556640625,-0.00046858377754688263,0.0005307570099830627,-0.0011677552247419953
1761380416132787700,4.39378759765625,0.0002002529799938202,-0.0027672676369547844,0.0007077299524098635
1761380416142870800,4.403870849609375,-0.00003463774919509888,0.0014064386487007141,0.0011516788508743048
1761380416152952600,4.41395263671875,-0.0014536930248141289,-0.0009753555059432983,0.0002577181439846754
1761380416163034600,4.42403466796875,-0.0009428989142179489,0.0019202996045351028,-0.0032853514421731234
1761380416173117700,4.43411767578125,0.0009247083216905594,-0.0005387356504797935,0.0012589276302605867
1761380416183199700,4.44419970703125,-0.0011925045400857925,0.001131066121160984,-0.00001299823634326458
1761380416193281500,4.454281494140625,0.00033165235072374344,-0.0022554518654942513,0.00016528344713151455
1761380416203364600,4.464364501953125,-0.0007623741403222084,-0.0010735401883721352,-0.0030954908579587936
1761380416213446700,4.47444677734375,0.00012667756527662277,-0.0024438975378870964,0.002139515010640025
1761380416223528700,4.48452880859375,0.0004731547087430954,-0.0005003232508897781,-0.0004581323591992259
1761380416233611500,4.494611572265625,0.0011548232287168503,-0.0022715404629707336,0.00013367482461035252
1761380416243693600,4.504693603515625,-0.003077472560107708,0.0026126974262297153,-0.00258115166798234
1761380416253777000,4.51477685546875,-0.00041896384209394455,0.000884014181792736,0.000749948900192976
1761380416263858700,4.524858642578125,0.0006241956725716591,0.00045311450958251953,-0.0005712453275918961
1761380416273940700,4.534940673828125,0.0011004023253917694,0.0006920569576323032,-0.0008634284604340792
1761380416284023800,4.54502392578125,0.00092303566634655,0.0019903481006622314,-0.0009350674226880074
1761380416294105900,4.55510595703125,0.0019567981362342834,-0.0009224163368344307,-0.0029121199622750282
1761380416304187600,4.565187744140625,0.0003210846334695816,-0.0015831468626856804,0.001711926655843854
1761380416314270700,4.575270751953125,-0.002662348560988903,0.0012792805209755898,-0.0027836482040584087
1761380416324352800,4.585352783203125,0.0009233318269252777,-0.0013114428147673607,0.0010044318623840809
1761380416334434800,4.595434814453125,0.0009219013154506683,-0.0012005390599370003,7.729977369308472e-7
1761380416344517600,4.605517578125,-0.0016981158405542374,-0.0005565863102674484,-0.00009163864888250828
1761380416354599700,4.615599609375,-0.0008539948612451553,0.00011381786316633224,0.0011912917252629995
1761380416364681700,4.625681640625,-0.00013920292258262634,-0.00020469631999731064,0.0007436145097017288
1761380416374764800,4.635764892578125,-0.00009317602962255478,-0.00032098032534122467,0.001488532405346632
1761380416384846600,4.6458466796875,0.0014506587758660316,-0.0024216817691922188,0.0008917180821299553
1761380416394928600,4.6559287109375,-0.001098867505788803,0.000218147411942482,-0.0011554912198334932
1761380416405011700,4.66601171875,0.0010886536911129951,-0.002490554004907608,-0.0009240624494850636
1761380416415093800,4.67609375,-0.0004020584747195244,-0.0010863542556762695,-0.0003596814349293709
1761380416425176600,4.686176513671875,-0.00046304427087306976,0.00301624508574605,-0.0007607534062117338
1761380416435258600,4.696258544921875,0.00047749001532793045,-0.0003366991877555847,-0.0022457444574683905
1761380416445340700,4.706340576171875,-0.002262103371322155,-0.0015441766008734703,-0.002504337579011917
1761380416455423500,4.716423583984375,-0.0015718825161457062,0.00009188242256641388,-0.00031286710873246193
1761380416465505500,4.726505615234375,0.0003479905426502228,-0.0005723098292946815,0.0005073866341263056
1761380416475587600,4.736587646484375,-0.0016804374754428864,-0.0012335292994976044,-0.00006353296339511871
1761380416485671000,4.7466708984375,-0.0005038529634475708,0.00013427063822746277,-0.0024792863987386227
1761380416495752700,4.756752685546875,0.00020588189363479614,-0.00039319880306720734,-0.0022645804565399885
1761380416505834800,4.766834716796875,-0.0016135899350047112,-0.0007718997076153755,-0.0007899882039055228
1761380416515917800,4.776917724609375,0.0011832071468234062,-0.000033377669751644135,-0.0010699218837544322
1761380416525999900,4.786999755859375,0.0027539394795894623,-0.0015945229679346085,0.0010414321441203356
1761380416536081700,4.79708154296875,-0.0006224745884537697,0.0010853903368115425,-0.00022860965691506863
1761380416546164700,4.807164794921875,0.00033093709498643875,-0.0016083968803286552,0.0009801990818232298
1761380416556246800,4.817246826171875,-0.0014469288289546967,0.0007624551653862,-0.0030146355275064707
1761380416566328800,4.827328857421875,-0.0006104297935962677,-0.0012258607894182205,0.0012765158899128437
1761380416576411600,4.83741162109375,0.0009833918884396553,-0.0036519812420010567,-0.002380864229053259
1761380416586493700,4.84749365234375,-0.0003889352083206177,-0.000837286002933979,0.0007813733536750078
1761380416596576800,4.85757666015625,-0.0007576849311590195,0.0018084784969687462,0.002311470452696085
1761380416606658800,4.867658935546875,0.0005123764276504517,-0.0035926783457398415,0.0013753692619502544
1761380416616740600,4.87774072265625,0.0006870860233902931,0.0014869710430502892,0.003052260959520936
1761380416626823700,4.88782373046875,-0.0015678126364946365,-0.0013679377734661102,0.0012538284063339233
1761380416636905700,4.89790576171875,0.0011237850412726402,0.00200082128867507,-0.0013203388080000877
1761380416646987800,4.90798779296875,0.000887562520802021,-0.00204398762434721,0.0010008723475039005
1761380416657070600,4.918070556640625,0.0006261402741074562,0.0005763107910752296,0.0008119211997836828
1761380416667152600,4.928152587890625,0.00005808752030134201,0.0007824394851922989,-0.00014362111687660217
1761380416677234700,4.938234619140625,-0.00183048564940691,0.0013818703591823578,0.0020325640216469765
1761380416687317500,4.9483173828125,0.0012009898200631142,-0.0034038303419947624,0.00012600701302289963
1761380416697399600,4.958399658203125,0.0014047930017113686,0.002612822689116001,-0.000016825739294290543
1761380416707481600,4.968481689453125,0.0004005143418908119,0.00019174255430698395,-0.0022261841222643852
1761380416717564700,4.978564697265625,0.0003409748896956444,0.0004040747880935669,0.0002848959993571043
1761380416727646500,4.988646484375,0.002202790230512619,0.0004813065752387047,0.0018764010164886713
1761380416737728500,4.998728515625,-0.00009118765592575073,-0.00036638323217630386,0.00155163393355906
1761380416747811800,5.008811767578125,0.0017269523814320564,-0.0036500608548521996,-0.000026821624487638474
1761380416757894000,5.018893798828125,-0.001833418384194374,0.0012865052558481693,-0.0020317479502409697
1761380416767976700,5.028976806640625,-0.001315167173743248,-0.00008395779877901077,0.00017814314924180508
1761380416778058800,5.039058837890625,0.00023620948195457458,0.000302058644592762,-0.0018219349440187216
1761380416788140800,5.049140869140625,0.0019728560000658035,-0.00034215953201055527,-0.0003308309242129326
1761380416798223600,5.0592236328125,0.0005045784637331963,0.0005538836121559143,0.002405942417681217
1761380416808305700,5.0693056640625,0.00004704669117927551,-0.002731923945248127,-0.0017347405664622784
1761380416818387700,5.0793876953125,0.0006387475878000259,0.0013812552206218243,-0.0010286658070981503
1761380416828470800,5.089470703125,-0.0006076125428080559,0.0005572736263275146,0.001188149442896247
1761380416838552800,5.099552734375,0.0006348108872771263,0.0014663529582321644,-0.001090860809199512
1761380416848634600,5.109634521484375,0.0008944692090153694,-0.0009344872087240219,-0.0004943127278238535
1761380416858717700,5.1197177734375,-0.0004425458610057831,-0.0014613848179578781,0.000007495982572436333
1761380416868799700,5.1297998046875,0.00005573127418756485,-0.0014233021065592766,0.002351610455662012
1761380416878881800,5.1398818359375,-0.0005149543285369873,-0.0015265876427292824,0.00005243229679763317
1761380416888964600,5.149964599609375,-0.0004965784028172493,-0.0011705225333571434,-0.002679438330233097
1761380416899046700,5.160046630859375,-0.001905321143567562,0.0013112514279782772,0.0013734097592532635
1761380416909128700,5.170128662109375,-0.0018238285556435585,0.00020417571067810059,0.0005374436732381582
1761380416919211500,5.18021142578125,-0.00015291664749383926,-0.0017368122935295105,0.0026104566641151905
1761380416929293600,5.19029345703125,0.0016907891258597374,0.0013484596274793148,0.0016248207539319992
1761380416939375600,5.200375732421875,0.00002008303999900818,-0.0021535009145736694,0.001656724140048027
1761380416949458700,5.210458740234375,-0.002369571477174759,0.0013562794774770737,-0.00011987052857875824
1761380416959540500,5.22054052734375,0.0010853549465537071,0.0010547409765422344,0.00005788472481071949
1761380416969623800,5.230623779296875,-0.0016217483207583427,-0.00037644151598215103,-0.0005751486169174314
1761380416979705900,5.240705810546875,0.0011143051087856293,-0.003435087390244007,0.0001171755138784647
1761380416989784000,5.2507841796875,0.000341721810400486,0.00239963224157691,-0.00031771883368492126
1761380416999867100,5.2608671875,0.0008856430649757385,-0.0010008476674556732,0.0019031912088394165
1761380417009949200,5.27094921875,0.0005186591297388077,-0.00025968998670578003,-0.0010198946110904217
1761380417020031200,5.28103125,-0.0018322207033634186,0.0016395328566432,0.0002527476754039526
1761380417030114000,5.291114013671875,0.00044691283255815506,-0.001880100928246975,-0.0013717805268242955
1761380417040196000,5.301196044921875,-0.0008164793252944946,-0.0033685360103845596,0.0009984427597373724
1761380417050278100,5.311278076171875,0.0018067341297864914,0.0003455076366662979,0.0001467638649046421
1761380417060361200,5.321361328125,-0.0008936338126659393,-0.001805730164051056,0.002100786194205284
1761380417070443300,5.331443359375,0.0005543269217014313,-0.00046935584396123886,0.00030608195811510086
1761380417080525000,5.341525146484375,-0.0019224826246500015,-0.0019463300704956055,-0.0019552423618733883
1761380417090608000,5.351608154296875,0.00016729999333620071,-0.0010389909148216248,0.0012493394315242767
1761380417100690200,5.361690185546875,0.0020053237676620483,-0.0007731113582849503,-0.0017092523630708456
1761380417110772200,5.371772216796875,-0.0028517497703433037,-0.0004468737170100212,0.0006987778469920158
1761380417120855000,5.38185498046875,0.002320169471204281,0.00017326977103948593,-0.0038530915044248104
1761380417130937000,5.39193701171875,0.0005907127633690834,-0.0011298153549432755,0.0010457932949066162
1761380417141019100,5.40201904296875,-0.0009501492604613304,0.0003603007644414902,0.0018307699356228113
1761380417151102000,5.41210205078125,0.0024632252752780914,-0.001501249149441719,0.000427816528826952
1761380417161184000,5.42218408203125,0.001901734620332718,0.00004632677882909775,-0.0006806812016293406
1761380417171266000,5.43226611328125,-0.0021241651847958565,-0.0011779284104704857,0.001075939740985632
1761380417181349000,5.44234912109375,0.0010220669209957123,0.0008216695860028267,-0.001071718754246831
1761380417191431200,5.45243115234375,0.0010787919163703918,0.0007436387240886688,-0.0019063533982262015
1761380417201514000,5.462513916015625,-0.00014412403106689453,0.0016531208530068398,0.0005194866098463535
1761380417211596000,5.472595947265625,0.0019448595121502876,-0.00029871053993701935,-0.0006461789598688483
1761380417221678000,5.482677978515625,0.001936209388077259,-0.0006184447556734085,-0.0003308362793177366
1761380417231761200,5.49276123046875,-0.0013621151447296143,-0.001935112290084362,0.00005079456605017185
1761380417241843200,5.50284326171875,-0.0009293751791119576,-0.001367790624499321,0.004280557855963707
1761380417251925200,5.51292529296875,-0.00136613380163908,-0.003538799472153187,0.00034147617407143116
1761380417262008000,5.523008056640625,0.0011040372774004936,-0.00005138665437698364,-0.0006193069275468588
1761380417272090000,5.533090087890625,-0.0008954638615250587,-0.0008814940229058266,0.0002789772115647793
1761380417282172200,5.543172119140625,0.00048629753291606903,-0.0002256995067000389,0.0006878054700791836
1761380417292255200,5.553255126953125,0.0026429258286952972,-0.0008760429918766022,0.0019669216126203537
1761380417302337300,5.563337158203125,0.0006711455062031746,0.002054091077297926,0.00038317637518048286
1761380417312419000,5.573419189453125,0.0007055001333355904,0.00033342279493808746,0.001416482962667942
1761380417322502100,5.583502197265625,-0.0005802083760499954,0.0011352249421179295,0.001083088805899024
1761380417332584200,5.593584228515625,0.0009777406230568886,-0.00005068071186542511,-0.0019222884438931942
1761380417342666200,5.603666259765625,0.0005096625536680222,0.001803460530936718,-0.0028855018317699432
1761380417352749000,5.6137490234375,-0.0004072636365890503,0.0006287405267357826,0.0019750334322452545
1761380417362831000,5.6238310546875,-0.0009448621422052383,0.001149903517216444,0.0005115440580993891
1761380417372913200,5.6339130859375,-0.0003557708114385605,-0.0018797088414430618,0.001971755176782608
1761380417382996000,5.643995849609375,0.000989757478237152,0.0010891403071582317,0.0014443269465118647
1761380417393078000,5.654078125,0.0009599300101399422,-0.0022608498111367226,0.0011729507241398096
1761380417403160000,5.66416015625,0.0006685638800263405,0.0011545880697667599,0.0007656626403331757
1761380417413243100,5.6742431640625,-0.0008592912927269936,-0.002363181672990322,-0.00033715227618813515
1761380417423325200,5.6843251953125,-0.0006774896755814552,0.0006337324157357216,-0.0007080916548147798
1761380417433407000,5.694406982421875,0.0016751466318964958,-0.0022872230038046837,0.0014205730985850096
1761380417443490000,5.704489990234375,0.000978013500571251,0.0036002551205456257,-0.0013958164490759373
1761380417453572000,5.714572021484375,0.0025788405910134315,0.0011775773018598557,0.0010241980198770761
1761380417463655200,5.7246552734375,0.0008938554674386978,-0.001034553162753582,-0.0003780119586735964
1761380417473737000,5.734737060546875,0.00006854254752397537,-0.002802891656756401,-0.00046190153807401657
1761380417483819000,5.744819091796875,0.001110561192035675,-0.002127266488969326,-0.0019904430955648422
1761380417493902000,5.754902099609375,0.0006471714004874229,-0.001537376083433628,0.000512928469106555
1761380417503984000,5.764984130859375,0.0007477598264813423,0.0006414949893951416,-0.001350443228147924
1761380417514066200,5.775066162109375,0.0008191326633095741,0.0005219187587499619,-0.00024496507830917835
1761380417524149200,5.785149169921875,-0.0007736561819911003,-0.0021797195076942444,0.0022529715206474066
1761380417534231300,5.795231201171875,0.001014922745525837,-0.0004997970536351204,-0.00247360672801733
1761380417544313000,5.80531298828125,-0.0007302211597561836,0.0016776262782514095,0.00025759381242096424
1761380417554396200,5.815396240234375,-0.0016500763595104218,-0.00019351020455360413,0.0021279321517795324
1761380417564478200,5.825478271484375,-0.0011659208685159683,-0.0003752708435058594,0.000047726789489388466
1761380417574560300,5.835560302734375,-0.00037203263491392136,-0.0005987100303173065,-0.002736341906711459
1761380417584643000,5.84564306640625,-0.0013957908377051353,-0.0015802988782525063,0.0005616373382508755
1761380417594725000,5.85572509765625,-0.00038192514330148697,0.0017920616082847118,0.0006734901107847691
1761380417604807200,5.86580712890625,0.001055191271007061,0.00026945024728775024,-0.0013821294996887445
1761380417614890000,5.875889892578125,-0.0008012987673282623,0.0006729187443852425,-0.001032722764648497
1761380417624972000,5.885971923828125,-0.0004307720810174942,-0.002436595968902111,-0.0008537402609363198
1761380417635054000,5.89605419921875,-0.0009689973667263985,0.0014233896508812904,-0.001627654884941876
1761380417645137200,5.90613720703125,0.0015701521188020706,-0.0015150168910622597,-0.0019981765653938055
1761380417655219200,5.91621923828125,0.0005078176036477089,0.0014022099785506725,0.0021957694552838802
1761380417665301000,5.926301025390625,0.001967286691069603,-0.0009278003126382828,0.002065653447061777
1761380417675384000,5.936384033203125,-0.0007605897262692451,0.002431777771562338,-0.00045742548536509275
1761380417685466000,5.946466064453125,-0.002526109106838703,0.0005223657935857773,-0.00017516803927719593
1761380417695548200,5.956548095703125,0.0002379855141043663,0.0016368981450796127,0.002088252454996109
1761380417705631000,5.966630859375,0.000543433241546154,-0.0042488230392336845,0.0002933547366410494
1761380417715713000,5.976713134765625,0.002107507549226284,0.0005086474120616913,0.0004491496365517378
1761380417725795000,5.986795166015625,0.0003081485629081726,-0.002338710241019726,-0.000844537396915257
1761380417735878100,5.996878173828125,0.00095316581428051,0.001692250370979309,-0.0006719646044075489
1761380417745960200,6.006960205078125,-0.002974012866616249,0.00016937125474214554,0.0033386684954166412
1761380417756042000,6.0170419921875,0.000046011991798877716,-0.0008681965991854668,0.0033578434959053993
1761380417766125300,6.027125244140625,-0.001649264246225357,-0.0012156441807746887,0.0028747660107910633
1761380417776207000,6.03720703125,0.0002647489309310913,0.0020376737229526043,-0.0025628763251006603
1761380417786290200,6.047290283203125,0.001960071735084057,-0.0006582662463188171,0.0009718725923448801
1761380417796372200,6.057372314453125,0.000010372139513492584,-0.0013325782492756844,0.0002259211614727974
1761380417806454300,6.067454345703125,-0.0018402514979243279,-0.0016923928633332253,0.001013782573863864
1761380417816537000,6.077537109375,0.0010484792292118073,0.00001602526754140854,0.0007964684627950191
1761380417826619100,6.087619140625,0.0008006906136870384,0.0007398296147584915,0.0006310022436082363
1761380417836701200,6.097701171875,0.0006622066721320152,0.00297155836597085,-0.0011868714354932308
1761380417846784000,6.107783935546875,-0.00037582870572805405,-0.0013350220397114754,-0.000906907138414681
1761380417856866000,6.117865966796875,0.0006726579740643501,0.0009715412743389606,0.0011796795297414064
1761380417866948000,6.127947998046875,0.00014502182602882385,-0.0002983417361974716,0.0006391545757651329
1761380417877031200,6.13803125,-0.0005758963525295258,-0.0015870453789830208,-0.002200840273872018
1761380417887113200,6.14811328125,-0.002024552784860134,0.000027504749596118927,-0.000007854774594306946
1761380417897195000,6.158195068359375,0.0028564883396029472,-0.0010263081640005112,0.0013847120571881533
1761380417907278000,6.168278076171875,0.0001774020493030548,-0.0007789433002471924,-0.0007797486614435911
1761380417917360000,6.178360107421875,-0.00009610410779714584,-0.00079385656863451,-0.000006100395694375038
1761380417927442200,6.188442138671875,0.0007158480584621429,-0.0011722967028617859,-0.00041426997631788254
1761380417937525000,6.19852490234375,0.0004761628806591034,-0.0014308895915746689,-0.00016313372179865837
1761380417947607000,6.20860693359375,-0.000866524875164032,-0.00034902989864349365,-0.0019082401413470507
1761380417957689000,6.218689208984375,0.0005406895652413368,0.0004334067925810814,0.00029765604995191097
1761380417967772000,6.22877197265625,-0.0011257296428084373,0.0010915864259004593,0.00020375032909214497
1761380417977854000,6.23885400390625,-0.001544645056128502,0.0022636433131992817,0.0011944463476538658
1761380417987935200,6.248935302734375,-0.0007477477192878723,0.0017783213406801224,0.002545097377151251
1761380417998018300,6.259018310546875,-0.002413555048406124,0.001837975811213255,-0.00017319130711257458
1761380418008100400,6.269100341796875,0.0008541392162442207,0.0029113152995705605,0.00038336473517119884
1761380418018182400,6.279182373046875,-0.0012220609933137894,-0.0007238993421196938,0.0010797814466059208
1761380418028265200,6.28926513671875,0.0003038104623556137,0.0010878578759729862,0.0008116057142615318
1761380418038347300,6.29934716796875,-0.0018794490024447441,-0.0020304378122091293,0.00035727047361433506
1761380418048429300,6.30942919921875,0.00007035862654447556,0.0014706836082041264,-0.000693456968292594
1761380418058512100,6.31951220703125,-0.0017248783260583878,-0.0023091407492756844,0.0013601065147668123
1761380418068594200,6.32959423828125,0.0013196542859077454,-0.0007341466844081879,0.0009014483075588942
1761380418078676200,6.33967626953125,-0.000993034802377224,0.0001545501872897148,-0.0006242766976356506
1761380418088759300,6.34975927734375,-0.0011719074100255966,0.003683230374008417,0.0006483288016170263
1761380418098841000,6.359841064453125,-0.0001087728887796402,-0.0006942078471183777,0.0009117154404520988
1761380418108924200,6.369924072265625,-0.0012776749208569527,-0.00017963629215955734,-0.0017743189819157124
1761380418119006200,6.380006103515625,-0.0009889882057905197,-0.0012393081560730934,-0.0010795003036037087
1761380418129088300,6.390088134765625,0.0006959186866879463,0.0013826219365000725,0.0031589295249432325
1761380418139171000,6.400171142578125,-0.0004678824916481972,-0.0008214106783270836,-0.0029698028229177
1761380418149253000,6.410253173828125,-0.0001081591472029686,-0.001203392632305622,0.0007547792047262192
1761380418159335200,6.420335205078125,0.00234887283295393,0.00043045636266469955,-0.001607444602996111
1761380418169418200,6.430418212890625,-0.00027091987431049347,-0.0008106371387839317,-0.0010762547608464956
1761380418179500300,6.440500244140625,0.0007227053865790367,0.00027273688465356827,-0.0014568204060196877
1761380418189582300,6.450582275390625,0.0005917120724916458,0.002335410099476576,0.0018459500279277563
1761380418199665400,6.46066552734375,0.0006966413930058479,0.00022165942937135696,0.0023341074120253325
1761380418209747200,6.470747314453125,0.0005604447796940804,0.0022823368199169636,0.0023027509450912476
1761380418219829200,6.480829345703125,0.0007402077317237854,-0.0021941708400845528,-0.004011604003608227
1761380418229912300,6.490912353515625,-0.0002645906060934067,-0.0005161166191101074,0.00009410013444721699
1761380418239994400,6.500994384765625,0.0011383630335330963,0.0006567398086190224,0.0017713590059429407
1761380418250076400,6.511076416015625,-0.0014976505190134048,-0.00045477692037820816,-0.0016842186450958252
1761380418260159200,6.5211591796875,-0.00003344472497701645,0.02249900810420513,0.012588726356625557
1761380418270241300,6.5312412109375,0.002842772752046585,0.0623980313539505,0.03962666913866997
1761380418280323300,6.5413232421875,0.0009886808693408966,0.0677320808172226,0.0423516146838665
1761380418290406100,6.55140625,-0.000727442093193531,0.09321083873510361,0.058952298015356064
1761380418300488200,6.56148828125,-0.002160489559173584,0.13668854534626007,0.08561213314533234
1761380418310570200,6.5715703125,-0.004529071971774101,-0.020594552159309387,-0.015779465436935425
1761380418320653300,6.5816533203125,0.006054861471056938,-0.00003654602915048599,-0.0013885416556149721
1761380418330735000,6.591735107421875,-0.001312408596277237,-0.048479411751031876,-0.029525965452194214
1761380418340817200,6.601817138671875,-0.003508984111249447,-0.22634901106357574,-0.1414373219013214
1761380418350900200,6.611900146484375,-0.00024453364312648773,-0.22372271120548248,-0.142211452126503
1761380418360982300,6.621982177734375,-0.0009321626275777817,0.09740791469812393,0.06504960358142853
