time,seconds_elapsed,z,y,x
1761379421016500500,0.06250048828125,0.4867302084982395,0.7155950782299041,0.20047223039679227
1761379421026582500,0.07258251953125,0.5317091679096222,1.1421277884621173,0.17709862480033187
1761379421036664600,0.08266455078125,0.38094694403409957,1.5157634596347809,0.11756105174776166
1761379421046747600,0.09274755859375,0.31375615281462665,1.8255571385592222,-0.04665284744035452
1761379421056829400,0.102829345703125,0.22924422443807124,2.0185244732186196,-0.20092074134927243
1761379421066911500,0.112911376953125,0.1383142457127571,2.049381237644702,-0.4256562561912462
1761379421076993500,0.12299365234375,0.2721720965385437,1.9028589894264936,-0.707376115939021
1761379421087075600,0.13307568359375,0.4495066855192184,1.6082798307687043,-0.9240383605711161
1761379421097157400,0.143157470703125,0.2954121023505926,1.51091119729802,-0.9566464256439358
1761379421107239400,0.153239501953125,0.28642624734044075,1.4533091954179107,-1.0420892781950533
1761379421117321500,0.163321533203125,0.20876433098912237,1.2905623731076716,-1.0257855013869701
1761379421127403500,0.173403564453125,-0.25896599348485466,1.1703118996128439,-0.8265182628657668
1761379421137485600,0.183485595703125,-0.45255379813015456,0.6772305685222149,-0.5440213177982718
1761379421147567600,0.193567626953125,-0.903860226547718,0.11068937587998806,-0.060553033705428236
1761379421157649400,0.2036494140625,-1.4030354905992746,-0.20720862597972153,0.42984581683557477
1761379421167731500,0.2137314453125,-1.1524708302348852,-0.603187719450891,0.7632170994959772
1761379421177814500,0.223814453125,-0.6371294442802667,-1.24368868599087,0.776109168164432
1761379421187896600,0.233896484375,0.06121288585364818,-2.4312656086593867,0.2469783080439083
1761379421197978600,0.243978515625,0.9059609982192516,-3.596738251547515,-0.2551653590928763
1761379421208060400,0.254060302734375,1.3783435324132443,-3.813364401952922,-0.47532169291842724
1761379421218142500,0.264142578125,0.799102797999978,-2.3921689852848647,-1.0074219425048678
1761379421228224500,0.274224609375,-0.06304185484647751,-1.1869502421375364,-1.5325532663941381
1761379421238306600,0.284306640625,-0.20198972228765485,-1.0781944646686314,-1.4197867189139126
1761379421248388600,0.294388671875,-0.5925690025418996,-1.2775829184167087,-0.7346352211993187
1761379421258470700,0.304470703125,-0.9118436265170574,-1.232738106779009,-0.2389737191560678
1761379421268552400,0.314552490234375,-1.0599784244984387,-0.9586030396044254,-0.08275880109891295
1761379421278634500,0.324634521484375,-0.6395353363782167,-0.32601642638556655,-0.3915156843215227
1761379421288716500,0.334716552734375,-0.5456587828069925,0.13625702092200517,-0.4086431986026466
1761379421298798600,0.344798583984375,-1.3457809869825839,0.22389709125645457,-0.01955291479714215
1761379421308881400,0.35488134765625,-1.5849217515349387,-0.00819368171915412,0.4321560300067067
1761379421318963500,0.36496337890625,-1.2612304801613092,-0.13769881722815333,0.59447527455464
1761379421329045500,0.37504541015625,-0.5396493132591247,-0.03192527044042945,0.2902717437874526
1761379421339127600,0.38512744140625,0.13376432732343674,0.17524879568256438,0.16467194515392183
1761379421349209600,0.395209716796875,0.6022136137217283,0.23861374500356614,0.4486908390916884
1761379421359291600,0.405291748046875,0.5427601387560367,0.19624007271975277,0.727377066764608
1761379421369373400,0.41537353515625,0.4044780417472124,0.11027619196921587,0.8969692249249667
1761379421379455500,0.42545556640625,0.3723883745253086,0.07314915163461118,0.862035639514029
1761379421389537500,0.43553759765625,0.2995470101982355,0.14116536082755773,0.6834445476662367
1761379421399619600,0.44561962890625,0.12418167546391487,0.26995906013157217,0.338021117760241
1761379421409701600,0.45570166015625,0.09745324301421641,0.34833201082907617,-0.11322422811985015
1761379421419783700,0.46578369140625,0.24673370389938354,0.5293647967405617,-0.3168814452283084
1761379421429866500,0.475866455078125,0.35155426081120966,0.40394572496879844,-0.27238259748406707
1761379421439948500,0.485948486328125,0.269109201836586,-0.03714028340866789,-0.15065861737057565
1761379421450030600,0.496030517578125,0.14456512280106543,-0.25409254222959277,-0.12947905121967196
1761379421460112600,0.506112548828125,0.16543839948177336,-0.33434604597669093,0.017077537659555674
1761379421470194700,0.516194580078125,0.22962708627581596,-0.5481995167983695,0.11967808043435216
1761379421480276500,0.5262763671875,0.29294541997611523,-0.7685100182723253,-0.058159489632397886
1761379421490358500,0.536358642578125,0.19532091204822064,-0.6730266140263528,-0.33628548960667104
1761379421500440600,0.546440673828125,0.032225860822200775,-0.6030557271016761,-0.5499972504027187
1761379421510522600,0.556522705078125,0.044453474232554434,-0.7225218087531626,-0.5631945490954443
1761379421520604700,0.566604736328125,-0.015682137778401373,-0.8304311254605651,-0.42771567293908447
1761379421530686700,0.576686767578125,-0.2902560347616672,-0.9260318724758922,-0.2603136087015271
1761379421540769500,0.58676953125,-0.5594447315752505,-0.4221357539149001,-0.1326260440085083
1761379421550851600,0.5968515625,-0.620713147008419,0.3412437330685556,-0.04865596742369234
1761379421560933600,0.60693359375,-0.5132926367312669,0.5622757537500932,0.0007835515931248664
1761379421571015700,0.617015625,-0.33343466675281525,0.3146129523070529,0.14717530529946088
1761379421581097700,0.62709765625,-0.3122404875546694,0.13475235198009758,0.08576032100245357
1761379421591179500,0.637179443359375,-0.43369829101264473,0.17683352585704995,-0.23899178453572092
1761379421601261600,0.647261474609375,0.19039748417139052,-0.141674223665148,-0.224284702334553
1761379421611343600,0.657343505859375,0.5855769516974687,-0.5954458366198465,0.2721978155016899
1761379421621425700,0.66742578125,0.37677754939496516,-0.5730538624718785,0.6217969236571341
1761379421631507700,0.6775078125,0.1083639286071062,0.06022478813175112,0.24395021066069603
1761379421641589800,0.68758984375,0.3370785762131214,0.2562935594052076,0.013729944264702499
1761379421651671600,0.697671630859375,-0.019830489629507064,0.023767682947963473,-0.03631809857189655
1761379421661754600,0.707754638671875,-0.5345522823810577,0.08462967300470918,0.010953428756073117
1761379421671836700,0.717836669921875,-0.5289332734555006,0.1418625493114814,-0.00011642945390194654
1761379421681918700,0.727918701171875,-0.6610615240097045,0.10645564730037003,-0.02640961229149252
1761379421692000500,0.73800048828125,-0.5594447315752505,-0.11947594545837491,0.12628452949468047
1761379421702082600,0.74808251953125,-0.17020809810161588,-0.32002361571155485,0.15300152723491192
1761379421712164600,0.75816455078125,0.2271937216490507,-0.13797346945106984,0.07751856235787272
1761379421722246700,0.76824658203125,0.2616711607903242,-0.09728862703703343,0.23591708979811518
1761379421732328700,0.77832861328125,0.21735271111428736,-0.03448887385074049,0.47407322722729295
1761379421742410800,0.78841064453125,0.11221242072880268,-0.19102478575687853,0.3746373224958777
1761379421752492500,0.798492431640625,0.1917266869485378,-0.45434111993834375,0.20437603290230036
1761379421762574600,0.80857470703125,0.4533411491155624,-0.4716852726448327,0.09578117248299531
1761379421772657700,0.81865771484375,0.5248901355445384,-0.1524877324938774,-0.1468176235687453
1761379421782739700,0.82873974609375,0.48401744240820405,0.30756007465347646,-0.4195665244814008
1761379421792821800,0.83882177734375,-0.009978373178839683,0.6155161628872156,-0.40812907506804913
1761379421802903600,0.848903564453125,-0.40922552853524685,0.1443845055371523,-0.06476596609218976
1761379421812985600,0.858985595703125,-0.564583848029375,-0.37687030571233476,0.10743405474531463
1761379421823067600,0.869067626953125,-0.1177227085828781,-0.3795638921778649,-0.052684875879902386
1761379421833149700,0.879149658203125,0.5750473743766545,-0.3499356466334313,-0.12642824881430714
1761379421843231700,0.889231689453125,1.119732928237319,-0.1114018349982798,-0.25301881205085663
1761379421853313800,0.899313720703125,1.3244400927901268,-0.006107742290571332,-0.292809829164017
1761379421863395300,0.909395263671875,1.1131032809644936,-0.3281589183069765,0.25151768677290526
1761379421873478700,0.919478759765625,0.311290054962039,-0.2505526776656508,0.6720056004155427
1761379421883560700,0.929560791015625,0.3285089007884264,0.09467007856909185,0.2689062996756285
1761379421893642800,0.939642822265625,0.11229659188091755,0.12541943709794431,-0.16665336476210504
1761379421903724500,0.949724609375,0.21152385883033276,-0.1679791334731504,-0.3205788384415209
1761379421913806600,0.959806640625,0.31542204020023346,-0.1836295609390363,-0.6730184307198971
1761379421923888600,0.969888671875,0.06237608441412448,0.2685684825560078,-1.0370928581472485
1761379421933970400,0.979970458984375,-0.11802958257496356,0.11720708721093832,-0.7109799125846475
1761379421944052500,0.990052490234375,-0.372322323551774,-0.4010188777366653,0.20311587677337228
1761379421954134500,1.000134521484375,-0.3444984970808029,-0.3600906184881925,0.47927828505709763
1761379421964216600,1.010216552734375,0.01139934589266777,-0.007903283937834203,0.2986229906884953
1761379421974299600,1.020299560546875,0.5096101488262414,-0.06297985899355261,0.17976020869240164
1761379421984381700,1.030381591796875,0.8034329361587762,-0.11387542203757911,0.09072366989771835
1761379421994460400,1.04046044921875,0.9072071988880633,0.002319638586603105,-0.019354159088339654
1761379422004542500,1.05054248046875,0.5807569841951131,-0.00872066473532468,0.07767086684275418
1761379422014624300,1.060624267578125,0.17260639141499995,0.0023765929382294415,0.30104152307230975
1761379422024706300,1.070706298828125,0.1246288347095251,0.08767795465942471,0.28007589193303134
1761379422034788400,1.080788330078125,0.18415829752087592,-0.08105780586730689,-0.01861606320529245
1761379422044870400,1.090870361328125,0.19739362666904925,-0.12273874664660543,-0.38114151675812896
1761379422054952400,1.100952392578125,0.38229952768683434,0.033836109030433,-0.6928226168643683
1761379422065034500,1.111034423828125,0.5557189890503883,0.12518139055836944,-0.9098054717529565
1761379422075117300,1.121117431640625,0.31424890476763245,0.25215176515905185,-0.7387869340512901
1761379422085199400,1.131199462890625,-0.04805763620436191,0.1424545603878796,-0.23824670178946106
1761379422095281400,1.141281494140625,-0.2098123787373304,0.06580472542224451,0.1626997682981193
1761379422105363500,1.151363525390625,-0.11988193244338034,-0.01095507272388786,0.06772778873958159
1761379422115445200,1.1614453125,-0.22866028707027433,0.5622428378611802,-0.24555010187169535
1761379422125527300,1.17152734375,0.2235685168892145,0.8128039910942315,-0.22099409982394425
1761379422135609300,1.181609375,0.8603349730759858,-0.06633751712469384,-0.08522871661009267
1761379422145691400,1.19169140625,0.7035135952919721,-0.47048053649757055,-0.05152359528187662
1761379422155773400,1.2017734375,0.3056973495215177,-0.18367557377154006,0.1531590376178734
1761379422165855500,1.21185546875,-0.49352936711907386,-0.03429497698014602,0.4324658996734768
1761379422175938300,1.221938232421875,-0.9483242221742868,-0.007335841047111899,0.45946781530231234
1761379422186020400,1.232020263671875,-0.8593091371595859,0.19576843662001192,0.2982613725681789
1761379422196102400,1.242102294921875,-0.6460322971820831,0.060974747982528055,-0.03062164049595594
1761379422206184400,1.252184326171875,-0.08335399051308631,-0.18494413240263238,-0.13860891781039536
1761379422216266500,1.2622666015625,0.29646424175202846,-0.24145826598079873,-0.045175395298935474
1761379422226348300,1.272348388671875,0.2734802565276623,-0.19421463130675254,0.13601426167469471
1761379422236430300,1.282430419921875,-0.21254268048405647,-0.3685116792224347,0.475025632581301
1761379422246512400,1.292512451171875,-0.9128057495474815,-0.3943531362371519,0.6206148742657155
1761379422256594400,1.302594482421875,-1.0470283420324324,-0.21534931713631375,0.40882710380218923
1761379422266677500,1.312677490234375,-0.5843371807694435,-0.1787145538306795,0.24191965468116103
1761379422276759300,1.32275927734375,0.015321487772464752,-0.16847442444311453,0.1602191487298347
1761379422286841300,1.33284130859375,0.3564420328527689,-0.44605793330483134,0.033604747959971426
1761379422296923400,1.34292333984375,0.6104863520264625,-0.8863734505001455,0.17585308171864597
1761379422307005400,1.35300537109375,0.7604542106539011,0.12062292353641241,-0.035196346266660836
1761379422317087500,1.36308740234375,0.5988257248491049,-0.06379205215927213,-0.2325612400315702
1761379422327169500,1.37316943359375,0.4649836561143398,-0.2202889472292736,-0.2145968913338147
1761379422337251300,1.383251220703125,0.4836977089345455,0.023692407488357273,-0.031543778575863685
1761379422347333400,1.39333349609375,0.4438251327514648,0.0813299738721922,0.1145673863571137
1761379422357416400,1.40341650390625,0.28244331518411636,0.030072363449586553,-0.06130726787252351
1761379422367498500,1.41349853515625,0.27428338960409165,0.11216117459875531,-0.1226957660214044
1761379422377580300,1.423580322265625,0.30171149475574494,0.12130465872287749,-0.0872066838858649
1761379422387662300,1.433662353515625,-0.008857260194420813,0.03718910011961125,-0.20552933112327007
1761379422397744400,1.443744384765625,-0.02625847685039043,0.027455879074567927,-0.25031039334237576
1761379422407826400,1.453826416015625,-0.04733692071437835,0.0002672361014410853,-0.060863743622414763
1761379422417908500,1.463908447265625,-0.29501228937804697,0.0013745397562161088,-0.013337876207195221
1761379422427990500,1.473990478515625,-0.21770576233565805,-0.2351541243352927,-0.20211020686216652
1761379422438072300,1.484072265625,-0.08604629833698273,-0.20805947065539657,-0.2849214688006788
1761379422448155400,1.4941552734375,0.04689794477522373,0.0865705505399499,-0.35791082676369695
1761379422458237400,1.504237548828125,0.04241816901266575,-0.09275179645814932,-0.11337993013821542
1761379422468319500,1.514319580078125,-0.10651917752325535,-0.2586286878218874,0.01803184270970523
1761379422478401500,1.524401611328125,0.11206161408126354,0.013304266198538243,-0.12802735457401723
1761379422488483300,1.5344833984375,0.08603110076785087,-0.04492877272726036,0.028608620173111558
1761379422498565400,1.5445654296875,-0.08566226745545863,-0.4787860080281272,0.21582162908948957
1761379422508647400,1.5546474609375,-0.22849136024415492,0.003406931499810889,0.07979337542206048
1761379422518729500,1.5647294921875,-0.044536476340889926,0.29783923816597085,-0.22184468877129254
1761379422528811500,1.5748115234375,-0.06138064363598823,-0.3686301910355687,-0.09570373246576637
1761379422538894300,1.584894287109375,-0.20840835715830325,-0.3632829482560977,-0.08871270453464239
1761379422548976400,1.594976318359375,-0.18811784880161284,-0.25220970589136704,-0.09572846504822373
1761379422559058400,1.605058349609375,-0.3211176214933395,-0.10637001484353095,0.01118946600165218
1761379422569140500,1.615140380859375,-0.20246143145263193,-0.13822987363124264,0.14475954939462243
1761379422579222500,1.625222412109375,-0.0517792870759964,-0.13660861997180618,0.1115381747290492
1761379422589304300,1.63530419921875,0.17054536723196506,-0.08215147372237407,0.1885131682621315
1761379422599386400,1.645386474609375,0.4040425729393959,-0.10134338232055305,0.22523078754562884
1761379422609468400,1.655468505859375,0.2396937222599983,0.07678017421388067,0.07878788817394525
1761379422619550500,1.665550537109375,0.19226093995571136,0.21108680085362866,-0.018952537751197814
1761379422629633500,1.675633544921875,0.16491642143428326,-0.19055318618975578,0.21092318952344358
1761379422639715300,1.68571533203125,-0.10404548088610172,-0.1591553188906051,0.19381642576940356
1761379422649797400,1.69579736328125,-0.24600889675617216,-0.07857596245631575,0.09718458214066922
1761379422659879400,1.70587939453125,-0.11479893009066582,-0.08238772103050723,0.014333718844130634
1761379422669961500,1.71596142578125,0.03912906433939933,-0.04345305588520132,-0.07366181386448442
1761379422680043500,1.72604345703125,0.19101240119934082,-0.0149835975876078,-0.16151125263329594
1761379422690125600,1.73612548828125,0.14396657238602636,0.05878819772368297,-0.2510087508700788
1761379422700207400,1.746207275390625,-0.11225801343619823,0.057714047419838606,-0.23354919162299484
1761379422710290400,1.75629052734375,-0.2942144169986248,0.04736763551305048,-0.1459947172127664
1761379422720372500,1.76637255859375,-0.3297667918950319,0.024891042688395825,-0.056419623695127666
1761379422730454500,1.77645458984375,-0.16279519149661062,-0.017631984071386976,-0.046937692263722415
1761379422740536600,1.78653662109375,-0.04437339473366737,-0.06445807831995189,-0.039427462764084334
1761379422750618400,1.796618408203125,0.020039163944125173,0.021688940445147454,-0.07895484223868697
1761379422760700400,1.806700439453125,0.07837035688161849,-0.046356586173828686,-0.0670194167079404
1761379422770782500,1.816782470703125,0.032786417314410204,-0.11424314110511913,-0.030735658797062932
1761379422780864500,1.826864501953125,-0.026148586735129355,-0.0797929278974887,-0.03833743903767317
1761379422790946600,1.836946533203125,0.01610240901708603,-0.010958369792671873,-0.06963913421966135
1761379422801029400,1.847029296875,0.11106734234690666,0.06711586281973868,-0.08561978002060204
1761379422811111400,1.857111328125,0.2125233912616968,0.07558561240076087,-0.06494074727036059
1761379422821193500,1.867193359375,0.3167641024589538,0.06854629748165607,-0.05194353772699833
1761379422831275500,1.877275634765625,0.3968482775211334,0.09098338027982972,-0.08072221723739058
1761379422841357600,1.887357666015625,0.4426046510457992,0.09466628830996342,-0.08399488223250955
1761379422851439400,1.897439453125,0.4379512722820043,-0.20940493044760078,0.08568933812547475
1761379422861521400,1.907521484375,0.09975041404068469,-0.12787861201940104,0.22689514056127516
1761379422871603500,1.917603515625,0.22431319777667522,0.8448710811581462,-0.2432008170654997
1761379422881686500,1.9276865234375,0.19621990671455858,-0.22673483543302864,-0.0805238816536963
1761379422891768600,1.9377685546875,0.12864742270112037,-0.2652748295717873,0.011850194932706653
1761379422901850400,1.947850341796875,0.1668318996667862,-0.09211717921588569,-0.0028911913968622683
1761379422911932400,1.957932373046875,0.1027653779476881,-0.15416677162200212,-0.034661928862705825
1761379422922014500,1.968014404296875,-0.012633856123685836,-0.1837686771487817,0.008026216197758913
1761379422932096500,1.978096435546875,-0.07756722380518913,-0.19724497544597833,0.040117929246276614
1761379422942178600,1.988178466796875,-0.09935177011191844,-0.17510215375348925,0.030713008573837578
1761379422952260600,1.998260498046875,-0.07191431261003017,-0.17366981939543039,0.025620252012088892
1761379422962343400,2.008343505859375,0.02917699464559555,-0.1584133414168842,0.04410133632663637
1761379422972425500,2.018425537109375,-0.159342420694232,-0.16895700206197797,-0.001385389943793416
1761379422982507500,2.028507568359375,-0.2434054362595081,-0.4108142955640331,0.1636050465747714
1761379422992589600,2.038589599609375,-0.28068331977427,-0.08340825058412737,0.23358798926342278
1761379423002671900,2.048671875,-0.16694938856661318,0.5027701102057471,-0.08599825794417411
1761379423012754000,2.05875390625,-0.1839893706947565,-0.12755547187910415,0.057359352230653166
1761379423022836000,2.0688359375,-0.163969495972991,-0.1254370366867166,0.1748859171869233
1761379423032918000,2.07891796875,-0.05858662900328636,0.022996488512912763,0.05767904917169362
1761379423043000800,2.089000732421875,-0.0073643912881612775,0.05523063310626894,-0.020061156580224632
1761379423053083000,2.099082763671875,0.1357435184419155,0.10468498436603695,-0.012813377409055828
1761379423063165000,2.1091650390625,0.1645697999536991,0.07837351695308462,-0.15276052155327052
1761379423073247000,2.1192470703125,0.12498071688711643,-0.05823623552988283,-0.23679431102406232
1761379423083329000,2.1293291015625,-0.006367196944355964,-0.18116174605339763,-0.2331872264428064
1761379423093411000,2.1394111328125,-0.037326398831605906,0.1414653849537484,-0.12396744819134473
1761379423103492900,2.149492919921875,-0.02613864986300468,0.04176298390640877,-0.133261894226633
1761379423113575000,2.159574951171875,-0.0814244837552309,0.011731418258091434,-0.010591244380176067
1761379423123658000,2.169657958984375,0.0633645109295845,0.07048354915454984,-0.020926029781252145
1761379423133740000,2.179739990234375,0.11357961742877959,0.030363464483805,-0.004069477928616106
1761379423143822000,2.189822021484375,0.1250870998710394,-0.007259579206816851,0.1295346903970465
1761379423153903900,2.19990380859375,0.04789806172847748,-0.10635435148351825,0.23522969205584376
1761379423163986000,2.20998583984375,0.07695639843046664,-0.14817699315529315,0.24451336096879092
1761379423174068000,2.22006787109375,0.07428045721948147,-0.1135615977148991,0.20186879932172594
1761379423184150000,2.23014990234375,0.07635550992786884,-0.05698675605859607,0.13230302259922028
1761379423194232000,2.240232177734375,0.15293430721759796,-0.03383340561669319,0.03691931586805731
1761379423204315000,2.25031494140625,0.168294373434782,-0.03816020104093477,-0.0548253037083894
1761379423214397000,2.26039697265625,0.1408452254951,-0.014310529764788225,-0.1567421385353431
1761379423224479000,2.27047900390625,0.06999883437752723,0.0040778895639348774,-0.15231475054714827
1761379423234561000,2.28056103515625,-0.05039046306610107,0.043714273237809534,-0.13834635788407176
1761379423244643000,2.29064306640625,-0.10899755033552647,0.051193687474075704,-0.08652465643845499
1761379423254724900,2.300724853515625,-0.09905191038250923,0.006648616834776476,-0.006751008630171418
1761379423264807000,2.310806884765625,-0.04117664451897144,-0.05166767079452984,-0.03194401167351752
1761379423274890000,2.320889892578125,-0.0392570746332407,-0.0642202327097766,-0.07882051180191338
1761379423284972000,2.330971923828125,0.0006377133816480637,-0.09938468600083142,-0.0876731688864529
1761379423295054000,2.34105419921875,-0.0061836570709943766,-0.09071644557248801,-0.06366458985470234
1761379423305135900,2.351135986328125,-0.1011404070943594,-0.05581681723007932,-0.06390435342732817
1761379423315218000,2.361218017578125,-0.040347207957506175,-0.05560160357682034,-0.07456537510808557
1761379423325300000,2.371300048828125,0.09674246439635753,-0.030284261767752466,-0.012102416128106414
1761379423335382000,2.381382080078125,0.16377192757427692,-0.02170092314388603,0.07946823512092233
1761379423345464000,2.391464111328125,0.19948036981523035,-0.03253368466235697,0.174806093416363
1761379423355547000,2.401546875,0.23089023807942866,0.030464349308703093,0.19022022790834306
1761379423365629000,2.41162890625,0.2193517759770155,0.07669086109576746,0.14793054411355405
1761379423375711000,2.4217109375,0.24909867946505546,0.055971277139429,0.062041116838715965
1761379423385793000,2.43179296875,0.2825935373097658,0.04400677164467051,0.00037445933558046815
1761379423395875000,2.441875,0.2698667422056198,0.04283359967945143,-0.03567556288465857
1761379423405956900,2.451956787109375,0.192964704310894,-0.0015328173241578042,-0.03417951564062387
1761379423416039000,2.462038818359375,0.08898995057344436,-0.006827087807375938,0.020331936345621943
1761379423426121000,2.472120849609375,-0.02786123587191105,-0.03353778367098421,0.048867272086814045
1761379423436204000,2.4822041015625,-0.04703530741930008,-0.03671276044528931,0.02571940153762698
1761379423446286000,2.4922861328125,-0.01577156962752342,-0.005085504837054759,0.00019194237552583218
1761379423456367900,2.502367919921875,-0.08418518064022064,-0.0042685806972905995,0.01203508651293814
1761379423466450000,2.512449951171875,-0.11369885989427565,-0.02756247212104499,0.05965045884251594
1761379423476532000,2.522531982421875,-0.07169803951084613,-0.06212682236079126,0.043322132115066046
1761379423486614000,2.532614013671875,0.028085107755661008,-0.09989285471867769,-0.030293212259188292
1761379423496696000,2.542696044921875,0.1032055229306221,-0.14248667255919426,-0.09324852133337408
1761379423506779000,2.55277880859375,0.14829028080403803,-0.16725931303231045,-0.10760945697799325
1761379423516861000,2.56286083984375,0.17302315552234648,-0.1683334998687729,-0.09308923911843449
1761379423526943000,2.57294287109375,0.17365794629454612,-0.12778001048313453,-0.07083952298536897
1761379423537025000,2.58302490234375,0.053908115798234936,-0.07440254922918975,-0.03932038566041737
1761379423547107000,2.593107177734375,-0.028542203873395917,-0.025249208476301282,-0.02921407525297254
1761379423557188900,2.60318896484375,-0.0723053577542305,0.022528240813501178,0.030341033456288278
1761379423567271000,2.61327099609375,-0.03777414259910583,0.01816604528231546,0.10233432958666235
1761379423577353000,2.62335302734375,-0.05853986725211143,-0.0024895335271023214,0.14318415330406278
1761379423587436000,2.63343603515625,-0.04518120398521423,-0.03457222301894799,0.15037713354807347
1761379423597518000,2.64351806640625,0.039842765566706656,-0.061235663941036904,0.06442764664907008
1761379423607599900,2.653599853515625,0.12997721000015736,-0.08126602352419868,-0.05088094999678432
1761379423617682000,2.663681884765625,0.1356786365121603,-0.061537806959077714,-0.12590371348354965
1761379423627764000,2.673763916015625,0.14758417836129664,-0.0005300700224004685,-0.14961762041766197
1761379423637846000,2.683845947265625,0.16498481049537658,0.0570676210087724,-0.12943316625133156
1761379423647928000,2.693927978515625,0.17057225523889064,0.08289780771080404,-0.11993804654479026
1761379423658011000,2.704010986328125,0.1842903994679451,0.0925344547798857,-0.12646503716073929
1761379423668093000,2.714093017578125,0.15450199492573738,0.03801595199834555,-0.10405406605135649
1761379423678175000,2.724175048828125,0.13611468984186648,0.008284136481583118,-0.10898589643035084
1761379423688257000,2.734257080078125,0.0833674345165491,-0.01525951018584892,-0.12577555705923588
1761379423698339000,2.744339111328125,-0.014414894321560859,-0.0665232672214508,-0.1314127957612276
1761379423708420900,2.7544208984375,-0.11488894646167755,-0.08072141351979226,-0.13289050363097338
1761379423718503000,2.7645029296875,-0.19834289021790028,-0.06141363259013742,-0.0959267640992999
1761379423728585000,2.7745849609375,-0.17440145813822744,-0.034630821338389066,-0.03500328964628279
1761379423738668000,2.78466796875,-0.11917933713197708,-0.02450693874163553,0.008949614652991295
1761379423748750000,2.79475,-0.03388648751080036,-0.0535797971593216,0.027413820897974072
1761379423758831900,2.804831787109375,0.06185995158553123,-0.051893579371739176,-0.008853716530464588
1761379423768914000,2.814913818359375,0.13979308609366417,-0.027505791764054446,-0.07906213853806257
1761379423778996000,2.824995849609375,0.1931955904573202,0.02712709464477375,-0.09461736200116574
1761379423789078000,2.835078125,0.21207330940663813,0.048322150625754144,-0.09672569592464715
1761379423799160000,2.84516015625,0.15557108546197412,0.05182356460914016,-0.09244352509342134
1761379423809243000,2.855242919921875,0.012255670461058616,0.03589594590337947,-0.08469594317395239
1761379423819325000,2.865324951171875,-0.04521393721103668,0.004295669633615762,-0.07734846648797393
1761379423829407000,2.875406982421875,-0.033093291306495666,-0.02132774244993925,-0.07030874057691544
1761379423839489000,2.885489013671875,0.0004524199426174164,-0.03540796145703643,-0.08054532630052418
1761379423849571000,2.895571044921875,0.001143324816226959,-0.04699685683874413,-0.0867434502882883
1761379423859653000,2.905653076171875,-0.04530512262582779,-0.045470925913099196,-0.08519720722697675
1761379423869735000,2.91573486328125,-0.05813537810444831,-0.006969254490733146,-0.13052413982581346
1761379423879817000,2.92581689453125,-0.003939677536487579,0.02504363943422213,-0.17717676807045935
1761379423889900000,2.935900146484375,0.048368601849675175,0.016419128549750892,-0.14449096158631144
1761379423899982000,2.945982177734375,0.059300914752483364,-0.0030624015116132793,-0.10513316652495414
1761379423910063900,2.95606396484375,0.04408580996394157,-0.010939783823210746,-0.09639898472093045
1761379423920146000,2.96614599609375,0.052830257433652876,-0.017225823556445537,-0.09680614074971526
1761379423930228000,2.97622802734375,0.05826631100773811,-0.01636306924726814,-0.09334332347735762
1761379423940310000,2.98631005859375,0.034306758749485015,0.032868359976820645,-0.09631872255895287
1761379423950392000,2.99639208984375,0.03982289182245731,0.049598472438193854,-0.08053432998247444
1761379423960475000,3.006474853515625,0.05826864909529686,0.023466434979066253,-0.03163417853936553
1761379423970557000,3.016556884765625,0.019119711011648177,0.01525174700450152,0.00813164933361113
1761379423980639000,3.026638916015625,-0.008687748846411705,0.07495373510485515,0.001352547120116651
1761379423990721000,3.036720947265625,-0.02377367429733276,0.08373115326240659,-0.020270598079822958
1761379424000802000,3.046802001953125,-0.046181320938467975,0.02921473284009844,0.00938022462259978
1761379424010884000,3.056884033203125,-0.015747019708156586,0.004704615760687738,0.009915062151663006
1761379424020966100,3.066966064453125,0.02517594231069088,-0.01781856528520584,-0.03849748843759298
1761379424031049000,3.077049072265625,0.07044248649179935,-0.049170182289835065,-0.0970474021596834
1761379424041131000,3.087131103515625,0.11166004754304885,-0.06906489626197145,-0.14781513757295905
1761379424051213000,3.097213134765625,0.13655015864968298,-0.09316641427418217,-0.1604435503365472
1761379424061295000,3.107295166015625,0.11995733576714991,-0.05244617175320163,-0.1349954765535891
1761379424071377200,3.117377197265625,0.1135053831487894,-0.012516367223858833,-0.08663695770651102
1761379424081459000,3.127458984375,0.09461655828356742,-0.003525562043953687,-0.05973229190707206
1761379424091541000,3.137541015625,0.04951835640668869,0.015219525235332548,-0.04541479354538023
1761379424101623000,3.147623046875,0.02954290534853935,0.04001096174046397,-0.040210539433173834
1761379424111706000,3.1577060546875,0.030515549772977827,0.039051542123779655,-0.027048092858120796
1761379424121788000,3.167787841796875,0.0674339523255825,0.006130191584397107,-0.02811981374286115
1761379424131870000,3.177869873046875,0.08481646428108215,-0.020835922078695147,-0.02332176581136882
1761379424141952000,3.187951904296875,0.05658697961866855,-0.06744175203954801,-0.003504756717942655
1761379424152034000,3.198033935546875,-0.015545359656214713,-0.07526797041948884,-0.006533529954589903
1761379424162116000,3.2081162109375,-0.03236789964139462,-0.04261617580279708,0.018544578004814682
1761379424172198100,3.2181982421875,-0.04322714730799198,-0.03892312997113913,0.0740788702327758
1761379424182281000,3.228281005859375,-0.025327333480119705,-0.025665844719484448,0.082280552595295
1761379424192363000,3.238363037109375,0.002325228077173233,-0.020148944461531936,0.057986105826869604
1761379424202445000,3.248445068359375,-0.022547347372770307,-0.028167160015925764,0.016586210478655994
1761379424212527000,3.258527099609375,-0.005963876840472221,-0.01398486887384206,-0.041128348397836086
1761379424222609200,3.268609130859375,0.05631985311508178,0.013668167607486247,-0.07181074263770133
1761379424232691000,3.27869091796875,0.07703413984179497,0.015434519692882894,-0.07582644455246627
1761379424242773000,3.28877294921875,0.08575579095780848,0.0021428572475910186,-0.11348065056633204
1761379424252856000,3.29885595703125,0.06855097365677357,0.007318725515529513,-0.13845840342380106
1761379424262938000,3.308938232421875,0.03870879310071468,0.016948650582879782,-0.1156838962316513
1761379424273020000,3.31902001953125,0.08335632860064505,0.0505884698562324,-0.09198701349757611
1761379424283102000,3.32910205078125,0.14599310977756977,0.07085318618454038,-0.11173176107238977
1761379424293184000,3.33918408203125,0.21734511232972145,0.07034779394567012,-0.13146777735147624
1761379424303266000,3.34926611328125,0.2396639116436243,0.049190037767775356,-0.12692461749650538
1761379424313348000,3.35934814453125,0.2069464679121971,0.009351692647859454,-0.0584221956891939
1761379424323431000,3.369430908203125,0.16434592806994913,-0.026156368182785807,-0.0002912014989182353
1761379424333513000,3.379512939453125,0.11034896494448185,-0.09758297034110873,-0.0033460955575108525
1761379424343595000,3.389594970703125,0.011422726768255233,-0.1871265727419406,-0.042273097986169156
1761379424353677000,3.399677001953125,-0.07046878997683524,-0.2588603046206757,-0.08725965618211776
1761379424363759000,3.409759033203125,-0.15551789397001264,-0.2973609713960439,-0.1196061477093026
1761379424373841200,3.419841064453125,-0.2171019512236118,-0.314034202571027,-0.13097922664955258
1761379424383923000,3.4299228515625,-0.26990765873789785,-0.2689217895057052,-0.1212627923425287
1761379424394006000,3.440006103515625,-0.228963069409132,-0.1742787816066295,-0.08144885101150721
1761379424404088000,3.450088134765625,-0.09797755914926529,-0.04014916463475674,-0.04697586884964257
1761379424414170000,3.460170166015625,0.06866553994715213,0.06649809624757617,-0.029663389923051
1761379424424252200,3.470252197265625,0.16354747116863727,0.1763900016069412,0.014764694139920174
1761379424434334000,3.480333984375,0.17133797891438007,0.26522775729335846,0.06227160112634301
1761379424444416000,3.490416015625,0.18358254345953465,0.3218020966261625,0.09093958680387586
1761379424454498000,3.500498046875,0.22919980077445506,0.31988453603442757,0.11155761008188128
1761379424464581000,3.5105810546875,0.28202538203299043,0.24054719728417692,0.09819595114029943
1761379424474663000,3.520662841796875,0.2548188106775284,0.12241539644375443,0.022606457148864865
1761379424484745000,3.530744873046875,0.1337491297543049,-0.02250427541602403,-0.04052347783986479
1761379424494827000,3.540826904296875,0.01962590696811676,-0.12867569894753395,-0.11641264889761804
1761379424504909000,3.550908935546875,-0.0941290670275688,-0.2046200707912445,-0.1671539346953854
1761379424514991000,3.5609912109375,-0.11995090602636337,-0.2538104008199647,-0.18195618436671793
1761379424525073200,3.5710732421875,-0.0956371335029602,-0.24421448762007056,-0.16143837006017564
1761379424535156000,3.581156005859375,-0.043723990914225574,-0.21328787282817063,-0.1357515190852806
1761379424545238000,3.591238037109375,-0.04917874918878078,-0.16157281009480357,-0.07156842178180814
1761379424555320000,3.601320068359375,-0.0914192235469818,-0.08951258620806038,-0.021444098838604986
1761379424565402000,3.611402099609375,-0.0583931522578001,-0.005341762886755168,-0.018444624761678276
1761379424575484200,3.621484130859375,0.005195815077424049,0.059992075354419645,0.003067643942311406
1761379424585566000,3.63156591796875,0.0554085834890604,0.10338972039110958,0.07210508594177663
1761379424595648000,3.64164794921875,0.0777162768870592,0.10266115038823335,0.09042644964996725
1761379424605731000,3.65173095703125,0.07074819144010544,0.1056122187461704,0.04331544664595276
1761379424615813000,3.661813232421875,0.014865560698509216,0.05771729882284998,0.012553959287889301
1761379424625895000,3.67189501953125,-0.05856324812769889,-0.001136931608058512,0.009287943229265511
1761379424635977000,3.68197705078125,-0.09087737175524234,-0.01311400432344526,0.010508644130639731
1761379424646059000,3.69205908203125,-0.06426876629292964,0.023811777818016706,-0.0032724823320284483
1761379424656141000,3.70214111328125,-0.009388006070256232,0.0555929270800203,0.0034278190242126583
1761379424666223000,3.71222314453125,0.09576748188436031,0.09004848318304866,-0.02092080561686307
1761379424676305200,3.72230517578125,0.2024585088431835,0.11268836767747997,-0.05892364240530878
1761379424686388000,3.732387939453125,0.23702888696491717,0.12118176299557089,-0.08040931536331772
1761379424696470000,3.742469970703125,0.2367360414981842,0.08010645995922386,-0.07182002192270011
1761379424706552000,3.752552001953125,0.2048936270356178,0.003881334945373237,-0.045465829612873494
1761379424716634000,3.762634033203125,0.13669687364399433,-0.07349117000531405,-0.0174976262351498
1761379424726716200,3.772716064453125,0.07579729152321815,-0.11363646218255162,0.007205328268930316
1761379424736798000,3.7827978515625,0.06946750397980213,-0.12097012953888624,0.0037594986639916893
1761379424746881000,3.792881103515625,0.07880173403620719,-0.07607651032339781,-0.02530252783242613
1761379424756963000,3.802963134765625,0.07401917593479156,-0.026793314379453658,-0.029417452337965368
1761379424767045000,3.813045166015625,0.06562251898944378,0.0023595322055742145,0.000752170074172318
1761379424777127000,3.823126953125,0.02464870356619358,-0.02229830451514572,0.05400832476969808
1761379424787209000,3.833208984375,-0.00820084211230278,-0.0795538310451433,0.1010669034667313
1761379424797291000,3.843291015625,-0.02408522446453571,-0.08705660789068788,0.07967015090119094
1761379424807373000,3.853373046875,-0.023472061002254484,-0.08709018136672675,0.037538288016617294
1761379424817456000,3.8634560546875,0.004956745624542236,-0.06773768451251089,-0.008042436680197716
1761379424827538000,3.873537841796875,0.030191140124201772,-0.026379874740354716,-0.061362998381443316
1761379424837620000,3.883619873046875,0.09043021250963211,0.000943929786607623,-0.0730581123502925
1761379424847702000,3.893701904296875,0.0868354028880596,-0.018369513698853552,-0.01038724624067545
1761379424857784000,3.9037841796875,0.026148586735129355,-0.05811243562027812,0.057990964665077624
1761379424867866000,3.9138662109375,-0.017869418689608573,-0.058335394188575446,0.09200856774225831
1761379424877948200,3.9239482421875,-0.06444938355684281,-0.08168532664850353,0.09448595417384058
1761379424888030000,3.934030029296875,-0.05573416218161582,-0.07393807352259754,0.04096040795240551
1761379424898113000,3.944113037109375,0.017718612042069433,-0.06486165415216237,-0.028481267466396093
1761379424908195000,3.954195068359375,0.09657178400456905,-0.09909666283968835,-0.051888957995548844
1761379424918277000,3.964277099609375,0.12683189771175385,-0.1701177529370412,-0.03826024561561644
1761379424928359000,3.97435888671875,0.08093582345545292,-0.1706314380802214,-0.032662863999977705
1761379424938441000,3.98444091796875,-0.031334464940428734,-0.13408588742800057,-0.02845993241742253
1761379424948523000,3.99452294921875,-0.05267009843587875,-0.0962055810406804,-0.008691182912513614
1761379424958605000,4.00460498046875,-0.019659224715828896,-0.06880765183158219,0.03895191767420619
1761379424968688000,4.014688232421875,0.10867255616486073,-0.05970540390014648,0.06167966311518103
1761379424978770000,4.02477001953125,0.04432721750438213,-0.05112670491877943,0.09052030194588005
1761379424988852000,4.03485205078125,-0.09992167895436287,-0.09817213187329471,0.14623513837251811
1761379424998934500,4.0449345703125,-0.12093991706371307,0.033143267928063866,0.120445338479802
1761379425009016600,4.0550166015625,-0.15504793837070463,0.09691990332249552,0.10920797821581363
1761379425019098600,4.0650986328125,-0.0784574506431818,0.10307495535351335,0.08940229423400015
1761379425029181400,4.075181396484375,0.0614168839931488,0.14806940459497273,-0.007475450447201729
1761379425039263500,4.085263427734375,0.17991759121119974,0.1678075032332912,-0.09466613304633646
1761379425049345500,4.095345458984375,0.201191265386343,0.12539401039574294,-0.1389158283350989
1761379425059427600,4.105427490234375,0.2069417917370796,0.08488225952629,-0.14142412136159838
1761379425069509600,4.115509521484375,0.18444822037816047,0.06161218736954033,-0.11000829828064888
1761379425079591400,4.12559130859375,0.13131050443053244,0.020003106250055133,-0.07818751112800092
1761379425089673500,4.135673583984375,0.05397358224987983,-0.016460465207137166,-0.06685176852345466
1761379425099755500,4.145755615234375,0.02407528759241104,-0.026412498368322847,-0.06706340198013931
1761379425109838600,4.155838623046875,0.02993102788329124,-0.03019124972205609,-0.061409687067382035
1761379425119920400,4.16592041015625,-0.016816110244393348,-0.01943100545052439,-0.09227496359348297
1761379425130002400,4.17600244140625,-0.008880641070008277,-0.041437523944862185,-0.10273779582101851
1761379425140084500,4.18608447265625,-0.03464344335794449,-0.04805979162883013,-0.062212929741665715
1761379425150166500,4.19616650390625,-0.033308979883790016,-0.09014576954506337,0.022738449498079717
1761379425160248600,4.20624853515625,-0.007279051092267036,-0.09293470614384859,0.05885843168199062
1761379425170331400,4.216331298828125,0.04911445178091526,-0.04762877980042249,0.04780811842270195
1761379425180413400,4.226413330078125,0.05207622419595718,-0.0244382026206702,0.018170045603998004
1761379425190495500,4.23649560546875,-0.006664134064316749,-0.027407683418132364,0.0024366160297766325
1761379425200577500,4.24657763671875,0.022248656687140465,0.014034589767083525,-0.001849938715621829
1761379425210659600,4.25665966796875,0.06464227578043938,0.03035016661081463,-0.002406988076493144
1761379425220741600,4.26674169921875,0.09719546886086464,0.001470364813506603,-0.00997409886252135
1761379425230823400,4.276823486328125,0.0813110865086317,-0.015875979850068687,-0.013838957597129047
1761379425240906500,4.286906494140625,0.035814240702986715,0.008579758427292108,-0.0033823724472895264
1761379425250988500,4.296988525390625,-0.0025058453410863875,0.025871596424654125,0.014693345936760305
1761379425261070600,4.307070556640625,-0.0038917467415332794,0.04735233747921884,-0.010953501821309327
1761379425271152400,4.31715234375,0.00011690437793731689,0.043178960784710944,-0.044106268230080604
1761379425281234400,4.327234375,0.004723521390557289,0.00008241758644580841,-0.06172167562600225
1761379425291316500,4.33731640625,0.0406295320302248,-0.03415091060064733,-0.07449987212382257
1761379425301398500,4.3473984375,0.08375906418263912,-0.056177229773998257,-0.08019216548129916
1761379425311481600,4.357481689453125,0.10075579169094562,-0.087331479309313,-0.08149488211032002
1761379425321563400,4.3675634765625,0.0649807139545679,-0.11172134927622973,-0.029215390427224337
1761379425331645400,4.3776455078125,0.003651508244872093,-0.10693634348940104,0.013554879958741366
1761379425341727500,4.3877275390625,-0.04347615363299846,-0.07129124880824238,0.04855502779986709
1761379425351809500,4.3978095703125,-0.04293488636314869,-0.013023330365307628,0.04962638335842639
1761379425361891600,4.4078916015625,-0.03634381753504276,0.050542000366002315,0.013674743478745222
1761379425371973600,4.4179736328125,0.020450082832574844,0.07416769929369911,-0.03881649125888943
1761379425382056400,4.428056396484375,0.09876257204711436,0.043073107523750515,-0.08509053198210895
1761379425392138500,4.438138427734375,0.1712625755906105,-0.009361538188438863,-0.10086659512165934
1761379425402220500,4.448220458984375,0.1814057839423418,-0.06290785320326686,-0.09313603740222752
1761379425412302600,4.458302490234375,0.10161562339067458,-0.0908187186368741,-0.05291596295572817
1761379425422384400,4.46838427734375,0.02133154184222221,-0.07463619358828291,-0.014935703325271606
1761379425432466400,4.478466552734375,0.0007195464462041854,-0.02848104827068746,-0.004642199782654643
1761379425442548500,4.488548583984375,0.007788169658184051,-0.016326810623798517,-0.00301096358532086
1761379425452631600,4.498631591796875,0.05917524254620075,-0.028500757618155327,-0.03949994347840547
1761379425462713600,4.508713623046875,0.13869710755050182,-0.01753340993458405,-0.10059875623201951
1761379425472795400,4.51879541015625,0.18963409858345984,0.030391265806183218,-0.1779805222013965
1761379425482877400,4.52887744140625,0.212304780074954,0.0483741548076272,-0.2146640930848196
1761379425492959500,4.53895947265625,0.14010872791409493,0.0372199975813739,-0.14725321110757067
1761379425503041500,4.54904150390625,0.07643266681730747,0.03161379333846271,-0.10631881437925621
1761379425513123600,4.55912353515625,0.05509703332185745,0.05130255467602983,-0.09400741340927779
1761379425523206400,4.569206298828125,0.038088615375757216,0.07343496457235887,-0.10894428577832876
1761379425533288400,4.579288330078125,0.04962824652194976,0.06278369710063561,-0.13141447626166045
1761379425543370500,4.58937060546875,-0.009469254612922667,0.06553363512959332,-0.15215813521333038
1761379425553452500,4.59945263671875,-0.03852408418357372,0.053593442092183974,-0.18201774182822555
1761379425563534600,4.60953466796875,-0.037650223958492275,-0.0036137883166782554,-0.189633806322515
1761379425573616400,4.619616455078125,-0.04106149370670319,-0.03239915329618379,-0.1319413131473586
1761379425583698400,4.629698486328125,-0.047555531901121134,-0.08679563713325188,-0.05161021411940455
1761379425593781500,4.639781494140625,-0.014058335968852042,-0.12403549019256606,0.019136296820268035
1761379425603863600,4.649863525390625,-0.04021861314177513,-0.12232996491631493,0.07135854189079255
1761379425613945600,4.659945556640625,-0.07205109073221683,-0.07748003871208056,0.12374996951576321
1761379425624027400,4.67002734375,-0.042075639185309405,-0.03713913263119757,0.1506623436976224
1761379425634109400,4.680109375,-0.04888999537527561,-0.024422128268703817,0.12807079185694456
1761379425644191500,4.69019140625,-0.05569383017122745,-0.0020621201615780593,0.07945479111745953
1761379425654273500,4.7002734375,0.04430968184769153,-0.01265798591794446,0.01668718663509935
1761379425664356400,4.7103564453125,0.05450725073516369,-0.021858871918264775,-0.05488492494113743
1761379425674438400,4.7204384765625,0.03855389479994774,-0.05852737309671938,-0.05377747515588999
1761379425684520400,4.7305205078125,-0.048455695611238477,-0.10868709614686667,-0.020375611090566962
1761379425694602500,4.7406025390625,-0.11168459746241569,-0.1309203543354757,-0.012996716353017836
1761379425704684500,4.7506845703125,-0.10839666183292865,-0.10103844455722719,-0.069436268591322
1761379425714766600,4.7607666015625,-0.04143734128177166,-0.01891308252364397,-0.17566356876222416
1761379425724848400,4.770848388671875,0.18586743952631948,0.03871410859664902,-0.2752932059674524
1761379425734931500,4.780931396484375,0.3301327025979757,0.03327390857040882,-0.2141900823649019
1761379425745013500,4.791013427734375,0.32719314201474187,-0.0670022281111218,-0.1450104554157704
1761379425755095600,4.801095458984375,0.29274843609929085,-0.09187560727866366,-0.02814723147274926
1761379425765177600,4.811177490234375,0.2523468676060438,-0.08147858856264502,0.0025730288257822392
1761379425775259400,4.82125927734375,0.17438333795964717,-0.06288505684956908,-0.05238574680285528
1761379425785341400,4.831341552734375,0.12297872941493987,-0.004404664699733257,0.043672735651023684
1761379425795424500,4.841424560546875,-0.00507072739303112,-0.005154222691711038,0.0008588635853491723
1761379425805506600,4.851506591796875,-0.17054419818818567,0.03302170564131811,0.013526201853528617
1761379425815588400,4.86158837890625,-0.1711316426873207,-0.02944819453610107,0.06825960776107386
1761379425825670400,4.87167041015625,-0.15753157187998293,-0.06611486908365041,0.002748531523160636
1761379425835752400,4.88175244140625,-0.11045417888462543,-0.028727168518863616,-0.01738934355508536
1761379425845834500,4.89183447265625,-0.05470949530899524,0.04331230484079569,-0.03237785477982834
1761379425855916500,4.90191650390625,-0.053231823971867556,0.03565768016809597,0.027432671728916464
1761379425865999400,4.911999267578125,-0.042866497302055356,-0.03915403438387438,0.0866638091808185
1761379425876081400,4.922081298828125,0.008394903379678726,-0.06010474194865673,0.10530245867725462
1761379425886163500,4.93216357421875,0.03397884196937084,-0.03190576202236116,-0.00013317965930327772
1761379425896245500,4.94224560546875,0.05902268233299255,0.005048497294913977,-0.10512765009962022
1761379425906327600,4.95232763671875,0.17151567356884478,-0.001336399702914059,-0.17243795777922497
1761379425916409600,4.96240966796875,0.2457633975625038,-0.038631526613421736,-0.1855187904854305
1761379425926491400,4.972491455078125,0.2172778923124075,-0.1061878449433483,-0.1263670932115987
1761379425936574500,4.982574462890625,0.14441606971919535,-0.12323389148609712,0.01002007516240701
1761379425946656500,4.992656494140625,0.024728198543190954,-0.06781071321610362,0.10608794649913907
1761379425956738600,5.002738525390625,0.021834230667352676,-0.05261310755163431,0.12122112689157948
1761379425966820400,5.0128203125,-0.12907587724626063,-0.038322077071759844,0.06230889179627411
1761379425976902400,5.02290234375,-0.14515315182209015,0.0803547904307954,-0.04309945667455904
1761379425986984400,5.032984375,-0.1464881998181343,0.06374956472441554,-0.02301670931703411
1761379425997066500,5.04306640625,0.08635843302607536,-0.020028825213201342,-0.03950405339794233
1761379426007153000,5.05315283203125,0.3184919491648674,-0.08328682529469951,-0.1253928139525
1761379426017234700,5.063234619140625,0.5403139146476984,-0.0720984187389724,-0.15768694510478526
1761379426027316700,5.073316650390625,0.6237468156158924,-0.09899559535169973,-0.19333056021491066
1761379426037398800,5.083398681640625,0.5056546891987324,-0.12607890565367416,-0.14796900382726452
1761379426047480800,5.093480712890625,0.3446557334691286,-0.16803528410717844,-0.06828140860092825
1761379426057563000,5.10356298828125,0.20014204859435558,-0.2012176784692332,-0.0023538970492314546
1761379426067645000,5.11364501953125,0.052773558810353276,-0.1933791303306818,-0.02242778524686582
1761379426077727700,5.123727783203125,-0.005761632266640663,-0.10158371214875951,-0.05501651543155312
1761379426087809800,5.133809814453125,-0.009874912804365157,-0.013751178848976269,-0.09763292869636789
1761379426097891800,5.143891845703125,-0.08940729920268058,0.022501423588523174,-0.06945424263942987
1761379426107974000,5.153973876953125,-0.19197101709842682,0.007529136271151946,0.02971914783143438
1761379426118056000,5.164055908203125,-0.10284545744657515,0.007717370585940079,0.14188140927557832
1761379426128137700,5.1741376953125,-0.2238169386923313,0.022170451768219936,0.09965152024347335
1761379426138219800,5.1842197265625,-0.18996084631979465,0.06744002130676525,-0.06737450462277048
1761379426148302800,5.194302734375,-0.2768909417539835,0.19690171496625988,-0.20122863825466483
1761379426158385000,5.204385009765625,-0.2164484557509422,0.14125613525039515,-0.20134806338325142
1761379426168466700,5.214466796875,-0.08074994549453259,-0.010953115945530589,-0.10162473827889189
1761379426178548700,5.224548828125,0.08800970736443996,-0.14297397201894782,0.07775127513520419
1761379426188630800,5.234630859375,0.16983984931111334,-0.18951816231990232,0.13269550164868124
1761379426198712800,5.244712890625,0.06928337958455086,-0.16022439116053283,0.18047628453988582
1761379426208796000,5.2547958984375,-0.02168459306359291,-0.08839451456409879,0.2463623133037239
1761379426218877700,5.264877685546875,-0.03991407723724842,-0.02149151817690581,0.22075937775261698
1761379426228959700,5.274959716796875,-0.05365735590755939,-0.024982445015606935,0.16415826001074163
1761379426239041800,5.285041748046875,-0.019058920735120773,-0.06987333113460335,0.11683892061882652
1761379426249123800,5.295123779296875,-0.024102175599336622,-0.11830049933767876,0.12413510550898499
1761379426259206000,5.305205810546875,-0.07134148115813732,-0.12846580992336384,0.09090912773353046
1761379426269288000,5.315287841796875,-0.03763911804258823,-0.05947418439358007,0.021108263613516462
1761379426279370800,5.325370849609375,0.041404608055949206,-0.018412005700287407,-0.049116981664719055
1761379426289452800,5.335452880859375,0.007179682371020317,0.006737747289799153,-0.02711833594958298
1761379426299534800,5.345534912109375,-0.029881928044557568,0.04153505690204911,-0.04326452930946834
1761379426309617000,5.355616943359375,-0.03372399042546749,0.08829593129414133,-0.10323674918594769
1761379426319698700,5.36569873046875,0.061333881884813306,0.08773582232650369,-0.16546594507582485
1761379426329780700,5.37578076171875,0.17987842824459074,0.039665637167822565,-0.19432921586344018
1761379426339862800,5.38586279296875,0.2408084055036306,-0.018735708671231987,-0.20660563685158267
1761379426349945900,5.39594580078125,0.21719313663840292,-0.05590103404796682,-0.2053936124470085
1761379426360028000,5.40602783203125,0.084195702034235,-0.045723850361397485,-0.1543541839528829
1761379426370109700,5.416109619140625,-0.09922668242752551,0.003327940558778937,-0.11578419653465971
1761379426380191700,5.426191650390625,-0.21905542337894437,0.054703476560162376,-0.1387662089976482
1761379426390273800,5.436273681640625,-0.1446580617815256,0.07189027871389407,-0.17918257320122793
1761379426400355800,5.44635595703125,-0.006812018102407455,0.06319009964417201,-0.1772543450850062
1761379426410438000,5.45643798828125,0.08286006951630115,0.02883919579228386,-0.10336712496681139
1761379426420520700,5.466520751953125,0.10385726483762264,0.018582921270804943,-0.028458799906261264
1761379426430602800,5.476602783203125,0.11752397114038467,0.028229381914425172,-0.020030843640351667
1761379426440684800,5.486684814453125,0.139416653996706,-0.0013379808802914338,-0.019956038538203574
1761379426450766800,5.496766845703125,0.12568915741741657,-0.06242301056208088,-0.04368063126311172
1761379426460849000,5.506848876953125,0.11135609616041182,-0.0823911733629182,-0.00461907920197118
1761379426470930700,5.5169306640625,0.07008417457342148,-0.10031457812893203,0.04011059075661469
1761379426481013800,5.527013671875,0.01504442439675331,-0.12886245369128882,0.09563094122419133
1761379426491095800,5.537095703125,-0.038054128584265705,-0.1593227113467641,0.11788092221873811
1761379426501177900,5.547177734375,-0.07050678389966487,-0.14831367994593456,0.08837453122199512
1761379426511260000,5.557260009765625,-0.08171499113440513,-0.12066482644937931,0.07609996883079875
1761379426521341700,5.567341796875,-0.04160393002033234,-0.11660375102292746,0.013757695354730821
1761379426531423700,5.577423828125,0.08798457292318343,-0.08686564276269637,-0.08305382938957773
1761379426541505800,5.587505859375,0.1990156749129295,-0.06889950853323099,-0.11861234176582656
1761379426551588900,5.5975888671875,0.2644073077559471,-0.05878726614192128,-0.14250520372972822
1761379426561670700,5.607670654296875,0.3055594023555517,-0.05812716739852913,-0.14340322114853188
1761379426571752700,5.617752685546875,0.25348610076904293,-0.056358116465969936,-0.13174381781388073
1761379426581834800,5.627834716796875,0.17881459840536115,-0.04534917639668565,-0.1070705917277839
1761379426591916800,5.637916748046875,0.11581073748171329,-0.05821011927451472,-0.10690699866390786
1761379426601998800,5.647998779296875,0.0489122072070837,-0.08423577831629664,-0.10614059000182896
1761379426612081000,5.658080810546875,0.014333645778894424,-0.12472866008849814,-0.09166454921071417
1761379426622163700,5.668163818359375,-0.05540916801095008,-0.13786325967540033,-0.0755443122759927
1761379426632245800,5.678245849609375,-0.11571955206692218,-0.12104606258561834,-0.06789950117783154
1761379426642327800,5.688327880859375,-0.1395125155866146,-0.07153061965522356,-0.0651422520586755
1761379426652409900,5.698409912109375,-0.08638824364244937,-0.060806999333342535,-0.026036381365195847
1761379426662492000,5.708491943359375,-0.02518237205147743,-0.07235797842403408,-0.0020916743360976397
1761379426672573700,5.71857373046875,0.004299743020534515,-0.06736794701782055,0.003647686590524972
1761379426682655700,5.72865576171875,0.03647533496022224,-0.05921864329650998,-0.023324124448525253
1761379426692738800,5.73873876953125,0.01657587174773216,-0.01655451843244955,-0.05084793364317156
1761379426702820900,5.74882080078125,0.027501754909753796,-0.007952810751541983,-0.03502934653614648
1761379426712903000,5.75890283203125,0.05548574037849903,0.02293647683780873,-0.03899512206169311
1761379426722984700,5.768984619140625,0.09394377358853817,0.0518194546896033,-0.06056207096183207
1761379426733066800,5.779066650390625,0.16891279759407044,0.0479135972243268,-0.08953382992548868
1761379426743148800,5.789148681640625,0.21275369288623333,0.02968842389960773,-0.12165414801398292
1761379426753232000,5.79923193359375,0.16605799268484114,-0.00973444488774985,-0.11309035434080288
1761379426763313700,5.809313720703125,0.09781330849826335,-0.02442339777718298,-0.08063363477163947
1761379426773395700,5.819395751953125,0.03436287285089493,0.01741155310360482,-0.12677260527256876
1761379426783477800,5.829477783203125,0.07760872485935688,0.033189344692649315,-0.187590427394025
1761379426793559800,5.839559814453125,0.1334177058428526,0.0012900398105382919,-0.17154922877857462
1761379426803641900,5.849641845703125,0.2008855604380369,-0.04178813661397435,-0.09109983713319525
1761379426813724000,5.859723876953125,0.2382651507616043,-0.0903143493113108,-0.035623398872581306
1761379426823806700,5.869806640625,0.16909107677042484,-0.11183080100007355,-0.03919363574190065
1761379426833888800,5.879888671875,0.06010580139458179,-0.09794864358203485,-0.011984397505316883
1761379426843970800,5.889970703125,-0.0381067355543375,-0.07586433801059611,0.04385552203913685
1761379426854052900,5.900052978515625,-0.0984562825769186,-0.0633420022702543,0.06588754486748949
1761379426864135000,5.910135009765625,-0.11271101790070533,-0.05357397477331105,0.0456914322294062
1761379426874216700,5.920216796875,-0.05199848278462887,-0.028111982062854802,-0.04731132504881825
1761379426884298800,5.930298828125,0.042079730838537215,-0.031105464790412225,-0.14695813715113326
1761379426894381800,5.9403818359375,0.058191492205858224,-0.05393414072205778,-0.21854522710079327
1761379426904464000,5.9504638671875,0.04795300678610801,-0.03781432847902179,-0.21315142349954694
1761379426914545700,5.960545654296875,0.12268763751387596,-0.011737199544906615,-0.18556277575762942
1761379426924627700,5.970627685546875,0.14681728564202784,0.020178782477369532,-0.1643564494639635
1761379426934709800,5.980709716796875,0.21819909881055355,0.023407713362039066,-0.16293673712546006
1761379426944791800,5.990791748046875,0.25872809307575223,0.020842561882035805,-0.13133102662875315
1761379426954873900,6.000873779296875,0.20408640230596065,0.007836538844555615,-0.03189281120924279
1761379426964956700,6.010956787109375,0.01764437776207924,-0.04614343661349266,0.08578322695400566
1761379426975038700,6.021038818359375,-0.18401684322357176,-0.06612812129086815,0.14488622624790296
1761379426985120800,6.031120849609375,-0.3688631230086088,-0.004124313388392329,0.12770754803512244
1761379426995202800,6.041202880859375,-0.4460533301949501,0.0780183468398638,0.08756210972741246
1761379427005285000,6.05128515625,-0.3852273978322744,0.08271059630932286,0.13553362941774538
1761379427015367000,6.061366943359375,-0.22634499586522577,0.05987013860833831,0.10248190309749916
1761379427025450000,6.071449951171875,-0.2017962455421686,-0.04021938945990987,-0.010509228652529418
1761379427035532000,6.081531982421875,-0.12246668823957442,-0.11407685376065782,-0.06951331588290631
1761379427045614000,6.091614013671875,-0.07111293309926986,-0.10318259871276095,-0.12195554211335256
1761379427055696100,6.101696044921875,-0.1173439383983612,-0.10683838127395137,-0.21959336618054656
1761379427065778000,6.11177783203125,0.05980769523084163,-0.0755024093630258,-0.1847069078469649
1761379427075860000,6.12185986328125,0.05273264227807521,-0.0018772285813465712,-0.18856530030816793
1761379427085942000,6.13194189453125,0.1069873795568943,0.02492247443969827,-0.09582016191966831
1761379427096025000,6.142025146484375,0.12997136478126048,-0.05313039115769788,0.06826541644735261
1761379427106107000,6.15210693359375,-0.018528174859285353,-0.23281810086946933,0.23032990078292787
1761379427116189000,6.16218896484375,0.009227262550592422,-0.22388046891521662,0.33372371282726526
1761379427126271000,6.17227099609375,-0.25394845758378504,-0.1126452957207337,0.19588484780760482
1761379427136353000,6.18235302734375,-0.41199090159535406,-0.2346541571902111,0.05716629104369785
1761379427146435000,6.19243505859375,-0.5589689307570457,-0.47989265409577636,0.06993968350223731
1761379427156517000,6.20251708984375,-1.3297376146763562,-0.6968705040156841,-0.004548301820969209
1761379427166600000,6.212599853515625,-0.9773866505295038,-0.9291732392415404,0.20697341071804984
1761379427176682000,6.222681884765625,-0.2802005046933889,-0.5488344902336597,0.3252427385993302
1761379427186764000,6.232763916015625,0.1435211667060852,-0.06252904191955458,0.09055672496613114
1761379427196846000,6.24284619140625,0.5668950475811958,0.31336978384554387,-0.07701229333616792
1761379427206928100,6.25292822265625,0.751774645113945,0.5807318132212386,-0.10246179189123213
1761379427217010000,6.263010009765625,1.0431494547724722,0.8570189803957938,-0.1947097213473171
1761379427227093000,6.273093017578125,0.9846984348475932,0.9124247874058783,-0.33935116078760474
1761379427237175000,6.283175048828125,1.0494307269990444,0.9357347897142171,-0.3518468505496159
1761379427247257000,6.293257080078125,0.7510130130916833,0.5907278681872412,-0.35927816959414627
1761379427257339000,6.3033388671875,0.04289806148409843,-0.32502157012932,-0.3207002363314852
1761379427267421000,6.3134208984375,-0.22631927690207956,-0.41988143564946945,-0.12966843631193042
1761379427277503000,6.3235029296875,-0.35711306398212905,-0.013535467438795603,-0.030475071632117032
1761379427287585000,6.3335849609375,-0.4651420615464449,0.15982185650793834,0.029642712461203334
1761379427297668000,6.343668212890625,-0.370658774253726,0.09222560802642256,0.048337731787376104
1761379427307750000,6.35375,-0.29106735114455223,0.003107341198460199,-0.008186630923859775
1761379427317832000,6.36383203125,-0.07168985620439053,-0.008524416077439673,-0.08095847367867827
1761379427327914000,6.3739140625,-0.31261399704217907,-0.5153694430053234,-0.2054248843681067
1761379427337996000,6.38399609375,-0.22348259217143057,-1.547071767220646,0.0012200433142483234
1761379427348078000,6.394078125,-0.13390578162074088,-0.3480483350494876,0.23534992090202866
1761379427358160100,6.40416015625,0.3916068697363138,0.31200737291853875,0.2833537810925394
1761379427368243000,6.414242919921875,0.6672714845657348,0.6587088234037161,0.21632658293694257
1761379427378325000,6.424324951171875,0.9206324976503848,0.970419953322038,0.1661777466069907
1761379427388407000,6.434406982421875,0.8504524614870548,0.14623143944493494,0.2272639373410493
1761379427398489000,6.444489013671875,0.23753917457461357,-0.690049279693514,0.3491592554334551
1761379427408571000,6.45457080078125,0.11146715531945228,-0.4461346152702346,0.3770598004024476
1761379427418653000,6.46465283203125,0.07401566880345344,-0.04686145782289095,0.306710472086817
1761379427428736000,6.474736083984375,-0.013106149810552596,0.05798744383400772,0.18248568813353777
1761379427438818000,6.484818115234375,-0.06394552568793296,0.04726138039329089,0.0293359845995903
1761379427448900000,6.494900146484375,0.013431728503108024,0.07307220937430392,-0.006190452137961983
1761379427458982000,6.50498193359375,0.17308453032076357,0.08208565107770263,-0.006302607275545597
1761379427469064000,6.51506396484375,0.2999211042076349,-0.03085086897483561,0.01821362901739776
1761379427479146000,6.52514599609375,0.40136721625030036,-0.1369831341063138,0.010273045276477932
1761379427489228000,6.53522802734375,0.41485388981103893,-0.1269287456823513,-0.04685205980688333
1761379427499310800,6.545310791015625,0.32581834653019903,-0.12367229203651658,-0.1049614997524768
1761379427509393000,6.555392822265625,0.22777532092928884,-0.14419213390336372,-0.16656280040182173
1761379427519475000,6.565474853515625,0.03790098384916782,-0.13373091824417932,-0.21947226055152713
1761379427529557000,6.575556884765625,-0.06645838529169559,-0.049892486948706204,-0.2586941177409142
1761379427539639000,6.58563916015625,-0.06548398730158805,0.06870412752502597,-0.24574863838478922
1761379427549721000,6.59572119140625,-0.17154431514143942,0.21716749074049294,-0.1934656395703554
1761379427559803100,6.60580322265625,-0.3798866213262081,0.22786161097325383,-0.12365750545933842
1761379427569886000,6.615885986328125,-0.37874797268509863,0.1564902461335063,-0.1289743165679276
1761379427579968000,6.625968017578125,-0.39323125606775283,0.11073591843545436,-0.09165456667281686
1761379427590050000,6.636050048828125,-0.24958383263349532,0.03872561180477496,-0.057109469122812145
1761379427600132000,6.646132080078125,-0.06058510934412479,-0.02547139529304113,-0.019924597653746604
1761379427610214000,6.6562138671875,0.156819039696455,-0.07045043233623728,0.02254654365517199
1761379427620296000,6.6662958984375,0.2608253576159477,-0.042523803077917546,0.06084785193353891
1761379427630379000,6.67637890625,0.255423790833354,0.009927236646646633,0.032908728519827124
1761379427640461000,6.6864609375,0.17976327743232248,0.029879882217943667,-0.03843172972500324
1761379427650542800,6.69654296875,0.04897592009305954,0.06305480565959587,-0.07225560032837093
1761379427660625000,6.706625,-0.03074234426617622,0.08758539013830013,-0.019131255318969486
1761379427670707000,6.71670703125,-0.017246318355202673,0.033250847355229776,0.01059160970635712
1761379427680789000,6.7267890625,0.10550678561031818,-0.08723985550310462,0.03634228316508233
1761379427690871000,6.73687109375,0.2198509576708078,-0.14868294251658953,0.0706798023790121
1761379427700953900,6.746953857421875,0.23240941047072408,-0.19916080073835327,0.07256875793077051
1761379427711036000,6.757035888671875,0.22055238393843174,-0.18587160424478352,0.04413987823873758
1761379427721118000,6.767117919921875,0.15132219584584236,-0.1463202593727037,0.05115516382828354
1761379427731200000,6.777199951171875,0.017703414472937582,-0.07822446387121454,0.03525273436270654
1761379427741282000,6.787281982421875,-0.09870587342381477,-0.001728760021366179,0.005154971610382199
1761379427751364000,6.797364013671875,-0.2695779883921146,0.06986317963334732,-0.025614260662719605
1761379427761446000,6.80744580078125,-0.17789631451666355,0.05969860883317887,-0.08205277172140776
1761379427771529000,6.817529052734375,0.028318916511535643,0.0685316113691777,-0.13218144204616547
1761379427781611000,6.827611083984375,0.17542495596706867,-0.013329784232284873,-0.14335472409799693
1761379427791693000,6.837693115234375,0.4150380142062902,-0.1495278049760498,-0.11949731703996658
1761379427801775000,6.847775146484375,0.39702889478504655,-0.1293496892189607,-0.10916837685778737
1761379427811857000,6.85785693359375,0.20170564464926719,-0.12091887427568435,-0.05480696433410048
1761379427821939000,6.86793896484375,-0.03342471521794796,-0.05661984070865437,-0.1083192857477814
1761379427832022000,6.87802197265625,-0.16919570618867874,0.05881901298705488,-0.153154745035246
1761379427842104000,6.88810400390625,-0.20381576867103576,0.06840413079829887,-0.1092381541583687
1761379427852185900,6.898185791015625,-0.07120587207973003,-0.0003549326512031257,-0.0010028203669935464
1761379427862268000,6.908267822265625,0.0642751960337162,-0.05632193547431379,0.06621953503452241
1761379427872350000,6.918349853515625,0.15656886432766914,-0.06483494880832731,0.018023513272777198
1761379427882432000,6.928431884765625,0.03925649011135101,-0.01099396169586107,0.03153955905847251
1761379427892514000,6.93851416015625,-0.05540040018260479,0.08496259475350379,0.027080533822998402
1761379427902596900,6.948596923828125,-0.22500585621595381,0.1516271884080954,-0.04287833387032151
1761379427912679000,6.958678955078125,-0.20879180351793764,0.1555144416376017,-0.061554611963406204
1761379427922761000,6.968760986328125,-0.21605156538784503,0.10427380974926054,-0.05351210221797228
1761379427932843000,6.978843017578125,-0.12973287985026835,0.032137177891749885,-0.020172069608792663
1761379427942925000,6.988925048828125,0.04344985014796257,-0.0023634411957114934,0.025621859447285532
1761379427953007000,6.999007080078125,0.03689151454567909,0.03213832866922021,0.026993732322379945
1761379427963089000,7.0090888671875,-0.10016308649480342,0.03108196975039318,0.0284853591196239
1761379427973172000,7.019171875,-0.17239304092526433,0.059269094842113554,-0.06191767312213778
1761379427983254000,7.02925390625,-0.31676059532761575,0.03049909182852134,-0.16836634269244968
1761379427993336000,7.039336181640625,-0.2861865933656692,-0.03941703270161524,-0.16721651507019997
1761379428003414500,7.04941455078125,-0.040381694748997686,0.001860058250837028,-0.12752550599910317
1761379428013496600,7.05949658203125,0.22378186737895012,-0.05540960640236735,-0.07325133336745202
1761379428023578600,7.06957861328125,0.4266115476220846,-0.2088981865018606,-0.004482990632951259
1761379428033661700,7.07966162109375,0.5328443094193935,-0.2208862555352971,0.0034543782375752925
1761379428043743500,7.089743408203125,0.6710714613705873,-0.16856904392400757,0.006506240088865161
1761379428053825500,7.099825439453125,0.6904863559365272,-0.1923393206878565,-0.010386807849258184
1761379428063907600,7.109907470703125,0.7340203772366046,-0.3267022166926414,-0.021921908950805664
1761379428073989600,7.11998974609375,0.6798691003322601,-0.3761657376395538,0.04816197336167097
1761379428084071700,7.13007177734375,0.5323784454733133,-0.32266587384864687,0.13812128042392433
1761379428094153700,7.14015380859375,0.3914928879678249,-0.1658942169578746,0.17285956245847045
1761379428104236500,7.150236572265625,0.16706512390077113,0.0320923706356436,0.10828567573912441
1761379428114318600,7.160318603515625,0.058096215137839316,0.07702332618683576,0.00829677676744759
1761379428124400600,7.170400634765625,-0.026779870375990868,0.09506024693045764,-0.121429600276798
1761379428134482700,7.180482666015625,-0.19757190584540366,0.15579393443241715,-0.21355119993947444
1761379428144564700,7.190564697265625,-0.35343875938355923,0.13429291777480393,-0.24721841867640612
1761379428154646500,7.200646484375,-0.49285424433648584,0.15853497676886616,-0.1935137164957821
1761379428164729600,7.2107294921875,-0.5172235464394093,0.17647212693244219,-0.12091266373060643
1761379428174811600,7.220811767578125,-0.4349591047286987,0.05023768365718424,-0.011889321366697549
1761379428184893700,7.230893798828125,-0.2954506807953119,-0.08807349331565201,0.015536884088814257
1761379428194975500,7.2409755859375,-0.2285486433893442,-0.20437932083792984,-0.06634922582879663
1761379428205057500,7.2510576171875,-0.2490261987507343,-0.28492095734402534,-0.14499313895478844
1761379428215139600,7.2611396484375,-0.1923854431182146,-0.26588804783299563,-0.1780729131925851
1761379428225221600,7.2712216796875,-0.26900632598400115,-0.13249986034557223,-0.18800927386060357
1761379428235304700,7.2813046875,-0.36025136200785635,-0.0742401982743293,-0.12020393093936145
1761379428245386500,7.291386474609375,-0.2899626047730446,-0.052139498690515755,0.003140709178522229
1761379428255468500,7.301468505859375,-0.19200024319291115,0.07194368483498692,0.0915805515885353
1761379428265550600,7.311550537109375,-0.06733575264811516,0.13258753862902523,0.10204816958904266
1761379428275632600,7.321632568359375,0.05227788424789905,0.11921276447754353,0.062083165882155296
1761379428285714700,7.331714599609375,0.1380307525962591,0.1007799762841314,0.03165383308790624
1761379428295797500,7.341797607421875,0.18061901747882364,0.06543035741820931,0.10706417112015187
1761379428305879600,7.351879638671875,0.21452888586521146,0.029587475142627953,0.08757979151457547
1761379428315961600,7.361961669921875,0.27206162190139294,-0.02037398538906127,0.05603080704063177
1761379428326043600,7.372043701171875,0.28636604158580303,-0.04725380900818854,0.03728906249590218
1761379428336125700,7.382125732421875,0.2314291672617197,-0.07272950145043432,-0.007327566409111023
1761379428346207700,7.392207763671875,0.20451602589488027,-0.05106752207744866,-0.12074658644869923
1761379428356289500,7.40228955078125,0.0635521424561739,-0.004928177117183804,-0.1900347152736038
1761379428366372600,7.41237255859375,-0.013647417080402374,0.008768558997660875,-0.19773111499510704
1761379428376454700,7.42245458984375,-0.044210313126444814,0.007648907317966223,-0.14039119811728595
1761379428386536700,7.43253662109375,0.04384674051105976,-0.03226842132229358,-0.12855280322022736
1761379428396618500,7.442618408203125,0.18579612785577773,-0.044262920096516604,-0.11145933733917772
1761379428406700500,7.452700439453125,0.233511818754673,-0.07796418723352253,-0.03952178998403251
1761379428416782600,7.462782470703125,0.17343875058591365,-0.06273954743165522,0.011072744286805391
1761379428426864600,7.47286474609375,0.05543722506165504,0.04298398620188236,0.07137019579596818
1761379428436947700,7.48294775390625,-0.11448679540157318,0.0783475239953026,0.14580935070849954
1761379428447029500,7.493029541015625,-0.2773813556194305,0.035089908483810724,0.15247852627411485
1761379428457111600,7.503111572265625,-0.3621539807587862,-0.016650288690812885,0.09885463424474
1761379428467193600,7.513193603515625,-0.2280991460561752,-0.06607680209558457,0.006541530597954988
1761379428477275600,7.523275634765625,-0.04352349990606308,-0.11807480995617806,-0.10503756066337228
1761379428487357700,7.533357666015625,0.07842354837357997,-0.13354505854956805,-0.12259060688018798
1761379428497440500,7.5434404296875,0.13107085045576095,-0.08793039505053311,-0.09827274270355701
1761379428507522600,7.5535224609375,0.08618950619995594,-0.07409903623796998,-0.034570378121733664
1761379428517604600,7.5636044921875,0.11569909380078315,0.04552285702973604,-0.04635726202726364
1761379428527686700,7.573686767578125,0.06129238083064556,0.12688801181316375,-0.07917268624044954
1761379428537768700,7.583768798828125,0.07147767475843429,0.04704433097597211,-0.0772024821460247
1761379428547850500,7.5938505859375,0.13354396257102488,-0.0027404578145593405,-0.06198942318409681
1761379428557932500,7.6039326171875,0.14363339490890503,-0.007913622668758034,-0.10135521888881921
1761379428568015600,7.614015625,0.04940963533520698,0.04024495315942913,-0.12854593508802353
1761379428578097700,7.62409765625,0.03971183266341686,0.11944120293855666,-0.09701726274974644
1761379428588179700,7.6341796875,-0.031181320205330848,0.08932754849735647,-0.07156791032515465
1761379428598261500,7.644261474609375,0.00846270791888237,0.04372307759877294,0.0018399287782609461
1761379428608343600,7.654343505859375,0.014411971712112425,0.020510836576484143,0.015449717262014745
1761379428618425600,7.664425537109375,0.04819499884843826,-0.05936513909511268,-0.019455372706800696
1761379428628509000,7.674509033203125,0.15557108546197412,-0.17809475969821215,-0.0019418547827750442
1761379428638590500,7.684590576171875,0.2060790374279022,-0.051995158316381275,-0.04772621229290962
1761379428648672500,7.694672607421875,-0.005699088424444198,0.11880791000369935,-0.13818579702749847
1761379428658754600,7.704754638671875,-0.12020166591703892,0.06354618763942271,-0.01554777080900967
1761379428668836600,7.714836669921875,-0.14538403796851634,-0.08303001925572752,0.11459588179923594
1761379428678918700,7.724918701171875,-0.15501169801354409,-0.18121311091445386,0.1312838356193155
1761379428689000700,7.735000732421875,-0.07964578364491462,-0.17743198494054377,0.12730324155054987
1761379428699083800,7.745083740234375,-0.05789397056400775,-0.18575364042092113,0.09741444537378847
1761379428709165600,7.75516552734375,0.024834581527113913,-0.21814101194776594,0.06204451437219977
1761379428719247600,7.76524755859375,-0.06739362031519412,-0.4314265832209959,0.06260996623523533
1761379428729329700,7.77532958984375,0.08191139048933982,-0.43611576395053414,0.2274029074203223
1761379428739411700,7.78541162109375,0.4934282448321581,0.032204489240609105,0.24859986309744417
1761379428749493500,7.795493408203125,0.33505028525590896,-0.007041442944109439,0.2702249079935253
1761379428759576800,7.805576904296875,0.06347732365429401,0.2594486259026453,0.16174531711749732
1761379428769659000,7.815658935546875,-0.08489537473618984,-0.02211403398942202,0.028422742212191224
1761379428779741000,7.825740966796875,-0.3361275590986013,0.048952283489145335,-0.0962852221481502
1761379428789822500,7.835822509765625,-0.23223639199137686,0.05945891832578927,-0.18118205818906424
1761379428799904500,7.845904541015625,-0.2542149995654821,-0.38283747048843647,-0.20060688962712883
1761379428809986600,7.855986572265625,-0.24370821859836578,-0.7271309099838137,-0.17676446094252168
1761379428820068600,7.866068603515625,0.3243225550144911,-0.32845267708916215,-0.2544002199392766
1761379428830151700,7.876151611328125,-0.27655717975497246,-1.4153338311582804,0.1148103282675147
1761379428840233700,7.886233642578125,-0.33085341808795926,-0.6766545221999287,0.36445517037324604
1761379428850315800,7.896315673828125,0.15979250254929064,-0.2883309119179845,0.4204446955554187
1761379428860397600,7.9063974609375,0.14877835658192634,0.27142116857338694,0.46227556619942184
1761379428870479600,7.916479736328125,0.36153555659949776,0.7066292430944741,0.3907205884210765
1761379428880561700,7.926561767578125,0.4472013311862945,0.9188926682457327,0.2821516387611627
1761379428890644700,7.936644775390625,0.42407764523029323,0.8840742336470633,0.11537906806617974
1761379428900726800,7.946726806640625,0.6896832228600979,0.9352401380650699,-0.19712372368648648
1761379428910808800,7.956808837890625,0.55797232093513,0.24848653891608116,-0.49554202211573717
1761379428920891000,7.966890869140625,0.14159399803578854,-0.5691145137289538,-0.5232751015633345
1761379428930972700,7.97697265625,0.021076105776429176,-0.14572960000317542,-0.7010793538823723
1761379428941054500,7.987054443359375,-0.04274433222711086,0.0475114004984498,-0.7980455440320074
1761379428951136500,7.997136474609375,-0.09456804296672344,-0.041461891201138495,-0.6570797608971596
1761379428961219800,8.0072197265625,0.13916706314980984,-0.04692428479287773,-0.5146393751651048
1761379428971302000,8.017302001953125,0.27107728703916073,0.002386931669153273,-0.3794768714815378
1761379428981383700,8.0273837890625,0.25414485693871974,0.07544891647696494,-0.21345592287145554
1761379428991465700,8.0374658203125,0.1350163732111454,0.13874712070468811,-0.06584273761138319
1761379429001547500,8.047547607421874,0.09959843834936619,0.15678444330710917,0.06121332424506545
1761379429011629600,8.057629638671875,0.1837368572384119,0.14394403176065534,0.12699322575330735
1761379429021712600,8.067712646484376,0.10753799917697907,0.07774754880815744,0.14544694713689385
1761379429031794400,8.07779443359375,-0.06278583425879478,0.00710672673266381,0.1448301304128021
1761379429041876500,8.08787646484375,-0.08642916017472743,0.013498911987803876,0.11422668316066265
1761379429051958500,8.09795849609375,-0.10715630638301372,0.004922258833050728,0.06828845026306808
1761379429062040600,8.10804052734375,-0.12233341724872589,-0.05586761583555489,0.13046557803899048
1761379429072122600,8.11812255859375,-0.10204349341392517,-0.10482939780540763,0.137160472567752
1761379429082204700,8.12820458984375,0.0014537059396505356,-0.09993278487026691,0.023969489130377768
1761379429092287500,8.13828759765625,0.1834703152567148,-0.08692414061743765,-0.08375855272598565
1761379429102369500,8.14836962890625,0.3268652252346277,-0.08838518961332738,-0.1416026197336614
1761379429112451600,8.15845166015625,0.4188081803947687,-0.08537029877156019,-0.1749917521815747
1761379429122533600,8.16853369140625,0.47064825774729246,-0.08265241811499,-0.23952793723903595
1761379429132615700,8.17861572265625,0.3837637550204992,0.015640417528524995,-0.2043621505074203
1761379429142697500,8.188697509765625,-0.1903852092117071,-0.10250460811965167,-0.04135770017430186
1761379429152779500,8.198779541015625,-0.19760230098366735,0.0018188859902322292,-0.15115319595448673
1761379429162862600,8.208862548828124,-0.4826631051898002,0.12237849849946796,-0.1584393343746662
1761379429172944600,8.218944580078125,-0.4793734159946441,0.05652838129922747,-0.09050539663769304
1761379429183026400,8.2290263671875,-0.34607319905161854,-0.021060104489699003,0.03488258587606251
1761379429193108500,8.2391083984375,-0.09917816711068153,-0.049125849957764145,0.10457162365205586
1761379429203190500,8.2491904296875,0.009893617504835129,-0.14841544155366718,0.09374415936321019
1761379429213272600,8.2592724609375,-0.01586275504231453,-0.08739588631503284,-0.07109386307261883
