time,seconds_elapsed,z,y,x
1761379420974912800,0.020912841796875,-0.9316558837890625,0.0362396240234375,-0.063507080078125
1761379420984994800,0.030994873046875,-0.9392547607421875,0.0389404296875,-0.0550994873046875
1761379420995076600,0.04107666015625,-0.9498138427734375,0.052032470703125,-0.0414581298828125
1761379421005158700,0.05115869140625,-0.952728271484375,0.09869384765625,-0.039581298828125
1761379421015240700,0.06124072265625,-0.9432220458984375,0.1469573974609375,-0.0431671142578125
1761379421025322800,0.07132275390625,-0.9462127685546875,0.1974334716796875,-0.04083251953125
1761379421035404800,0.08140478515625,-0.961944580078125,0.241546630859375,-0.046661376953125
1761379421045487600,0.091487548828125,-0.9646148681640625,0.27508544921875,-0.0589599609375
1761379421055569700,0.101569580078125,-0.97821044921875,0.296539306640625,-0.069732666015625
1761379421065651700,0.111651611328125,-0.9774169921875,0.2980804443359375,-0.09027099609375
1761379421075733800,0.121733642578125,-0.9595489501953125,0.2804107666015625,-0.1130523681640625
1761379421085815600,0.131815673828125,-0.94964599609375,0.2591400146484375,-0.12054443359375
1761379421095897600,0.141897705078125,-0.9697723388671875,0.2606201171875,-0.1204376220703125
1761379421105979600,0.151979736328125,-0.960662841796875,0.252716064453125,-0.124969482421875
1761379421116061400,0.1620615234375,-0.9905853271484375,0.2437286376953125,-0.1139373779296875
1761379421126143500,0.1721435546875,-1.0285186767578125,0.2242279052734375,-0.0893402099609375
1761379421136225500,0.1822255859375,-1.0496826171875,0.1633758544921875,-0.054534912109375
1761379421146307600,0.1923076171875,-1.110565185546875,0.1166839599609375,-0.002410888671875
1761379421156389400,0.202389404296875,-1.1346282958984375,0.080657958984375,0.0408477783203125
1761379421166471400,0.212471435546875,-1.09124755859375,0.030059814453125,0.0658111572265625
1761379421176554800,0.2225546875,-1.0369720458984375,-0.0601043701171875,0.04522705078125
1761379421186636500,0.232636474609375,-0.9536285400390625,-0.1926727294921875,-0.01300048828125
1761379421196718300,0.24271826171875,-0.8782958984375,-0.2860870361328125,-0.0458831787109375
1761379421206800400,0.25280029296875,-0.8571014404296875,-0.236236572265625,-0.06341552734375
1761379421216882400,0.26288232421875,-0.9558563232421875,-0.063690185546875,-0.12579345703125
1761379421226964500,0.272964599609375,-1.0055389404296875,0.0191650390625,-0.1519317626953125
1761379421237046500,0.283046630859375,-1.0230560302734375,0.0140533447265625,-0.1072845458984375
1761379421247128600,0.293128662109375,-1.06671142578125,0.002288818359375,-0.034088134765625
1761379421257210400,0.30321044921875,-1.091156005859375,0.01263427734375,0.00933837890625
1761379421267292400,0.31329248046875,-1.09234619140625,0.054168701171875,0.010101318359375
1761379421277374500,0.32337451171875,-1.0376129150390625,0.10980224609375,-0.0095367431640625
1761379421287456500,0.33345654296875,-1.07781982421875,0.13623046875,0.017547607421875
1761379421297538600,0.34353857421875,-1.148345947265625,0.1208343505859375,0.0722198486328125
1761379421307621400,0.353621337890625,-1.148040771484375,0.0868988037109375,0.118988037109375
1761379421317703400,0.363703369140625,-1.097900390625,0.075408935546875,0.119964599609375
1761379421327785500,0.373785400390625,-1.02130126953125,0.0857391357421875,0.0902557373046875
1761379421337867500,0.383867431640625,-0.958282470703125,0.097137451171875,0.1005401611328125
1761379421347949600,0.393949462890625,-0.929840087890625,0.0928802490234375,0.1342926025390625
1761379421358031600,0.404031494140625,-0.9470672607421875,0.08123779296875,0.159576416015625
1761379421368113400,0.414113525390625,-0.954925537109375,0.0681304931640625,0.169647216796875
1761379421378195500,0.424195556640625,-0.9602813720703125,0.062652587890625,0.1561737060546875
1761379421388277500,0.434277587890625,-0.9708709716796875,0.06866455078125,0.1327667236328125
1761379421398359600,0.444359619140625,-0.988494873046875,0.072723388671875,0.0873565673828125
1761379421408441600,0.454441650390625,-0.9810791015625,0.079315185546875,0.0481719970703125
1761379421418523600,0.464523681640625,-0.967132568359375,0.08367919921875,0.040924072265625
1761379421428606500,0.4746064453125,-0.9611053466796875,0.048736572265625,0.0527191162109375
1761379421438688500,0.4846884765625,-0.9765167236328125,-0.0012359619140625,0.06219482421875
1761379421448770600,0.4947705078125,-0.981903076171875,-0.0184173583984375,0.0662078857421875
1761379421458852600,0.5048525390625,-0.97900390625,-0.035247802734375,0.0811767578125
1761379421468934700,0.5149345703125,-0.970672607421875,-0.0624542236328125,0.077117919921875
1761379421479016400,0.525016357421875,-0.9693450927734375,-0.07696533203125,0.0475006103515625
1761379421489098500,0.535098388671875,-0.985015869140625,-0.0614471435546875,0.016998291015625
1761379421499180500,0.5451806640625,-0.9969635009765625,-0.0665435791015625,-0.0001220703125
1761379421509262600,0.5552626953125,-0.99224853515625,-0.080108642578125,0.004364013671875
1761379421519344600,0.5653447265625,-1.01043701171875,-0.09417724609375,0.021881103515625
1761379421529426700,0.5754267578125,-1.039215087890625,-0.08905029296875,0.037078857421875
1761379421539509500,0.585509521484375,-1.0605316162109375,-0.017822265625,0.0493621826171875
1761379421549591600,0.595591552734375,-1.057769775390625,0.0413818359375,0.0582427978515625
1761379421559673600,0.605673583984375,-1.0439910888671875,0.0377044677734375,0.068359375
1761379421569755600,0.615755615234375,-1.027801513671875,0.001556396484375,0.0830230712890625
1761379421579837400,0.62583740234375,-1.03472900390625,-0.0113677978515625,0.0654296875
1761379421589919500,0.63591943359375,-1.0263824462890625,-0.017303466796875,0.0348663330078125
1761379421600001500,0.64600146484375,-0.955780029296875,-0.0671844482421875,0.05804443359375
1761379421610083600,0.65608349609375,-0.93634033203125,-0.1039276123046875,0.1142425537109375
1761379421620165600,0.66616552734375,-0.9782562255859375,-0.0722503662109375,0.11395263671875
1761379421630247700,0.67624755859375,-0.975860595703125,-0.011566162109375,0.070648193359375
1761379421640329500,0.68632958984375,-0.9689483642578125,-0.0189208984375,0.053070068359375
1761379421650411500,0.69641162109375,-1.0247802734375,-0.0351715087890625,0.0499114990234375
1761379421660494600,0.70649462890625,-1.0556793212890625,-0.0258026123046875,0.0518646240234375
1761379421670576600,0.71657666015625,-1.053985595703125,-0.02935791015625,0.0444183349609375
1761379421680658700,0.72665869140625,-1.0678558349609375,-0.038543701171875,0.0461883544921875
1761379421690740500,0.736740478515625,-1.041717529296875,-0.0735931396484375,0.0586090087890625
1761379421700822500,0.746822509765625,-0.9976654052734375,-0.0789794921875,0.05126953125
1761379421710904600,0.756904541015625,-0.9703369140625,-0.06427001953125,0.046234130859375
1761379421720986600,0.766986572265625,-0.9725494384765625,-0.06353759765625,0.069000244140625
1761379421731068700,0.777068603515625,-0.9787139892578125,-0.0620880126953125,0.0762176513671875
1761379421741150700,0.787150634765625,-0.98760986328125,-0.0897369384765625,0.054534912109375
1761379421751232500,0.797232421875,-0.9681549072265625,-0.1088409423828125,0.036773681640625
1761379421761314600,0.807314453125,-0.9471282958984375,-0.1004180908203125,0.015045166015625
1761379421771397600,0.817397705078125,-0.944000244140625,-0.0537567138671875,-0.017120361328125
1761379421781479700,0.827479736328125,-0.9636688232421875,-0.009124755859375,-0.04248046875
1761379421791561700,0.837561767578125,-1.01800537109375,-0.0032196044921875,-0.0289306640625
1761379421801643500,0.8476435546875,-1.05072021484375,-0.0719451904296875,0.0048370361328125
1761379421811725600,0.8577255859375,-1.044891357421875,-0.1034088134765625,0.00421142578125
1761379421821807600,0.8678076171875,-0.9837646484375,-0.1033477783203125,-0.01409912109375
1761379421831889700,0.8778896484375,-0.91387939453125,-0.0942230224609375,-0.019805908203125
1761379421841971700,0.8879716796875,-0.87353515625,-0.067047119140625,-0.0380859375
1761379421852053800,0.8980537109375,-0.862579345703125,-0.072174072265625,-0.0216522216796875
1761379421862135600,0.908135498046875,-0.9168243408203125,-0.0982666015625,0.0425262451171875
1761379421872218600,0.918218505859375,-0.9726409912109375,-0.0651702880859375,0.0500640869140625
1761379421882300700,0.92830078125,-0.969879150390625,-0.0365447998046875,-0.0067138671875
1761379421892382700,0.9383828125,-0.9894561767578125,-0.0454559326171875,-0.0389251708984375
1761379421902464500,0.948464599609375,-0.9685211181640625,-0.073333740234375,-0.058258056640625
1761379421912546600,0.958546630859375,-0.9752197265625,-0.0490570068359375,-0.1028289794921875
1761379421922628600,0.968628662109375,-0.998504638671875,-0.0136566162109375,-0.119659423828125
1761379421932710700,0.978710693359375,-1.0210723876953125,-0.0595703125,-0.0506134033203125
1761379421942792700,0.988792724609375,-1.0408782958984375,-0.096343994140625,0.02752685546875
1761379421952874800,0.998874755859375,-1.0229644775390625,-0.0728302001953125,0.030487060546875
1761379421962956500,1.00895654296875,-0.97784423828125,-0.0495452880859375,0.010467529296875
1761379421973039600,1.01903955078125,-0.9332427978515625,-0.063873291015625,0.0030059814453125
1761379421983121700,1.02912158203125,-0.9091796875,-0.0581512451171875,-0.008056640625
1761379421993200600,1.03920068359375,-0.9132537841796875,-0.0485382080078125,-0.0134429931640625
1761379422003282400,1.049282470703125,-0.958038330078125,-0.050506591796875,0.0067901611328125
1761379422013364500,1.059364501953125,-0.987396240234375,-0.040679931640625,0.023895263671875
1761379422023446500,1.069446533203125,-0.982574462890625,-0.037841796875,0.0095672607421875
1761379422033528300,1.0795283203125,-0.9817047119140625,-0.0535888671875,-0.0257110595703125
1761379422043610400,1.0896103515625,-0.9730682373046875,-0.042022705078125,-0.0608978271484375
1761379422053692400,1.0996923828125,-0.9503631591796875,-0.028167724609375,-0.0888824462890625
1761379422063774500,1.1097744140625,-0.9480438232421875,-0.0120849609375,-0.0962066650390625
1761379422073857500,1.119857421875,-0.982177734375,-0.0071868896484375,-0.0609283447265625
1761379422083939600,1.129939697265625,-1.01312255859375,-0.01593017578125,-0.0021820068359375
1761379422094021600,1.140021728515625,-1.0194854736328125,-0.028839111328125,0.0218963623046875
1761379422104103400,1.150103515625,-1.012786865234375,-0.01702880859375,0.00372314453125
1761379422114185200,1.160185302734375,-1.0171966552734375,0.05438232421875,-0.0165863037109375
1761379422124267300,1.170267333984375,-0.9455718994140625,0.02960205078125,-0.0021514892578125
1761379422134349300,1.180349365234375,-0.9096221923828125,-0.058563232421875,0.0124969482421875
1761379422144431400,1.190431396484375,-0.9405517578125,-0.0614013671875,0.0217437744140625
1761379422154513400,1.200513427734375,-0.9969940185546875,-0.0258331298828125,0.0521240234375
1761379422164595500,1.210595458984375,-1.07415771484375,-0.0211944580078125,0.0758819580078125
1761379422174678300,1.22067822265625,-1.096038818359375,-0.0099639892578125,0.0710601806640625
1761379422184760300,1.23076025390625,-1.0806732177734375,0.0050506591796875,0.0492706298828125
1761379422194842400,1.24084228515625,-1.047607421875,-0.02362060546875,0.0205535888671875
1761379422204924400,1.25092431640625,-0.9860382080078125,-0.039520263671875,0.0215606689453125
1761379422215006500,1.26100634765625,-0.9688720703125,-0.0368194580078125,0.0354766845703125
1761379422225088300,1.271088134765625,-0.9808349609375,-0.03948974609375,0.0600738525390625
1761379422235170300,1.28117041015625,-1.052032470703125,-0.0566864013671875,0.0926666259765625
1761379422245252400,1.29125244140625,-1.1053924560546875,-0.04736328125,0.0903778076171875
1761379422255334400,1.30133447265625,-1.0932159423828125,-0.034912109375,0.0637359619140625
1761379422265417200,1.311417236328125,-1.0360565185546875,-0.036529541015625,0.053466796875
1761379422275499300,1.321499267578125,-0.9813995361328125,-0.0421600341796875,0.040985107421875
1761379422285581300,1.331581298828125,-0.951324462890625,-0.1007843017578125,0.0360107421875
1761379422295663400,1.341663330078125,-0.930450439453125,-0.0736083984375,0.0424957275390625
1761379422305745400,1.351745361328125,-0.9228515625,-0.002471923828125,0.0137786865234375
1761379422315827500,1.361827392578125,-0.9481964111328125,-0.04071044921875,0.001190185546875
1761379422325909500,1.371909423828125,-0.9490203857421875,-0.033843994140625,0.010528564453125
1761379422335991300,1.3819912109375,-0.9536895751953125,-0.0110015869140625,0.03265380859375
1761379422346073300,1.3920732421875,-0.957733154296875,-0.0081634521484375,0.0348358154296875
1761379422356156400,1.402156494140625,-0.9757232666015625,-0.0111541748046875,0.015472412109375
1761379422366238500,1.412238525390625,-0.96563720703125,0.0020599365234375,0.02020263671875
1761379422376320300,1.4223203125,-0.9805450439453125,-0.0030364990234375,0.016204833984375
1761379422386402300,1.43240234375,-1.0047607421875,-0.0078887939453125,0.0092010498046875
1761379422396484400,1.442484375,-0.998748779296875,-0.00634765625,0.0081329345703125
1761379422406566400,1.45256640625,-1.0167236328125,-0.0087738037109375,0.03497314453125
1761379422416648400,1.4626484375,-1.027008056640625,-0.0141754150390625,0.0265960693359375
1761379422426730500,1.47273046875,-1.0193939208984375,-0.03863525390625,0.010498046875
1761379422436812300,1.482812255859375,-0.99993896484375,-0.016845703125,0.0072021484375
1761379422446895400,1.492895263671875,-0.99365234375,0.0008697509765625,0.007110595703125
1761379422456977400,1.502977294921875,-1.0003509521484375,-0.030548095703125,0.0414276123046875
1761379422467059500,1.5130595703125,-1.0065155029296875,-0.0258636474609375,0.0366973876953125
1761379422477141500,1.5231416015625,-0.9823455810546875,-0.000579833984375,0.0337066650390625
1761379422487223300,1.533223388671875,-0.9992218017578125,-0.0276641845703125,0.0546417236328125
1761379422497305300,1.543305419921875,-1.0125885009765625,-0.0576324462890625,0.0711517333984375
1761379422507387400,1.553387451171875,-1.0187835693359375,0.0261688232421875,0.0351715087890625
1761379422517469400,1.563469482421875,-0.99896240234375,-0.0034637451171875,0.0261077880859375
1761379422527551500,1.573551513671875,-1.013031005859375,-0.0511627197265625,0.0382537841796875
1761379422537634300,1.58363427734375,-1.0194549560546875,-0.0364990234375,0.0353546142578125
1761379422547716400,1.59371630859375,-1.0228271484375,-0.027069091796875,0.0391082763671875
1761379422557798400,1.60379833984375,-1.03045654296875,-0.017059326171875,0.0532379150390625
1761379422567880400,1.61388037109375,-1.01275634765625,-0.02410888671875,0.06097412109375
1761379422577962500,1.62396240234375,-0.9991302490234375,-0.021484375,0.0572967529296875
1761379422588044300,1.634044189453125,-0.9683990478515625,-0.0165252685546875,0.070098876953125
1761379422598126300,1.644126220703125,-0.9600677490234375,-0.020721435546875,0.06591796875
1761379422608208400,1.65420849609375,-0.9791107177734375,0.0123748779296875,0.0465240478515625
1761379422618290400,1.66429052734375,-0.978759765625,-0.001739501953125,0.05224609375
1761379422628373500,1.67437353515625,-0.9901580810546875,-0.0342864990234375,0.0707855224609375
1761379422638455300,1.684455322265625,-1.018829345703125,-0.0189666748046875,0.061767578125
1761379422648537300,1.694537353515625,-1.0214691162109375,-0.0185546875,0.052459716796875
1761379422658619400,1.704619384765625,-1.00335693359375,-0.0164031982421875,0.04437255859375
1761379422668701400,1.714701416015625,-0.989776611328125,-0.0139007568359375,0.0351715087890625
1761379422678783500,1.724783447265625,-0.9761199951171875,-0.0084075927734375,0.025726318359375
1761379422688865500,1.734865478515625,-0.994537353515625,-0.0023651123046875,0.019317626953125
1761379422698947300,1.744947265625,-1.0175018310546875,-0.005096435546875,0.024505615234375
1761379422709030400,1.755030517578125,-1.034088134765625,-0.0059356689453125,0.0338897705078125
1761379422719112400,1.765112548828125,-1.0267181396484375,-0.010772705078125,0.039581298828125
1761379422729194500,1.775194580078125,-1.0095062255859375,-0.0160980224609375,0.0386810302734375
1761379422739276300,1.7852763671875,-1.001953125,-0.015411376953125,0.037261962890625
1761379422749358300,1.7953583984375,-0.9935455322265625,-0.011260986328125,0.032806396484375
1761379422759440400,1.8054404296875,-0.9922332763671875,-0.0214996337890625,0.0349578857421875
1761379422769522400,1.8155224609375,-0.9978485107421875,-0.024810791015625,0.0359649658203125
1761379422779604500,1.8256044921875,-1.0029296875,-0.01904296875,0.0321197509765625
1761379422789686500,1.8356865234375,-0.9929046630859375,-0.0126190185546875,0.0281524658203125
1761379422799769300,1.845769287109375,-0.9852142333984375,-0.006683349609375,0.02734375
1761379422809851400,1.855851318359375,-0.97296142578125,-0.0079193115234375,0.029052734375
1761379422819933400,1.865933349609375,-0.9638824462890625,-0.00775146484375,0.0286712646484375
1761379422830015500,1.876015380859375,-0.9560394287109375,-0.005279541015625,0.0249481201171875
1761379422840097500,1.88609765625,-0.95550537109375,-0.00689697265625,0.029632568359375
1761379422850179300,1.896179443359375,-0.9609375,-0.0675048828125,0.059417724609375
1761379422860261400,1.906261474609375,-0.9928131103515625,0.0377197265625,0.035888671875
1761379422870343400,1.916343505859375,-0.971710205078125,0.0351104736328125,0.0145111083984375
1761379422880426500,1.926426513671875,-0.984344482421875,-0.0522613525390625,0.03436279296875
1761379422890508300,1.93650830078125,-0.9841156005859375,-0.0286712646484375,0.0399932861328125
1761379422900590300,1.94659033203125,-0.9835205078125,-0.023193359375,0.03643798828125
1761379422910672400,1.95667236328125,-0.9929351806640625,-0.028533935546875,0.0380401611328125
1761379422920754400,1.96675439453125,-1.0039215087890625,-0.0299224853515625,0.0438385009765625
1761379422930836500,1.97683642578125,-1.0077056884765625,-0.0288543701171875,0.046112060546875
1761379422940918500,1.98691845703125,-1.0092315673828125,-0.0264129638671875,0.04559326171875
1761379422951000600,1.99700048828125,-1.0016937255859375,-0.0270233154296875,0.0461883544921875
1761379422961083400,2.00708349609375,-0.9989471435546875,-0.0228118896484375,0.048187255859375
1761379422971165400,2.01716552734375,-1.0250244140625,-0.0326080322265625,0.044403076171875
1761379422981247500,2.02724755859375,-1.022735595703125,-0.056915283203125,0.0720672607421875
1761379422991329500,2.03732958984375,-1.023193359375,0.023162841796875,0.0535125732421875
1761379423001411800,2.047411865234375,-1.0143585205078125,0.01806640625,0.0374908447265625
1761379423011494000,2.057493896484375,-1.0197296142578125,-0.031982421875,0.057861328125
1761379423021576000,2.067575927734375,-1.010894775390625,-0.0164337158203125,0.058685302734375
1761379423031658000,2.077657958984375,-1.00360107421875,-0.007781982421875,0.04449462890625
1761379423041740800,2.08774072265625,-0.993865966796875,-0.0047454833984375,0.041351318359375
1761379423051822800,2.09782275390625,-0.983612060546875,-0.001129150390625,0.0369110107421875
1761379423061905000,2.10790478515625,-0.981781005859375,-0.0092926025390625,0.0213470458984375
1761379423071987000,2.117987060546875,-0.99237060546875,-0.0247344970703125,0.0141143798828125
1761379423082069000,2.128069091796875,-0.9981231689453125,-0.020904541015625,0.023590087890625
1761379423092151000,2.138151123046875,-1.0032958984375,0.00433349609375,0.024658203125
1761379423102232800,2.14823291015625,-1.006011962890625,-0.0132293701171875,0.03045654296875
1761379423112315000,2.15831494140625,-1.00146484375,-0.0088043212890625,0.0388336181640625
1761379423122398000,2.16839794921875,-0.990325927734375,-0.0067291259765625,0.035888671875
1761379423132480000,2.17847998046875,-0.986175537109375,-0.011810302734375,0.0414581298828125
1761379423142561800,2.188561767578125,-0.9892578125,-0.0180511474609375,0.0563201904296875
1761379423152643800,2.198643798828125,-0.9944915771484375,-0.0279388427734375,0.06219482421875
1761379423162726000,2.208725830078125,-0.990509033203125,-0.0289764404296875,0.059967041015625
1761379423172808000,2.218807861328125,-0.992919921875,-0.0239410400390625,0.05401611328125
1761379423182890000,2.228889892578125,-0.98834228515625,-0.0188140869140625,0.045379638671875
1761379423192972000,2.238971923828125,-0.982391357421875,-0.0184326171875,0.035614013671875
1761379423203054800,2.249054931640625,-0.9827423095703125,-0.017822265625,0.0250244140625
1761379423213137000,2.259136962890625,-0.987060546875,-0.014862060546875,0.0181732177734375
1761379423223219000,2.269218994140625,-0.9960479736328125,-0.01312255859375,0.0198822021484375
1761379423233301000,2.279301025390625,-1.0088653564453125,-0.0089874267578125,0.021240234375
1761379423243383000,2.289383056640625,-1.0099334716796875,-0.010986328125,0.0292205810546875
1761379423253464800,2.29946484375,-1.0076751708984375,-0.01690673828125,0.0330810546875
1761379423263547000,2.309546875,-1.002655029296875,-0.021270751953125,0.0279388427734375
1761379423273630000,2.3196298828125,-1.00262451171875,-0.02349853515625,0.0236663818359375
1761379423283712000,2.3297119140625,-0.9981689453125,-0.0268707275390625,0.024017333984375
1761379423293793800,2.339793701171875,-1.00323486328125,-0.0249481201171875,0.0256500244140625
1761379423303875800,2.349875732421875,-1.0100555419921875,-0.0238800048828125,0.0241851806640625
1761379423313958000,2.3599580078125,-0.99761962890625,-0.0241546630859375,0.025421142578125
1761379423324040000,2.3700400390625,-0.9860687255859375,-0.0226898193359375,0.0339813232421875
1761379423334122000,2.3801220703125,-0.9811859130859375,-0.0237884521484375,0.04400634765625
1761379423344204000,2.3902041015625,-0.9775848388671875,-0.023406982421875,0.05120849609375
1761379423354286800,2.400286865234375,-0.975433349609375,-0.0159912109375,0.0498199462890625
1761379423364369000,2.410368896484375,-0.9767608642578125,-0.0147552490234375,0.0429840087890625
1761379423374451000,2.420450927734375,-0.972076416015625,-0.017425537109375,0.03521728515625
1761379423384533000,2.430532958984375,-0.9700775146484375,-0.01739501953125,0.0297698974609375
1761379423394615000,2.440614990234375,-0.9741363525390625,-0.0189361572265625,0.0272674560546875
1761379423404696800,2.45069677734375,-0.9833984375,-0.0229034423828125,0.0302276611328125
1761379423414779000,2.46077880859375,-0.9946136474609375,-0.0221710205078125,0.0355224609375
1761379423424861000,2.47086083984375,-1.0046539306640625,-0.0257720947265625,0.0366058349609375
1761379423434944000,2.480944091796875,-1.001861572265625,-0.02374267578125,0.033233642578125
1761379423445026000,2.491026123046875,-1.00335693359375,-0.020721435546875,0.0321197509765625
1761379423455107800,2.50110791015625,-1.0084075927734375,-0.02288818359375,0.035430908203125
1761379423465190000,2.51118994140625,-1.0115966796875,-0.0250396728515625,0.037933349609375
1761379423475272000,2.52127197265625,-1.001922607421875,-0.030303955078125,0.0341949462890625
1761379423485354000,2.53135400390625,-0.9934844970703125,-0.0338592529296875,0.0259857177734375
1761379423495436000,2.54143603515625,-0.9863739013671875,-0.038299560546875,0.020782470703125
1761379423505518800,2.551518798828125,-0.983673095703125,-0.040069580078125,0.020782470703125
1761379423515601000,2.561600830078125,-0.9804534912109375,-0.0381927490234375,0.0224609375
1761379423525683000,2.571682861328125,-0.9854736328125,-0.0333709716796875,0.0255584716796875
1761379423535765000,2.581764892578125,-0.9974822998046875,-0.02825927734375,0.0280609130859375
1761379423545847000,2.591846923828125,-1.0048065185546875,-0.0233612060546875,0.0305633544921875
1761379423555928800,2.6019287109375,-1.0057373046875,-0.0201873779296875,0.038543701171875
1761379423566011000,2.612010986328125,-1.002777099609375,-0.02252197265625,0.044708251953125
1761379423576093000,2.622093017578125,-1.0061187744140625,-0.024993896484375,0.0483245849609375
1761379423586176000,2.632176025390625,-1.000946044921875,-0.028594970703125,0.0456085205078125
1761379423596258000,2.642258056640625,-0.991058349609375,-0.0320587158203125,0.0348968505859375
1761379423606339800,2.65233984375,-0.9851837158203125,-0.0328369140625,0.0237884521484375
1761379423616422000,2.662421875,-0.984954833984375,-0.0299835205078125,0.0187530517578125
1761379423626504000,2.67250390625,-0.9832916259765625,-0.0231781005859375,0.018524169921875
1761379423636586000,2.6825859375,-0.9822540283203125,-0.0188751220703125,0.0219268798828125
1761379423646668000,2.69266796875,-0.98065185546875,-0.0167083740234375,0.0219573974609375
1761379423656750800,2.702750732421875,-0.9812164306640625,-0.0175018310546875,0.0232696533203125
1761379423666833000,2.7128330078125,-0.9843597412109375,-0.023406982421875,0.0258331298828125
1761379423676915000,2.7229150390625,-0.985870361328125,-0.02496337890625,0.02423095703125
1761379423686997000,2.7329970703125,-0.9947662353515625,-0.028717041015625,0.0239410400390625
1761379423697079000,2.7430791015625,-1.003814697265625,-0.0333404541015625,0.022918701171875
1761379423707160800,2.753160888671875,-1.0153045654296875,-0.0327911376953125,0.0242462158203125
1761379423717243000,2.763242919921875,-1.0189666748046875,-0.0312652587890625,0.0295562744140625
1761379423727325000,2.773324951171875,-1.014892578125,-0.0292510986328125,0.0355377197265625
1761379423737408000,2.783407958984375,-1.008209228515625,-0.0299224853515625,0.0394744873046875
1761379423747490000,2.793489990234375,-0.9987030029296875,-0.0331268310546875,0.0393218994140625
1761379423757571800,2.80357177734375,-0.9893341064453125,-0.0322723388671875,0.0338134765625
1761379423767654000,2.81365380859375,-0.9824371337890625,-0.0287017822265625,0.028167724609375
1761379423777736000,2.82373583984375,-0.97796630859375,-0.0236968994140625,0.028778076171875
1761379423787818000,2.83381787109375,-0.9779510498046875,-0.022979736328125,0.028564453125
1761379423797900000,2.843900146484375,-0.9883575439453125,-0.0225982666015625,0.0297393798828125
1761379423807982800,2.85398291015625,-1.0012359619140625,-0.025421142578125,0.0306854248046875
1761379423818065000,2.86406494140625,-1.0029449462890625,-0.028717041015625,0.031829833984375
1761379423828147000,2.87414697265625,-1.00128173828125,-0.030548095703125,0.0325469970703125
1761379423838229000,2.88422900390625,-0.9977569580078125,-0.0320892333984375,0.031463623046875
1761379423848311000,2.89431103515625,-1.0004119873046875,-0.033050537109375,0.0313873291015625
1761379423858392800,2.904392822265625,-1.00433349609375,-0.0318145751953125,0.0304107666015625
1761379423868475000,2.914474853515625,-1.0036163330078125,-0.0276641845703125,0.0247955322265625
1761379423878557000,2.924556884765625,-0.9965972900390625,-0.02606201171875,0.022735595703125
1761379423888640000,2.934639892578125,-0.9928436279296875,-0.0278472900390625,0.0274505615234375
1761379423898722000,2.94472216796875,-0.99371337890625,-0.029510498046875,0.030548095703125
1761379423908803800,2.954803955078125,-0.993927001953125,-0.0299530029296875,0.030059814453125
1761379423918886000,2.964885986328125,-0.992889404296875,-0.0307769775390625,0.030731201171875
1761379423928968000,2.974968017578125,-0.9936370849609375,-0.0286865234375,0.0302886962890625
1761379423939050000,2.985050048828125,-0.99560546875,-0.024017333984375,0.0312347412109375
1761379423949132000,2.995132080078125,-0.9935760498046875,-0.024017333984375,0.0334014892578125
1761379423959214800,3.00521484375,-0.9940643310546875,-0.0274505615234375,0.0391082763671875
1761379423969297000,3.015296875,-0.998321533203125,-0.024688720703125,0.040985107421875
1761379423979379000,3.02537890625,-1.0001373291015625,-0.019683837890625,0.0389556884765625
1761379423989461000,3.0354609375,-1.002349853515625,-0.0221405029296875,0.037994384765625
1761379423999542000,3.0455419921875,-1.0032196044921875,-0.0274200439453125,0.04132080078125
1761379424009624000,3.0556240234375,-0.99853515625,-0.0294036865234375,0.038299560546875
1761379424019706000,3.0657060546875,-0.9948272705078125,-0.0326995849609375,0.0325927734375
1761379424029789000,3.075788818359375,-0.9900665283203125,-0.0355377197265625,0.0259552001953125
1761379424039871000,3.08587109375,-0.986053466796875,-0.0381317138671875,0.02191162109375
1761379424049953000,3.095953125,-0.98565673828125,-0.0390167236328125,0.02191162109375
1761379424060035000,3.10603515625,-0.9869232177734375,-0.03326416015625,0.02569580078125
1761379424070117000,3.1161171875,-0.9881591796875,-0.030975341796875,0.03045654296875
1761379424080199000,3.126198974609375,-0.990142822265625,-0.0299835205078125,0.0320587158203125
1761379424090281000,3.136281005859375,-0.9955596923828125,-0.0278167724609375,0.033843994140625
1761379424100363000,3.146363037109375,-0.99542236328125,-0.0256805419921875,0.0341339111328125
1761379424110446000,3.156446044921875,-0.99462890625,-0.0279388427734375,0.035491943359375
1761379424120528000,3.16652783203125,-0.99078369140625,-0.03057861328125,0.0351104736328125
1761379424130610000,3.17660986328125,-0.9905548095703125,-0.0343170166015625,0.0365142822265625
1761379424140692000,3.18669189453125,-0.9958343505859375,-0.038330078125,0.037567138671875
1761379424150774000,3.19677392578125,-1.00146484375,-0.0372314453125,0.0375213623046875
1761379424160856000,3.20685595703125,-1.00225830078125,-0.0348052978515625,0.0420074462890625
1761379424170938000,3.216938232421875,-1.0037841796875,-0.0346832275390625,0.046722412109375
1761379424181021000,3.22702099609375,-0.99969482421875,-0.033538818359375,0.04583740234375
1761379424191103000,3.23710302734375,-0.999267578125,-0.0338134765625,0.042144775390625
1761379424201185000,3.24718505859375,-1.0011444091796875,-0.0344696044921875,0.0374603271484375
1761379424211267000,3.25726708984375,-0.9970703125,-0.0318145751953125,0.03192138671875
1761379424221349000,3.26734912109375,-0.9918670654296875,-0.030181884765625,0.03021240234375
1761379424231431000,3.277430908203125,-0.9903106689453125,-0.0306854248046875,0.0286407470703125
1761379424241513000,3.287512939453125,-0.9903564453125,-0.03192138671875,0.024078369140625
1761379424251596000,3.297595947265625,-0.9936065673828125,-0.0312042236328125,0.0233612060546875
1761379424261678000,3.307677978515625,-0.99334716796875,-0.029632568359375,0.026519775390625
1761379424271760000,3.317759765625,-0.9884033203125,-0.026397705078125,0.027435302734375
1761379424281842000,3.327842041015625,-0.9809417724609375,-0.0250244140625,0.02520751953125
1761379424291924000,3.337924072265625,-0.975067138671875,-0.025482177734375,0.023712158203125
1761379424302006000,3.348006103515625,-0.9748992919921875,-0.028076171875,0.0268402099609375
1761379424312088000,3.358088134765625,-0.9791107177734375,-0.0318756103515625,0.0347442626953125
1761379424322171000,3.3681708984375,-0.98370361328125,-0.0356292724609375,0.0392608642578125
1761379424332253000,3.3782529296875,-0.9903564453125,-0.043731689453125,0.0370025634765625
1761379424342335000,3.3883349609375,-1.0018157958984375,-0.0519561767578125,0.0337066650390625
1761379424352417000,3.3984169921875,-1.009033203125,-0.0574951171875,0.02886962890625
1761379424362499000,3.4084990234375,-1.0172882080078125,-0.060943603515625,0.0272369384765625
1761379424372581000,3.4185810546875,-1.02337646484375,-0.06072998046875,0.026092529296875
1761379424382663000,3.428662841796875,-1.02606201171875,-0.054840087890625,0.029144287109375
1761379424392746000,3.43874609375,-1.017974853515625,-0.0437469482421875,0.0329437255859375
1761379424402828000,3.448828125,-1.00189208984375,-0.0316009521484375,0.0356292724609375
1761379424412910000,3.45891015625,-0.9870452880859375,-0.021942138671875,0.0378875732421875
1761379424422992000,3.468991943359375,-0.9810333251953125,-0.011474609375,0.0428924560546875
1761379424433074000,3.479073974609375,-0.981353759765625,-0.0042572021484375,0.04693603515625
1761379424443156000,3.489156005859375,-0.9786224365234375,-0.00079345703125,0.049713134765625
1761379424453238000,3.499238037109375,-0.9730224609375,-0.003753662109375,0.051483154296875
1761379424463321000,3.509321044921875,-0.9693603515625,-0.0138397216796875,0.0477752685546875
1761379424473403000,3.51940283203125,-0.97723388671875,-0.0264739990234375,0.0409393310546875
1761379424483485000,3.52948486328125,-0.9892120361328125,-0.040863037109375,0.03472900390625
1761379424493567000,3.53956689453125,-1.0014190673828125,-0.049102783203125,0.028594970703125
1761379424503649000,3.54964892578125,-1.0100250244140625,-0.0567474365234375,0.0255584716796875
1761379424513731000,3.55973095703125,-1.010406494140625,-0.0592498779296875,0.026214599609375
1761379424523813000,3.569813232421875,-1.006134033203125,-0.0574951171875,0.0290374755859375
1761379424533896000,3.57989599609375,-1.001617431640625,-0.05377197265625,0.0336456298828125
1761379424543978000,3.58997802734375,-1.0057830810546875,-0.048248291015625,0.0407257080078125
1761379424554060000,3.60006005859375,-1.006927490234375,-0.040069580078125,0.0435333251953125
1761379424564142000,3.61014208984375,-1.0019989013671875,-0.03302001953125,0.0445556640625
1761379424574224000,3.620223876953125,-0.99560546875,-0.026763916015625,0.048004150390625
1761379424584306000,3.630305908203125,-0.9915313720703125,-0.0247955322265625,0.0551300048828125
1761379424594388000,3.640387939453125,-0.989990234375,-0.0249481201171875,0.05279541015625
1761379424604471000,3.650470947265625,-0.9927978515625,-0.026397705078125,0.048431396484375
1761379424614553000,3.660552978515625,-0.999664306640625,-0.0327301025390625,0.0453643798828125
1761379424624635000,3.670634765625,-1.0061798095703125,-0.037628173828125,0.0456085205078125
1761379424634717000,3.680717041015625,-1.007354736328125,-0.037353515625,0.0446624755859375
1761379424644799000,3.690799072265625,-1.002685546875,-0.0331268310546875,0.043365478515625
1761379424654881000,3.700881103515625,-0.99627685546875,-0.031219482421875,0.043487548828125
1761379424664963000,3.710963134765625,-0.983734130859375,-0.0275115966796875,0.0396728515625
1761379424675045000,3.721045166015625,-0.976287841796875,-0.02630615234375,0.036163330078125
1761379424685128000,3.7311279296875,-0.973388671875,-0.0265960693359375,0.034820556640625
1761379424695210000,3.7412099609375,-0.97540283203125,-0.032623291015625,0.03729248046875
1761379424705292000,3.7512919921875,-0.97943115234375,-0.04052734375,0.03961181640625
1761379424715374000,3.7613740234375,-0.9872589111328125,-0.04705810546875,0.04327392578125
1761379424725456000,3.771455810546875,-0.991363525390625,-0.04931640625,0.044891357421875
1761379424735538000,3.781537841796875,-0.990966796875,-0.0480499267578125,0.0432891845703125
1761379424745621000,3.79162109375,-0.9898681640625,-0.0423583984375,0.0411224365234375
1761379424755703000,3.801703125,-0.9911651611328125,-0.0380859375,0.0429229736328125
1761379424765785000,3.81178515625,-0.992706298828125,-0.036468505859375,0.0472564697265625
1761379424775867000,3.821866943359375,-0.9972381591796875,-0.0413360595703125,0.0536346435546875
1761379424785949000,3.831948974609375,-0.999969482421875,-0.0452880859375,0.0562744140625
1761379424796031000,3.842031005859375,-1.00103759765625,-0.0449676513671875,0.0529022216796875
1761379424806113000,3.852113037109375,-0.999969482421875,-0.0448760986328125,0.047943115234375
1761379424816195800,3.86219580078125,-0.9969635009765625,-0.041168212890625,0.0437774658203125
1761379424826278000,3.87227783203125,-0.99298095703125,-0.0375823974609375,0.0390625
1761379424836360000,3.88235986328125,-0.9878387451171875,-0.0353240966796875,0.0410308837890625
1761379424846442000,3.89244189453125,-0.9917144775390625,-0.0389862060546875,0.0489501953125
1761379424856524000,3.90252392578125,-0.9973907470703125,-0.0408782958984375,0.05450439453125
1761379424866606000,3.912606201171875,-1.002288818359375,-0.0411224365234375,0.0573577880859375
1761379424876688100,3.922688232421875,-1.0055694580078125,-0.043060302734375,0.0553436279296875
1761379424886770000,3.93277001953125,-1.0020599365234375,-0.0413055419921875,0.048309326171875
1761379424896853000,3.94285302734375,-0.992767333984375,-0.0420989990234375,0.04241943359375
1761379424906935000,3.95293505859375,-0.986907958984375,-0.0472259521484375,0.0421600341796875
1761379424917017000,3.96301708984375,-0.985107421875,-0.0527191162109375,0.043792724609375
1761379424927099000,3.973098876953125,-0.99542236328125,-0.050048828125,0.04327392578125
1761379424937181000,3.983180908203125,-1.00274658203125,-0.046875,0.0450897216796875
1761379424947263000,3.993262939453125,-1.0034942626953125,-0.0429229736328125,0.04766845703125
1761379424957345000,4.003344970703125,-0.9961395263671875,-0.0415496826171875,0.052978515625
1761379424967428000,4.013427978515625,-0.9843902587890625,-0.0385284423828125,0.05328369140625
1761379424977510000,4.023510009765625,-1.002593994140625,-0.042449951171875,0.05877685546875
1761379424987592000,4.033592041015625,-1.00897216796875,-0.0404052734375,0.06048583984375
1761379424997674500,4.043674560546875,-1.012664794921875,-0.0264892578125,0.0562896728515625
1761379425007756500,4.053756591796875,-1.01287841796875,-0.0244598388671875,0.056060791015625
1761379425017838600,4.063838623046875,-1.00146484375,-0.0230255126953125,0.050323486328125
1761379425027921400,4.07392138671875,-0.9864654541015625,-0.0183258056640625,0.0394744873046875
1761379425038003500,4.08400341796875,-0.978729248046875,-0.0192108154296875,0.0313262939453125
1761379425048085500,4.09408544921875,-0.9775390625,-0.0240020751953125,0.0282745361328125
1761379425058167600,4.10416748046875,-0.9781646728515625,-0.0272216796875,0.0296630859375
1761379425068249300,4.114249267578125,-0.981201171875,-0.0291595458984375,0.03228759765625
1761379425078331400,4.124331298828125,-0.9882965087890625,-0.0337371826171875,0.034942626953125
1761379425088413400,4.134413330078125,-0.9949493408203125,-0.03570556640625,0.034820556640625
1761379425098495500,4.14449560546875,-0.9957733154296875,-0.0359954833984375,0.0345001220703125
1761379425108578600,4.15457861328125,-0.997283935546875,-0.03509521484375,0.033782958984375
1761379425118660400,4.164660400390625,-1.0005645751953125,-0.0347900390625,0.0300445556640625
1761379425128742400,4.174742431640625,-0.9997711181640625,-0.036407470703125,0.0306243896484375
1761379425138824400,4.184824462890625,-1.0025177001953125,-0.0383148193359375,0.0367279052734375
1761379425148906500,4.194906494140625,-1.0016021728515625,-0.042205810546875,0.044464111328125
1761379425158988500,4.204988525390625,-0.9966888427734375,-0.0400543212890625,0.0453948974609375
1761379425169071400,4.2150712890625,-0.9926605224609375,-0.0348358154296875,0.0430755615234375
1761379425179153400,4.2251533203125,-0.996002197265625,-0.0343170166015625,0.040130615234375
1761379425189235500,4.2352353515625,-0.9989471435546875,-0.033233642578125,0.0384063720703125
1761379425199317500,4.2453173828125,-0.9950103759765625,-0.0295562744140625,0.0385894775390625
1761379425209399600,4.255399658203125,-0.9904937744140625,-0.02947998046875,0.0380859375
1761379425219481300,4.2654814453125,-0.988555908203125,-0.0330810546875,0.0367889404296875
1761379425229563400,4.2755634765625,-0.9919891357421875,-0.0327301025390625,0.036956787109375
1761379425239646500,4.285646484375,-0.996978759765625,-0.02984619140625,0.037933349609375
1761379425249728500,4.295728515625,-0.999481201171875,-0.0284423828125,0.038787841796875
1761379425259810600,4.305810546875,-0.99871826171875,-0.026123046875,0.03436279296875
1761379425269892400,4.315892333984375,-0.9990692138671875,-0.028656005859375,0.0315399169921875
1761379425279974400,4.325974365234375,-0.99755859375,-0.0328826904296875,0.0295257568359375
1761379425290056400,4.336056396484375,-0.9925537109375,-0.0355987548828125,0.0279693603515625
1761379425300138500,4.346138427734375,-0.9892120361328125,-0.0382232666015625,0.02691650390625
1761379425310221300,4.35622119140625,-0.98944091796875,-0.040924072265625,0.028350830078125
1761379425320303400,4.366303466796875,-0.9943389892578125,-0.0422515869140625,0.0331878662109375
1761379425330385400,4.376385498046875,-1.0012359619140625,-0.040435791015625,0.036773681640625
1761379425340467500,4.386467529296875,-1.003631591796875,-0.0351104736328125,0.038665771484375
1761379425350549500,4.396549560546875,-1.0035400390625,-0.02911376953125,0.036865234375
1761379425360631600,4.406631591796875,-1.0008544921875,-0.02325439453125,0.0314788818359375
1761379425370713600,4.416713623046875,-0.9943389892578125,-0.0234375,0.02581787109375
1761379425380796400,4.42679638671875,-0.9859161376953125,-0.0277099609375,0.0219879150390625
1761379425390878500,4.43687841796875,-0.979888916015625,-0.033447265625,0.02099609375
1761379425400960500,4.44696044921875,-0.9830780029296875,-0.0378875732421875,0.0230560302734375
1761379425411042600,4.45704248046875,-0.9923858642578125,-0.0390625,0.02734375
1761379425421124400,4.467124267578125,-0.998504638671875,-0.0354766845703125,0.0298919677734375
1761379425431206400,4.477206298828125,-0.9991607666015625,-0.03173828125,0.0306854248046875
1761379425441288400,4.487288330078125,-0.9963531494140625,-0.031524658203125,0.0295257568359375
1761379425451371500,4.49737158203125,-0.9903717041015625,-0.0328369140625,0.0245513916015625
1761379425461453300,4.507453369140625,-0.98199462890625,-0.0294952392578125,0.01715087890625
1761379425471535400,4.517535400390625,-0.97869873046875,-0.0250701904296875,0.0100860595703125
1761379425481617400,4.527617431640625,-0.9794921875,-0.0239715576171875,0.0106353759765625
1761379425491699500,4.537699462890625,-0.9872589111328125,-0.0252532958984375,0.018157958984375
1761379425501781500,4.547781494140625,-0.992950439453125,-0.0239410400390625,0.02105712890625
1761379425511863600,4.557863525390625,-0.99383544921875,-0.0211334228515625,0.0213470458984375
1761379425521946400,4.5679462890625,-0.995208740234375,-0.0186920166015625,0.020050048828125
1761379425532028400,4.5780283203125,-0.9951324462890625,-0.020294189453125,0.017730712890625
1761379425542110500,4.5881103515625,-1.0025787353515625,-0.0181427001953125,0.0164642333984375
1761379425552192500,4.598192626953125,-1.00225830078125,-0.0220184326171875,0.0135040283203125
1761379425562274600,4.608274658203125,-1.0034637451171875,-0.0260009765625,0.0156097412109375
1761379425572356400,4.6183564453125,-1.0034027099609375,-0.02947998046875,0.0234527587890625
1761379425582438400,4.6284384765625,-1.002655029296875,-0.03460693359375,0.03057861328125
1761379425592521500,4.638521484375,-1.0004119873046875,-0.036651611328125,0.03753662109375
1761379425602603500,4.648603515625,-1.005523681640625,-0.034515380859375,0.0425262451171875
1761379425612685600,4.658685546875,-1.0054168701171875,-0.0287017822265625,0.046539306640625
1761379425622767400,4.668767333984375,-1.0031280517578125,-0.0256500244140625,0.0477142333984375
1761379425632849400,4.678849365234375,-1.0060272216796875,-0.0238800048828125,0.0425262451171875
1761379425642931500,4.688931396484375,-1.0007781982421875,-0.0223846435546875,0.0373382568359375
1761379425653013500,4.699013427734375,-0.993560791015625,-0.023590087890625,0.029083251953125
1761379425663096300,4.709096435546875,-0.9937286376953125,-0.025115966796875,0.0232391357421875
1761379425673178400,4.719178466796875,-0.9988861083984375,-0.029632568359375,0.0254974365234375
1761379425683260400,4.729260498046875,-1.006378173828125,-0.034393310546875,0.02691650390625
1761379425693342500,4.739342529296875,-1.012603759765625,-0.034942626953125,0.024932861328125
1761379425703424500,4.749424560546875,-1.0084228515625,-0.0298004150390625,0.0165252685546875
1761379425713506600,4.759506591796875,-0.9976348876953125,-0.0220489501953125,0.0028228759765625
1761379425723588400,4.76958837890625,-0.971527099609375,-0.0179443359375,-0.0000457763671875
1761379425733671400,4.77967138671875,-0.9656219482421875,-0.023712158203125,0.0061492919921875
1761379425743753500,4.78975341796875,-0.9662628173828125,-0.031585693359375,0.0158538818359375
1761379425753835500,4.79983544921875,-0.971710205078125,-0.03155517578125,0.02520751953125
1761379425763917600,4.80991748046875,-0.9752960205078125,-0.02923583984375,0.0246734619140625
1761379425773999400,4.819999267578125,-0.9856719970703125,-0.0250244140625,0.0220947265625
1761379425784081400,4.830081298828125,-0.987762451171875,-0.021453857421875,0.030548095703125
1761379425794164500,4.84016455078125,-1.0096435546875,-0.01922607421875,0.0246734619140625
1761379425804246500,4.85024658203125,-1.017547607421875,-0.0183868408203125,0.030670166015625
1761379425814328300,4.860328369140625,-1.0163421630859375,-0.0260772705078125,0.031402587890625
1761379425824410400,4.870410400390625,-1.014404296875,-0.0265960693359375,0.0242156982421875
1761379425834492400,4.880492431640625,-1.008087158203125,-0.0211181640625,0.02362060546875
1761379425844574500,4.890574462890625,-1.0047149658203125,-0.0157623291015625,0.023345947265625
1761379425854656500,4.900656494140625,-1.00457763671875,-0.0211944580078125,0.0309906005859375
1761379425864739300,4.9107392578125,-1.0028076171875,-0.0278778076171875,0.0358428955078125
1761379425874821400,4.9208212890625,-0.9962158203125,-0.0280609130859375,0.03173828125
1761379425884903400,4.9309033203125,-0.9960784912109375,-0.023345947265625,0.01934814453125
1761379425894985500,4.9409853515625,-0.9901275634765625,-0.022125244140625,0.0082244873046875
1761379425905067500,4.951067626953125,-0.9781494140625,-0.0216827392578125,0.0040283203125
1761379425915149600,4.961149658203125,-0.9744110107421875,-0.0275115966796875,0.00262451171875
1761379425925231400,4.9712314453125,-0.979644775390625,-0.031890869140625,0.012237548828125
1761379425935314400,4.981314453125,-0.99029541015625,-0.029815673828125,0.024139404296875
1761379425945396500,4.991396484375,-0.9965667724609375,-0.02239990234375,0.0294952392578125
1761379425955478500,5.001478515625,-1.003509521484375,-0.023101806640625,0.0269622802734375
1761379425965560300,5.011560302734375,-1.0142059326171875,-0.0156402587890625,0.0168609619140625
1761379425975642400,5.021642333984375,-1.01580810546875,-0.007232666015625,0.0095977783203125
1761379425985724400,5.031724365234375,-1.008148193359375,-0.0137176513671875,0.0122222900390625
1761379425995806500,5.041806396484375,-0.9810028076171875,-0.0224456787109375,0.006072998046875
1761379426005892900,5.051892822265625,-0.959014892578125,-0.0251312255859375,-0.0002288818359375
1761379426015974700,5.061974609375,-0.9382781982421875,-0.0244598388671875,-0.00506591796875
1761379426026056700,5.072056640625,-0.939697265625,-0.0265655517578125,-0.004119873046875
1761379426036138800,5.082138671875,-0.954071044921875,-0.0283660888671875,0.001922607421875
1761379426046220800,5.092220703125,-0.9705810546875,-0.0308380126953125,0.011627197265625
1761379426056302800,5.102302734375,-0.9852142333984375,-0.0317230224609375,0.0147247314453125
1761379426066385000,5.112385009765625,-0.9985809326171875,-0.0246124267578125,0.0121002197265625
1761379426076467700,5.1224677734375,-0.99993896484375,-0.0128173828125,0.0082550048828125
1761379426086549800,5.1325498046875,-1.004425048828125,-0.003631591796875,0.0062713623046875
1761379426096631800,5.1426318359375,-1.012237548828125,0.00048828125,0.0109710693359375
1761379426106713900,5.1527138671875,-1.0180816650390625,-0.001129150390625,0.0242767333984375
1761379426116796000,5.1627958984375,-1.011505126953125,0.0038604736328125,0.0291900634765625
1761379426126877700,5.172877685546875,-1.0242919921875,0.0046234130859375,0.01812744140625
1761379426136959700,5.182959716796875,-1.0209503173828125,0.0159149169921875,0.000885009765625
1761379426147042800,5.193042724609375,-1.0284881591796875,0.023590087890625,-0.0087738037109375
1761379426157124900,5.203124755859375,-1.0167999267578125,0.011199951171875,-0.00323486328125
1761379426167206700,5.21320654296875,-1.0022735595703125,-0.0040130615234375,0.0103607177734375
1761379426177288700,5.223288818359375,-0.9850006103515625,-0.01513671875,0.02593994140625
1761379426187370800,5.233370849609375,-0.985137939453125,-0.0160980224609375,0.029052734375
1761379426197452800,5.243452880859375,-0.9974212646484375,-0.0103607177734375,0.035736083984375
1761379426207535600,5.25353564453125,-1.0032958984375,-0.002655029296875,0.038970947265625
1761379426217617700,5.26361767578125,-1.004486083984375,0.002471923828125,0.034393310546875
1761379426227699700,5.27369970703125,-1.0048828125,-0.0003204345703125,0.027984619140625
1761379426237781800,5.28378173828125,-1.0006561279296875,-0.0052490234375,0.0250396728515625
1761379426247863800,5.29386376953125,-1.004241943359375,-0.0101470947265625,0.024993896484375
1761379426257945900,5.30394580078125,-1.0077362060546875,-0.0081787109375,0.0200042724609375
1761379426268028000,5.31402783203125,-0.9994354248046875,-0.0017242431640625,0.0112457275390625
1761379426278110700,5.32411083984375,-0.9964599609375,0.001068115234375,0.00823974609375
1761379426288192800,5.33419287109375,-1.0006866455078125,0.0032196044921875,0.0094451904296875
1761379426298274800,5.34427490234375,-1.003997802734375,0.007110595703125,0.0053253173828125
1761379426308356900,5.35435693359375,-1.0008392333984375,0.0105438232421875,-0.001495361328125
1761379426318438700,5.364438720703125,-0.9891204833984375,0.0074005126953125,-0.0074615478515625
1761379426328520700,5.374520751953125,-0.978302001953125,0.00177001953125,-0.0093841552734375
1761379426338602800,5.384602783203125,-0.9752197265625,-0.003662109375,-0.011016845703125
1761379426348685800,5.394685791015625,-0.981719970703125,-0.0052947998046875,-0.0090789794921875
1761379426358767900,5.404767822265625,-0.9982452392578125,-0.0021514892578125,-0.0037689208984375
1761379426368849700,5.414849609375,-1.01629638671875,0.0033416748046875,-0.0026702880859375
1761379426378931700,5.424931640625,-1.021697998046875,0.007049560546875,-0.006072998046875
1761379426389013800,5.435013671875,-1.0093994140625,0.0073699951171875,-0.0102386474609375
1761379426399095800,5.445095703125,-0.996307373046875,0.0045318603515625,-0.0072784423828125
1761379426409177900,5.455177734375,-0.9901123046875,0.0016021728515625,0.001251220703125
1761379426419260700,5.4652607421875,-0.9890899658203125,0.001312255859375,0.005523681640625
1761379426429342700,5.4753427734375,-0.9868621826171875,0.0020294189453125,0.004913330078125
1761379426439424800,5.4854248046875,-0.9859619140625,-0.0032501220703125,0.003021240234375
1761379426449506800,5.4955068359375,-0.987701416015625,-0.007537841796875,0.0017852783203125
1761379426459588900,5.5055888671875,-0.98968505859375,-0.008758544921875,0.0062103271484375
1761379426469670700,5.515670654296875,-0.99481201171875,-0.0108489990234375,0.0104522705078125
1761379426479753700,5.525753662109375,-1.0006866455078125,-0.0135498046875,0.01483154296875
1761379426489835800,5.535835693359375,-1.00506591796875,-0.01580810546875,0.0136260986328125
1761379426499917800,5.545917724609375,-1.0080108642578125,-0.0129852294921875,0.010223388671875
1761379426509999900,5.555999755859375,-1.00811767578125,-0.0118560791015625,0.008087158203125
1761379426520081700,5.56608154296875,-1,-0.01104736328125,-0.0017852783203125
1761379426530163700,5.576163818359375,-0.9861907958984375,-0.00872802734375,-0.0098724365234375
1761379426540245800,5.586245849609375,-0.977264404296875,-0.0071868896484375,-0.012847900390625
1761379426550328800,5.596328857421875,-0.9706878662109375,-0.006256103515625,-0.0146484375
1761379426560410600,5.60641064453125,-0.9699859619140625,-0.006561279296875,-0.0142974853515625
1761379426570492700,5.61649267578125,-0.9772491455078125,-0.004730224609375,-0.0122528076171875
1761379426580574700,5.62657470703125,-0.984100341796875,-0.0040283203125,-0.0106048583984375
1761379426590656800,5.63665673828125,-0.991119384765625,-0.0055694580078125,-0.01055908203125
1761379426600738800,5.64673876953125,-0.99639892578125,-0.007904052734375,-0.0095977783203125
1761379426610820900,5.65682080078125,-1.00030517578125,-0.0108795166015625,-0.0087890625
1761379426620903700,5.666903564453125,-1.0087432861328125,-0.010955810546875,-0.0067291259765625
1761379426630985700,5.67698583984375,-1.013153076171875,-0.0072479248046875,-0.0071868896484375
1761379426641067800,5.68706787109375,-1.0130767822265625,-0.002838134765625,-0.005157470703125
1761379426651149800,5.69714990234375,-1.0059356689453125,-0.0038604736328125,-0.0015411376953125
1761379426661231900,5.70723193359375,-1.0015716552734375,-0.0042266845703125,-0.000213623046875
1761379426671313700,5.717313720703125,-0.997955322265625,-0.0039825439453125,-0.0005645751953125
1761379426681395700,5.727395751953125,-0.9969024658203125,-0.002044677734375,-0.0048065185546875
1761379426691478800,5.737478759765625,-0.9982757568359375,0.0014495849609375,-0.005279541015625
1761379426701560800,5.747560791015625,-0.996063232421875,0.0022735595703125,-0.004547119140625
1761379426711642600,5.757642578125,-0.9934539794921875,0.0056610107421875,-0.0059814453125
1761379426721724700,5.767724609375,-0.98760986328125,0.0077362060546875,-0.00823974609375
1761379426731806700,5.777806640625,-0.9804840087890625,0.006500244140625,-0.011566162109375
1761379426741888800,5.787888671875,-0.9792327880859375,0.0044708251953125,-0.0139617919921875
1761379426751971800,5.797971923828125,-0.98553466796875,0.00042724609375,-0.01055908203125
1761379426762053600,5.8080537109375,-0.9930877685546875,0.0018463134765625,-0.00958251953125
1761379426772135700,5.8181357421875,-0.9957275390625,0.0068817138671875,-0.0155792236328125
1761379426782217700,5.8282177734375,-0.9897613525390625,0.0054473876953125,-0.0194244384765625
1761379426792299800,5.8382998046875,-0.983856201171875,0.0020751953125,-0.01318359375
1761379426802381800,5.8483818359375,-0.97686767578125,-0.0019683837890625,-0.004638671875
1761379426812463900,5.8584638671875,-0.9771270751953125,-0.0064544677734375,-0.0009307861328125
1761379426822546700,5.868546630859375,-0.986968994140625,-0.005950927734375,-0.00103759765625
1761379426832628700,5.878628662109375,-0.9979400634765625,-0.0036163330078125,0.0046234130859375
1761379426842710800,5.888710693359375,-1.0067901611328125,-0.00079345703125,0.0097808837890625
1761379426852792800,5.898792724609375,-1.0110931396484375,0.0003204345703125,0.0114593505859375
1761379426862874600,5.90887451171875,-1.01043701171875,0.0021209716796875,0.0072784423828125
1761379426872956700,5.918956787109375,-1.001068115234375,0.004241943359375,-0.00341796875
1761379426883038700,5.929038818359375,-0.9938201904296875,0.00250244140625,-0.0111846923828125
1761379426893121800,5.939121826171875,-0.995574951171875,0.000732421875,-0.0150604248046875
1761379426903203800,5.949203857421875,-0.992431640625,0.0032501220703125,-0.012054443359375
1761379426913285600,5.95928564453125,-0.986083984375,0.006500244140625,-0.008514404296875
1761379426923367700,5.96936767578125,-0.982879638671875,0.0088653564453125,-0.005126953125
1761379426933449700,5.97944970703125,-0.97564697265625,0.0094451904296875,-0.0051727294921875
1761379426943531800,5.98953173828125,-0.973480224609375,0.009552001953125,0.00311279296875
1761379426953613800,5.99961376953125,-0.985626220703125,0.0076141357421875,0.0149993896484375
1761379426963696600,6.009696533203125,-1.0057525634765625,0.0027313232421875,0.0256500244140625
1761379426973778700,6.01977880859375,-1.0264129638671875,0.0048980712890625,0.029754638671875
1761379426983860700,6.02986083984375,-1.0415191650390625,0.012786865234375,0.0250244140625
1761379426993942800,6.03994287109375,-1.0456390380859375,0.0185089111328125,0.0242919921875
1761379427004025000,6.050025146484375,-1.0319366455078125,0.0165252685546875,0.028778076171875
1761379427014107000,6.06010693359375,-1.0207366943359375,0.01214599609375,0.019805908203125
1761379427024190000,6.07018994140625,-1.019744873046875,-0.0008087158203125,0.008056640625
1761379427034272000,6.08027197265625,-1.0071563720703125,-0.0038909912109375,0.002838134765625
1761379427044354000,6.09035400390625,-1.0110321044921875,-0.0038299560546875,-0.0066375732421875
1761379427054436000,6.10043603515625,-1.006561279296875,-0.00439453125,-0.0131072998046875
1761379427064518000,6.110517822265625,-0.99072265625,0.00054931640625,-0.010345458984375
1761379427074600000,6.120599853515625,-0.995880126953125,0.005645751953125,-0.010284423828125
1761379427084682000,6.130681884765625,-0.9845123291015625,0.004852294921875,0.003021240234375
1761379427094765000,6.14076513671875,-0.992950439453125,-0.00970458984375,0.0183258056640625
1761379427104846800,6.150846923828125,-1.0013275146484375,-0.0236663818359375,0.0335693359375
1761379427114929000,6.160928955078125,-1.00457763671875,-0.0167694091796875,0.0319061279296875
1761379427125011000,6.171010986328125,-1.0359954833984375,-0.0088653564453125,0.012451171875
1761379427135093000,6.181093017578125,-1.044586181640625,-0.0368804931640625,0.0007171630859375
1761379427145175000,6.191175048828125,-1.0765838623046875,-0.051422119140625,-0.003173828125
1761379427155257000,6.201257080078125,-1.14959716796875,-0.0923919677734375,-0.0116424560546875
1761379427165340200,6.211340087890625,-1.0601043701171875,-0.0868988037109375,0.0086517333984375
1761379427175422000,6.221421875,-1.0164794921875,-0.04339599609375,-0.0027618408203125
1761379427185504000,6.23150390625,-0.9647369384765625,0.0027313232421875,-0.034698486328125
1761379427195586000,6.2415859375,-0.933837890625,0.0363311767578125,-0.050262451171875
1761379427205668000,6.251668212890625,-0.9098052978515625,0.062835693359375,-0.0575103759765625
1761379427215750000,6.26175,-0.8916168212890625,0.0863494873046875,-0.0747528076171875
1761379427225833200,6.271833251953125,-0.8995361328125,0.083221435546875,-0.0872955322265625
1761379427235915300,6.281915283203125,-0.8913116455078125,0.088836669921875,-0.086273193359375
1761379427245997000,6.2919970703125,-0.952178955078125,0.0165863037109375,-0.0896148681640625
1761379427256078800,6.302078857421875,-1.0092315673828125,-0.054534912109375,-0.0790252685546875
1761379427266161000,6.312160888671875,-1.0256500244140625,-0.0331878662109375,-0.062591552734375
1761379427276243000,6.322242919921875,-1.041839599609375,0.0038299560546875,-0.0564422607421875
1761379427286325000,6.332324951171875,-1.0428924560546875,0.0091705322265625,-0.053375244140625
1761379427296408000,6.342407958984375,-1.033111572265625,-0.0010223388671875,-0.0558013916015625
1761379427306490000,6.352489990234375,-1.0208892822265625,-0.00775146484375,-0.0660247802734375
1761379427316572000,6.362572021484375,-1.003204345703125,-0.0129547119140625,-0.0771942138671875
1761379427326654000,6.372654052734375,-1.03460693359375,-0.1194915771484375,-0.0873565673828125
1761379427336736000,6.382736083984375,-1.0169525146484375,-0.13238525390625,-0.0592498779296875
1761379427346818000,6.392818115234375,-0.995452880859375,-0.0098419189453125,-0.047027587890625
1761379427356900000,6.402900146484375,-0.93994140625,0.0364990234375,-0.0487518310546875
1761379427366983200,6.412983154296875,-0.924224853515625,0.0736236572265625,-0.0565643310546875
1761379427377065200,6.423065185546875,-0.8937225341796875,0.074371337890625,-0.0581817626953125
1761379427387147000,6.43314697265625,-0.9355316162109375,-0.0382232666015625,-0.0466766357421875
1761379427397229000,6.44322900390625,-0.983306884765625,-0.0784454345703125,-0.037200927734375
1761379427407310800,6.453310791015625,-0.9853668212890625,-0.033935546875,-0.0391082763671875
1761379427417393000,6.463392822265625,-0.993377685546875,-0.00433349609375,-0.048675537109375
1761379427427476200,6.473476318359375,-1.0009613037109375,-0.0005950927734375,-0.0639801025390625
1761379427437558300,6.483558349609375,-1.0030364990234375,-0.000457763671875,-0.07525634765625
1761379427447640000,6.49364013671875,-0.9894256591796875,0.002655029296875,-0.0754547119140625
1761379427457721900,6.503721923828125,-0.9747772216796875,-0.0002899169921875,-0.0741119384765625
1761379427467804000,6.513803955078125,-0.9622039794921875,-0.014129638671875,-0.0705413818359375
1761379427477886000,6.523885986328125,-0.95452880859375,-0.01873779296875,-0.07391357421875
1761379427487968000,6.533968017578125,-0.9578704833984375,-0.01513671875,-0.07940673828125
1761379427498051000,6.544051025390625,-0.967315673828125,-0.0139617919921875,-0.0855255126953125
1761379427508133000,6.554133056640625,-0.981292724609375,-0.01324462890625,-0.091644287109375
1761379427518215200,6.564215087890625,-0.998565673828125,-0.00665283203125,-0.0970458984375
1761379427528297000,6.574296875,-1.004608154296875,0.0054168701171875,-0.0987701416015625
1761379427538379000,6.58437890625,-1.004180908203125,0.0211639404296875,-0.0962982177734375
1761379427548461000,6.5944609375,-1.0263824462890625,0.0335845947265625,-0.0880584716796875
1761379427558542800,6.60454296875,-1.03564453125,0.030609130859375,-0.084716796875
1761379427568626200,6.614626220703125,-1.03759765625,0.0229034423828125,-0.0838165283203125
1761379427578708200,6.624708251953125,-1.0337066650390625,0.0173187255859375,-0.0785675048828125
1761379427588790300,6.634790283203125,-1.0155792236328125,0.008880615234375,-0.0753326416015625
1761379427598872000,6.6448720703125,-0.9955596923828125,0.002288818359375,-0.071044921875
1761379427608953900,6.654953857421875,-0.9749908447265625,-0.0004425048828125,-0.0667877197265625
1761379427619036000,6.665035888671875,-0.9706573486328125,0.0052642822265625,-0.0655670166015625
1761379427629119200,6.675119140625,-0.9730682373046875,0.0096435546875,-0.06988525390625
1761379427639201300,6.685201171875,-0.98388671875,0.0125274658203125,-0.0780487060546875
1761379427649283000,6.695282958984375,-0.996429443359375,0.0158538818359375,-0.076507568359375
1761379427659365000,6.705365234375,-1.001068115234375,0.0171051025390625,-0.0714111328125
1761379427669447200,6.715447265625,-0.9955902099609375,0.00750732421875,-0.0693359375
1761379427679529000,6.725529052734375,-0.9810791015625,-0.0021209716796875,-0.065765380859375
1761379427689611000,6.735611083984375,-0.9735565185546875,-0.0075225830078125,-0.0634002685546875
1761379427699694000,6.745694091796875,-0.9742584228515625,-0.0095367431640625,-0.0641632080078125
1761379427709776100,6.755776123046875,-0.975738525390625,-0.0054931640625,-0.0662078857421875
1761379427719858200,6.765858154296875,-0.9877471923828125,0.00042724609375,-0.0655364990234375
1761379427729940200,6.775940185546875,-0.999237060546875,0.0089263916015625,-0.0682830810546875
1761379427740022300,6.786022216796875,-1.014892578125,0.01788330078125,-0.0713958740234375
1761379427750104000,6.79610400390625,-1.0251922607421875,0.0228271484375,-0.0761260986328125
1761379427760185900,6.806185791015625,-1.0063018798828125,0.0225372314453125,-0.082122802734375
1761379427770269200,6.816269287109375,-0.9886627197265625,0.022979736328125,-0.0869293212890625
1761379427780351200,6.826351318359375,-0.9703369140625,0.01007080078125,-0.0854644775390625
1761379427790433300,6.836433349609375,-0.9520721435546875,0.004150390625,-0.08441162109375
1761379427800515000,6.84651513671875,-0.962249755859375,0.0089874267578125,-0.0807952880859375
1761379427810597000,6.85659716796875,-0.98638916015625,0.011627197265625,-0.07867431640625
1761379427820679000,6.866678955078125,-1.006195068359375,0.0222320556640625,-0.0849151611328125
1761379427830762200,6.87676220703125,-1.0183258056640625,0.03228759765625,-0.0865936279296875
1761379427840844000,6.886843994140625,-1.013641357421875,0.02880859375,-0.0777130126953125
1761379427850926000,6.896926025390625,-0.99920654296875,0.021881103515625,-0.066070556640625
1761379427861008100,6.907008056640625,-0.9854278564453125,0.0184326171875,-0.0635528564453125
1761379427871090200,6.917090087890625,-0.983978271484375,0.0216217041015625,-0.06866455078125
1761379427881172200,6.927172119140625,-0.9968414306640625,0.0287933349609375,-0.0641632080078125
1761379427891254000,6.93725390625,-1.010284423828125,0.0403594970703125,-0.0692138671875
1761379427901337000,6.947337158203125,-1.020751953125,0.0438232421875,-0.0742340087890625
1761379427911419100,6.957419189453125,-1.0180511474609375,0.0417327880859375,-0.074951171875
1761379427921501200,6.967501220703125,-1.0181732177734375,0.034881591796875,-0.0731964111328125
1761379427931583200,6.977583251953125,-1.003509521484375,0.028411865234375,-0.069305419921875
1761379427941665300,6.987665283203125,-0.9896240234375,0.0280609130859375,-0.06658935546875
1761379427951747000,6.9977470703125,-0.9988555908203125,0.0308837890625,-0.067291259765625
1761379427961829000,7.0078291015625,-1.0106964111328125,0.03070068359375,-0.070220947265625
1761379427971912200,7.017912109375,-1.019012451171875,0.032257080078125,-0.0834503173828125
1761379427981994200,7.027994140625,-1.03271484375,0.024078369140625,-0.0906219482421875
1761379427992076000,7.038075927734375,-1.0170745849609375,0.0203399658203125,-0.089141845703125
1761379428002154500,7.048154541015625,-0.991302490234375,0.023101806640625,-0.085174560546875
1761379428012236500,7.058236572265625,-0.9646453857421875,0.0099029541015625,-0.078887939453125
1761379428022318600,7.068318603515625,-0.9494171142578125,-0.0012054443359375,-0.0744476318359375
1761379428032402000,7.07840185546875,-0.93634033203125,0.002960205078125,-0.0751190185546875
1761379428042483700,7.088483642578125,-0.9268951416015625,0.0080413818359375,-0.0750579833984375
1761379428052565500,7.0985654296875,-0.9256134033203125,0.002777099609375,-0.0775604248046875
1761379428062647600,7.1086474609375,-0.9208984375,-0.0069580078125,-0.0760955810546875
1761379428072729600,7.1187294921875,-0.934112548828125,-0.003082275390625,-0.0664520263671875
1761379428082811600,7.128811767578125,-0.9459381103515625,0.0103302001953125,-0.0592041015625
1761379428092893700,7.138893798828125,-0.9652557373046875,0.0352630615234375,-0.0594024658203125
1761379428102976800,7.148976806640625,-0.9843597412109375,0.0560760498046875,-0.0690460205078125
1761379428113058800,7.159058837890625,-0.9926300048828125,0.0615692138671875,-0.07928466796875
1761379428123140600,7.169140625,-1.003692626953125,0.0693511962890625,-0.092010498046875
1761379428133222700,7.17922265625,-1.0219268798828125,0.076629638671875,-0.098175048828125
1761379428143304700,7.1893046875,-1.0369110107421875,0.0751495361328125,-0.0969696044921875
1761379428153386500,7.199386474609375,-1.0487213134765625,0.0822296142578125,-0.089263916015625
1761379428163469800,7.2094697265625,-1.0455474853515625,0.0790557861328125,-0.0788116455078125
1761379428173551900,7.2195517578125,-1.0350799560546875,0.064910888671875,-0.069427490234375
1761379428183634000,7.229634033203125,-1.0211639404296875,0.0520477294921875,-0.070465087890625
1761379428193715700,7.2397158203125,-1.01947021484375,0.04168701171875,-0.0809173583984375
1761379428203797500,7.249797607421875,-1.019775390625,0.036865234375,-0.0864410400390625
1761379428213879600,7.259879638671875,-1.014312744140625,0.043853759765625,-0.09039306640625
1761379428223961600,7.269961669921875,-1.0289306640625,0.0567779541015625,-0.08905029296875
1761379428234044700,7.280044677734375,-1.0297088623046875,0.058502197265625,-0.080108642578125
1761379428244126700,7.290126708984375,-1.021636962890625,0.0641326904296875,-0.0682373046875
1761379428254208800,7.300208740234375,-1.0096893310546875,0.0753173828125,-0.06390380859375
1761379428264290800,7.310290771484375,-0.9978179931640625,0.076080322265625,-0.065338134765625
1761379428274372600,7.32037255859375,-0.98577880859375,0.07305908203125,-0.071014404296875
1761379428284454700,7.33045458984375,-0.9792633056640625,0.0688323974609375,-0.069793701171875
1761379428294537700,7.340537841796875,-0.9760284423828125,0.0636444091796875,-0.063873291015625
1761379428304619800,7.350619873046875,-0.9713287353515625,0.058380126953125,-0.068023681640625
1761379428314701800,7.360701904296875,-0.966644287109375,0.0529022216796875,-0.0701751708984375
1761379428324783900,7.370783935546875,-0.96807861328125,0.0498046875,-0.0723114013671875
1761379428334866000,7.380865966796875,-0.9727325439453125,0.04803466796875,-0.079803466796875
1761379428344947500,7.390947509765625,-0.9791717529296875,0.051361083984375,-0.09075927734375
1761379428355029500,7.401029541015625,-0.9940032958984375,0.054901123046875,-0.0950164794921875
1761379428365112800,7.41111279296875,-0.9983367919921875,0.0544281005859375,-0.0928802490234375
1761379428375195000,7.42119482421875,-0.9991302490234375,0.053009033203125,-0.08721923828125
1761379428385276700,7.431276611328125,-0.9853515625,0.0487823486328125,-0.0874176025390625
1761379428395358700,7.441358642578125,-0.9735107421875,0.0475006103515625,-0.082855224609375
1761379428405440800,7.451440673828125,-0.973419189453125,0.04425048828125,-0.07525634765625
1761379428415522600,7.4615224609375,-0.982147216796875,0.050018310546875,-0.070343017578125
1761379428425604600,7.4716044921875,-0.996612548828125,0.0605010986328125,-0.06298828125
1761379428435687700,7.481687744140625,-1.0139617919921875,0.059295654296875,-0.057373046875
1761379428445769700,7.491769775390625,-1.0293731689453125,0.054046630859375,-0.0597381591796875
1761379428455851800,7.501851806640625,-1.03070068359375,0.0478668212890625,-0.067108154296875
1761379428465933800,7.511933837890625,-1.0107574462890625,0.0424041748046875,-0.0784759521484375
1761379428476015900,7.522015869140625,-0.9955596923828125,0.0362091064453125,-0.08746337890625
1761379428486097700,7.53209765625,-0.9841156005859375,0.0370941162109375,-0.0866851806640625
1761379428496180700,7.5421806640625,-0.9847869873046875,0.0396728515625,-0.0830078125
1761379428506262800,7.5522626953125,-0.9858551025390625,0.0428924560546875,-0.0781707763671875
1761379428516344800,7.5623447265625,-0.9855804443359375,0.0569610595703125,-0.08221435546875
1761379428526427000,7.572427001953125,-0.991058349609375,0.0565185546875,-0.083770751953125
1761379428536508700,7.5825087890625,-0.9864044189453125,0.0472259521484375,-0.082489013671875
1761379428546590700,7.5925908203125,-0.9805908203125,0.0438232421875,-0.0829925537109375
1761379428556672500,7.602672607421875,-0.985137939453125,0.0448760986328125,-0.0886383056640625
1761379428566755800,7.612755859375,-0.9914398193359375,0.0512847900390625,-0.0886383056640625
1761379428576838000,7.622837890625,-0.9944000244140625,0.0560455322265625,-0.0861968994140625
1761379428586919700,7.632919677734375,-0.99945068359375,0.0497589111328125,-0.08221435546875
1761379428597001700,7.643001708984375,-0.9932708740234375,0.0474853515625,-0.0768890380859375
1761379428607083800,7.653083740234375,-0.994537353515625,0.043212890625,-0.0790252685546875
1761379428617165800,7.663165771484375,-0.987548828125,0.0331573486328125,-0.082763671875
1761379428627248600,7.67324853515625,-0.975433349609375,0.0281219482421875,-0.0821380615234375
1761379428637330700,7.68333056640625,-0.979766845703125,0.049041748046875,-0.0926666259765625
1761379428647412700,7.693412841796875,-1.0037689208984375,0.0581207275390625,-0.0961761474609375
1761379428657494800,7.703494873046875,-1.0077972412109375,0.0469512939453125,-0.080535888671875
1761379428667576800,7.713576904296875,-1.011199951171875,0.0323486328125,-0.0734710693359375
1761379428677659000,7.723658935546875,-1.009185791015625,0.026580810546875,-0.0760040283203125
1761379428687741000,7.733740966796875,-0.9995269775390625,0.0282440185546875,-0.0774993896484375
1761379428697823700,7.74382373046875,-1.002166748046875,0.0263671875,-0.085052490234375
1761379428707905800,7.75390576171875,-0.9849700927734375,0.0233917236328125,-0.0884552001953125
1761379428717987800,7.76398779296875,-1.0125885009765625,-0.010498046875,-0.0858306884765625
1761379428728070000,7.77406982421875,-0.96240234375,0.0295562744140625,-0.072540283203125
1761379428738151700,7.784151611328125,-0.9383087158203125,0.0435333251953125,-0.07666015625
1761379428748233700,7.794233642578125,-0.980743408203125,0.067901611328125,-0.0741424560546875
1761379428758316800,7.80431689453125,-0.984466552734375,0.0673370361328125,-0.0943450927734375
1761379428768398800,7.81439892578125,-1.0174407958984375,0.04779052734375,-0.1053924560546875
1761379428778481000,7.82448095703125,-1.02459716796875,0.06097412109375,-0.1205902099609375
1761379428788562700,7.834562744140625,-1.01177978515625,0.049896240234375,-0.127044677734375
1761379428798644700,7.844644775390625,-1.0329742431640625,-0.023590087890625,-0.12890625
1761379428808726800,7.854726806640625,-0.9884033203125,0.01348876953125,-0.1328277587890625
1761379428818808800,7.864808837890625,-0.9678802490234375,-0.0427703857421875,-0.1345672607421875
1761379428828891600,7.8748916015625,-1.040985107421875,-0.0669403076171875,-0.090484619140625
1761379428838973700,7.8849736328125,-1.0003814697265625,0.000152587890625,-0.0845489501953125
1761379428849055700,7.8950556640625,-0.9727325439453125,0.0468292236328125,-0.080780029296875
1761379428859137800,7.9051376953125,-0.969635009765625,0.1031036376953125,-0.08526611328125
1761379428869219800,7.9152197265625,-0.9455108642578125,0.1416473388671875,-0.09637451171875
1761379428879302000,7.925302001953125,-0.946441650390625,0.1541595458984375,-0.1118316650390625
1761379428889384700,7.935384765625,-0.937896728515625,0.1472625732421875,-0.1333160400390625
1761379428899466800,7.945466796875,-0.914764404296875,0.1494140625,-0.1701507568359375
1761379428909548800,7.955548828125,-0.9498291015625,0.0394439697265625,-0.186309814453125
1761379428919630800,7.965630859375,-0.983154296875,0.0132904052734375,-0.19073486328125
1761379428929713000,7.975712890625,-0.987945556640625,0.060516357421875,-0.210601806640625
1761379428939794700,7.985794677734375,-0.9987945556640625,0.062347412109375,-0.2075042724609375
1761379428949876700,7.995876708984375,-0.9930267333984375,0.053924560546875,-0.1894378662109375
1761379428959959800,8.005959716796875,-0.96771240234375,0.0557403564453125,-0.17413330078125
1761379428970041900,8.016041748046876,-0.9627532958984375,0.0615234375,-0.1576690673828125
1761379428980123600,8.02612353515625,-0.96826171875,0.0687713623046875,-0.1391448974609375
1761379428990205700,8.036205810546875,-0.9809112548828125,0.073883056640625,-0.12371826171875
1761379429000287500,8.04628759765625,-0.9772186279296875,0.075653076171875,-0.11199951171875
1761379429010369500,8.05636962890625,-0.97186279296875,0.072662353515625,-0.1059417724609375
1761379429020452600,8.06645263671875,-0.9877166748046875,0.0659027099609375,-0.1045684814453125
1761379429030534400,8.076534423828125,-0.9995269775390625,0.0615692138671875,-0.1038055419921875
1761379429040616400,8.086616455078126,-1.00048828125,0.063629150390625,-0.1080169677734375
1761379429050698500,8.096698486328124,-1.00372314453125,0.06048583984375,-0.1079254150390625
1761379429060780500,8.106780517578125,-1.0028228759765625,0.053741455078125,-0.100250244140625
1761379429070862600,8.116862548828125,-1.0000457763671875,0.0512847900390625,-0.1040802001953125
1761379429080944600,8.126944580078124,-0.98406982421875,0.0528717041015625,-0.115936279296875
1761379429091027500,8.13702734375,-0.9671478271484375,0.0533294677734375,-0.123260498046875
1761379429101109500,8.147109619140625,-0.95458984375,0.0540618896484375,-0.126068115234375
1761379429111191600,8.157191650390626,-0.9471282958984375,0.0541229248046875,-0.1279144287109375
1761379429121273600,8.167273681640625,-0.940277099609375,0.0591583251953125,-0.1317291259765625
1761379429131355600,8.177355712890625,-0.9794921875,0.0654144287109375,-0.1177215576171875
1761379429141437400,8.1874375,-1.0114898681640625,0.0561981201171875,-0.109893798828125
1761379429151519500,8.19751953125,-1.02392578125,0.076446533203125,-0.12066650390625
1761379429161602600,8.2076025390625,-1.0434722900390625,0.0819549560546875,-0.11737060546875
1761379429171684600,8.2176845703125,-1.0379180908203125,0.0727081298828125,-0.1079254150390625
1761379429181766400,8.227766357421874,-1.0181732177734375,0.069427490234375,-0.0973968505859375
1761379429191848400,8.237848388671875,-0.9936065673828125,0.065521240234375,-0.094329833984375
1761379429201930500,8.247930419921875,-0.9912109375,0.057037353515625,-0.10150146484375
1761379429212012500,8.258012451171876,-0.99700927734375,0.0713653564453125,-0.1215057373046875
