time,seconds_elapsed,z,y,x
1761392263829769700,0.090769775390625,-0.5281470915138721,0.9466681255303323,-0.6652050535552203
1761392263839851500,0.1008515625,-0.3117676093459129,1.0340028562426566,-0.6258535786367952
1761392263849934600,0.1109345703125,-0.13958499630093574,1.1429302639514207,-0.5258120726950466
1761392263860016600,0.1210166015625,-0.14687807591855526,1.1671158800505101,-0.22857253572158515
1761392263870098700,0.1310986328125,-0.4530395358204841,1.0961856100417673,0.0014968144290149212
1761392263880180500,0.141180419921875,-0.20374270343482492,0.8531649353161453,0.07341046945191919
1761392263890262500,0.151262451171875,0.1711632068693638,0.5936404311656952,0.04170198356732726
1761392263900344600,0.161344482421875,0.3024789719969034,0.5380848404213786,-0.1281704528391361
1761392263910427600,0.171427734375,0.437463196504116,0.5464116470009088,-0.2378809737496078
1761392263920509700,0.181509765625,0.5243985526353121,0.5222328990340233,-0.3807674958139658
1761392263930591500,0.191591552734375,0.6094716220259666,0.505097639837861,-0.5622626385401934
1761392263940673500,0.201673583984375,0.4933434891581535,0.5201069929212332,-0.7870068481452762
1761392263950755600,0.211755615234375,0.43381402634680266,0.6911690775036812,-0.9846869636055081
1761392263960837600,0.221837646484375,0.32237551259994507,0.8730480319157242,-1.1747020973958073
1761392263970919700,0.231919677734375,0.1184983691304922,0.9305418972462415,-1.2045930855296552
1761392263981002500,0.24200244140625,-0.4064624935626983,0.9111667501688003,-1.1781238154727964
1761392263991084500,0.25208447265625,-1.0809253509372472,0.8199901032060384,-1.1429947074897586
1761392264001166600,0.26216650390625,-1.5636147596120833,0.779473676161468,-1.1809813237957656
1761392264011248600,0.27224853515625,-1.7676719358235597,0.878091579040885,-1.2812351573139429
1761392264021330700,0.28233056640625,-1.7184394106209278,0.9213292477428913,-1.2100742934197186
1761392264031412500,0.29241259765625,-1.4957026683807373,0.7943255005955696,-1.0244852324433624
1761392264041494500,0.30249462890625,-1.271842475068569,0.6197343651041388,-0.9441393377050756
1761392264051576600,0.31257666015625,-1.342156951266527,0.5425201925203204,-0.8107936741851269
1761392264061659600,0.32265966796875,-1.1520517280399798,0.5186968338623643,-0.877840015432611
1761392264071741700,0.33274169921875,-0.6594260317623615,0.47468788852691646,-0.7822327656112611
1761392264081823500,0.342823486328125,-0.4267325436532497,0.34960400352627036,-0.702092257251963
1761392264091905500,0.352905517578125,-0.14350304652750492,0.2871551461368799,-0.7907523182839155
1761392264101987600,0.362987548828125,0.06291033742129802,0.4154585777059197,-0.9774981480799615
1761392264112069600,0.373069580078125,0.21889584890305994,0.5185863592252135,-1.0862714612055568
1761392264122151700,0.383151611328125,0.2977268090337515,0.5341700050652027,-1.254815352421999
1761392264132234500,0.393234375,0.2550175481200218,0.6290411226317286,-1.6012582615688442
1761392264142316500,0.403316650390625,0.368116688555479,0.8867728981465101,-1.773451103746891
1761392264152398600,0.413398681640625,0.40330665988028047,1.0761609130144119,-1.5886515857130288
1761392264162480600,0.423480712890625,0.35078561452627177,1.346606916412711,-1.6488535409584641
1761392264172562700,0.433562744140625,0.245798468875885,1.566230202807486,-1.4560796830445528
1761392264182644500,0.44364453125,0.41424774061143393,1.6329782186955213,-1.4185326271995902
1761392264192726500,0.4537265625,0.9037006520718336,1.6045497043296695,-1.042586487127468
1761392264202809600,0.4638095703125,1.8360586588293313,1.2777502378076315,-0.12297595293596386
1761392264212891600,0.4738916015625,2.1346552364349365,0.47709582645148035,0.7401510620113462
1761392264222973700,0.4839736328125,1.351342128241062,-0.3643278176665306,0.8306693911958485
1761392264233055500,0.494055419921875,1.0007464833289383,-0.9066136169090867,0.4519435572773218
1761392264243137500,0.504137451171875,0.9793114811122416,-1.1999120881065726,0.19196137248724698
1761392264253219600,0.514219482421875,0.8593471310824156,-1.2953279800742863,0.002999474076926708
1761392264263301600,0.524301513671875,0.38209436050355433,-0.5227312039449811,-0.37204189917519687
1761392264273384400,0.534384521484375,-0.03642214346826076,0.825158738015592,-1.0925003456577658
1761392264283466500,0.544466552734375,0.1822907500833273,1.5850912628829479,-1.4754082145012914
1761392264293548500,0.554548583984375,0.38859541296064853,1.485969502134621,-1.3065282962635159
1761392264303630600,0.564630615234375,-0.0672732088059187,0.9065373368024825,-0.9793068049371242
1761392264313712600,0.574712646484375,-0.4931342303216457,0.51729661167562,-0.8276660446614027
1761392264323794700,0.584794677734375,-0.39207507176995277,0.5311772529900074,-0.6476496692508459
1761392264333876700,0.594876708984375,-0.137312959715724,0.8628305892840027,-0.5165890479281544
1761392264343959600,0.60495947265625,-0.520780362138152,1.1660454743400215,-0.47366643652468915
1761392264354041600,0.61504150390625,-0.737691759225726,1.2693030197188258,-0.44898763008117676
1761392264364123600,0.62512353515625,-0.4632534713208675,1.0686080134168268,-0.2259197561904788
1761392264374205700,0.635205810546875,-0.48193128378391265,0.6852452404126524,0.005181640421599149
1761392264384287500,0.64528759765625,-0.5816857894778251,0.4854056818962097,0.2660444074384868
1761392264394369500,0.65536962890625,-0.46414837433397765,0.48376142182052134,0.4756728079110384
1761392264404451600,0.66545166015625,-0.19653379496932027,0.4348875007972121,0.5854254143975675
1761392264414534700,0.67553466796875,-0.025125088906288146,0.24170155495107173,0.7275218089975416
1761392264424616400,0.685616455078125,0.08932488161623478,0.0982496540889144,0.772291363441944
1761392264434698500,0.695698486328125,0.1293295597463846,0.2772913392484188,0.5374425969950855
1761392264444780500,0.705780517578125,0.05597440067827701,0.5541688369989395,0.2426085867933929
1761392264454862600,0.715862548828125,0.005782090532779693,0.6024073827281594,-0.04276420597136021
1761392264464944600,0.725944580078125,-0.03458265308141708,0.523203205370903,-0.05354761192277074
1761392264475026700,0.736026611328125,-0.030438977405428884,0.34178953038305043,0.13041194815561175
1761392264485108700,0.746108642578125,0.06273965702950954,0.129326929397881,0.3162697430707514
1761392264495191600,0.756191650390625,0.16368483381271362,0.05493628980219364,0.4025486811198294
1761392264505273600,0.766273681640625,0.1336702192991972,0.0893149447441101,0.39531405369117856
1761392264515355600,0.776355712890625,0.13754443038403988,0.15650485918074844,0.34428529272153974
1761392264525437700,0.786437744140625,0.15436404775977133,0.19720394931584595,0.2518329267345369
1761392264535519500,0.79651953125,0.287500014051795,0.1913654524207115,0.20381211540922523
1761392264545601500,0.8066015625,0.3561439266890287,0.2114195216730237,0.26614947524815796
1761392264555683600,0.81668359375,0.2991220627844334,0.23883184473365543,0.24837840236648917
1761392264565765600,0.826765625,0.25387246973812577,0.2524742933779955,0.08594605283290148
1761392264575848700,0.8368486328125,0.2572702954828739,0.2826530124120414,-0.1294653149552643
1761392264585930500,0.846930419921875,0.18345511768758296,0.31553222257643937,-0.29762203348502514
1761392264596012500,0.857012451171875,0.1435562380194664,0.3093285456307232,-0.4072555436365306
1761392264606094600,0.867094482421875,0.1999754598557949,0.25054595566391946,-0.44792876867800946
1761392264616176600,0.8771767578125,0.21162205850780008,0.21340996483787894,-0.4451549200505018
1761392264626258700,0.8872587890625,0.12073474988043308,0.2460650108575821,-0.43468058004826304
1761392264636340700,0.8973408203125,0.03612111469507217,0.2885037842668593,-0.4297238344237208
1761392264646423600,0.907423583984375,0.04614332701563835,0.2686703720279038,-0.4920392746917903
1761392264656505600,0.917505615234375,0.14569441909193992,0.18288813145458696,-0.5072814136177302
1761392264666587600,0.927587646484375,0.1925163760215044,0.07668357283845544,-0.48365357753187416
1761392264676669700,0.937669677734375,0.1525531989455223,0.05511851450130343,-0.48930458903089163
1761392264686751500,0.94775146484375,0.004338321465253829,0.08548778767138719,-0.6352228800065816
1761392264696833500,0.95783349609375,-0.12434651063680648,0.18267112770304084,-0.8780661523386836
1761392264706915600,0.96791552734375,-0.2956459111064672,0.3776400114431977,-1.0151362432092428
1761392264716998700,0.97799853515625,-0.45580549340248105,0.3330551659159362,-0.9781770702548325
1761392264727080700,0.988080810546875,-0.4101946658283472,0.10686828322187066,-0.8661364989615976
1761392264737162500,0.99816259765625,-0.3656657882720232,-0.11932765956148504,-0.7688616812542081
1761392264747244500,1.00824462890625,-0.30935294941961766,-0.27490195989385247,-0.6469681167274713
1761392264757326600,1.01832666015625,-0.46296004133224483,-0.3593389233380556,-0.6004923428870738
1761392264767408600,1.02840869140625,-0.11619126123189925,-0.5052214123480022,-0.5988483750723302
1761392264777490700,1.03849072265625,-0.15439795002937315,-0.41304245647490023,-0.64222866711542
1761392264787572700,1.04857275390625,0.1324456459403038,-0.14763839276656507,-0.7846968176372349
1761392264797655600,1.058655517578125,0.4482312587559223,-0.024119565125554798,-0.9899358971096575
1761392264807737600,1.068737548828125,0.29452947429716586,-0.09788374338597058,-1.0749199730426073
1761392264817819400,1.0788193359375,0.21309096201658248,-0.31097996609956025,-1.1912129410833119
1761392264827901400,1.0889013671875,0.04995207164883613,-0.40878889068365093,-1.294532153521478
1761392264837983500,1.0989833984375,-0.05316986465156078,-0.33486060790270566,-1.4445865213885902
1761392264848065300,1.109065185546875,0.006538461858034134,-0.23396306965351105,-1.650420351883769
1761392264858147300,1.119147216796875,0.0817424636632204,-0.1377234402127564,-1.811040975820273
1761392264868230400,1.12923046875,0.2679366509258747,-0.1699550001233816,-1.9557501832671462
1761392264878312400,1.1393125,0.3169885588645935,-0.1738305263824761,-2.0160135133109987
1761392264888394200,1.149394287109375,0.21352409273684023,-0.09191972041502594,-1.8640115185074506
1761392264898476300,1.159476318359375,0.1163549273610115,-0.23754458140209317,-1.8352793450199067
1761392264908558300,1.169558349609375,0.003936754927039147,-0.2722590441696346,-1.8050317985333502
1761392264918640400,1.179640380859375,0.06035013154447078,-0.15372458081245421,-1.7607865602239965
1761392264928722400,1.189722412109375,0.07594692912697791,-0.20942659429013727,-1.6599186864607036
1761392264938804500,1.199804443359375,0.09532499881386756,-0.32762773403972384,-1.5356119233123957
1761392264948887300,1.20988720703125,0.1131307046175003,-0.29713074283674357,-1.5113397979736327
1761392264958969300,1.21996923828125,0.1316834293961525,-0.23882030042633412,-1.5340169092059135
1761392264969051400,1.230051513671875,0.0824918207257986,-0.18129487091377378,-1.5324005600504575
1761392264979133400,1.240133544921875,-0.05302724131047725,-0.16426716374531386,-1.6953877669878303
1761392264989215500,1.250215576171875,0.03228314396739006,-0.11286840041950344,-1.7529855310842395
1761392264999297300,1.26029736328125,-0.014962006810307502,-0.016641192068904638,-1.7816598369047045
1761392265009379300,1.27037939453125,0.016816110244393348,-0.09498509933501481,-1.80189393889904
1761392265019462400,1.28046240234375,0.0754553462177515,-0.20246581536680458,-1.6849053898096085
1761392265029544400,1.29054443359375,0.09363806864023208,-0.2103003083847463,-1.5852952610224484
1761392265039626200,1.300626220703125,0.21843583017587662,-0.2587409525573253,-1.5341089714035392
1761392265049708300,1.310708251953125,0.23578093273043632,-0.3275415170609951,-1.5273974910661576
1761392265059790300,1.320790283203125,0.1628442913353443,-0.38799839691556987,-1.4792767264977096
1761392265069872400,1.330872314453125,0.2567868958801031,-0.4664154424831271,-1.3942786220394074
1761392265079954400,1.340954345703125,0.28257074095606804,-0.5300746985755861,-1.227580431754887
1761392265090036500,1.351036376953125,0.3048153059899807,-0.6335378495290875,-0.9144301358789205
1761392265100119300,1.361119384765625,0.3664128072470426,-0.7775597322989255,-0.6008753143226727
1761392265110201300,1.371201416015625,0.33916298127174377,-0.901389160259068,-0.5066378550171852
1761392265120283400,1.381283447265625,0.47779520689249033,-0.9641276482447981,-0.28051139727346597
1761392265130365400,1.391365478515625,0.5340700518220662,-0.976675214324519,0.04146132494555786
1761392265140447500,1.401447509765625,0.5768541315376758,-1.2835862504847346,0.2700005246531218
1761392265150529300,1.411529296875,0.46948213657736776,-1.5118088767901061,0.35157387882713226
1761392265160611300,1.421611328125,0.3209609696269035,-1.7230162170171737,0.2786598511226475
1761392265170693400,1.431693359375,0.18985913951098918,-1.9011336269386112,0.18103954444583503
1761392265180776400,1.4417763671875,-0.02811959454715252,-2.1112433811873195,0.15650599169190973
1761392265190858200,1.451858154296875,-0.13448738090097903,-2.3466943513110277,0.28275238113328816
1761392265200940300,1.461940185546875,-0.1458691911369562,-2.6753593194440004,0.394158746176213
1761392265211022300,1.472022216796875,-0.22947978675961492,-3.069425272770226,0.36676717364266515
1761392265221104400,1.4821044921875,-0.44298575931787487,-3.4737399406492706,0.31283801505640146
1761392265231186400,1.4921865234375,-0.6673655925899744,-3.8255800326645373,0.272836917122826
1761392265241268500,1.5022685546875,-0.9044897566229104,-4.154966593070328,0.29573994606547055
1761392265251350500,1.5123505859375,-1.0451163709312676,-4.6456718426793815,0.5260346294045448
1761392265261433300,1.522433349609375,-1.3037369119793176,-5.353284105461835,0.8063152135968208
1761392265271515400,1.532515380859375,-1.6234972736448048,-5.943050325542688,1.0493217136666178
1761392265281597400,1.542597412109375,-2.0753011301904913,-6.302606106501817,1.3555454251497983
1761392265291679500,1.552679443359375,-2.290173130404949,-6.6227101670384405,1.6242043990008532
1761392265301761300,1.56276123046875,-2.183612451827526,-6.942586264038085,1.802977642482519
1761392265311843300,1.57284326171875,-1.8879402372360228,-7.261441201296448,2.1006376698903737
1761392265321925400,1.58292529296875,-1.605854064926505,-7.58745886979103,2.549925598092377
1761392265332008400,1.593008544921875,-1.2841688726782798,-7.931639386963844,2.9801503677755594
1761392265342090500,1.603090576171875,-0.8884025451749563,-8.193004842805863,3.3405069437235593
1761392265352172300,1.61317236328125,-0.6496440579384565,-8.338187220722437,3.802883632209897
1761392265362254300,1.62325439453125,-0.7922989632040262,-8.166305051928758,4.548956266289949
1761392265372336400,1.63333642578125,-1.471485926491022,-7.911950936153531,5.7772781640619035
1761392265382418400,1.64341845703125,-2.365025250032544,-8.037927678340672,7.267578681138158
1761392265392500500,1.65350048828125,-2.6651936069995164,-7.825920419907569,8.475959030121563
1761392265402582500,1.66358251953125,-2.531865333005786,-7.088191835802793,9.300136063623428
1761392265412665300,1.673665283203125,-2.2803309508264062,-6.378979736608266,10.093722728550434
1761392265422747400,1.683747314453125,-1.7033108150720595,-5.943001810225844,10.84851818279028
1761392265432829400,1.693829345703125,-2.2045774984449147,-5.082575651735067,11.991667642450333
1761392265442911500,1.703911376953125,-4.50432451288104,-4.17877037024498,13.511075011545419
1761392265452993300,1.7139931640625,-7.93726014945507,-2.9462632957428694,14.30161164125204
1761392265463075300,1.724075439453125,-10.692792199027538,-0.7705465656012296,14.182656760525703
1761392265473157400,1.734157470703125,-12.822210119330883,1.4563760356426239,13.067508237469196
1761392265483239400,1.744239501953125,-14.266653725117445,3.9606075117915864,11.184986518150568
1761392265493322500,1.754322509765625,-14.042993438291548,6.220706990972161,8.54465554972887
1761392265503404300,1.764404296875,-12.36708033323288,7.524407078072429,6.48326428694725
1761392265513486300,1.774486328125,-10.056294622910022,7.794378449696302,5.319512184241414
1761392265523568400,1.784568359375,-7.37074562562406,8.172839422133565,4.692107722900808
1761392265533650400,1.794650390625,-4.886480248183012,8.489912736672162,4.183576893743872
1761392265543732500,1.804732421875,-2.81185131816566,8.837540763950347,3.715459323517978
1761392265553814500,1.814814453125,-1.1365613134413957,9.756724816358089,2.77855139837116
1761392265563896300,1.824896240234375,-0.3020587007582187,11.191706181794403,1.104930203641951
1761392265573979400,1.8349794921875,-0.14958441226780414,11.872121225571632,-0.4854994976595044
1761392265584061400,1.8450615234375,-0.08722294090092182,11.681983269119263,-1.7746058267399667
1761392265594143500,1.8551435546875,-0.5570651429623366,11.557088476949929,-2.7497663256525993
1761392265604225300,1.865225341796875,-0.9293266762375831,11.701417452907561,-3.7036987430974837
1761392265614307300,1.875307373046875,-0.9480909979403018,11.874836914271116,-4.1768025773033495
1761392265624389400,1.885389404296875,-0.9576233809173107,11.485237877225876,-4.147881310984492
1761392265634471400,1.895471435546875,-0.39493805998563764,11.060732361972331,-4.1901022038593885
1761392265644553500,1.905553466796875,-0.06590484306216239,10.610938091683387,-4.36197005186677
1761392265654636300,1.91563623046875,0.6004635551840066,9.876985518985986,-4.644213460564613
1761392265664718300,1.92571826171875,1.7402946840763092,9.271362389081716,-5.00269138315916
1761392265674800400,1.93580029296875,3.023237814351916,8.74173061196804,-5.475111326754093
1761392265684882400,1.94588232421875,4.546000339093804,8.07472976103723,-5.7711950447559355
1761392265694964500,1.955964599609375,5.792772085791826,7.276379242709279,-5.811389107978344
1761392265705046500,1.966046630859375,6.2874798490405075,6.241475053712725,-5.478087712216377
1761392265715128300,1.97612841796875,5.612917038422823,5.202870256632566,-5.223833549684286
1761392265725210400,1.98621044921875,4.309453098165989,4.174944966737926,-5.304520951336622
1761392265735293400,1.99629345703125,3.04904270221591,3.442186864522099,-5.835630984309315
1761392265745375500,2.00637548828125,2.5657991667896507,2.8494971582099793,-6.774767691421508
1761392265755457300,2.016457275390625,3.1764865943461653,1.703610382540524,-7.637636566889285
1761392265765539300,2.026539306640625,3.0526836890667677,0.45348464923948045,-8.083803294330835
1761392265775621400,2.036621337890625,2.582737442108989,0.03893617211580276,-9.09895415058732
1761392265785703400,2.046703369140625,2.281488304167986,1.3744897795945406,-10.73055465118885
1761392265795785500,2.056785400390625,3.391798155021667,2.789016386023164,-12.301032866829633
1761392265805867500,2.066867431640625,4.443021026134491,2.844239091551304,-12.62405836777091
1761392265815950300,2.076950439453125,4.860846625232696,2.1250147169083355,-11.95202069171667
1761392265826032400,2.087032470703125,3.9561154610693454,0.4354740685135126,-10.110821162867545
1761392265836114400,2.097114501953125,1.5795447346717117,-1.844690293574333,-8.647887960666418
1761392265846196500,2.107196533203125,-1.4276479538083076,-3.849405729410052,-8.497547761595248
1761392265856278500,2.117278564453125,-2.858955014646053,-5.3563832405209535,-9.949996979182957
1761392265866360300,2.1273603515625,-3.3111475782483812,-5.8476697971493,-11.865118653333186
1761392265876442400,2.1374423828125,-4.2636850342035295,-6.687654640635848,-12.258324190437794
1761392265886524400,2.1475244140625,-3.423362337064743,-8.195268696084618,-10.080907670640945
1761392265896607500,2.157607421875,-2.57982535405457,-10.043854828053712,-6.08775281098783
1761392265906689300,2.167689208984375,-1.1505991911441087,-12.752525757730007,-1.6227432404071092
1761392265916771300,2.177771240234375,-0.403762586954236,-15.579363632625341,1.0491840587615966
1761392265926853400,2.187853271484375,-1.3951245713442564,-18.279111251133678,1.5114052644252776
1761392265936935400,2.197935302734375,-4.758988132996857,-20.198123502981662,0.9598650223642587
1761392265947017500,2.208017578125,-9.590267010700702,-20.718586469733715,0.2857347579449415
1761392265957099500,2.218099609375,-12.810426158034801,-20.48972510713339,-1.6371517049878834
1761392265967181600,2.228181640625,-12.167096690070629,-20.404737962460516,-4.602160617733001
1761392265977264400,2.238264404296875,-9.198542652064562,-20.794214249908922,-5.315346881255508
1761392265987346400,2.248346435546875,-6.822731804123521,-22.842895668721198,-2.4528636924833056
1761392265997428500,2.258428466796875,-7.770393178474903,-24.02892097803354,1.992826260599494
1761392266007510500,2.268510498046875,-13.364513161969183,-23.092886328589916,6.236559809142351
1761392266017592300,2.27859228515625,-22.122921352493762,-20.6963419046998,9.356219185373186
1761392266027674400,2.28867431640625,-28.763901335716245,-17.27316544559598,10.269004476654528
1761392266037756400,2.29875634765625,-30.821839243173596,-13.720098870253562,9.74592460540235
1761392266047838500,2.30883837890625,-29.955881754040718,-11.303808127886056,7.766753945189714
1761392266057921500,2.318921630859375,-27.986571393585205,-9.053152768877148,5.169958167111873
1761392266068003300,2.32900341796875,-26.240625551879404,-6.426814669972658,2.908174680367112
1761392266078085400,2.33908544921875,-25.51866619931459,-4.0997991248607635,2.0720079338639974
1761392266088167400,2.34916748046875,-25.86479901959896,-1.531770591583848,2.2857722650974988
1761392266098249500,2.35924951171875,-27.112496064448354,1.003925113365054,2.7450305293023582
1761392266108331500,2.36933154296875,-29.00237223818302,3.502882448503375,2.195568847081065
1761392266118413600,2.37941357421875,-30.51875295293331,5.893254905760288,1.1231821919083596
1761392266128495400,2.389495361328125,-31.162243748939037,7.768979804545641,0.11819032609462737
1761392266138577400,2.399577392578125,-29.906994681274888,9.40880511265695,-0.7458195361018181
1761392266148660500,2.409660400390625,-27.374380575728416,10.31842697147131,-0.8786053737819194
1761392266158742500,2.419742431640625,-24.80450203067064,11.36568210799694,-0.6572165390193462
1761392266168824300,2.42982421875,-22.34103686467409,12.686335667985677,-0.2850935374319553
1761392266178906400,2.43990625,-20.155058268237113,13.91822373380661,-0.2578513102412224
1761392266188988400,2.449988525390625,-18.143737150526047,15.43437882310748,-0.9363181425601244
1761392266199070500,2.460070556640625,-15.83132880743742,17.08353368510008,-1.8952204573720692
1761392266209152500,2.470152587890625,-13.881492378258704,18.566540538036822,-2.9914164426773784
1761392266219234600,2.480234619140625,-12.439805377703903,19.53360044034123,-3.8313551089346407
1761392266229316400,2.49031640625,-11.070331380444765,20.636278773403166,-4.907421913924813
1761392266239399400,2.5003994140625,-9.527225740376114,22.229150022637842,-6.526988277861475
1761392266249481500,2.5104814453125,-7.525327700048685,23.842989241099357,-8.348321076723932
1761392266259563500,2.5205634765625,-5.126888840714097,25.435748262131213,-10.226512073361873
1761392266269645600,2.5306455078125,-2.9689678795039653,25.924265938568112,-11.17125376087427
1761392266279727400,2.540727294921875,-1.2158990540504455,24.971598134231566,-12.244066532504558
1761392266289809400,2.550809326171875,0.6441121427744627,23.522727359652517,-13.270944066911936
1761392266299891500,2.560891357421875,1.399524852129817,21.775105109167097,-14.773568643510341
1761392266309973500,2.570973388671875,1.1992705753326416,20.222862807440755,-17.629951761841774
1761392266320056300,2.581056396484375,1.2728922763824462,18.334805665826796,-20.461740537142752
1761392266330138400,2.591138427734375,1.942168671029806,16.819224577021597,-23.011944075393675
1761392266340220400,2.601220458984375,3.019431407806277,15.105752433419227,-24.625932931458948
1761392266350302500,2.611302490234375,5.4252644690454,12.381207058262824,-25.515544852423666
1761392266360384500,2.621384521484375,7.6611986442625515,8.765579105067253,-24.245551804614067
1761392266370466600,2.631466552734375,6.7383256742089985,4.3138320439025755,-21.614761402475832
1761392266380548400,2.64154833984375,2.127147637283802,1.0326906046003104,-19.402033915323017
1761392266390630400,2.65163037109375,-5.4026364576518535,-1.478996448251605,-18.684362615340948
1761392266400713500,2.66171337890625,-12.799245423328875,-4.720243976321816,-19.5521239390254
1761392266410795500,2.67179541015625,-16.641158166635037,-9.025726417291164,-20.8540482486248
1761392266420877600,2.681877685546875,-17.334342675614355,-14.525938283032177,-21.21752266433239
1761392266430959400,2.69195947265625,-16.22907724866867,-20.191588548254966,-21.028605189585683
1761392266441041400,2.70204150390625,-15.97261943861246,-24.725701465678213,-19.179189621055126
1761392266451123500,2.71212353515625,-18.37457887328863,-28.471434639167786,-16.465348010742662
1761392266461205500,2.72220556640625,-20.72256355667114,-29.483945794570445,-14.36561912626028
1761392266471287600,2.73228759765625,-23.327165040063857,-30.64419368854761,-10.8859626550436
1761392266481369600,2.74236962890625,-25.339157188904284,-30.715021374964714,-6.645262775108217
1761392266491452400,2.752452392578125,-26.514740599179266,-28.788579849898813,-2.77309576331377
1761392266501534500,2.762534423828125,-25.643335366034506,-25.68493929605484,0.4061924444496631
1761392266511616500,2.772616455078125,-23.012598739910125,-22.749033143675327,3.3934663804948326
1761392266521698600,2.782698486328125,-19.46521605542302,-19.569520479506252,5.907277585893869
1761392266531780600,2.792780517578125,-17.136102076727152,-16.441222454267738,7.8357456483513115
1761392266541862400,2.8028623046875,-15.995310578370093,-12.351439696508645,8.566059572285413
1761392266551944400,2.8129443359375,-15.298387467384337,-7.791766221371293,8.86314106915295
1761392266562026500,2.823026611328125,-14.957419482517242,-3.89723744790405,10.204718759226798
1761392266572108500,2.833108642578125,-15.178663355851173,-0.4345157448753714,12.795663473188876
1761392266582191400,2.84319140625,-16.378904237520693,2.8829215811669826,15.714312201297282
1761392266592273400,2.8532734375,-19.028951128792762,6.295876505985856,18.59052580925822
1761392266602355500,2.86335546875,-22.564457497525215,9.410676751747728,20.750662692952154
1761392266612437500,2.8734375,-24.58348261374235,11.957613397157191,20.845355239081382
1761392266622519600,2.88351953125,-24.398203203237056,13.759867401540278,18.696390906786917
1761392266632601600,2.8936015625,-22.91079606951475,14.983037907898424,15.541441021466254
1761392266642683400,2.903683349609375,-21.58005950692892,16.493934638279676,12.554912935352325
1761392266652765400,2.913765380859375,-21.82127766227722,18.557896628332138,10.718511162173748
1761392266662847500,2.923847412109375,-22.490150736820695,20.693180810320378,9.090165279453993
1761392266672930600,2.9339306640625,-21.525380991280077,22.476723099970815,7.747669305491447
1761392266683012600,2.9440126953125,-20.322444294655323,21.520272269964217,8.077885594719648
1761392266693094400,2.954094482421875,-19.73955906625986,19.549577761673927,8.187325628125667
1761392266703176400,2.964176513671875,-19.389937819337845,21.209640971171854,5.046852011924981
1761392266713258500,2.974258544921875,-19.407542449611423,24.468965423202512,0.8864132710538803
1761392266723340500,2.984340576171875,-20.467202309679983,25.358490834927558,-2.8768174190729856
1761392266733422600,2.994422607421875,-21.01247939969301,25.45717917269468,-7.735464488434791
1761392266743504600,3.004504638671875,-20.275086331152913,24.808315451478958,-11.588708773094416
1761392266753586400,3.01458642578125,-17.31275745127201,22.941179517340657,-12.704245418685675
1761392266763669500,3.02466943359375,-13.258223701548575,21.50508171509504,-12.921450245761871
1761392266773751600,3.03475146484375,-9.928436304759979,21.017380031216142,-13.656383646190166
1761392266783833600,3.04483349609375,-7.872281189066171,19.932654703474043,-14.167973570656775
1761392266793915400,3.054915283203125,-6.585714023074507,18.784887520885466,-14.803435373985767
1761392266803997400,3.06499755859375,-4.8405467645257705,17.73046380790472,-15.671448042082785
1761392266814080500,3.07508056640625,-2.825553095781803,16.53605762373805,-16.39056661826372
1761392266824162600,3.08516259765625,-0.4176537496626377,15.75941157221794,-16.945199565643073
1761392266834244400,3.095244384765625,1.7762118006318806,15.230269624447821,-17.166990551465748
1761392266844326100,3.105326171875,3.629682197511196,14.807970094805954,-17.28381309633851
1761392266854409500,3.115409423828125,5.04972727510035,13.6813871545434,-17.30128562466502
1761392266864491500,3.125491455078125,6.285663739529252,12.290590967792271,-17.660980521833896
1761392266874573600,3.135573486328125,8.275746838900446,11.069701265847682,-18.222521348905563
1761392266884655400,3.1456552734375,10.24949313597679,9.862824891686438,-18.358750020515917
1761392266894737400,3.1557373046875,10.70783896151185,8.354493627879023,-17.97483136719465
1761392266904819500,3.1658193359375,9.523219427344202,7.175286181887984,-17.867767999792097
1761392266914901200,3.1759013671875,7.38266461147666,6.1882379690438505,-18.143923028486967
1761392266924983300,3.1859833984375,4.864620298552513,4.694983278337121,-18.558346710187195
1761392266935066400,3.19606640625,3.3964176315158605,3.6816309959352016,-19.050594805324078
1761392266945148400,3.2061484375,3.9633980192929505,3.0868948784872887,-19.2497016656518
1761392266955230500,3.21623046875,5.01274457513988,1.3145759936407209,-18.37971097548008
1761392266965312500,3.2263125,5.7241503849864,0.059502282543480396,-16.876294956243036
1761392266975394600,3.23639453125,4.4627673446118825,-2.359642534080893,-14.359727145612238
1761392266985476400,3.246476318359375,-0.5897679736465216,-5.247595533543825,-11.999960839021206
1761392266995558100,3.25655810546875,-8.52559662899375,-6.775633368340134,-11.170306835412978
1761392267005640200,3.26664013671875,-17.24716240481138,-7.758029371464252,-11.269254700899124
1761392267015722200,3.27672216796875,-24.29440848224163,-9.247703865596652,-11.109303792917729
1761392267025805600,3.2868056640625,-27.67551222476959,-10.99952590585947,-10.445805981671809
1761392267035887400,3.296887451171875,-26.942909897637367,-12.891601050943136,-8.209461472088098
1761392267045969400,3.306969482421875,-25.107501811671256,-15.71230378408432,-4.074844131824374
1761392267056051200,3.31705126953125,-22.887852416300774,-17.94206891527772,0.10256839407086371
1761392267066133200,3.32713330078125,-21.268385421085355,-19.534206005018948,2.891395395001769
1761392267076215300,3.33721533203125,-19.800735127234457,-20.97245835494995,3.9394250230312347
1761392267086297300,3.34729736328125,-18.333820161920784,-21.192631384181976,4.005601668772101
1761392267096379400,3.35737939453125,-16.957322549635172,-20.42209592449665,4.495829656258225
1761392267106461200,3.367461181640625,-15.282666166639327,-19.32360510625243,5.891718197712302
1761392267116543200,3.377543212890625,-13.806871144777535,-18.580728053343297,7.6486629878163335
1761392267126626300,3.387626220703125,-12.77443363815546,-17.590911544829606,8.861289888328313
1761392267136708400,3.397708251953125,-11.786432654631136,-15.729222185659408,9.24559958679378
1761392267146790100,3.4077900390625,-10.516824222224951,-13.708310232782363,8.683750716686248
1761392267156872200,3.4178720703125,-8.526655198135972,-11.228918014335632,7.3386425143986935
1761392267166954200,3.427954345703125,-7.086281618267297,-8.258294768840074,5.504176093196868
1761392267177036300,3.438036376953125,-6.807492149415612,-4.800466098549962,3.5949545830011367
1761392267187118300,3.448118408203125,-7.5712489087462425,-1.080308680343628,2.610348502612114
1761392267197200400,3.458200439453125,-9.345895944279432,2.556901574584842,3.170869923508167
1761392267207282400,3.468282470703125,-11.188456240087747,5.328988453117013,4.928507372051477
1761392267217365200,3.478365234375,-12.719161248266696,7.798304098707437,6.312106340774894
1761392267227447300,3.488447265625,-13.604820632213354,10.237616820222138,6.3193421372473235
1761392267237529300,3.498529296875,-14.290746548366545,12.583075199997424,5.580002610814571
1761392267247611400,3.508611328125,-14.314527236926555,14.658296250689029,4.585090824988484
1761392267257693200,3.518693115234375,-13.184466391420363,16.204127516329287,3.906312442502379
1761392267267775200,3.528775146484375,-11.041141526317595,16.799874564385412,3.8591035320818423
1761392267277857300,3.538857177734375,-7.412099380275607,16.796161681342124,4.293558194419742
1761392267287939300,3.548939208984375,-5.069012405806779,17.07810464578867,5.476338822722434
1761392267298021400,3.559021484375,-4.854194181606173,17.56164219572544,7.63438311805129
1761392267308104200,3.569104248046875,-6.64902651155591,20.53964327651262,8.44782540704906
1761392267318186200,3.579186279296875,-10.323389562314748,24.639949766373633,6.370277374714613
1761392267328268300,3.589268310546875,-14.57166543046236,26.87082432011366,2.8479712638169525
1761392267338350300,3.599350341796875,-18.256369842493534,28.044228632783888,-2.327502597976476
1761392267348432400,3.609432373046875,-18.533098871684075,29.19784337235689,-8.504123632854222
1761392267358514400,3.619514404296875,-14.420539633971451,28.743036242341994,-13.113075225901603
1761392267368596200,3.62959619140625,-8.297903725650906,27.132743902707098,-15.580020635229348
1761392267378678300,3.63967822265625,-3.16845877071321,26.481803959739207,-17.514249160909653
1761392267388760300,3.64976025390625,-0.6137170045107603,25.779166562759876,-18.607136752319335
1761392267398842400,3.65984228515625,0.2950204726845026,24.572764820373056,-18.936195688205956
1761392267408925200,3.66992529296875,1.2606781069755553,23.11560552539825,-18.705640381169317
1761392267419007200,3.68000732421875,2.767310750171542,20.871378153610227,-17.940511748963594
1761392267429089300,3.69008935546875,3.6544355304956433,17.59762302516699,-17.446117289447784
1761392267439171300,3.70017138671875,4.022120841896534,13.985875128275156,-18.427891945803164
1761392267449253400,3.71025341796875,4.67443265773952,11.521062054800987,-21.053875239920615
1761392267459335400,3.72033544921875,6.240035376298427,8.795365756043791,-23.706318670940398
1761392267469417200,3.730417236328125,9.137993198555707,7.091013322964311,-24.509800122416017
1761392267479499300,3.740499267578125,12.475775685751437,6.426503704327344,-23.432425741958617
1761392267489581300,3.750581298828125,13.892006758010387,6.557573385739326,-21.65796458438635
1761392267499664400,3.760664306640625,11.836290033733844,7.264696403700113,-19.746409662806986
1761392267509746400,3.770746337890625,6.4917626507014035,6.899087898573279,-18.870325916457176
1761392267519828200,3.780828125,0.35966625559628007,6.435259842234849,-19.572429060429332
1761392267529910300,3.79091015625,-5.518261317172646,5.386196194982529,-21.104749687111376
1761392267539992300,3.800992431640625,-9.690219084793329,4.61376279272139,-22.653005549550056
1761392267550074400,3.811074462890625,-10.48280387920141,4.521839126783609,-23.803676636886596
1761392267560156400,3.821156494140625,-8.58296394533515,4.879902915619313,-23.438303694081306
1761392267570238500,3.831238525390625,-7.901524819207191,4.2980464457497,-20.56130098156929
1761392267580320300,3.8413203125,-10.033500607299803,3.304600348562002,-17.615011382341383
1761392267590403300,3.8514033203125,-16.60198701671958,3.1342201087638735,-15.322708254170417
1761392267600485400,3.8614853515625,-26.413559860074518,3.546013734221458,-13.31084470014572
1761392267610567400,3.8715673828125,-35.43412845621109,3.460376601207256,-10.755389817237853
1761392267620649200,3.881649169921875,-40.27101436014175,2.475617960605025,-7.383325705733895
1761392267630731300,3.891731201171875,-40.59315606398582,0.8477182142175733,-3.9389053830713032
1761392267640813300,3.901813232421875,-38.31779705635309,-1.707209283815324,-0.19246902974843977
1761392267650895400,3.911895263671875,-35.11940784227848,-3.6312124758183955,3.9303830539196727
1761392267660977400,3.921977294921875,-33.28992447018623,-4.416104962158203,8.383440320900082
1761392267671059500,3.9320595703125,-33.4433591281414,-3.1563328641116617,12.976432712793349
1761392267681141500,3.9421416015625,-33.00511734848022,-0.10683101995140314,16.573776821279523
1761392267691224300,3.952224365234375,-31.230043611967563,3.1625361026659604,19.45147628388405
1761392267701306400,3.962306396484375,-28.48845124042034,5.854173772215843,20.74028392227888
1761392267711388400,3.972388427734375,-24.842502967762947,7.984746707773208,20.4706416364789
1761392267721470500,3.982470458984375,-21.089442227864264,9.386343690001963,19.60798318889141
1761392267731552300,3.99255224609375,-17.17590451028347,10.483673647773266,17.72699408596754
1761392267741634300,4.00263427734375,-13.18928518987894,11.588200239050387,15.003495004993676
1761392267751716400,4.01271630859375,-9.181387519124149,12.248151171469688,12.469940988248586
1761392267761798400,4.02279833984375,-5.641190946748853,12.909489758855104,10.434432354742288
1761392267771880400,4.03288037109375,-3.1743495823174714,13.668258792901039,8.850207353299856
1761392267781962500,4.04296240234375,-1.3297747318163513,14.490533792173862,7.469994519883394
1761392267792045300,4.05304541015625,0.6328446065679192,16.364473561108113,5.9103346353769295
1761392267802127400,4.06312744140625,2.6591788767546416,18.434216472649574,5.196916316664218
1761392267812209400,4.07320947265625,4.941066409373283,19.507826532137393,5.148091203218698
1761392267822294800,4.083294677734375,7.234173839664459,19.878415748286248,4.76792459590733
1761392267832376800,4.093376953125,8.937253768590093,20.007817204225063,3.937003348842263
1761392267842458600,4.103458740234375,9.553303015440703,21.123611039447784,2.9983517948985097
1761392267852540700,4.113540771484375,8.1472256729275,23.015706058275697,2.675925428894162
1761392267862622700,4.123622802734375,5.234598104804754,25.464855114150044,2.0500529994264243
1761392267872704800,4.133704833984375,3.053488575708866,28.528914183712004,-0.3372338398400694
1761392267882786800,4.143786865234375,1.5822241830140351,32.386700203454495,-5.014705646079778
1761392267892869600,4.15386962890625,0.23317630318999288,32.56044348994493,-9.50343745303154
1761392267902951700,4.16395166015625,-0.49345805544853205,32.341002282118794,-13.92385501769185
1761392267913033700,4.17403369140625,-0.5409937136054038,31.016190433406827,-16.8169461106956
1761392267923115800,4.18411572265625,-0.9399310723602772,27.84465415494442,-18.00132073019147
1761392267933197800,4.19419775390625,-1.4719360083460806,25.363901169538497,-19.052610236799715
1761392267943279600,4.204279541015625,-2.6130992626249787,22.84783370964527,-19.753402882695198
1761392267953361700,4.214361572265625,-4.6622506370365615,20.22828249440193,-20.07395936317444
1761392267963443700,4.224443603515625,-6.374042864727974,17.08101322671175,-19.52558898332119
1761392267973525800,4.23452587890625,-6.339606342118978,13.618997626125811,-18.503304621922968
1761392267983608800,4.24460888671875,-5.0585149771898985,10.50378821504116,-17.548393422573803
1761392267993690600,4.254690673828125,-4.145336887198686,7.32201403568089,-16.396596546077728
1761392268003772700,4.264772705078125,-4.377849758043885,5.129070860928297,-15.847487330555914
1761392268013854700,4.274854736328125,-5.540211283174157,4.005471904912591,-16.658835277622938
1761392268023936800,4.284936767578125,-6.660836776337027,3.183826143454015,-17.803317447191475
1761392268034018800,4.295018798828125,-7.453177240595221,1.8511629967197776,-17.822137882995605
1761392268044100900,4.305100830078125,-8.222837671011686,0.06315627500638366,-16.150116524678467
1761392268054182700,4.3151826171875,-9.9788653462708,-1.1724909972175954,-13.50568338163495
1761392268064264700,4.3252646484375,-13.452853124201297,-1.7940575461849568,-10.803939036351442
1761392268074346800,4.3353466796875,-17.958820143592355,-1.8194684662953018,-8.411220892751217
1761392268084428800,4.3454287109375,-21.335523605334757,-0.16713599717989563,-5.911824581673741
1761392268094511900,4.355511962890625,-24.066213474595546,-0.05999532675743103,-3.500701597332954
1761392268104593700,4.36559375,-25.351263806283473,-0.8763735230766236,-1.78327194827646
1761392268114675700,4.37567578125,-25.00893271636963,-2.127912191915512,0.1906774701565504
1761392268124757800,4.3857578125,-22.626538398385048,-3.9858950977832075,3.329701764331758
1761392268134839800,4.39583984375,-20.39466080508232,-6.395311862728,7.402084766739606
1761392268144921900,4.405921875,-18.63819590744972,-8.509161627021431,11.263149954283238
1761392268155004000,4.41600390625,-18.178478793561457,-9.070321345821023,12.867957140505313
1761392268165085700,4.426085693359375,-19.303042795217035,-8.956571632522344,12.986210594964026
1761392268175167700,4.436167724609375,-19.556526557898522,-8.189061658138037,12.162471952879429
1761392268185249800,4.446249755859375,-19.1906111787796,-8.617174257972836,11.521328596782684
1761392268195332900,4.456332763671875,-20.69647049951553,-9.193504657897353,11.573545106232165
1761392268205414700,4.46641455078125,-24.30783378100395,-7.716627686017751,11.0187145904541
1761392268215496700,4.47649658203125,-28.033382244598865,-4.818493045888841,10.096383472192286
1761392268225578800,4.486578857421875,-29.43319058984518,-1.6448917977206408,10.035064787876605
1761392268235660800,4.496660888671875,-27.32682855095863,0.9055699530750513,11.162709219890832
1761392268245742800,4.506742919921875,-23.329213204765317,1.9301716515049336,12.684450000369548
1761392268255825000,4.516824951171875,-19.170739772617814,2.4788494898721574,13.123069381171463
1761392268265906700,4.52690673828125,-15.88832202976942,3.3311312126129864,12.212586521613597
1761392268275988700,4.53698876953125,-13.193048341804742,4.583642964267731,10.707532672041655
1761392268286071800,4.54707177734375,-10.705523085784911,5.8028650252610445,9.378619817751645
1761392268296153900,4.55715380859375,-8.34259919194579,6.915380277204513,8.448796297907828
1761392268306236000,4.56723583984375,-6.275570215538144,8.081250687238574,7.849917381566763
1761392268316317700,4.577317626953125,-4.385540312546492,9.055843907657264,7.6594672904253
1761392268326400800,4.58740087890625,0.22620237252414224,11.003222422289848,8.35832341530025
1761392268336482800,4.59748291015625,2.4039041390031577,12.304929289746283,8.375195639646053
1761392268346564900,4.60756494140625,4.12112365244031,13.530737158870696,7.894802817475795
1761392268356646700,4.617646728515625,5.431509500914812,15.077688368451595,6.986583226674795
1761392268366728700,4.627728759765625,6.293889716082811,17.33873594213724,6.015163960117102
1761392268376810800,4.637810791015625,6.137150171363353,19.052576334530112,5.463514412462711
1761392268386892800,4.647892822265625,5.093862184903025,20.22576437410116,5.0404655257582665
1761392268396974800,4.657974853515625,3.7431262058615684,21.44038917043209,4.180995645079016
1761392268407057700,4.6680576171875,2.8695880523413417,22.681396946775912,2.546384272223711
1761392268417139700,4.6781396484375,2.5131810908019543,24.796793355989454,-0.27673458214849234
1761392268427221800,4.6882216796875,2.3503362149447202,26.802241197752952,-3.087853494386375
1761392268437303800,4.6983037109375,2.749835299235582,27.542180443644522,-5.497101040244102
1761392268447385900,4.7083857421875,3.6398832735300064,27.636138830280302,-7.455019069069624
1761392268457468000,4.718468017578125,4.048539477744698,26.66033798763752,-8.615733411514759
1761392268467549700,4.7285498046875,3.9651112529516217,25.616784043717384,-10.235122080796957
1761392268477631700,4.7386318359375,2.2887620945632454,24.678605367982385,-12.681865244573354
1761392268487713800,4.7487138671875,0.41220892826020716,22.865018653202057,-15.793566355276107
1761392268497795800,4.7587958984375,-0.1669365290850401,20.31299140665531,-18.877321474432943
1761392268507878700,4.768878662109375,0.9645826985359192,17.89109509936571,-21.850045491600035
1761392268517960700,4.778960693359375,3.2667648311644792,15.508338377809524,-23.348385522747037
1761392268528042800,4.789042724609375,4.000675902807712,11.475908907866478,-22.378883487987515
1761392268538124800,4.799124755859375,2.8888568164348603,6.809819131058454,-21.04662950657606
1761392268548206800,4.809206787109375,-0.46951253171563145,3.3346649396970864,-20.7739710878253
1761392268558289000,4.819288818359375,-4.731086272853613,0.028199089524149894,-20.39072814180851
1761392268568371000,4.829370849609375,-6.853185979098082,-3.5433442227512595,-20.01412770254612
1761392268578452700,4.83945263671875,-5.849170849362015,-6.203060859644412,-19.443482362520694
1761392268588535800,4.849535888671875,-4.101021360132098,-9.476963872125744,-18.391003938388824
1761392268598617900,4.859617919921875,-5.6668532112717624,-14.043472746241092,-16.865820323979854
1761392268608700000,4.869699951171875,-11.790935811269282,-18.024155662333964,-15.557442892718313
1761392268618781700,4.87978173828125,-20.900608924269676,-18.63426792035103,-16.126216593652963
1761392268628863700,4.88986376953125,-29.688437270545958,-16.13365989539623,-17.39022764444351
1761392268638945800,4.89994580078125,-34.61751396691799,-14.851460861486196,-17.345305968177318
1761392268649027800,4.91002783203125,-33.46766354831457,-16.309481741726398,-14.910526798439024
1761392268659110000,4.92010986328125,-31.855884184992313,-18.531382715415955,-9.44336380034089
1761392268669192000,4.93019189453125,-32.13459357434511,-18.360415907901526,-2.591802792096138
1761392268679273700,4.940273681640625,-31.560305493903158,-17.057164733612538,4.830020109814405
1761392268689356800,4.950356689453125,-28.43082205827236,-17.37449114612937,12.434206827044486
1761392268699438800,4.96043896484375,-23.646833047270775,-17.35099219712019,17.69142709802389
1761392268709521000,4.97052099609375,-18.919919091665744,-15.928938117796182,19.87473092229366
1761392268719603000,4.98060302734375,-15.231589474874735,-13.775101211029291,20.014635067546365
1761392268729684700,4.990684814453125,-12.669799543726443,-11.07332296347618,19.188518590414525
1761392268739766800,5.000766845703125,-11.585551185846327,-7.751344194611907,17.62145515165329
1761392268749848800,5.010848876953125,-12.049404376626015,-3.6855022844105956,15.036978756922483
1761392268759931000,5.020930908203125,-12.339672101825474,0.269506384460628,12.20786358474493
1761392268770013000,5.031012939453125,-12.117697576129435,3.313691125251353,10.512838951981067
1761392268780095700,5.041095703125,-11.485633014023303,6.232233178114891,9.983797541975974
1761392268790177800,5.051177734375,-11.984085224497317,8.781033863830565,10.186030425369738
1761392268800259800,5.061259765625,-12.742434571826458,11.297129380774498,10.243478405731915
1761392268810342000,5.071341796875,-12.90220661610961,14.084609058749676,9.987268432956933
1761392268820420900,5.0814208984375,-11.940536005628108,16.612736374270916,9.467010633388162
1761392268830502700,5.091502685546875,-9.84676456824541,18.775179781341553,8.683090206950903
1761392268840584700,5.101584716796875,-7.100492514449358,19.900445209264753,8.288028812846541
1761392268850666800,5.111666748046875,-4.058372889494896,20.30101572217941,8.346103985196352
1761392268860748800,5.121748779296875,-1.132776534205675,20.504391930389403,8.355946164774894
1761392268870831600,5.13183154296875,0.9837596926927566,21.219949599218367,8.27419317971766
1761392268880913700,5.14191357421875,1.934859809321165,21.204190889072418,8.286924650996923
1761392268890995700,5.15199560546875,1.2983943819075823,20.294277353835106,7.664448585969209
1761392268901077800,5.162077880859375,-0.6337444780170917,19.779110155403615,5.746520037704705
1761392268911159800,5.172159912109375,-2.3527391844332217,19.374956523305176,2.875743944622576
1761392268921241900,5.182241943359375,-3.059047963401675,19.13934393287897,-0.2539218618378043
1761392268931323600,5.19232373046875,-2.3407103084653613,18.404118271505833,-2.6752555668085813
1761392268941405700,5.20240576171875,-1.0437053350895642,16.370637928956747,-4.317997639149427
1761392268951487700,5.21248779296875,0.05982815349698067,13.525297598165272,-5.656888282096386
1761392268961570800,5.22257080078125,1.1941922491550445,11.116436129015684,-7.444953017607331
1761392268971652900,5.23265283203125,2.3061229792088267,9.387036932963133,-9.948850147235392
1761392268981734700,5.242734619140625,3.5986411625593897,7.834800476455688,-12.025229720312357
1761392268991816700,5.252816650390625,4.439308143091202,5.613493377006054,-13.028929792749881
1761392269001898800,5.262898681640625,3.9887604240864514,2.623912333062291,-13.866570703458786
1761392269011980800,5.272980712890625,2.230215797570348,0.14551789348125457,-15.142862559151649
1761392269022062800,5.283062744140625,-0.42941959078013897,-1.9448630246803162,-16.907129654967783
1761392269032144600,5.29314453125,-1.9655939702808856,-4.164543399710953,-19.21616530675292
1761392269042227700,5.303227783203125,-1.3914350691765547,-6.778973910939693,-20.082876829123496
1761392269052309800,5.313309814453125,0.5265571919739246,-10.147799186652898,-19.04477413634658
1761392269062391800,5.323391845703125,2.38099731066823,-14.191961179965734,-16.38609736389518
1761392269072473900,5.333473876953125,1.9112965629041194,-17.912716564065217,-13.467944310349225
1761392269082555600,5.3435556640625,-0.7373790400147437,-20.637592778611182,-11.413112552213668
1761392269092637700,5.3536376953125,-3.5515018102437255,-22.724485562396048,-10.199034868371486
1761392269102719500,5.363719482421875,-3.650803311473131,-23.460955086350438,-9.356289912521838
1761392269112801500,5.373801513671875,-2.4824165347039697,-23.67749940369129,-7.491603125101327
1761392269122884900,5.383884765625,-2.095869870966673,-23.994375734353063,-4.3269750185921785
1761392269132966700,5.393966552734375,-3.177421829369664,-23.403431118142603,-1.016271676979959
1761392269143048700,5.404048583984375,-5.864320487698913,-22.438995719122886,3.061380790263414
1761392269153130800,5.414130859375,-8.684628668564558,-20.294069264042378,7.090200253015756
1761392269163212800,5.424212890625,-11.237094306528567,-17.048925313055513,10.995745218276976
1761392269173294600,5.434294677734375,-14.080461291420459,-13.847890552908181,14.523594350254534
1761392269183376600,5.444376708984375,-17.132666257059572,-10.434552766251564,15.918724182295799
1761392269193458400,5.45445849609375,-19.10347650068402,-7.74919256953597,15.230335090899466
1761392269203540500,5.46454052734375,-19.78090346856117,-5.302169419774413,13.919123897516727
1761392269213623800,5.474623779296875,-20.071859760546683,-3.1200048286676405,12.560672814053296
1761392269223705900,5.484705810546875,-21.234441065907475,-1.5534394025564193,11.439003364795445
1761392269233787600,5.49478759765625,-22.83117717387676,-0.3207078716486692,10.362698659396171
1761392269243869400,5.504869384765625,-23.51872922992706,0.8561772688746452,8.950435321724415
1761392269253951500,5.514951416015625,-22.15306397730112,2.2457442060917616,6.924570130354166
1761392269264033500,5.525033447265625,-19.887887340986726,4.564230992311239,4.8863741574600335
1761392269274115600,5.535115478515625,-17.846498417270183,7.627644165185093,3.0808547215402124
1761392269284197600,5.54519775390625,-15.680917296695709,11.03596733855009,1.7313398087263105
1761392269294280700,5.55528076171875,-13.706046964025496,13.68906777217388,1.3240318042501806
1761392269304362800,5.56536279296875,-11.762136417764424,15.426444522976874,1.7956652736425398
1761392269314444500,5.575444580078125,-9.163267340543866,17.07450165286064,2.3226816075608134
1761392269324526600,5.585526611328125,-6.524564265584945,18.114550803530214,2.928124412462115
1761392269334608600,5.595608642578125,-4.304278910398483,18.47243602092862,3.323312063294649
1761392269344690700,5.605690673828125,-2.2036370027244088,19.014359124338625,3.357920727600157
1761392269354772500,5.6157724609375,-0.7127320900142192,19.439332257103917,2.831346292230487
1761392269364854500,5.6258544921875,-0.1215334990426898,19.51227123658657,1.7487123838096856
1761392269374937900,5.635937744140625,-0.23648118995428083,19.361041395199297,0.5305636511363089
1761392269385020000,5.64602001953125,-0.06358779829144477,18.936146588367222,-0.675809303547442
1761392269395101400,5.656101318359375,0.28215573041439057,18.776572112482786,-2.2747687866546213
1761392269405183500,5.66618359375,1.114673306760192,18.704043467366695,-4.116510605686903
1761392269415265500,5.676265625,2.013656282660365,18.052988958108426,-5.369647795763611
1761392269425347600,5.68634765625,2.5955221048802137,17.274892123258113,-6.682022187706828
1761392269435429600,5.6964296875,3.0092846923232077,16.97578759613037,-8.383886895623803
1761392269445511700,5.70651171875,3.210255008435249,16.642703642511368,-9.377712639778851
1761392269455594800,5.7165947265625,2.8519173710942267,15.905823784190416,-9.978167427134514
1761392269465676500,5.726676513671875,2.9259973373055455,15.17143048198819,-10.645581535041332
1761392269475758600,5.736758544921875,2.8368805454820394,14.506173259854316,-11.416810237687825
1761392269485840600,5.746840576171875,2.9554759452462194,14.144122739470005,-12.274272285676002
1761392269495922700,5.756922607421875,2.873845125263929,13.260139764302968,-12.832345728898048
1761392269506004500,5.76700439453125,2.2089573209643363,12.39288814370632,-13.56999014185071
1761392269516086500,5.77708642578125,0.9407225149989128,10.99154367493391,-13.76656134622097
1761392269526169900,5.787169921875,-1.037486022183299,8.401892507913708,-13.356681737691163
1761392269536251600,5.797251708984375,-4.138079463416338,6.151148301577567,-13.775710282838343
1761392269546333400,5.80733349609375,-8.957951688703893,4.642193937435746,-14.888226119303702
1761392269556415500,5.81741552734375,-14.853844541752338,3.227747118245065,-16.057075837409496
1761392269566497500,5.82749755859375,-20.14586958413124,1.523536723984778,-16.834334467869997
1761392269576579600,5.83757958984375,-23.390340165901183,-0.6289034677267075,-16.802914078211785
1761392269586661600,5.84766162109375,-23.38571776679754,-3.485617717708647,-16.03535968016386
1761392269596743700,5.85774365234375,-21.477048045265672,-7.490816358637809,-14.379201076889037
1761392269606826500,5.867826416015625,-19.36542297128439,-11.24102463171482,-12.628086892634629
1761392269616908500,5.877908447265625,-18.03229688321352,-14.105518575787544,-11.054154152625799
1761392269626990600,5.887990478515625,-17.2351516490221,-15.949916608417034,-9.756893158662319
1761392269637072600,5.89807275390625,-16.16083548709154,-16.595284888732433,-8.352827740493415
1761392269647154700,5.90815478515625,-14.615757085645198,-16.44782053735852,-6.553228050011396
1761392269657236500,5.918236572265625,-12.85343294059038,-15.731881760257481,-4.795949790169298
1761392269667318500,5.928318603515625,-11.39843403851986,-14.783822326499223,-3.0433588113605974
1761392269677401600,5.938401611328125,-9.883653744703532,-13.839302757304907,-1.1780600295215844
1761392269687483600,5.948483642578125,-8.55877584501803,-13.224369362741708,0.9635583239242433
1761392269697565400,5.9585654296875,-7.209915596720576,-12.592938422363996,2.7398922896310687
1761392269707647500,5.9686474609375,-5.926774313524365,-11.786392907142638,4.368322343502938
1761392269717729500,5.9787294921875,-4.767522444847226,-10.723097320920228,5.69580224238038
1761392269727811600,5.9888115234375,-3.8101889867871996,-9.33578956080675,6.645526979002356
1761392269737893600,5.9988935546875,-3.4838211896806954,-7.716724716651439,7.5095871100813145
1761392269747976700,6.008976806640625,-3.809416833370924,-6.081266956099867,8.150106781321764
1761392269758058500,6.01905859375,-4.625944228902459,-4.334938544817269,8.719827407717704
1761392269768140500,6.029140625,-5.414696313279867,-2.5106740764170885,9.232968068757653
1761392269778222600,6.03922265625,-5.611434690910578,-0.8421165948182344,9.476756366854906
1761392269788304600,6.0493046875,-5.690031842285395,0.8031205092087388,10.039429997348785
1761392269798386700,6.05938671875,-6.631689007785916,2.134752851590514,10.935549985033273
1761392269808468500,6.069468505859375,-8.777138609957694,3.8074662838250397,11.157671810245514
1761392269818549500,6.079549560546875,-10.677022967487574,6.255157542106509,10.162787496948242
1761392269828631300,6.08963134765625,-11.12617660178542,7.912003543123602,9.27633316323161
1761392269838714400,6.09971435546875,-11.253528723978995,7.366980135610699,9.356002327752114
1761392269848796400,6.10979638671875,-11.363581336325407,6.6639183757394544,9.515760343509912
1761392269858878500,6.11987841796875,-11.006881529319285,6.840609990641474,8.833717990791797
1761392269868960300,6.129960205078125,-11.023521698474884,6.894041721099614,7.6418667518049475
1761392269879042300,6.140042236328125,-10.244494304776191,7.9196350609153505,6.250318869903683
1761392269889124400,6.150124267578125,-8.529257489588856,9.719066409093141,4.949458390143513
1761392269899206400,6.160206298828125,-6.812955090996622,12.044403207337856,3.173209180110693
1761392269909289500,6.17028955078125,-5.663931770867109,14.755102427971362,1.9750398440182209
1761392269919371300,6.180371337890625,-5.373608516088128,16.118291645872592,2.3180085011832414
1761392269929453300,6.190453369140625,-6.117689099568128,16.92659423389435,2.8935785842597483
1761392269939535400,6.200535400390625,-6.894225260972976,17.756002738308904,2.9589877527594566
1761392269949617400,6.210617431640625,-6.977745840224623,18.51197658867836,2.1570788112975654
1761392269959699500,6.220699462890625,-6.22684388629198,19.124346270233392,0.5031066852163523
1761392269969781500,6.230781494140625,-5.378655278083682,19.1554381585896,-1.4980824031241238
1761392269979864300,6.2408642578125,-3.7454473422855137,18.361055374848842,-3.42956002266109
1761392269989946400,6.2509462890625,-2.0898300062805415,17.681272783756256,-5.586344088795781
1761392270000028400,6.2610283203125,-0.6921510742783546,17.430379622089863,-7.725342907392978
1761392270010110500,6.2711103515625,0.2781611078202724,17.346507745182514,-9.819653273957968
1761392270020192500,6.281192626953125,0.8396002280831336,16.731293780112267,-11.489621791398525
1761392270030274300,6.2912744140625,0.5277215595781802,15.339665234190225,-12.928974211525917
1761392270040356400,6.3013564453125,-0.24841595789790152,13.709158958566189,-14.16033620764613
1761392270050439400,6.311439453125,-0.6461649836510419,11.43058508054018,-15.005150370985268
1761392270060521500,6.321521484375,0.39181905118227,9.080553401499985,-15.50858504604697
1761392270070603300,6.331603271484375,1.6311001498639583,6.836871973156929,-15.473104567342995
1761392270080685300,6.341685302734375,1.6786685412466524,4.478930543905497,-15.927978332853316
1761392270090767400,6.351767333984375,0.33557635495662685,3.033579175624251,-16.88396739056706
1761392270100849400,6.361849365234375,-1.3721709812581537,1.8125231772020458,-18.40195670955777
1761392270110931500,6.371931396484375,-1.8699311178147793,0.421429761070013,-20.209089133632183
1761392270121014300,6.38201416015625,-0.6078945819675922,-0.8246376367509365,-20.74975785306692
1761392270131096300,6.392096435546875,1.650526734867692,-3.401306572601199,-19.407018717998266
1761392270141178400,6.402178466796875,3.2368384794563054,-6.811349993887544,-17.42404223576188
1761392270151260400,6.412260498046875,1.5568565175235272,-9.41031610174179,-16.028953320252896
1761392270161342500,6.422342529296875,-4.107856174588203,-10.545495020914077,-15.300709188330172
1761392270171424500,6.432424560546875,-11.730938146424293,-11.187351493716239,-14.656201324236392
1761392270181507300,6.44250732421875,-18.34921763753891,-11.631526170557736,-12.863814049351214
1761392270191589400,6.45258935546875,-22.208422876429555,-11.771548389232159,-10.388943692243098
1761392270201671400,6.46267138671875,-23.297798660326002,-12.101274849116802,-7.604535092276334
1761392270211753500,6.47275341796875,-22.35051313354969,-12.761361390614509,-4.645369644862413
1761392270221835300,6.482835205078125,-21.379149981093406,-13.228436466050148,-2.1245237185209986
1761392270231917300,6.492917236328125,-21.238602861762047,-13.372961841362715,0.5678577551335096
1761392270241999400,6.502999267578125,-21.230122618186474,-12.554472205847501,2.973655452798307
1761392270252081400,6.513081298828125,-20.56416747691631,-10.957893918788432,4.774959316849708
1761392270262164500,6.52316455078125,-18.910201999771594,-9.203963508069515,6.211945592367648
1761392270272246300,6.533246337890625,-16.97283692963123,-7.043700952169298,7.2757953053414814
1761392270282328300,6.543328369140625,-14.93191094725132,-4.589320717643201,7.988535578662157
1761392270292410400,6.553410400390625,-12.870615546059607,-2.0330568564400076,8.939449232807755
1761392270302492400,6.563492431640625,-10.697688154375552,0.28163988984674215,10.281842915439604
1761392270312574500,6.573574462890625,-8.345627015334367,2.259907171478867,11.592196030688285
1761392270322657300,6.5836572265625,-5.985629822596907,3.7792505354270336,12.37832653439045
1761392270332739300,6.5937392578125,-3.8531636206388473,5.204515685752034,12.552554974049329
1761392270342821400,6.6038212890625,-2.8349241507172582,6.687065442571043,12.610248453605175
1761392270352903400,6.6139033203125,-2.045322756034136,8.020731628867983,12.26636954972744
1761392270362985500,6.6239853515625,-1.3673381542742251,9.165939774623512,11.49414482178092
1761392270373067300,6.6340673828125,-0.643268677687645,10.043704021406173,10.185443565392493
1761392270383149300,6.6441494140625,0.18700316555798052,11.279133120834826,8.40056622774601
1761392270393232400,6.654232421875,1.7443331458121538,13.078176930999755,6.339183732792735
1761392270403314400,6.664314453125,3.6021611533790825,15.311859527897834,4.466378520846367
1761392270413396500,6.674396484375,5.066984114849567,18.16603549157381,2.6879987285256384
1761392270423478300,6.684478271484375,6.302364114439487,21.16541136882305,1.3688681403204799
1761392270433560300,6.694560302734375,7.221206806063652,23.040632409739494,0.33819311332628127
1761392270443642400,6.704642333984375,7.191188099896907,24.810365954267976,-0.9814213859383016
1761392270453724400,6.714724365234375,7.046268756830692,25.875189480710027,-2.054906284676492
1761392270463807200,6.72480712890625,6.31007980338335,23.88760930407047,-2.795405210277438
1761392270473889300,6.73488916015625,4.425635007047653,22.122505172908305,-4.63852167866379
1761392270483971300,6.744971435546875,1.9315707046478985,21.782699217557905,-7.229907414391636
1761392270494053400,6.755053466796875,-0.03977379198372364,20.520615919959543,-9.264812236785888
1761392270504135400,6.765135498046875,-1.2470149078041315,18.396715886294842,-10.555046108591556
1761392270514217500,6.775217529296875,-1.7873574640244245,15.441863041383026,-11.032042858582734
1761392270524300300,6.78530029296875,-2.2566864558666944,11.860436632996796,-10.837565411621332
1761392270534382300,6.79538232421875,-2.410309914392233,8.332982637816666,-10.342179602980613
1761392270544464400,6.80546435546875,-2.104071297600865,5.224800348889827,-9.957142174762486
1761392270554546400,6.81554638671875,-2.007843212467432,2.6327386135965583,-9.812433259576558
1761392270564628500,6.82562841796875,-2.5804940470963715,-0.0035009938582777973,-9.729521167612075
1761392270574710300,6.835710205078125,-3.428583871105313,-2.5308403738722203,-9.729808167859911
1761392270584793300,6.84579345703125,-3.6158465643823146,-4.038495053592324,-10.07478188123703
1761392270594875400,6.85587548828125,-3.5435043817490337,-5.506077542904019,-10.255253014677763
1761392270604957400,6.86595751953125,-4.136235296854377,-8.21246006938219,-9.64081178754568
1761392270615039200,6.876039306640625,-5.747039677664637,-11.033566122627258,-8.645670869138836
1761392270625121300,6.886121337890625,-7.977389330747723,-13.27759241888523,-7.214809213981032
1761392270635203300,6.896203369140625,-10.88167694054842,-15.267116715329884,-5.082184022068977
1761392270645285400,6.906285400390625,-13.395024035567044,-16.87953437655568,-2.6343419571399687
1761392270655368400,6.916368408203125,-14.41893921303749,-17.61214371795058,-0.5695666048780084
1761392270665450200,6.9264501953125,-13.066243332099914,-17.86862023270726,1.0330382489942014
1761392270675532300,6.9365322265625,-10.359098004555701,-17.92117693389654,2.5401477159217
1761392270685614300,6.9466142578125,-7.400309573760628,-17.481864310133457,4.030301518003642
1761392270695696400,6.9566962890625,-5.254437362262606,-16.12046256017089,5.877949784600735
1761392270705778400,6.9667783203125,-4.497954393327236,-14.263629408860206,7.950174576085805
1761392270715861200,6.976861328125,-3.8372377372324467,-11.721993792468309,9.688245154371858
1761392270725943300,6.986943359375,-4.245769438284635,-9.247786283183098,11.203459747952222
1761392270736025300,6.997025390625,-5.390691168314218,-6.798929488253593,11.86858136100769
1761392270746107400,7.007107421875,-6.355985229989886,-3.9694928290367124,12.482910359936952
1761392270756189400,7.017189453125,-7.285763157126307,-1.7499340345591305,13.552858974307775
1761392270766271200,7.027271240234375,-8.006724146303535,-0.09043751903325319,14.647815773206949
1761392270776353300,7.037353271484375,-7.840702978497744,0.4034142119079828,15.895485930049418
1761392270786436400,7.047436279296875,-7.879318248096108,0.6038102352634072,16.266965957558153
1761392270796518400,7.057518310546875,-8.421822366264461,2.0677561216384173,14.637358676600455
1761392270806600400,7.067600341796875,-9.060354078558086,4.099527322182059,12.004366965025662
1761392270816686800,7.077686767578125,-8.34672182483375,6.845401901093125,9.136116883289814
1761392270826769000,7.087768798828125,-6.136214351817965,9.37460064523816,6.272544145715236
1761392270836851000,7.097850830078125,-4.0645290740370745,10.634755020600556,3.7675086597070098
1761392270846933800,7.107933837890625,-2.6203362281411886,10.971413910096883,1.441446177536249
1761392270857015800,7.118015869140625,-1.894068364727497,11.025815362370013,-0.8789411816075444
1761392270867097900,7.128097900390625,-1.6083324377387762,11.758595384156703,-3.2915371611103414
1761392270877180000,7.138179931640625,-1.2003285599529743,11.991630233049392,-5.004830733275413
1761392270887262000,7.148261962890625,-0.30650223616361616,10.986147368848323,-5.891247657591104
1761392270897344000,7.158343994140625,0.7973276050209999,9.284963628932832,-6.113881523978709
1761392270907426800,7.1684267578125,2.146429845380783,7.5698431336015455,-6.213978559499979
1761392270917508900,7.1785087890625,3.7548996457636354,6.1733911130458115,-6.411708870777487
1761392270927591000,7.1885908203125,5.046778946688771,4.559712638103962,-6.458859329009056
1761392270937673000,7.1986728515625,6.064190733614564,3.1138825463950632,-6.243450153177976
1761392270947754800,7.208754638671875,7.099378415727615,1.3434522517740726,-5.942893089154363
1761392270957836800,7.2188369140625,7.757538373076915,-0.515388732227683,-5.3229111790299415
1761392270967919900,7.228919921875,8.3496888579458,-2.5217221246540547,-4.212651304797828
1761392270978002000,7.239001953125,8.305309617993235,-4.599714393624663,-3.112740098361671
1761392270988083700,7.249083740234375,7.14448421638906,-5.752009282770753,-2.0227334692157806
1761392270998165800,7.259165771484375,5.4218397552937265,-6.5364814978718755,-0.9378624493926763
1761392271008247800,7.269247802734375,3.940043447190523,-7.207026889541745,-0.04324409844279289
1761392271018329900,7.279329833984375,3.332981808915734,-7.2017340438306325,0.7161179330602288
1761392271028413000,7.289412841796875,3.163797793164849,-6.645827423253655,1.5007967766493557
1761392271038494700,7.29949462890625,2.854906616038084,-6.007087036645412,2.332349453485757
1761392271048576800,7.30957666015625,2.620655961614847,-5.3907835227727885,3.494989064905047
1761392271058658800,7.319658935546875,2.516363227969408,-4.858045596337318,4.778728021733462
1761392271068740900,7.329740966796875,2.3865093520879745,-4.37842872697562,5.790816275548934
1761392271078823000,7.339822998046875,2.3272177896857262,-3.3381989590421317,6.634525692516565
1761392271088905700,7.34990576171875,1.3391934252858162,-1.9708368393704294,8.036178788846732
1761392271098987800,7.35998779296875,-0.8766706063270568,-1.1879448791980742,9.918781172186137
1761392271109069800,7.37006982421875,-3.0091058286249637,-0.6326069984197616,11.134150649404525
1761392271119151900,7.38015185546875,-4.066643874233961,0.20036007525920868,11.143470266413688
1761392271129234000,7.39023388671875,-4.132676727589964,1.0352622086539864,10.168361497688293
1761392271139316000,7.40031591796875,-3.8277977087140083,1.127009933502972,8.594735047149658
1761392271149398800,7.410398681640625,-3.7146588207900524,1.4791861256048082,6.7209753109574315
1761392271159480800,7.420480712890625,-4.0892373988360164,2.106302125392854,5.263487514680624
1761392271169563000,7.43056298828125,-4.639454283338785,2.405602467353642,4.662560433638095
1761392271179645000,7.44064501953125,-5.037357038348913,2.1556866262868044,4.501833572848141
1761392271189726700,7.450726806640625,-3.733085873362422,1.2884329598635433,4.20736956500262
1761392271199808800,7.460808837890625,-2.005918381884694,0.07608516855388879,3.3622488199323413
1761392271209891800,7.470891845703125,-1.5090560709506273,-0.7991545281872153,0.7394318808913231
1761392271219974000,7.480973876953125,-1.942767221444845,-0.4953936996862292,-1.3776155103996395
1761392271230056000,7.491055908203125,-3.101271486625075,-0.12935147931724786,-2.684239960514009
1761392271240137700,7.5011376953125,-2.542793554255366,-0.518809354326129,-3.4599317800492044
1761392271250219800,7.5112197265625,-1.148202066874504,-1.3808862026333808,-3.678357381092012
1761392271260302800,7.521302734375,-0.3655599898099899,-1.6419272488266228,-3.282475610515475
1761392271270385000,7.531385009765625,0.4679781617552042,-1.8294950625300406,-2.9481092158704993
1761392271280466700,7.541466796875,1.5969465358495711,-1.8816738703176379,-2.4733026693999767
1761392271290548700,7.551548828125,1.666679412767291,-1.6434478825226426,-1.9107590950265525
1761392271300630800,7.561630859375,1.9485878904223441,-1.7042717690587044,-1.3336387137681245
1761392271310712800,7.571712890625,3.112260498151183,-1.7700670142665504,-0.8779033629924058
1761392271320795600,7.581795654296875,4.319107646217942,-1.505165785513818,-0.7094850709170103
1761392271330877700,7.591877685546875,5.352692569309473,-1.0932716222912073,-0.6701151835590601
1761392271340959700,7.601959716796875,5.754933061262965,-0.7986687904968858,-0.761079064553976
1761392271351041800,7.612041748046875,5.907267649021744,-0.5264448176406323,-0.9841197581768035
1761392271361123800,7.622123779296875,5.509435036638378,-0.1691287784323096,-1.0728884672150014
1761392271371206000,7.632205810546875,4.252098641306161,0.16346709940880536,-0.9228744313582777
1761392271381288700,7.642288818359375,3.306456790083647,-0.045684623462706804,-0.9183493551492691
1761392271391370800,7.652370849609375,2.1720395029336212,-0.1992950763761997,-0.9372896179407835
1761392271401452800,7.662452880859375,0.6267284617751836,-0.14717501303851604,-1.1284750376194714
1761392271411534800,7.672534912109375,0.48299862075448036,0.07854096420817076,-1.420851133275032
1761392271421617000,7.682616943359375,-0.6248468858122825,-1.2291048648431897,-0.7367737675979733
1761392271431699700,7.69269970703125,-1.638933327707648,-2.331800879692286,0.24752836140841245
1761392271441781800,7.70278173828125,-1.6654443180143832,-2.067730402675271,0.7539262701898812
1761392271451863800,7.71286376953125,-1.60181618771255,-1.2456380664929747,0.9700628835126757
1761392271461945900,7.72294580078125,-2.593084064078331,0.07855791534297168,0.8550508951932191
1761392271472028000,7.73302783203125,-5.515593559268116,1.6889308459334074,1.075611316307634
1761392271482109700,7.743109619140625,-8.756605525016784,2.9526296159043905,1.8979716557763515
1761392271492192800,7.75319287109375,-8.253532669004798,2.985280716401338,2.465114686769247
1761392271502274800,7.76327490234375,-6.13021891079545,2.2797931906878945,2.6821681226760146
1761392271512356900,7.77335693359375,-4.913886726024747,1.7092570101253688,2.0048019450753927
1761392271522438700,7.783438720703125,-4.733150804167986,1.484511120019853,1.0721274197146295
1761392271532520700,7.793520751953125,-4.360322284659743,0.9037099313568323,0.46082419834733007
1761392271542603800,7.803603759765625,-3.569349017101526,-0.3818206946613267,0.38718729972839355
1761392271552685800,7.813685791015625,-2.1883371422618625,-1.7767687038622795,0.6112830553621054
1761392271562768000,7.823767822265625,-2.207163423284888,-2.695013867984712,0.8744771879360079
1761392271572849700,7.833849609375,-2.8469115256309507,-3.161921477898955,1.229415830488503
1761392271582931700,7.843931640625,-1.5213082342803477,-3.1698513941153883,1.3969316207662223
1761392271593013800,7.854013671875,-0.26638299174308777,-3.005770546722412,1.311901221473515
1761392271603096800,7.864096923828125,0.1674929939240217,-2.9480998635202647,1.1732856547266244
1761392271613178600,7.8741787109375,0.4563566975444555,-2.933111260963976,1.2394351201996205
1761392271623260700,7.8842607421875,1.1164864936619996,-2.8913702605605125,1.3214242521002888
1761392271633342700,7.8943427734375,1.587131244277954,-2.644164847496152,1.1010495628163217
1761392271643424800,7.9044248046875,1.9668331566870212,-2.40111582345888,0.8465519469171762
1761392271653507600,7.914507568359375,2.6525708567917343,-1.981629597672075,0.6589107757166027
1761392271663589600,7.924589599609375,2.504450671857595,-0.8461199852406978,1.3702708467252551
1761392271673671700,7.934671630859375,1.5863322028547524,0.7202173312030732,2.990080225637555
1761392271683753700,7.944753662109375,-3.35533217241168,-1.1222406732745467,3.2061785527765747
1761392271693835800,7.954835693359375,-1.579067180287838,-2.7356293714895843,2.6638059520334005
1761392271703917800,7.964917724609375,-0.5583189424157142,-1.0171369155071674,1.973905579291284
1761392271714000600,7.975000732421875,0.701553693395853,0.4368599699139595,1.2149078510560094
1761392271724082700,7.985082763671875,1.5802847393840551,0.43020087735094126,1.070386713527143
1761392271734164700,7.995164794921875,2.587477330112457,0.1134081333193928,0.7116048395499587
1761392271744246800,8.005246826171875,2.708565131214261,0.3172711751982569,0.36069939803630113
