time,seconds_elapsed,z,y,x
1761379421016500500,0.06250048828125,0.5325535535812378,0.3099779784679413,-0.6909950971603394
1761379421026582500,0.07258251953125,0.5371602773666382,0.3644583225250244,-0.7408944964408875
1761379421036664600,0.08266455078125,0.561676025390625,0.4366763234138489,-0.7302719354629517
1761379421046747600,0.09274755859375,0.6044619083404541,0.5036943554878235,-0.6650936007499695
1761379421056829400,0.102829345703125,0.6429858803749084,0.5232885479927063,-0.5893847346305847
1761379421066911500,0.112911376953125,0.6441572308540344,0.536369264125824,-0.5161557793617249
1761379421076993500,0.12299365234375,0.6308776140213013,0.5427150130271912,-0.46910572052001953
1761379421087075600,0.13307568359375,0.6015132069587708,0.47050219774246216,-0.45400169491767883
1761379421097157400,0.143157470703125,0.5277327299118042,0.3940705358982086,-0.44773900508880615
1761379421107239400,0.153239501953125,0.436710387468338,0.2576288878917694,-0.43598461151123047
1761379421117321500,0.163321533203125,0.34499379992485046,0.08712824434041977,-0.3894807696342468
1761379421127403500,0.173403564453125,0.2633814513683319,0.008178504183888435,-0.26507097482681274
1761379421137485600,0.183485595703125,0.239688903093338,-0.08154099434614182,-0.09316205978393555
1761379421147567600,0.193567626953125,0.28585630655288696,-0.16121557354927063,0.1302025318145752
1761379421157649400,0.2036494140625,0.3997519910335541,-0.1803772747516632,0.3552497625350952
1761379421167731500,0.2137314453125,0.5519437193870544,-0.1642201542854309,0.48220881819725037
1761379421177814500,0.223814453125,0.7384153604507446,-0.02349260449409485,0.4048445224761963
1761379421187896600,0.233896484375,0.9457286596298218,0.23263058066368103,0.13288499414920807
1761379421197978600,0.243978515625,1.1038483381271362,0.5384336709976196,-0.234104186296463
1761379421208060400,0.254060302734375,1.056306004524231,0.590315043926239,-0.5814757943153381
1761379421218142500,0.264142578125,0.8467258810997009,0.4824725091457367,-0.7586705684661865
1761379421228224500,0.274224609375,0.6728527545928955,0.4328211843967438,-0.6976940035820007
1761379421238306600,0.284306640625,0.5996397733688354,0.38102003931999207,-0.4748641550540924
1761379421248388600,0.294388671875,0.5775136351585388,0.3251442611217499,-0.18093018233776093
1761379421258470700,0.304470703125,0.5535867214202881,0.33562329411506653,0.14042814075946808
1761379421268552400,0.314552490234375,0.5117430686950684,0.6006683111190796,0.4494543969631195
1761379421278634500,0.324634521484375,0.48709821701049805,0.8990155458450317,0.6914332509040833
1761379421288716500,0.334716552734375,0.542503833770752,0.9410769939422607,0.8123046159744263
1761379421298798600,0.344798583984375,0.6641684770584106,0.7745037078857422,0.8653390407562256
1761379421308881400,0.35488134765625,0.7929242253303528,0.5392242670059204,0.8278868198394775
1761379421318963500,0.36496337890625,0.874213457107544,0.396360844373703,0.7366522550582886
1761379421329045500,0.37504541015625,0.8584169745445251,0.3277730643749237,0.6280584335327148
1761379421339127600,0.38512744140625,0.7757015824317932,0.2747231423854828,0.5370494723320007
1761379421349209600,0.395209716796875,0.6732591390609741,0.13059374690055847,0.478826642036438
1761379421359291600,0.405291748046875,0.567029595375061,-0.029354898259043694,0.4570172131061554
1761379421369373400,0.41537353515625,0.45602327585220337,-0.13950684666633606,0.4750112295150757
1761379421379455500,0.42545556640625,0.3559206426143646,-0.20322535932064056,0.49121469259262085
1761379421389537500,0.43553759765625,0.2828424870967865,-0.21319270133972168,0.5212852954864502
1761379421399619600,0.44561962890625,0.24122048914432526,-0.13882526755332947,0.5767456293106079
1761379421409701600,0.45570166015625,0.22153201699256897,0.02969745174050331,0.6219590902328491
1761379421419783700,0.46578369140625,0.23299773037433624,0.18672648072242737,0.6564251780509949
1761379421429866500,0.475866455078125,0.293663889169693,0.21505756676197052,0.6920990347862244
1761379421439948500,0.485948486328125,0.3392188549041748,0.08458372205495834,0.6738904714584351
1761379421450030600,0.496030517578125,0.32782861590385437,-0.11526641249656677,0.5417935252189636
1761379421460112600,0.506112548828125,0.28407925367355347,-0.3117411434650421,0.3618261218070984
1761379421470194700,0.516194580078125,0.2379661202430725,-0.4317619204521179,0.1945902556180954
1761379421480276500,0.5262763671875,0.16535663604736328,-0.4352831542491913,0.10517780482769012
1761379421490358500,0.536358642578125,0.09202274680137634,-0.334733784198761,0.1056273877620697
1761379421500440600,0.546440673828125,-0.006237776484340429,-0.1622277945280075,0.16342410445213318
1761379421510522600,0.556522705078125,-0.13529521226882935,-0.04350334033370018,0.17926208674907684
1761379421520604700,0.566604736328125,-0.300886332988739,0.016096074134111404,0.13249804079532623
1761379421530686700,0.576686767578125,-0.3949202001094818,0.01573595404624939,0.1298040747642517
1761379421540769500,0.58676953125,-0.3972738981246948,0.07369805872440338,0.19218702614307404
1761379421550851600,0.5968515625,-0.3366472125053406,0.1900102198123932,0.33940786123275757
1761379421560933600,0.60693359375,-0.25181514024734497,0.2621549963951111,0.4945889413356781
1761379421571015700,0.617015625,-0.1807972937822342,0.22995086014270782,0.5819791555404663
1761379421581097700,0.62709765625,-0.18960782885551453,0.06487695872783661,0.5706378221511841
1761379421591179500,0.637179443359375,-0.2240692377090454,-0.02845841273665428,0.4762223958969116
1761379421601261600,0.647261474609375,-0.20762981474399567,-0.08197809755802155,0.3093428611755371
1761379421611343600,0.657343505859375,-0.15135927498340607,-0.20868156850337982,0.15064573287963867
1761379421621425700,0.66742578125,-0.14080171287059784,-0.3162226974964142,0.026879578828811646
1761379421631507700,0.6775078125,-0.13123764097690582,-0.2986641526222229,0.010405897162854671
1761379421641589800,0.68758984375,-0.08732424676418304,-0.29135456681251526,0.04898924380540848
1761379421651671600,0.697671630859375,-0.04753129929304123,-0.3032152056694031,0.12926942110061646
1761379421661754600,0.707754638671875,-0.03516966849565506,-0.2596183717250824,0.2313079684972763
1761379421671836700,0.717836669921875,-0.04912203177809715,-0.2709802985191345,0.3037295341491699
1761379421681918700,0.727918701171875,-0.0424119308590889,-0.2537427246570587,0.34502050280570984
1761379421692000500,0.73800048828125,-0.04216773062944412,-0.2591168284416199,0.33292728662490845
1761379421702082600,0.74808251953125,-0.06557904928922653,-0.25705716013908386,0.2723821699619293
1761379421712164600,0.75816455078125,-0.07019519060850143,-0.29890382289886475,0.22115309536457062
1761379421722246700,0.76824658203125,-0.06425527483224869,-0.35297292470932007,0.19502802193164825
1761379421732328700,0.77832861328125,-0.047789402306079865,-0.43062058091163635,0.15795324742794037
1761379421742410800,0.78841064453125,-0.03721292316913605,-0.4826696813106537,0.11294156312942505
1761379421752492500,0.798492431640625,-0.044224370270967484,-0.5061650276184082,0.05086657777428627
1761379421762574600,0.80857470703125,-0.09743912518024445,-0.5324965119361877,-0.05865459144115448
1761379421772657700,0.81865771484375,-0.15562671422958374,-0.4819839298725128,-0.11850834637880325
1761379421782739700,0.82873974609375,-0.1883029043674469,-0.39012566208839417,-0.041206903755664825
1761379421792821800,0.83882177734375,-0.14418965578079224,-0.27561289072036743,0.10527781397104263
1761379421802903600,0.848903564453125,-0.07062090188264847,-0.22333556413650513,0.22214370965957642
1761379421812985600,0.858985595703125,-0.08087451756000519,-0.19547314941883087,0.2719752788543701
1761379421823067600,0.869067626953125,-0.14363351464271545,-0.16103795170783997,0.21705849468708038
1761379421833149700,0.879149658203125,-0.2485903799533844,-0.11313558369874954,0.05781054124236107
1761379421843231700,0.889231689453125,-0.3379279673099518,-0.05975678563117981,-0.11314522475004196
1761379421853313800,0.899313720703125,-0.32789114117622375,-0.0968184694647789,-0.2771613895893097
1761379421863395300,0.909395263671875,-0.286815881729126,-0.23640725016593933,-0.368710994720459
1761379421873478700,0.919478759765625,-0.250102162361145,-0.25659728050231934,-0.35445305705070496
1761379421883560700,0.929560791015625,-0.19198797643184662,-0.2648022174835205,-0.3043004274368286
1761379421893642800,0.939642822265625,-0.12211966514587402,-0.1990678310394287,-0.23261550068855286
1761379421903724500,0.949724609375,-0.11911775171756744,-0.10863779485225677,-0.1727582961320877
1761379421913806600,0.959806640625,-0.2054254114627838,0.007989170961081982,-0.07225432246923447
1761379421923888600,0.969888671875,-0.25881221890449524,0.11874471604824066,0.05192381888628006
1761379421933970400,0.979970458984375,-0.19658438861370087,0.10791648924350739,0.1174585223197937
1761379421944052500,0.990052490234375,-0.10735729336738586,0.025234661996364594,0.12425784021615982
1761379421954134500,1.000134521484375,-0.06915255635976791,-0.01922546699643135,0.1162971705198288
1761379421964216600,1.010216552734375,-0.03585878014564514,0.004602900240570307,0.08604046702384949
1761379421974299600,1.020299560546875,-0.0028098085895180702,0.04095519334077835,0.012379196472465992
1761379421984381700,1.030381591796875,-0.00801202654838562,0.07805649191141129,-0.0723000094294548
1761379421994460400,1.04046044921875,-0.023784618824720383,0.08278924971818924,-0.1538768708705902
1761379422004542500,1.05054248046875,-0.02262641116976738,0.06824998557567596,-0.19814446568489075
1761379422014624300,1.060624267578125,-0.004811874590814114,0.05819173902273178,-0.24502629041671753
1761379422024706300,1.070706298828125,0.03285481035709381,0.03232871741056442,-0.29539358615875244
1761379422034788400,1.080788330078125,0.053629614412784576,0.006890592165291309,-0.3251146972179413
1761379422044870400,1.090870361328125,0.017882799729704857,0.04470641165971756,-0.31716594099998474
1761379422054952400,1.100952392578125,-0.05902421101927757,0.19020958244800568,-0.2591610848903656
1761379422065034500,1.111034423828125,-0.11720842123031616,0.27437612414360046,-0.1888783723115921
1761379422075117300,1.121117431640625,-0.13603901863098145,0.2978685796260834,-0.14549507200717926
1761379422085199400,1.131199462890625,-0.12887191772460938,0.2897339463233948,-0.10120617598295212
1761379422095281400,1.141281494140625,-0.13512814044952393,0.3437899649143219,-0.03807087987661362
1761379422105363500,1.151363525390625,-0.2019875943660736,0.3582879304885864,0.01002074871212244
1761379422115445200,1.1614453125,-0.29693731665611267,0.34685105085372925,-0.04272846132516861
1761379422125527300,1.17152734375,-0.34458285570144653,0.3476087152957916,-0.1756897121667862
1761379422135609300,1.181609375,-0.34585192799568176,0.3344406485557556,-0.2697168290615082
1761379422145691400,1.19169140625,-0.3174237608909607,0.3308749496936798,-0.2834358513355255
1761379422155773400,1.2017734375,-0.2603709101676941,0.24691402912139893,-0.2561882436275482
1761379422165855500,1.21185546875,-0.207534059882164,0.1928609162569046,-0.15698708593845367
1761379422175938300,1.221938232421875,-0.16713429987430573,0.1743241846561432,-0.033387068659067154
1761379422186020400,1.232020263671875,-0.16997642815113068,0.1402868628501892,0.05326926335692406
1761379422196102400,1.242102294921875,-0.19434680044651031,0.16273833811283112,0.06615424901247025
1761379422206184400,1.252184326171875,-0.2191815823316574,0.1389581710100174,-0.014848721213638783
1761379422216266500,1.2622666015625,-0.21755492687225342,0.08218598365783691,-0.10939893126487732
1761379422226348300,1.272348388671875,-0.15882928669452667,-0.004881277680397034,-0.13319532573223114
1761379422236430300,1.282430419921875,-0.06301066279411316,-0.09321621060371399,-0.041435085237026215
1761379422246512400,1.292512451171875,0.004655997268855572,-0.1289140284061432,0.09720855206251144
1761379422256594400,1.302594482421875,0.04450888931751251,-0.10362069308757782,0.2061523199081421
1761379422266677500,1.312677490234375,0.07510701566934586,-0.05718608573079109,0.23790864646434784
1761379422276759300,1.32275927734375,0.1086178869009018,-0.06437954306602478,0.19620464742183685
1761379422286841300,1.33284130859375,0.175099179148674,-0.10702420771121979,0.07345741987228394
1761379422296923400,1.34292333984375,0.1556672304868698,-0.10039632767438889,-0.023363063111901283
1761379422307005400,1.35300537109375,0.12090365588665009,-0.06846395879983902,-0.061765044927597046
1761379422317087500,1.36308740234375,0.09550610929727554,-0.022081825882196426,-0.08396998047828674
1761379422327169500,1.37316943359375,0.0877872034907341,-0.009209171868860722,-0.1256662905216217
1761379422337251300,1.383251220703125,0.06651067733764648,0.0038270014338195324,-0.18125498294830322
1761379422347333400,1.39333349609375,0.07311850786209106,0.0478767491877079,-0.17085401713848114
1761379422357416400,1.40341650390625,0.0874786376953125,0.08355876803398132,-0.15507666766643524
1761379422367498500,1.41349853515625,0.06987594068050385,0.11384263634681702,-0.15028244256973267
1761379422377580300,1.423580322265625,0.045114122331142426,0.08145502209663391,-0.14332617819309235
1761379422387662300,1.433662353515625,0.008982747793197632,0.07165192812681198,-0.1326247900724411
1761379422397744400,1.443744384765625,-0.010666938498616219,0.11199064552783966,-0.08466114103794098
1761379422407826400,1.453826416015625,-0.03446148335933685,0.11706290394067764,-0.06334120035171509
1761379422417908500,1.463908447265625,-0.05670391395688057,0.18079975247383118,-0.006740795448422432
1761379422427990500,1.473990478515625,-0.054698821157217026,0.19085559248924255,0.02473856694996357
1761379422438072300,1.484072265625,-0.08630357682704926,0.14102864265441895,-0.01020218338817358
1761379422448155400,1.4941552734375,-0.12123759090900421,0.15707366168498993,-0.01715116947889328
1761379422458237400,1.504237548828125,-0.09360877424478531,0.13286353647708893,0.002067222259938717
1761379422468319500,1.514319580078125,-0.0867556631565094,0.11936983466148376,-0.0074434587731957436
1761379422478401500,1.524401611328125,-0.09424515813589096,0.12245213985443115,-0.02189943753182888
1761379422488483300,1.5344833984375,-0.04948461055755615,0.09412862360477448,-0.03151611238718033
1761379422498565400,1.5445654296875,-0.055656760931015015,0.025095826014876366,-0.04601503536105156
1761379422508647400,1.5546474609375,-0.09633840620517731,0.026172541081905365,-0.0421004556119442
1761379422518729500,1.5647294921875,-0.08152098208665848,0.03015238232910633,-0.035350169986486435
1761379422528811500,1.5748115234375,-0.06722566485404968,0.018797460943460464,-0.013903731480240822
1761379422538894300,1.584894287109375,-0.05609900504350662,0.01547378022223711,0.019232602789998055
1761379422548976400,1.594976318359375,-0.05080677196383476,0.006386542227119207,0.05634162202477455
1761379422559058400,1.605058349609375,-0.03396821394562721,0.024464620277285576,0.09763451665639877
1761379422569140500,1.615140380859375,-0.007567498367279768,-0.0018298346549272537,0.10551320761442184
1761379422579222500,1.625222412109375,-0.0007608328014612198,-0.011993193998932838,0.047099992632865906
1761379422589304300,1.63530419921875,0.010488358326256275,0.009561632759869099,0.032158590853214264
1761379422599386400,1.645386474609375,0.008956988342106342,0.012490730732679367,0.009343994781374931
1761379422609468400,1.655468505859375,0.0024815117940306664,0.001729430165141821,-0.011417475529015064
1761379422619550500,1.665550537109375,0.022137030959129333,0.0082020852714777,-0.03467551991343498
1761379422629633500,1.675633544921875,0.05257989093661308,-0.013069115579128265,-0.018802281469106674
1761379422639715300,1.68571533203125,0.06592503935098648,-0.02020503766834736,0.014847805723547935
1761379422649797400,1.69579736328125,0.06372340768575668,-0.007777396589517593,0.03927458077669144
1761379422659879400,1.70587939453125,0.05199126899242401,0.004547853488475084,0.03322136402130127
1761379422669961500,1.71596142578125,0.036631759256124496,0.008536203764379025,0.005734080448746681
1761379422680043500,1.72604345703125,0.012945424765348434,-0.0078122494742274284,-0.024053452536463737
1761379422690125600,1.73612548828125,-0.0073478627018630505,-0.022527281194925308,-0.002663475228473544
1761379422700207400,1.746207275390625,-0.016917619854211807,-0.03303112834692001,0.034390322864055634
1761379422710290400,1.75629052734375,-0.01266455091536045,-0.05380724370479584,0.05266812816262245
1761379422720372500,1.76637255859375,-0.0018988549709320068,-0.07108388096094131,0.062199149280786514
1761379422730454500,1.77645458984375,0.011590056121349335,-0.09122643619775772,0.06007660552859306
1761379422740536600,1.78653662109375,0.006314998492598534,-0.1016266942024231,0.04841213300824165
1761379422750618400,1.796618408203125,0.0033434443175792694,-0.10191698372364044,0.03793658688664436
1761379422760700400,1.806700439453125,0.011987905018031597,-0.12439783662557602,0.022504296153783798
1761379422770782500,1.816782470703125,0.018072694540023804,-0.14281173050403595,0.027714770287275314
1761379422780864500,1.826864501953125,0.010158662684261799,-0.12607868015766144,0.044990357011556625
1761379422790946600,1.836946533203125,-0.007711415179073811,-0.10211262106895447,0.05396787077188492
1761379422801029400,1.847029296875,-0.023110665380954742,-0.07577956467866898,0.05433616414666176
1761379422811111400,1.857111328125,-0.030667120590806007,-0.053643640130758286,0.04405716061592102
1761379422821193500,1.867193359375,-0.040085893124341965,-0.029255244880914688,0.02233532816171646
1761379422831275500,1.877275634765625,-0.05027647688984871,0.0026606107130646706,-0.004936239682137966
1761379422841357600,1.887357666015625,-0.026663482189178467,0.040838781744241714,-0.026748446747660637
1761379422851439400,1.897439453125,-0.013621717691421509,0.0023337332531809807,-0.051227159798145294
1761379422861521400,1.907521484375,-0.09443972259759903,0.056262750178575516,-0.03129151463508606
1761379422871603500,1.917603515625,-0.08634398132562637,0.09233100712299347,-0.029624640941619873
1761379422881686500,1.9276865234375,-0.08149508386850357,0.0836624950170517,-0.053817521780729294
1761379422891768600,1.9377685546875,-0.08969149738550186,0.09127300977706909,-0.07018237560987473
1761379422901850400,1.947850341796875,-0.0842370018362999,0.10197116434574127,-0.07842863351106644
1761379422911932400,1.957932373046875,-0.07010813802480698,0.10542022436857224,-0.0750216543674469
1761379422922014500,1.968014404296875,-0.05588062107563019,0.09815782308578491,-0.07119757682085037
1761379422932096500,1.978096435546875,-0.04050512984395027,0.07681871205568314,-0.0675881877541542
1761379422942178600,1.988178466796875,-0.02439635619521141,0.06323236227035522,-0.052978310734033585
1761379422952260600,1.998260498046875,-0.006869292818009853,0.06800927221775055,-0.043950993567705154
1761379422962343400,2.008343505859375,0.0018437709659337997,0.03771208971738815,-0.028053253889083862
1761379422972425500,2.018425537109375,0.03920206427574158,0.03867482393980026,0.00254247197881341
1761379422982507500,2.028507568359375,0.053010255098342896,0.027463838458061218,0.039687275886535645
1761379422992589600,2.038589599609375,0.016468219459056854,0.028356796130537987,0.07106596976518631
1761379423002671900,2.048671875,0.027901526540517807,-0.0013996046036481857,0.06870899349451065
1761379423012754000,2.05875390625,0.03568434715270996,-0.03476528450846672,0.06561467051506042
1761379423022836000,2.0688359375,0.03750460594892502,-0.04881994426250458,0.06151808053255081
1761379423032918000,2.07891796875,0.04028468579053879,-0.06355494260787964,0.052563734352588654
1761379423043000800,2.089000732421875,0.03925734758377075,-0.05160956829786301,0.03273575007915497
1761379423053083000,2.099082763671875,0.026632629334926605,-0.052029818296432495,0.008014688268303871
1761379423063165000,2.1091650390625,0.005433226004242897,-0.06806394457817078,-0.016392963007092476
1761379423073247000,2.1192470703125,-0.010322833433747292,-0.0858173742890358,-0.024390168488025665
1761379423083329000,2.1293291015625,-0.03801610693335533,-0.06531662493944168,-0.008176291361451149
1761379423093411000,2.1394111328125,-0.052959904074668884,-0.03678671643137932,0.02123406156897545
1761379423103492900,2.149492919921875,-0.0554995983839035,-0.03561371564865112,0.03713594004511833
1761379423113575000,2.159574951171875,-0.06045227870345116,-0.0336214080452919,0.04355122894048691
1761379423123658000,2.169657958984375,-0.06157083809375763,-0.03798016905784607,0.0379122756421566
1761379423133740000,2.179739990234375,-0.050946421921253204,-0.039691515266895294,0.040114179253578186
1761379423143822000,2.189822021484375,-0.025876227766275406,-0.05526452511548996,0.033985789865255356
1761379423153903900,2.19990380859375,0.002498422749340534,-0.05979029834270477,0.028267715126276016
1761379423163986000,2.20998583984375,0.021377798169851303,-0.05786537751555443,0.021394912153482437
1761379423174068000,2.22006787109375,0.024097684770822525,-0.04789609834551811,0.016644099727272987
1761379423184150000,2.23014990234375,0.02541077695786953,-0.03547462821006775,0.0019431391265243292
1761379423194232000,2.240232177734375,0.02371967025101185,-0.02953338250517845,-0.007865283638238907
1761379423204315000,2.25031494140625,0.011933745816349983,-0.02067955955862999,-0.012432459741830826
1761379423214397000,2.26039697265625,-0.003382360562682152,-0.017900284379720688,-0.008568213321268559
1761379423224479000,2.27047900390625,-0.016786452382802963,-0.02571888640522957,-0.0041916691698133945
1761379423234561000,2.28056103515625,-0.02465689182281494,-0.021890323609113693,0.019845755770802498
1761379423244643000,2.29064306640625,-0.021721677854657173,-0.029194030910730362,0.02766108699142933
1761379423254724900,2.300724853515625,-0.013157217763364315,-0.041789449751377106,0.029341543093323708
1761379423264807000,2.310806884765625,-0.01335906982421875,-0.053804971277713776,0.030201604589819908
1761379423274890000,2.320889892578125,-0.008492941968142986,-0.05128242075443268,0.03965768590569496
1761379423284972000,2.330971923828125,-0.01214219443500042,-0.051520634442567825,0.05352090671658516
1761379423295054000,2.34105419921875,-0.018966278061270714,-0.04939170554280281,0.07928885519504547
1761379423305135900,2.351135986328125,-0.030847305431962013,-0.005258227698504925,0.11718814074993134
1761379423315218000,2.361218017578125,-0.037051405757665634,0.02393134869635105,0.12290994822978973
1761379423325300000,2.371300048828125,-0.034477293491363525,0.011644652113318443,0.09085754305124283
1761379423335382000,2.381382080078125,-0.020156942307949066,-0.006329287774860859,0.059428244829177856
1761379423345464000,2.391464111328125,0.000331781804561615,-0.021491792052984238,0.04236767813563347
1761379423355547000,2.401546875,0.022404327988624573,-0.01944967918097973,0.03372092545032501
1761379423365629000,2.41162890625,0.038746871054172516,-0.011524894274771214,0.02360120415687561
1761379423375711000,2.4217109375,0.04593793302774429,0.004264454357326031,0.01188782136887312
1761379423385793000,2.43179296875,0.044470012187957764,0.01228812150657177,-0.011034954339265823
1761379423395875000,2.441875,0.03655323013663292,0.014463392086327076,-0.027289025485515594
1761379423405956900,2.451956787109375,0.03139160946011543,0.016823530197143555,-0.03509417176246643
1761379423416039000,2.462038818359375,0.03352373465895653,0.012063662521541119,-0.027837591245770454
1761379423426121000,2.472120849609375,0.0370275117456913,0.012888428755104542,-0.016807861626148224
1761379423436204000,2.4822041015625,0.03379656374454498,0.01236778125166893,-0.01251750998198986
1761379423446286000,2.4922861328125,0.03531040996313095,0.006761416792869568,-0.0011552778305485845
1761379423456367900,2.502367919921875,0.04067934304475784,-0.0001582745462656021,0.01655793935060501
1761379423466450000,2.512449951171875,0.052011262625455856,-0.008103485219180584,0.03073561005294323
1761379423476532000,2.522531982421875,0.06438750773668289,-0.013803715817630291,0.0382089763879776
1761379423486614000,2.532614013671875,0.07446090877056122,-0.015349148772656918,0.02839655615389347
1761379423496696000,2.542696044921875,0.07615415006875992,-0.02338869869709015,0.020198015496134758
1761379423506779000,2.55277880859375,0.0715978741645813,-0.020474493503570557,0.0027507541235536337
1761379423516861000,2.56286083984375,0.06133405491709709,-0.006324321962893009,-0.011296088807284832
1761379423526943000,2.57294287109375,0.04594338685274124,0.004461935721337795,-0.01222321204841137
1761379423537025000,2.58302490234375,0.021545901894569397,0.02599465847015381,0.007291367277503014
1761379423547107000,2.593107177734375,-0.00337876845151186,0.04629512131214142,0.02623760886490345
1761379423557188900,2.60318896484375,-0.007537028286606073,0.04730872064828873,0.03104781173169613
1761379423567271000,2.61327099609375,0.0007134191691875458,0.02313941717147827,0.027911091223359108
1761379423577353000,2.62335302734375,0.0212626364082098,0.003850141540169716,0.03804175555706024
1761379423587436000,2.63343603515625,0.03940611705183983,-0.0002752179279923439,0.05205545574426651
1761379423597518000,2.64351806640625,0.04435613378882408,0.000302155502140522,0.04545187950134277
1761379423607599900,2.653599853515625,0.039523571729660034,0.0027335439808666706,0.03850734233856201
1761379423617682000,2.663681884765625,0.011705520562827587,0.027719855308532715,0.03312616050243378
1761379423627764000,2.673763916015625,-0.014104827307164669,0.0534353144466877,0.024743305519223213
1761379423637846000,2.683845947265625,-0.03430011123418808,0.06829974800348282,0.013688789680600166
1761379423647928000,2.693927978515625,-0.041162531822919846,0.07007496058940887,-0.00260875653475523
1761379423658011000,2.704010986328125,-0.038140907883644104,0.05933203920722008,-0.015847330912947655
1761379423668093000,2.714093017578125,-0.025521742179989815,0.05589210242033005,-0.014947625808417797
1761379423678175000,2.724175048828125,-0.013675202615559101,0.03850965201854706,-0.017241138964891434
1761379423688257000,2.734257080078125,0.00008122064173221588,0.02793768420815468,-0.00900907814502716
1761379423698339000,2.744339111328125,-0.004383568651974201,0.01134219579398632,0.0068772099912166595
1761379423708420900,2.7544208984375,-0.015063670463860035,0.006546247750520706,0.023610007017850876
1761379423718503000,2.7645029296875,-0.029237013310194016,0.009790776297450066,0.03566427528858185
1761379423728585000,2.7745849609375,-0.033772870898246765,0.012152116745710373,0.043653931468725204
1761379423738668000,2.78466796875,-0.015316629782319069,0.008573627099394798,0.04433969408273697
1761379423748750000,2.79475,-0.001017591916024685,0.00966478418558836,0.043752532452344894
1761379423758831900,2.804831787109375,0.005583850666880608,0.01686330884695053,0.043087273836135864
1761379423768914000,2.814913818359375,-0.004206379875540733,0.024878164753317833,0.033414214849472046
1761379423778996000,2.824995849609375,-0.013717859983444214,0.03323649615049362,0.008903012610971928
1761379423789078000,2.835078125,-0.023668667301535606,0.03382791578769684,-0.010278206318616867
1761379423799160000,2.84516015625,-0.03005892224609852,0.03150190785527229,-0.013263875618577003
1761379423809243000,2.855242919921875,-0.025699526071548462,0.037837784737348557,0.0014087546151131392
1761379423819325000,2.865324951171875,-0.01702401228249073,0.035312578082084656,0.007506061345338821
1761379423829407000,2.875406982421875,-0.006355666555464268,0.030194317921996117,0.008843579329550266
1761379423839489000,2.885489013671875,0.005860253237187862,0.017980262637138367,0.0079325120896101
1761379423849571000,2.895571044921875,0.014611841179430485,0.0063817379996180534,0.007308599539101124
1761379423859653000,2.905653076171875,0.011482094414532185,0.007226493209600449,0.02138473652303219
1761379423869735000,2.91573486328125,0.002297348342835903,0.017058108001947403,0.02688312716782093
1761379423879817000,2.92581689453125,-0.0054923975840210915,0.012582664377987385,0.017816662788391113
1761379423889900000,2.935900146484375,-0.008187131024897099,0.0027007213793694973,0.005672629922628403
1761379423899982000,2.945982177734375,-0.0014783618971705437,-0.0060791876167058945,-0.0035996981896460056
1761379423910063900,2.95606396484375,0.003988283686339855,-0.008388127200305462,-0.008192308247089386
1761379423920146000,2.96614599609375,0.006375807337462902,-0.011270998977124691,-0.00893453136086464
1761379423930228000,2.97622802734375,0.0051366956904530525,-0.0009568929672241211,-0.0026934510096907616
1761379423940310000,2.98631005859375,0.005991571582853794,0.00825471431016922,-0.0005165832117199898
1761379423950392000,2.99639208984375,0.009309465065598488,0.0023813568986952305,-0.0016513899900019169
1761379423960475000,3.006474853515625,0.016012640669941902,-0.01141701266169548,-0.005422160029411316
1761379423970557000,3.016556884765625,0.01825772039592266,-0.011304193176329136,0.003999217413365841
1761379423980639000,3.026638916015625,0.015674186870455742,-0.011020301841199398,0.009868025779724121
1761379423990721000,3.036720947265625,0.025361202657222748,-0.020664699375629425,0.016681961715221405
1761379424000802000,3.046802001953125,0.03644421696662903,-0.027411285787820816,0.025421923026442528
1761379424010884000,3.056884033203125,0.04882630705833435,-0.03478896617889404,0.023846473544836044
1761379424020966100,3.066966064453125,0.05339256674051285,-0.03651389479637146,0.022965233772993088
1761379424031049000,3.077049072265625,0.05245654284954071,-0.03531132638454437,0.02197626791894436
1761379424041131000,3.087131103515625,0.044011130928993225,-0.02908911556005478,0.018840663135051727
1761379424051213000,3.097213134765625,0.03052268922328949,-0.020474616438150406,0.00983835756778717
1761379424061295000,3.107295166015625,0.017028983682394028,-0.002502541057765484,0.006044418551027775
1761379424071377200,3.117377197265625,0.008709441870450974,0.006865656469017267,0.002663541818037629
1761379424081459000,3.127458984375,0.0065546780824661255,0.009705385193228722,0.00047389091923832893
1761379424091541000,3.137541015625,-0.0039515504613518715,0.014858844690024853,0.00567555520683527
1761379424101623000,3.147623046875,-0.006614977493882179,0.013273198157548904,0.009727022610604763
1761379424111706000,3.1577060546875,-0.007088244426995516,0.009264293126761913,0.012917173095047474
1761379424121788000,3.167787841796875,-0.00457395426928997,0.0025525945238769054,0.0010493281297385693
1761379424131870000,3.177869873046875,0.003141007386147976,-0.012476509436964989,-0.00011724373325705528
1761379424141952000,3.187951904296875,0.01014592032879591,-0.014963902533054352,0.006138521712273359
1761379424152034000,3.198033935546875,0.009808667935431004,-0.003703000023961067,0.01694057695567608
1761379424162116000,3.2081162109375,0.009822248481214046,0.007129673846065998,0.02315160073339939
1761379424172198100,3.2181982421875,0.008859134279191494,0.00504756486043334,0.016697386279702187
1761379424182281000,3.228281005859375,0.00955821480602026,-0.00044493842869997025,0.01689099706709385
1761379424192363000,3.238363037109375,0.009006109088659286,-0.007555740885436535,0.019245851784944534
1761379424202445000,3.248445068359375,0.009467368945479393,-0.0037958910688757896,0.019892733544111252
1761379424212527000,3.258527099609375,0.004016428254544735,-0.013262158259749413,0.01489443238824606
1761379424222609200,3.268609130859375,0.0024819141253829002,-0.018032412976026535,0.0033062195871025324
1761379424232691000,3.27869091796875,0.0020906962454319,-0.018015367910265923,0.0022777069825679064
1761379424242773000,3.28877294921875,-0.0027983076870441437,-0.016879908740520477,0.008195964619517326
1761379424252856000,3.29885595703125,-0.005105810239911079,-0.0038624759763479233,0.014650574885308743
1761379424262938000,3.308938232421875,-0.008081627078354359,0.006373915821313858,0.019201384857296944
1761379424273020000,3.31902001953125,-0.010895013809204102,0.01283016987144947,0.014861446805298328
1761379424283102000,3.32910205078125,-0.01576620154082775,0.011336402967572212,-0.004514115862548351
1761379424293184000,3.33918408203125,-0.029528804123401642,0.015667308121919632,-0.017439164221286774
1761379424303266000,3.34926611328125,-0.04367178678512573,0.021959027275443077,-0.03711246699094772
1761379424313348000,3.35934814453125,-0.05434924364089966,0.02312958426773548,-0.051012732088565826
1761379424323431000,3.369430908203125,-0.05804704129695892,0.03931467980146408,-0.059123389422893524
1761379424333513000,3.379512939453125,-0.04842294752597809,0.041544109582901,-0.056492630392313004
1761379424343595000,3.389594970703125,-0.039253950119018555,0.046681612730026245,-0.046987008303403854
1761379424353677000,3.399677001953125,-0.029186919331550598,0.034000903367996216,-0.02879689820110798
1761379424363759000,3.409759033203125,-0.024656616151332855,0.014620546251535416,0.001647561090067029
1761379424373841200,3.419841064453125,-0.02551284432411194,0.0026248260401189327,0.03415245562791824
1761379424383923000,3.4299228515625,-0.0251527838408947,-0.006572134792804718,0.06789710372686386
1761379424394006000,3.440006103515625,-0.027020644396543503,-0.004483077675104141,0.08695103228092194
1761379424404088000,3.450088134765625,-0.02970271371304989,-0.009248270653188229,0.08865412324666977
1761379424414170000,3.460170166015625,-0.03244312107563019,-0.015007026493549347,0.07079929858446121
1761379424424252200,3.470252197265625,-0.04279376566410065,-0.017606273293495178,0.05943799391388893
1761379424434334000,3.480333984375,-0.05534786358475685,-0.003112456761300564,0.05165766924619675
1761379424444416000,3.490416015625,-0.06929376721382141,0.017792824655771255,0.03212471306324005
1761379424454498000,3.500498046875,-0.07442775368690491,0.037168413400650024,0.004651830531656742
1761379424464581000,3.5105810546875,-0.08610145002603531,0.05210608243942261,-0.021912137046456337
1761379424474663000,3.520662841796875,-0.0921897292137146,0.058747321367263794,-0.03180782496929169
1761379424484745000,3.530744873046875,-0.09721245616674423,0.07012061774730682,-0.025123557075858116
1761379424494827000,3.540826904296875,-0.10977861285209656,0.07852834463119507,-0.009725799784064293
1761379424504909000,3.550908935546875,-0.11122897267341614,0.08026871830224991,0.00500467699021101
1761379424514991000,3.5609912109375,-0.09965585917234421,0.07531025260686874,0.02368868887424469
1761379424525073200,3.5710732421875,-0.08953850716352463,0.06005859375,0.02639792114496231
1761379424535156000,3.581156005859375,-0.07435386627912521,0.03552628308534622,0.027928106486797333
1761379424545238000,3.591238037109375,-0.06140025332570076,0.01590437814593315,0.03579961508512497
1761379424555320000,3.601320068359375,-0.055787861347198486,0.006773902103304863,0.04714776948094368
1761379424565402000,3.611402099609375,-0.055778007954359055,0.006439941469579935,0.04433467239141464
1761379424575484200,3.621484130859375,-0.04950772225856781,-0.0010522287338972092,0.036766860634088516
1761379424585566000,3.63156591796875,-0.03422810137271881,-0.01225375011563301,0.021283242851495743
1761379424595648000,3.64164794921875,-0.020493993535637856,-0.022820182144641876,0.014677198603749275
1761379424605731000,3.65173095703125,-0.014005467295646667,-0.03108476847410202,0.015947526320815086
1761379424615813000,3.661813232421875,-0.009464778006076813,-0.034847550094127655,0.023866703733801842
1761379424625895000,3.67189501953125,-0.00016981270164251328,-0.03822656720876694,0.038330063223838806
1761379424635977000,3.68197705078125,-0.005293955095112324,-0.03381574898958206,0.04649381712079048
1761379424646059000,3.69205908203125,-0.013210734352469444,-0.030284397304058075,0.04389084503054619
1761379424656141000,3.70214111328125,-0.024470454081892967,-0.02598269283771515,0.04421805217862129
1761379424666223000,3.71222314453125,-0.0372869148850441,-0.01815752685070038,0.024019308388233185
1761379424676305200,3.72230517578125,-0.05619053170084953,-0.00792461633682251,0.010435560718178749
1761379424686388000,3.732387939453125,-0.05882972478866577,0.0013778051361441612,-0.003386777825653553
1761379424696470000,3.742469970703125,-0.05652100592851639,0.010051235556602478,-0.016295602545142174
1761379424706552000,3.752552001953125,-0.055291689932346344,0.010698383674025536,-0.021910345181822777
1761379424716634000,3.762634033203125,-0.04998147487640381,0.013537146151065826,-0.01856318861246109
1761379424726716200,3.772716064453125,-0.04530869051814079,0.01873590238392353,-0.017450787127017975
1761379424736798000,3.7827978515625,-0.04732929915189743,0.028062324970960617,-0.01595144532620907
1761379424746881000,3.792881103515625,-0.052105680108070374,0.03744783625006676,-0.015277400612831116
1761379424756963000,3.802963134765625,-0.055473748594522476,0.04574889689683914,-0.00862131454050541
1761379424767045000,3.813045166015625,-0.052879560738801956,0.042704902589321136,-0.011859985068440437
1761379424777127000,3.823126953125,-0.04309925064444542,0.02956146001815796,-0.009366157464683056
1761379424787209000,3.833208984375,-0.0259476937353611,0.01850214973092079,-0.010816514492034912
1761379424797291000,3.843291015625,-0.00842621736228466,0.007711670361459255,-0.009751387871801853
1761379424807373000,3.853373046875,-0.001972844824194908,0.00513559440150857,-0.008390245959162712
1761379424817456000,3.8634560546875,-0.011561891064047813,0.015367849729955196,-0.01302376389503479
1761379424827538000,3.873537841796875,-0.02747800573706627,0.03004000335931778,-0.017093339934945107
1761379424837620000,3.883619873046875,-0.031242210417985916,0.030617639422416687,-0.02900645323097706
1761379424847702000,3.893701904296875,-0.03137297183275223,0.01794179156422615,-0.035304032266139984
1761379424857784000,3.9037841796875,-0.021966027095913887,0.0049095177091658115,-0.03881310299038887
1761379424867866000,3.9138662109375,-0.005264013074338436,-0.005940998904407024,-0.03136184811592102
1761379424877948200,3.9239482421875,0.0010677902027964592,-0.009056801907718182,-0.009405587799847126
1761379424888030000,3.934030029296875,-0.0011386387050151825,-0.002951771952211857,0.005590938962996006
1761379424898113000,3.944113037109375,-0.008041804656386375,0.0026368009857833385,0.00469923485070467
1761379424908195000,3.954195068359375,-0.008029287680983543,0.002290856558829546,-0.0070636821910738945
1761379424918277000,3.964277099609375,-0.007971128448843956,0.0009378246031701565,-0.01392412930727005
1761379424928359000,3.97435888671875,-0.008274463005363941,-0.0019676843658089638,-0.0010040693450719118
1761379424938441000,3.98444091796875,-0.012419279664754868,0.005950860679149628,0.015704242512583733
1761379424948523000,3.99452294921875,-0.013093058951199055,0.007059002295136452,0.015477074310183525
1761379424958605000,4.00460498046875,-0.01157362014055252,0.008537977002561092,-0.002204594202339649
1761379424968688000,4.014688232421875,-0.0002607787027955055,-0.02719551883637905,-0.028968829661607742
1761379424978770000,4.02477001953125,0.019253186881542206,-0.05121544376015663,-0.024759776890277863
1761379424988852000,4.03485205078125,0.03342413157224655,-0.05485545098781586,-0.006288890261203051
1761379424998934500,4.0449345703125,0.042710233479738235,-0.05713244155049324,0.01817915588617325
1761379425009016600,4.0550166015625,0.051319435238838196,-0.054998982697725296,0.03228725120425224
1761379425019098600,4.0650986328125,0.04676664248108864,-0.052543338388204575,0.03129597753286362
1761379425029181400,4.075181396484375,0.029524538666009903,-0.0438462533056736,0.021197538822889328
1761379425039263500,4.085263427734375,0.014342721551656723,-0.039322465658187866,0.0023768639657646418
1761379425049345500,4.095345458984375,0.00806458666920662,-0.032336995005607605,-0.01566019281744957
1761379425059427600,4.105427490234375,0.006943441927433014,-0.03097815252840519,-0.028485611081123352
1761379425069509600,4.115509521484375,0.01570311188697815,-0.03038187138736248,-0.03755207732319832
1761379425079591400,4.12559130859375,0.01720963791012764,-0.037523187696933746,-0.042342089116573334
1761379425089673500,4.135673583984375,0.02034870535135269,-0.04337361827492714,-0.047404490411281586
1761379425099755500,4.145755615234375,0.012781857512891293,-0.04238490015268326,-0.04942675679922104
1761379425109838600,4.155838623046875,0.005677343346178532,-0.03821359574794769,-0.04445889592170715
1761379425119920400,4.16592041015625,0.000269085168838501,-0.026441700756549835,-0.02763843722641468
1761379425130002400,4.17600244140625,-0.006787758786231279,-0.0223071426153183,-0.014206252060830593
1761379425140084500,4.18608447265625,-0.0020836321637034416,-0.023727212101221085,-0.008279991336166859
1761379425150166500,4.19616650390625,0.0074366359040141106,-0.030596040189266205,-0.010011312551796436
1761379425160248600,4.20624853515625,0.00841132178902626,-0.028289370238780975,-0.011638416908681393
1761379425170331400,4.216331298828125,0.009176714345812798,-0.024059206247329712,-0.010800054296851158
1761379425180413400,4.226413330078125,0.01627352274954319,-0.024354608729481697,-0.00020421575754880905
1761379425190495500,4.23649560546875,0.018659980967640877,-0.01847727783024311,0.007513091899454594
1761379425200577500,4.24657763671875,0.022885728627443314,-0.01545063778758049,0.007744508795440197
1761379425210659600,4.25665966796875,0.0216502882540226,-0.015941191464662552,0.0019340235739946365
1761379425220741600,4.26674169921875,0.01939912885427475,-0.025106877088546753,-0.006174907088279724
1761379425230823400,4.276823486328125,0.01771627739071846,-0.027413707226514816,-0.012466625310480595
1761379425240906500,4.286906494140625,0.019417662173509598,-0.028382685035467148,-0.013711774721741676
1761379425250988500,4.296988525390625,0.01822936162352562,-0.02641194686293602,-0.008251495659351349
1761379425261070600,4.307070556640625,0.019399695098400116,-0.03133097290992737,-0.0012528805527836084
1761379425271152400,4.31715234375,0.01924176886677742,-0.031180771067738533,-0.001632114639505744
1761379425281234400,4.327234375,0.023385128006339073,-0.034249596297740936,-0.0004726534243673086
1761379425291316500,4.33731640625,0.027302639558911324,-0.038029156625270844,-0.010358573868870735
1761379425301398500,4.3473984375,0.0293978750705719,-0.04302108660340309,-0.019058149307966232
1761379425311481600,4.357481689453125,0.033567849546670914,-0.04835300147533417,-0.028841538354754448
1761379425321563400,4.3675634765625,0.03866847604513168,-0.05863190069794655,-0.036722537130117416
1761379425331645400,4.3776455078125,0.045486174523830414,-0.0655132383108139,-0.034012503921985626
1761379425341727500,4.3877275390625,0.0491434745490551,-0.06143268197774887,-0.025859156623482704
1761379425351809500,4.3978095703125,0.04909873381257057,-0.05349060148000717,-0.00832490436732769
1761379425361891600,4.4078916015625,0.04484596848487854,-0.04456610605120659,0.00827082060277462
1761379425371973600,4.4179736328125,0.03367773815989494,-0.029308058321475983,0.01568186655640602
1761379425382056400,4.428056396484375,0.02817588858306408,-0.022808391600847244,0.0027830610051751137
1761379425392138500,4.438138427734375,0.02090120129287243,-0.016292167827486992,-0.01182757318019867
1761379425402220500,4.448220458984375,0.018018636852502823,-0.021324651315808296,-0.021491283550858498
1761379425412302600,4.458302490234375,0.017546992748975754,-0.015396719798445702,-0.01807338371872902
1761379425422384400,4.46838427734375,0.019561059772968292,-0.007756452076137066,-0.00835478212684393
1761379425432466400,4.478466552734375,0.024586178362369537,-0.00965049210935831,0.0006621484644711018
1761379425442548500,4.488548583984375,0.024349424988031387,-0.012800478376448154,-0.0029946379363536835
1761379425452631600,4.498631591796875,0.026699133217334747,-0.014026598073542118,-0.010787047445774078
1761379425462713600,4.508713623046875,0.021561335772275925,-0.002676093950867653,-0.01893623359501362
1761379425472795400,4.51879541015625,0.003574342466890812,0.009485231712460518,-0.031384117901325226
1761379425482877400,4.52887744140625,-0.01111720222979784,0.01129744853824377,-0.0412231981754303
1761379425492959500,4.53895947265625,-0.01644405722618103,0.01751086860895157,-0.049208156764507294
1761379425503041500,4.54904150390625,-0.020999852567911148,0.02843618206679821,-0.05407167971134186
1761379425513123600,4.55912353515625,-0.02233276516199112,0.03324105590581894,-0.06143052503466606
1761379425523206400,4.569206298828125,-0.0294599998742342,0.03884044289588928,-0.0566418319940567
1761379425533288400,4.579288330078125,-0.044057585299015045,0.03848251700401306,-0.0538010373711586
1761379425543370500,4.58937060546875,-0.06060044839978218,0.03948003426194191,-0.047966368496418
1761379425553452500,4.59945263671875,-0.07429654896259308,0.03870851546525955,-0.0371994748711586
1761379425563534600,4.60953466796875,-0.07897992432117462,0.0318794846534729,-0.03443343564867973
1761379425573616400,4.619616455078125,-0.07528931647539139,0.006749898660928011,-0.03906653821468353
1761379425583698400,4.629698486328125,-0.06877445429563522,-0.005636600777506828,-0.03817927837371826
1761379425593781500,4.639781494140625,-0.05950665473937988,-0.019925791770219803,-0.0350966677069664
1761379425603863600,4.649863525390625,-0.05322352796792984,-0.033738523721694946,-0.037218429148197174
1761379425613945600,4.659945556640625,-0.04087977856397629,-0.03495052456855774,-0.030548805370926857
1761379425624027400,4.67002734375,-0.02998548001050949,-0.04882654547691345,-0.024223407730460167
1761379425634109400,4.680109375,-0.027003806084394455,-0.05886825919151306,-0.02184413932263851
1761379425644191500,4.69019140625,-0.018643895164132118,-0.05730652064085007,-0.017152901738882065
1761379425654273500,4.7002734375,-0.020296920090913773,-0.055368803441524506,-0.006391067989170551
1761379425664356400,4.7103564453125,-0.025652453303337097,-0.054699476808309555,-0.008675722405314445
1761379425674438400,4.7204384765625,-0.026241544634103775,-0.06842806935310364,-0.010619030334055424
1761379425684520400,4.7305205078125,-0.019773753359913826,-0.08105573058128357,-0.0015272949822247028
1761379425694602500,4.7406025390625,-0.015659969300031662,-0.08005545288324356,0.01961900293827057
1761379425704684500,4.7506845703125,-0.026027530431747437,-0.07406769692897797,0.03937823325395584
1761379425714766600,4.7607666015625,-0.04799514636397362,-0.04601769149303436,0.043617721647024155
1761379425724848400,4.770848388671875,-0.060323141515254974,-0.02496477961540222,0.025931768119335175
1761379425734931500,4.780931396484375,-0.06271013617515564,-0.010902756825089455,0.0037846541963517666
1761379425745013500,4.791013427734375,-0.05117768421769142,-0.015526656061410904,-0.02357332408428192
1761379425755095600,4.801095458984375,-0.03638222813606262,-0.010438952594995499,-0.04502907767891884
1761379425765177600,4.811177490234375,-0.024313755333423615,-0.01733582094311714,-0.05886586382985115
1761379425775259400,4.82125927734375,-0.04006635397672653,0.007035033777356148,-0.05723920464515686
1761379425785341400,4.831341552734375,-0.05224325880408287,0.01210248377174139,-0.03998781740665436
1761379425795424500,4.841424560546875,-0.06994369626045227,0.009882738813757896,-0.025760145857930183
1761379425805506600,4.851506591796875,-0.07498576492071152,0.0002079252153635025,-0.01019110344350338
1761379425815588400,4.86158837890625,-0.0742960125207901,-0.007558383978903294,0.009214552119374275
1761379425825670400,4.87167041015625,-0.07316020131111145,-0.008008436299860477,0.026687048375606537
1761379425835752400,4.88175244140625,-0.07033885270357132,-0.004840340465307236,0.0450117252767086
1761379425845834500,4.89183447265625,-0.06974337995052338,-0.016978345811367035,0.04475273936986923
1761379425855916500,4.90191650390625,-0.05286506190896034,-0.038886040449142456,0.04026744142174721
1761379425865999400,4.911999267578125,-0.03440943732857704,-0.04891291633248329,0.02579468861222267
1761379425876081400,4.922081298828125,-0.023618042469024658,-0.06091711297631264,0.015050963498651981
1761379425886163500,4.93216357421875,-0.017377277836203575,-0.0725044459104538,-0.0029175877571105957
1761379425896245500,4.94224560546875,-0.0245081577450037,-0.07687229663133621,-0.02527349255979061
1761379425906327600,4.95232763671875,-0.03118562139570713,-0.08137336373329163,-0.05402768403291702
1761379425916409600,4.96240966796875,-0.024414002895355225,-0.09287209063768387,-0.07778894156217575
1761379425926491400,4.972491455078125,-0.016062617301940918,-0.10658928006887436,-0.103309266269207
1761379425936574500,4.982574462890625,-0.01511080376803875,-0.13466112315654755,-0.1220611184835434
1761379425946656500,4.992656494140625,-0.009138540364801884,-0.13900057971477509,-0.11865529417991638
1761379425956738600,5.002738525390625,-0.007610152009874582,-0.12304824590682983,-0.07236342877149582
1761379425966820400,5.0128203125,-0.01885255053639412,-0.08232716470956802,-0.00440404936671257
1761379425976902400,5.02290234375,-0.032068219035863876,-0.06971549987792969,0.03771890327334404
1761379425986984400,5.032984375,-0.03831087052822113,-0.048123810440301895,0.0431600883603096
1761379425997066500,5.04306640625,-0.04245767742395401,-0.03838169947266579,0.012639195658266544
1761379426007153000,5.05315283203125,-0.055917806923389435,-0.003873213194310665,-0.029249347746372223
1761379426017234700,5.063234619140625,-0.05576174333691597,0.02825010195374489,-0.0646241158246994
1761379426027316700,5.073316650390625,-0.058012936264276505,0.04913856089115143,-0.10597160458564758
1761379426037398800,5.083398681640625,-0.06566313654184341,0.04780538007616997,-0.14300233125686646
1761379426047480800,5.093480712890625,-0.06951291114091873,0.03612041100859642,-0.1793886423110962
1761379426057563000,5.10356298828125,-0.07414121925830841,0.022318312898278236,-0.20529425144195557
1761379426067645000,5.11364501953125,-0.08188829571008682,0.023342059925198555,-0.2110578566789627
1761379426077727700,5.123727783203125,-0.09048737585544586,0.029658280313014984,-0.19522163271903992
1761379426087809800,5.133809814453125,-0.09652245044708252,0.017320580780506134,-0.18646922707557678
1761379426097891800,5.143891845703125,-0.0990428626537323,-0.028536122292280197,-0.1848715990781784
1761379426107974000,5.153973876953125,-0.07886913418769836,-0.0327041931450367,-0.18484678864479065
1761379426118056000,5.164055908203125,-0.06816934794187546,-0.0866640955209732,-0.1776394546031952
1761379426128137700,5.1741376953125,-0.05639635771512985,-0.06057026982307434,-0.12381494790315628
1761379426138219800,5.1842197265625,-0.07108741253614426,-0.025867151096463203,-0.04055654630064964
1761379426148302800,5.194302734375,-0.09587253630161285,0.0086827352643013,0.0257257129997015
1761379426158385000,5.204385009765625,-0.11534663289785385,0.02209388092160225,0.044346798211336136
1761379426168466700,5.214466796875,-0.1166091188788414,0.023312069475650787,0.014286679215729237
1761379426178548700,5.224548828125,-0.10312873125076294,0.02044490911066532,-0.01786459982395172
1761379426188630800,5.234630859375,-0.08994769304990768,0.0002512875944375992,-0.03588133677840233
1761379426198712800,5.244712890625,-0.06728445738554001,-0.012234676629304886,-0.039413753896951675
1761379426208796000,5.2547958984375,-0.0418735072016716,-0.021024711430072784,-0.029153697192668915
1761379426218877700,5.264877685546875,-0.022330164909362793,-0.02003667876124382,-0.007876639254391193
1761379426228959700,5.274959716796875,-0.0033459383994340897,-0.015613416209816933,0.0057698884047567844
1761379426239041800,5.285041748046875,0.012294807471334934,-0.02439199388027191,0.01687047630548477
1761379426249123800,5.295123779296875,0.02773267775774002,-0.028486916795372963,0.032948534935712814
1761379426259206000,5.305205810546875,0.03256365284323692,-0.017926152795553207,0.04954695329070091
1761379426269288000,5.315287841796875,0.02989579737186432,-0.01656808704137802,0.0507178008556366
1761379426279370800,5.325370849609375,0.02478785440325737,-0.02294502779841423,0.04146438091993332
1761379426289452800,5.335452880859375,0.027752652764320374,-0.031168818473815918,0.041346147656440735
1761379426299534800,5.345534912109375,0.02802908793091774,-0.036328159272670746,0.05135803297162056
1761379426309617000,5.355616943359375,0.03446066007018089,-0.0372219942510128,0.048434119671583176
1761379426319698700,5.36569873046875,0.03402842953801155,-0.029377654194831848,0.03662486374378204
1761379426329780700,5.37578076171875,0.030101824551820755,-0.028195833787322044,0.0050149038434028625
1761379426339862800,5.38586279296875,0.02207212895154953,-0.026159049943089485,-0.02189820259809494
1761379426349945900,5.39594580078125,0.01511344127357006,-0.02857581153512001,-0.042286477982997894
1761379426360028000,5.40602783203125,0.01059565506875515,-0.03400706499814987,-0.029275869950652122
1761379426370109700,5.416109619140625,0.004008376970887184,-0.03499607741832733,0.009428674355149269
1761379426380191700,5.426191650390625,0.000054380856454372406,-0.027728311717510223,0.04326093941926956
1761379426390273800,5.436273681640625,-0.011639580130577087,-0.029178446158766747,0.0530053935945034
1761379426400355800,5.44635595703125,-0.01910894736647606,-0.041200749576091766,0.03517952561378479
1761379426410438000,5.45643798828125,-0.01759643666446209,-0.05650315806269646,0.014824576675891876
1761379426420520700,5.466520751953125,-0.009646367281675339,-0.06653235852718353,0.0028629880398511887
1761379426430602800,5.476602783203125,-0.003963485360145569,-0.07009688019752502,-0.015883106738328934
1761379426440684800,5.486684814453125,0.004905905574560165,-0.06414125859737396,-0.02681351825594902
1761379426450766800,5.496766845703125,0.01101759448647499,-0.06292472034692764,-0.029906513169407845
1761379426460849000,5.506848876953125,0.020002568140625954,-0.06009857356548309,-0.02884790673851967
1761379426470930700,5.5169306640625,0.031929753720760345,-0.06679661571979523,-0.03364023566246033
1761379426481013800,5.527013671875,0.04658406227827072,-0.07176581025123596,-0.02293592505156994
1761379426491095800,5.537095703125,0.05788476765155792,-0.07063816487789154,-0.008550474420189857
1761379426501177900,5.547177734375,0.06592032313346863,-0.07126959413290024,0.0144837386906147
1761379426511260000,5.557260009765625,0.07539796084165573,-0.06394089758396149,0.04015549644827843
1761379426521341700,5.567341796875,0.07360325753688812,-0.04733102396130562,0.04769490286707878
1761379426531423700,5.577423828125,0.07183490693569183,-0.0319027304649353,0.03853929787874222
1761379426541505800,5.587505859375,0.06285446137189865,-0.019702788442373276,0.017632687464356422
1761379426551588900,5.5975888671875,0.05837681144475937,-0.008350352756679058,-0.011780740693211555
1761379426561670700,5.607670654296875,0.05163661390542984,-0.0016993749886751175,-0.04002249985933304
1761379426571752700,5.617752685546875,0.04276410490274429,0.006075278855860233,-0.057334765791893005
1761379426581834800,5.627834716796875,0.03882262855768204,0.011781101115047932,-0.06164109706878662
1761379426591916800,5.637916748046875,0.03572492673993111,0.00961131788790226,-0.06185082346200943
1761379426601998800,5.647998779296875,0.04177403077483177,0.0054216329008340836,-0.06054560840129852
1761379426612081000,5.658080810546875,0.04753733426332474,-0.008976834826171398,-0.05327954143285751
1761379426622163700,5.668163818359375,0.04773946851491928,-0.011654910631477833,-0.03225148841738701
1761379426632245800,5.678245849609375,0.044843100011348724,-0.013773810118436813,-0.01400010846555233
1761379426642327800,5.688327880859375,0.041969284415245056,-0.010580945760011673,0.004460125230252743
1761379426652409900,5.698409912109375,0.042206548154354095,-0.017369654029607773,0.012633848935365677
1761379426662492000,5.708491943359375,0.03970929980278015,-0.018267406150698662,0.015436027199029922
1761379426672573700,5.71857373046875,0.04167791083455086,-0.016642078757286072,0.012275919318199158
1761379426682655700,5.72865576171875,0.03379069268703461,-0.021012593060731888,0.01675029657781124
1761379426692738800,5.73873876953125,0.027897078543901443,-0.020849056541919708,0.014069587923586369
1761379426702820900,5.74882080078125,0.021406691521406174,-0.01881227269768715,0.016546329483389854
1761379426712903000,5.75890283203125,0.007129400968551636,-0.010628717020154,0.014804283156991005
1761379426722984700,5.768984619140625,-0.005366949364542961,0.0009243413805961609,0.0048970566131174564
1761379426733066800,5.779066650390625,-0.02242584154009819,0.013632215559482574,-0.013250709511339664
1761379426743148800,5.789148681640625,-0.03889083489775658,0.012614356353878975,-0.032767683267593384
1761379426753232000,5.79923193359375,-0.04582277685403824,0.012210354208946228,-0.042874645441770554
1761379426763313700,5.809313720703125,-0.05587194859981537,0.024278469383716583,-0.031104542315006256
1761379426773395700,5.819395751953125,-0.07044317573308945,0.05044231563806534,-0.005244310945272446
1761379426783477800,5.829477783203125,-0.08137199282646179,0.06488995999097824,0.0016767119523137808
1761379426793559800,5.839559814453125,-0.08573196828365326,0.06398283690214157,-0.01897987350821495
1761379426803641900,5.849641845703125,-0.08018806576728821,0.0616360604763031,-0.04128198325634003
1761379426813724000,5.859723876953125,-0.07455947995185852,0.058037325739860535,-0.060043156147003174
1761379426823806700,5.869806640625,-0.07615312188863754,0.0556478314101696,-0.06165236607193947
1761379426833888800,5.879888671875,-0.07474926114082336,0.05044413357973099,-0.0636000782251358
1761379426843970800,5.889970703125,-0.07248690724372864,0.05372434854507446,-0.0475955456495285
1761379426854052900,5.900052978515625,-0.06808312237262726,0.05768069252371788,-0.025583241134881973
1761379426864135000,5.910135009765625,-0.07113058120012283,0.06326135247945786,-0.011228535324335098
1761379426874216700,5.920216796875,-0.08202313631772995,0.0829325020313263,0.00818667747080326
1761379426884298800,5.930298828125,-0.09407100826501846,0.08566731214523315,0.016284285113215446
1761379426894381800,5.9403818359375,-0.11786051094532013,0.08629385381937027,0.015396331436932087
1761379426904464000,5.9504638671875,-0.1281517595052719,0.0949278250336647,0.0070486534386873245
1761379426914545700,5.960545654296875,-0.13785022497177124,0.09922441095113754,-0.009513193741440773
1761379426924627700,5.970627685546875,-0.14060738682746887,0.11041741073131561,-0.02693133056163788
1761379426934709800,5.980709716796875,-0.14128392934799194,0.11435621231794357,-0.04574576020240784
1761379426944791800,5.990791748046875,-0.13788680732250214,0.1035965085029602,-0.07008039206266403
1761379426954873900,6.000873779296875,-0.12392532825469971,0.06913537532091141,-0.08546929806470871
1761379426964956700,6.010956787109375,-0.10796579718589783,0.03520696982741356,-0.08317685127258301
1761379426975038700,6.021038818359375,-0.10228946059942245,0.02205171436071396,-0.04465135186910629
1761379426985120800,6.031120849609375,-0.10090568661689758,0.013979405164718628,0.007118103094398975
1761379426995202800,6.041202880859375,-0.09271769225597382,-0.00994295533746481,0.04072266072034836
1761379427005285000,6.05128515625,-0.0769757479429245,-0.0312703475356102,0.05329624190926552
1761379427015367000,6.061366943359375,-0.05750002712011337,-0.07172921299934387,0.05489405617117882
1761379427025450000,6.071449951171875,-0.05309382826089859,-0.10009773820638657,0.049882519990205765
1761379427035532000,6.081531982421875,-0.06237458810210228,-0.11744271218776703,0.0516718327999115
1761379427045614000,6.091614013671875,-0.06905166804790497,-0.12791186571121216,0.05833426117897034
1761379427055696100,6.101696044921875,-0.0730668306350708,-0.09813205897808075,0.07736634463071823
1761379427065778000,6.11177783203125,-0.08200067281723022,-0.08509029448032379,0.09309577941894531
1761379427075860000,6.12185986328125,-0.09408042579889297,-0.06712346524000168,0.09769539535045624
1761379427085942000,6.13194189453125,-0.07847297191619873,-0.07967974245548248,0.07881997525691986
1761379427096025000,6.142025146484375,-0.030635150149464607,-0.13674671947956085,0.04830281436443329
1761379427106107000,6.15210693359375,0.015336602926254272,-0.17957726120948792,0.03217977285385132
1761379427116189000,6.16218896484375,0.03460031747817993,-0.2192465364933014,0.0458187535405159
1761379427126271000,6.17227099609375,0.06466500461101532,-0.24095210433006287,0.08723170310258865
1761379427136353000,6.18235302734375,0.11542191356420517,-0.28838053345680237,0.12436185032129288
1761379427146435000,6.19243505859375,0.19293586909770966,-0.5183157324790955,0.14537657797336578
1761379427156517000,6.20251708984375,0.3097895383834839,-0.634316623210907,0.16642673313617706
1761379427166600000,6.212599853515625,0.3812333643436432,-0.6878514885902405,0.15712298452854156
1761379427176682000,6.222681884765625,0.3707161247730255,-0.6837959289550781,0.1303921341896057
1761379427186764000,6.232763916015625,0.3056180775165558,-0.6381692886352539,0.08795253187417984
1761379427196846000,6.24284619140625,0.22664037346839905,-0.5631496906280518,0.048096973448991776
1761379427206928100,6.25292822265625,0.1355123370885849,-0.411838173866272,0.017829615622758865
1761379427217010000,6.263010009765625,0.038732435554265976,-0.3017895817756653,-0.0055546630173921585
1761379427227093000,6.273093017578125,-0.07286785542964935,-0.16261440515518188,-0.023238584399223328
1761379427237175000,6.283175048828125,-0.16310647130012512,-0.06819836795330048,-0.03992696478962898
1761379427247257000,6.293257080078125,-0.15521925687789917,-0.08327585458755493,-0.053115468472242355
1761379427257339000,6.3033388671875,-0.13369552791118622,-0.11010949313640594,-0.05208980664610863
1761379427267421000,6.3134208984375,-0.14731307327747345,-0.13407927751541138,-0.027683265507221222
1761379427277503000,6.3235029296875,-0.16964860260486603,-0.14642274379730225,0.0054227933287620544
1761379427287585000,6.3335849609375,-0.1757059544324875,-0.17287220060825348,0.024497950449585915
1761379427297668000,6.343668212890625,-0.16860216856002808,-0.21421808004379272,0.0313669852912426
1761379427307750000,6.35375,-0.16838645935058594,-0.22891047596931458,0.037005696445703506
1761379427317832000,6.36383203125,-0.11272843927145004,-0.3094872832298279,0.05885114148259163
1761379427327914000,6.3739140625,0.04534987732768059,-0.3354603052139282,0.10594648122787476
1761379427337996000,6.38399609375,0.0755709558725357,-0.348903089761734,0.058949969708919525
1761379427348078000,6.394078125,0.04281913489103317,-0.24023839831352234,0.0154658742249012
1761379427358160100,6.40416015625,-0.0144609734416008,-0.136943519115448,-0.009172994643449783
1761379427368243000,6.414242919921875,-0.10424119234085083,-0.008269158191978931,-0.027908332645893097
1761379427378325000,6.424324951171875,-0.09800941497087479,0.0730522871017456,-0.024293674156069756
1761379427388407000,6.434406982421875,-0.0027585308998823166,0.02885686233639717,-0.03682411462068558
1761379427398489000,6.444489013671875,0.057769715785980225,-0.028479741886258125,-0.06293568015098572
1761379427408571000,6.45457080078125,0.056432805955410004,-0.04258091002702713,-0.08302177488803864
1761379427418653000,6.46465283203125,0.03899563476443291,-0.020368345081806183,-0.06730730086565018
1761379427428736000,6.474736083984375,0.02326061576604843,0.005024096928536892,-0.03459249809384346
1761379427438818000,6.484818115234375,0.00932435691356659,0.04403075575828552,-0.00013876496814191341
1761379427448900000,6.494900146484375,-0.0029038144275546074,0.07456522434949875,0.015618359670042992
1761379427458982000,6.50498193359375,0.014053143560886383,0.07915222644805908,-0.0107166338711977
1761379427469064000,6.51506396484375,0.0343666672706604,0.063636913895607,-0.05331096425652504
1761379427479146000,6.52514599609375,0.0488278791308403,0.04580407589673996,-0.1131378635764122
1761379427489228000,6.53522802734375,0.041576363146305084,0.024677487090229988,-0.16669030487537384
1761379427499310800,6.545310791015625,0.02802865579724312,0.003590078093111515,-0.21475102007389069
1761379427509393000,6.555392822265625,0.010095993988215923,-0.012459994293749332,-0.2462863177061081
1761379427519475000,6.565474853515625,-0.0037060026079416275,-0.010679286904633045,-0.2508380711078644
1761379427529557000,6.575556884765625,-0.017707038670778275,0.019572090357542038,-0.21621856093406677
1761379427539639000,6.58563916015625,-0.020319538190960884,0.02598537877202034,-0.15808559954166412
1761379427549721000,6.59572119140625,-0.0196263175457716,0.017576713114976883,-0.09931256622076035
1761379427559803100,6.60580322265625,-0.019975990056991577,0.02513103559613228,-0.019148487597703934
1761379427569886000,6.615885986328125,-0.03624151274561882,0.0365820974111557,0.05677157640457153
1761379427579968000,6.625968017578125,-0.049476560205221176,0.0383000373840332,0.0848425105214119
1761379427590050000,6.636050048828125,-0.05066379904747009,0.02468409575521946,0.07275655120611191
1761379427600132000,6.646132080078125,-0.04660387337207794,0.0050902171060442924,0.03489423915743828
1761379427610214000,6.6562138671875,-0.04322218894958496,-0.014384148642420769,-0.006250533275306225
1761379427620296000,6.6662958984375,-0.034209027886390686,-0.019984226673841476,-0.03752240538597107
1761379427630379000,6.67637890625,-0.036667656153440475,-0.012991564348340034,-0.055194608867168427
1761379427640461000,6.6864609375,-0.040004581212997437,-0.001301945187151432,-0.04460756108164787
1761379427650542800,6.69654296875,-0.04706355184316635,0.007732296362519264,-0.025556638836860657
1761379427660625000,6.706625,-0.050453752279281616,0.007984335534274578,-0.02067786268889904
1761379427670707000,6.71670703125,-0.04596632719039917,0.009613923728466034,-0.03378034755587578
1761379427680789000,6.7267890625,-0.03895268589258194,0.012728197500109673,-0.04895585775375366
1761379427690871000,6.73687109375,-0.018095342442393303,0.011109528131783009,-0.07699575275182724
1761379427700953900,6.746953857421875,0.0015824520960450172,0.01270424947142601,-0.09785465896129608
1761379427711036000,6.757035888671875,0.0133589506149292,0.008243987336754799,-0.10124539583921432
1761379427721118000,6.767117919921875,0.02351224608719349,0.002070400398224592,-0.09521666914224625
1761379427731200000,6.777199951171875,0.023001184687018394,-0.011109849438071251,-0.09159556776285172
1761379427741282000,6.787281982421875,0.008674971759319305,-0.03826567158102989,-0.0788937509059906
1761379427751364000,6.797364013671875,-0.0035707755014300346,-0.046593111008405685,-0.07128110527992249
1761379427761446000,6.80744580078125,-0.019837260246276855,-0.023599259555339813,-0.06332505494356155
1761379427771529000,6.817529052734375,-0.0219680555164814,-0.026964962482452393,-0.08540239930152893
1761379427781611000,6.827611083984375,-0.012152002193033695,-0.0021846843883395195,-0.1219906285405159
1761379427791693000,6.837693115234375,0.004495950415730476,0.0034425747580826283,-0.1563001275062561
1761379427801775000,6.847775146484375,0.024640649557113647,-0.00768284872174263,-0.16948099434375763
1761379427811857000,6.85785693359375,0.027040421962738037,0.008289193734526634,-0.1388453245162964
1761379427821939000,6.86793896484375,0.014727438800036907,0.04205425828695297,-0.07804286479949951
1761379427832022000,6.87802197265625,0.000338112935423851,0.060482531785964966,-0.03126523643732071
1761379427842104000,6.88810400390625,-0.006735836621373892,0.06460260599851608,-0.02144778147339821
1761379427852185900,6.898185791015625,0.004421476274728775,0.05508473888039589,-0.04388304799795151
1761379427862268000,6.908267822265625,0.01174172479659319,0.04884994775056839,-0.07464930415153503
1761379427872350000,6.918349853515625,0.007558166049420834,0.012096460908651352,-0.09767632186412811
1761379427882432000,6.928431884765625,0.010200020857155323,0.018993154168128967,-0.08411456644535065
1761379427892514000,6.93851416015625,0.009231696836650372,0.014848476275801659,-0.04101131111383438
1761379427902596900,6.948596923828125,0.01348908618092537,0.026587817817926407,0.002414880320429802
1761379427912679000,6.958678955078125,0.010190494358539581,0.01354738138616085,0.03230007737874985
1761379427922761000,6.968760986328125,0.015568134374916553,-0.017427651211619377,0.026585925370454788
1761379427932843000,6.978843017578125,0.021312840282917023,-0.0430922694504261,0.0009370206389576197
1761379427942925000,6.988925048828125,0.02937885746359825,-0.07129129767417908,-0.011598888784646988
1761379427953007000,6.999007080078125,0.045781269669532776,-0.08468913286924362,0.004239196889102459
1761379427963089000,7.0090888671875,0.05409485846757889,-0.06545551121234894,0.056523971259593964
1761379427973172000,7.019171875,0.043839823454618454,-0.06975705176591873,0.0934433713555336
1761379427983254000,7.02925390625,0.013646012172102928,-0.0791916623711586,0.11794828623533249
1761379427993336000,7.039336181640625,-0.0197319183498621,-0.07338171452283859,0.127668559551239
1761379428003414500,7.04941455078125,-0.03974516689777374,-0.056355565786361694,0.09150078892707825
1761379428013496600,7.05949658203125,-0.035073984414339066,-0.04628615826368332,0.029445145279169083
1761379428023578600,7.06957861328125,-0.015285754576325417,-0.049772392958402634,-0.03442056104540825
1761379428033661700,7.07966162109375,0.014213547110557556,-0.038652364164590836,-0.0905219092965126
1761379428043743500,7.089743408203125,0.03927586227655411,-0.015684612095355988,-0.15874958038330078
1761379428053825500,7.099825439453125,0.05871187895536423,0.0132993683218956,-0.22807352244853973
1761379428063907600,7.109907470703125,0.07326986640691757,0.013167187571525574,-0.3134012818336487
1761379428073989600,7.11998974609375,0.08299226313829422,-0.002519364468753338,-0.3967355787754059
1761379428084071700,7.13007177734375,0.08398666977882385,-0.024256231263279915,-0.47029465436935425
1761379428094153700,7.14015380859375,0.07443870604038239,-0.03759467601776123,-0.513190746307373
1761379428104236500,7.150236572265625,0.0627269446849823,-0.024267110973596573,-0.5135078430175781
1761379428114318600,7.160318603515625,0.03935264050960541,0.02346765622496605,-0.4614507853984833
1761379428124400600,7.170400634765625,0.015552670694887638,0.0710655227303505,-0.36166641116142273
1761379428134482700,7.180482666015625,-0.003226078115403652,0.09961248189210892,-0.26223593950271606
1761379428144564700,7.190564697265625,-0.023266613483428955,0.11821992695331573,-0.18821558356285095
1761379428154646500,7.200646484375,-0.04148423299193382,0.11597514152526855,-0.1303751915693283
1761379428164729600,7.2107294921875,-0.04317648708820343,0.0874120444059372,-0.09860415756702423
1761379428174811600,7.220811767578125,-0.018828269094228745,0.05428950861096382,-0.07023536413908005
1761379428184893700,7.230893798828125,0.013627899810671806,0.02277510240674019,-0.04922312870621681
1761379428194975500,7.2409755859375,0.03797851502895355,-0.018410418182611465,-0.03998702019453049
1761379428205057500,7.2510576171875,0.04035958647727966,-0.030555259436368942,-0.029000166803598404
1761379428215139600,7.2611396484375,0.027654709294438362,-0.04305214434862137,-0.0040687196888029575
1761379428225221600,7.2712216796875,0.020045973360538483,-0.06668344885110855,0.027514703571796417
1761379428235304700,7.2813046875,0.01160428673028946,-0.08030125498771667,0.051872506737709045
1761379428245386500,7.291386474609375,0.001035246066749096,-0.0888620913028717,0.07927452027797699
1761379428255468500,7.301468505859375,0.004582843743264675,-0.08586523681879044,0.10491915792226791
1761379428265550600,7.311550537109375,0.008613760583102703,-0.06639415770769119,0.13125638663768768
1761379428275632600,7.321632568359375,0.0052461931481957436,-0.03599071502685547,0.1515028029680252
1761379428285714700,7.331714599609375,0.006637805141508579,-0.017632249742746353,0.15806855261325836
1761379428295797500,7.341797607421875,0.014503718353807926,0.001189106609672308,0.14763827621936798
1761379428305879600,7.351879638671875,0.02227579802274704,0.007695025764405727,0.12422223389148712
1761379428315961600,7.361961669921875,0.0235341414809227,0.004498966038227081,0.08816862851381302
1761379428326043600,7.372043701171875,0.030931828543543816,-0.0006934870034456253,0.05251092463731766
1761379428336125700,7.382125732421875,0.02994273044168949,0.010335195809602737,0.03498120233416557
1761379428346207700,7.392207763671875,0.017102587968111038,0.01719261333346367,0.04285941645503044
1761379428356289500,7.40228955078125,-0.0034114765003323555,0.02477116882801056,0.057513460516929626
1761379428366372600,7.41237255859375,-0.023619994521141052,0.015357939526438713,0.05898825824260712
1761379428376454700,7.42245458984375,-0.039102811366319656,0.020019803196191788,0.0501691997051239
1761379428386536700,7.43253662109375,-0.05231889337301254,0.02312467247247696,0.025716494768857956
1761379428396618500,7.442618408203125,-0.053958069533109665,0.024620037525892258,-0.0041631069034338
1761379428406700500,7.452700439453125,-0.04491489380598068,0.02977815642952919,-0.021337473765015602
1761379428416782600,7.462782470703125,-0.03809986636042595,0.023146886378526688,-0.0217574555426836
1761379428426864600,7.47286474609375,-0.022048935294151306,0.012284510768949986,-0.0046089403331279755
1761379428436947700,7.48294775390625,-0.001080801710486412,-0.009962472133338451,0.026199571788311005
1761379428447029500,7.493029541015625,0.012830794788897038,-0.034347351640462875,0.05872086435556412
1761379428457111600,7.503111572265625,0.016158413141965866,-0.042700354009866714,0.08018594235181808
1761379428467193600,7.513193603515625,0.012474773451685905,-0.03955480828881264,0.08980698138475418
1761379428477275600,7.523275634765625,-0.00020000897347927094,-0.024332445114850998,0.09218944609165192
1761379428487357700,7.533357666015625,-0.008736792020499706,-0.02341761812567711,0.08162037283182144
1761379428497440500,7.5434404296875,-0.012827673926949501,-0.029699217528104782,0.06311299651861191
1761379428507522600,7.5535224609375,-0.018401138484477997,-0.010937588289380074,0.0692148357629776
1761379428517604600,7.5636044921875,-0.01607966236770153,-0.0013941507786512375,0.0822392925620079
1761379428527686700,7.573686767578125,-0.00929353665560484,-0.004915217868983746,0.08563712239265442
1761379428537768700,7.583768798828125,-0.008534269407391548,-0.01432363223284483,0.07139880210161209
1761379428547850500,7.5938505859375,-0.0194921363145113,-0.024751920253038406,0.0433022677898407
1761379428557932500,7.6039326171875,-0.036844491958618164,-0.03510922193527222,0.03086690418422222
1761379428568015600,7.614015625,-0.04951706528663635,-0.03199458122253418,0.03926978260278702
1761379428578097700,7.62409765625,-0.05762825161218643,-0.04408879578113556,0.03307740017771721
1761379428588179700,7.6341796875,-0.0631769523024559,-0.055249303579330444,0.022296125069260597
1761379428598261500,7.644261474609375,-0.0729997530579567,-0.07573806494474411,-0.0022425067145377398
1761379428608343600,7.654343505859375,-0.07531122863292694,-0.10631589591503143,-0.03900709003210068
1761379428618425600,7.664425537109375,-0.07322916388511658,-0.13179755210876465,-0.08699139207601547
1761379428628509000,7.674509033203125,-0.07920313626527786,-0.11732882261276245,-0.09079574793577194
1761379428638590500,7.684590576171875,-0.08822458982467651,-0.10916915535926819,-0.06542647629976273
1761379428648672500,7.694672607421875,-0.07761253416538239,-0.10585451126098633,-0.019405044615268707
1761379428658754600,7.704754638671875,-0.049447737634181976,-0.11713007092475891,0.010919304564595222
1761379428668836600,7.714836669921875,-0.03291311115026474,-0.15323111414909363,0.00739958044141531
1761379428678918700,7.724918701171875,-0.024874893948435783,-0.16786278784275055,-0.011309392750263214
1761379428689000700,7.735000732421875,-0.02185710519552231,-0.19737623631954193,-0.0363050140440464
1761379428699083800,7.745083740234375,-0.014334207400679588,-0.1946377158164978,-0.054488811641931534
1761379428709165600,7.75516552734375,0.030019614845514297,-0.23745188117027283,-0.05266896262764931
1761379428719247600,7.76524755859375,0.08648236095905304,-0.2418373078107834,-0.05784241855144501
1761379428729329700,7.77532958984375,0.0996050238609314,-0.18284094333648682,-0.08050047606229782
1761379428739411700,7.78541162109375,0.09601961076259613,-0.15606099367141724,-0.09681074321269989
1761379428749493500,7.795493408203125,0.08242324739694595,-0.14040814340114594,-0.0960451290011406
1761379428759576800,7.805576904296875,0.09412305057048798,-0.1387133002281189,-0.053438540548086166
1761379428769659000,7.815658935546875,0.10271352529525757,-0.1380518525838852,-0.004881465807557106
1761379428779741000,7.825740966796875,0.10022266954183578,-0.13830724358558655,0.030283445492386818
1761379428789822500,7.835822509765625,0.13371062278747559,-0.19249559938907623,0.037420231848955154
1761379428799904500,7.845904541015625,0.19380192458629608,-0.2504803538322449,0.030711999163031578
1761379428809986600,7.855986572265625,0.23070773482322693,-0.2019418329000473,0.03940508887171745
1761379428820068600,7.866068603515625,0.3765608072280884,-0.295376718044281,0.021196790039539337
1761379428830151700,7.876151611328125,0.49165958166122437,-0.41228747367858887,-0.04852009564638138
1761379428840233700,7.886233642578125,0.5466610789299011,-0.4483110010623932,-0.08396357297897339
1761379428850315800,7.896315673828125,0.5383277535438538,-0.4403041899204254,-0.11286260187625885
1761379428860397600,7.9063974609375,0.48397397994995117,-0.3730042576789856,-0.0980202704668045
1761379428870479600,7.916479736328125,0.3950820863246918,-0.2754141688346863,-0.0684230849146843
1761379428880561700,7.926561767578125,0.29472485184669495,-0.20310240983963013,-0.06951232254505157
1761379428890644700,7.936644775390625,0.15362036228179932,-0.04965129494667053,-0.06419557332992554
1761379428900726800,7.946726806640625,0.09010636806488037,0.06955499202013016,-0.06035502627491951
1761379428910808800,7.956808837890625,0.12135172635316849,0.07897946238517761,-0.048902831971645355
1761379428920891000,7.966890869140625,0.09462103992700577,0.09619040787220001,0.003341732081025839
1761379428930972700,7.97697265625,0.03675497695803642,0.13403744995594025,0.056486450135707855
1761379428941054500,7.987054443359375,-0.0021820366382598877,0.15361887216567993,0.08383817970752716
1761379428951136500,7.997136474609375,-0.022961735725402832,0.17214982211589813,0.08886218816041946
1761379428961219800,8.0072197265625,-0.04154793918132782,0.17860451340675354,0.06244789436459541
1761379428971302000,8.017302001953125,-0.05438356101512909,0.17362743616104126,0.026865188032388687
1761379428981383700,8.0273837890625,-0.06642850488424301,0.1486605703830719,-0.0060293786227703094
1761379428991465700,8.0374658203125,-0.06834950298070908,0.12198498100042343,-0.042830292135477066
1761379429001547500,8.047547607421874,-0.05855919420719147,0.11958041787147522,-0.06965497881174088
1761379429011629600,8.057629638671875,-0.03671133145689964,0.10921511054039001,-0.07747248560190201
1761379429021712600,8.067712646484376,-0.021150216460227966,0.09352829307317734,-0.0735083743929863
1761379429031794400,8.07779443359375,-0.017885306850075722,0.09651079773902893,-0.057801753282547
1761379429041876500,8.08787646484375,-0.017788900062441826,0.10474236309528351,-0.03616490215063095
1761379429051958500,8.09795849609375,-0.005473234225064516,0.09149190783500671,-0.01949581690132618
1761379429062040600,8.10804052734375,0.012005091644823551,0.07238718867301941,-0.007378699723631144
1761379429072122600,8.11812255859375,0.026755154132843018,0.08538085967302322,-0.0008980713319033384
1761379429082204700,8.12820458984375,0.02928515523672104,0.11432462185621262,-0.0017164607997983694
1761379429092287500,8.13828759765625,0.03612474724650383,0.14713649451732635,-0.014900020323693752
1761379429102369500,8.14836962890625,0.041686493903398514,0.19100727140903473,-0.03783968836069107
1761379429112451600,8.15845166015625,0.041117146611213684,0.23511773347854614,-0.05680542439222336
1761379429122533600,8.16853369140625,0.017437385395169258,0.22023731470108032,-0.08150863647460938
1761379429132615700,8.17861572265625,-0.00762117700651288,0.12401564419269562,-0.15532274544239044
1761379429142697500,8.188697509765625,-0.04197089374065399,0.08923768997192383,-0.19181497395038605
1761379429152779500,8.198779541015625,-0.056847043335437775,0.04533804953098297,-0.15626350045204163
1761379429162862600,8.208862548828124,-0.04538986086845398,-0.011614714749157429,-0.12066583335399628
1761379429172944600,8.218944580078125,-0.009993991814553738,-0.07045766711235046,-0.1061067134141922
1761379429183026400,8.2290263671875,0.027073482051491737,-0.09888984262943268,-0.11345277726650238
1761379429193108500,8.2391083984375,0.059356689453125,-0.12413276731967926,-0.10475343465805054
1761379429203190500,8.2491904296875,0.07665738463401794,-0.09843432903289795,-0.018592718988656998
1761379429213272600,8.2592724609375,0.0616430789232254,-0.044886376708745956,0.0941210687160492
