time,seconds_elapsed,z,y,x
1761392287984984600,0.071984619140625,-0.9738922119140625,-0.282073974609375,0.1464996337890625
1761392287995067600,0.082067626953125,-0.9471893310546875,-0.2689666748046875,0.1261444091796875
1761392288005149700,0.092149658203125,-0.946258544921875,-0.25555419921875,0.1241302490234375
1761392288015231500,0.1022314453125,-0.8970794677734375,-0.2535552978515625,0.1216278076171875
1761392288025313500,0.1123134765625,-0.8602294921875,-0.252838134765625,0.11444091796875
1761392288035396600,0.122396728515625,-0.8399200439453125,-0.2745819091796875,0.117584228515625
1761392288045478700,0.132478759765625,-0.8332977294921875,-0.29290771484375,0.1309661865234375
1761392288055560700,0.142560791015625,-0.86328125,-0.3009490966796875,0.1427001953125
1761392288065642500,0.152642578125,-0.8711395263671875,-0.314605712890625,0.151824951171875
1761392288075725600,0.1627255859375,-0.803436279296875,-0.3421173095703125,0.1648406982421875
1761392288085807600,0.1728076171875,-0.72882080078125,-0.39007568359375,0.17291259765625
1761392288095889700,0.1828896484375,-0.7200469970703125,-0.441253662109375,0.1611480712890625
1761392288105971500,0.192971435546875,-0.7692108154296875,-0.474578857421875,0.1320648193359375
1761392288116054500,0.203054443359375,-0.8534698486328125,-0.449798583984375,0.14825439453125
1761392288126136600,0.213136474609375,-1.008880615234375,-0.412567138671875,0.2143096923828125
1761392288136218600,0.223218505859375,-1.1197052001953125,-0.447357177734375,0.27117919921875
1761392288146300700,0.23330078125,-1.177032470703125,-0.401275634765625,0.28070068359375
1761392288156383500,0.243383544921875,-1.077239990234375,-0.3504180908203125,0.259674072265625
1761392288166465500,0.253465576171875,-0.98193359375,-0.288787841796875,0.220703125
1761392288176547600,0.263547607421875,-0.96038818359375,-0.25396728515625,0.17535400390625
1761392288186629600,0.273629638671875,-0.913604736328125,-0.2411346435546875,0.1503448486328125
1761392288196712400,0.28371240234375,-0.8568878173828125,-0.27056884765625,0.1240081787109375
1761392288206794500,0.29379443359375,-0.8235931396484375,-0.308319091796875,0.1146697998046875
1761392288216876500,0.30387646484375,-0.7784576416015625,-0.349884033203125,0.08160400390625
1761392288226958600,0.31395849609375,-0.750701904296875,-0.3905029296875,0.026275634765625
1761392288237041400,0.32404150390625,-0.7267608642578125,-0.383758544921875,-0.0444488525390625
1761392288247123500,0.33412353515625,-0.6739044189453125,-0.349090576171875,-0.1393890380859375
1761392288257205500,0.34420556640625,-0.633453369140625,-0.3219451904296875,-0.18695068359375
1761392288267287600,0.35428759765625,-0.6204681396484375,-0.31744384765625,-0.1819610595703125
1761392288277370600,0.36437060546875,-0.638427734375,-0.334442138671875,-0.1480560302734375
1761392288287452700,0.37445263671875,-0.645721435546875,-0.344268798828125,-0.0800933837890625
1761392288297534500,0.384534423828125,-0.5959014892578125,-0.34844970703125,0.000823974609375
1761392288307616500,0.394616455078125,-0.547882080078125,-0.35345458984375,0.0777740478515625
1761392288317699600,0.404699462890625,-0.6132659912109375,-0.3895416259765625,0.1245574951171875
1761392288327781600,0.41478173828125,-0.696014404296875,-0.4594573974609375,0.1241302490234375
1761392288337863700,0.42486376953125,-0.708282470703125,-0.490875244140625,0.084564208984375
1761392288347946800,0.43494677734375,-0.75079345703125,-0.508514404296875,0.0427703857421875
1761392288358028500,0.445028564453125,-0.755706787109375,-0.4981689453125,-0.0003814697265625
1761392288368110600,0.455110595703125,-0.7406158447265625,-0.4862518310546875,-0.01629638671875
1761392288378192600,0.465192626953125,-0.7546234130859375,-0.47808837890625,-0.00439453125
1761392288388275700,0.475275634765625,-0.7740936279296875,-0.4703216552734375,0.038055419921875
1761392288398357500,0.485357421875,-0.7953948974609375,-0.4580841064453125,0.0909881591796875
1761392288408439600,0.495439453125,-0.8137664794921875,-0.4535064697265625,0.1124725341796875
1761392288418521600,0.505521484375,-0.8412628173828125,-0.4705352783203125,0.0957794189453125
1761392288428604700,0.515604736328125,-0.88641357421875,-0.4545745849609375,-0.0095062255859375
1761392288438686700,0.525686767578125,-0.9817047119140625,-0.400604248046875,-0.0382232666015625
1761392288448768500,0.5357685546875,-1.0688934326171875,-0.3585662841796875,0.01312255859375
1761392288458850600,0.5458505859375,-1.0991363525390625,-0.341461181640625,0.0203704833984375
1761392288468933600,0.55593359375,-1.1244659423828125,-0.361358642578125,0.0099334716796875
1761392288479015700,0.566015625,-1.0966949462890625,-0.403167724609375,-0.0088958740234375
1761392288489097500,0.576097412109375,-1.0589599609375,-0.4701690673828125,0.01611328125
1761392288499179500,0.586179443359375,-1.052825927734375,-0.53338623046875,0.083709716796875
1761392288509262600,0.5962626953125,-1.015472412109375,-0.5802001953125,0.128143310546875
1761392288519344600,0.6063447265625,-0.97503662109375,-0.635650634765625,0.1284942626953125
1761392288529426700,0.6164267578125,-0.864593505859375,-0.6832427978515625,0.0725555419921875
1761392288539508500,0.626508544921875,-0.8428802490234375,-0.706146240234375,0.0330963134765625
1761392288549591600,0.636591552734375,-0.805755615234375,-0.6755828857421875,0.0308685302734375
1761392288559673600,0.646673583984375,-0.75970458984375,-0.5969696044921875,-0.0045013427734375
1761392288569755600,0.656755615234375,-0.753814697265625,-0.6072845458984375,-0.0235443115234375
1761392288579838500,0.66683837890625,-0.7790985107421875,-0.7012481689453125,-0.03277587890625
1761392288589920500,0.67692041015625,-0.817657470703125,-0.8059539794921875,-0.0618438720703125
1761392288600002600,0.68700244140625,-0.8798065185546875,-0.8724822998046875,0.0059967041015625
1761392288610084600,0.697084716796875,-0.95379638671875,-0.9245758056640625,0.1626739501953125
1761392288620167400,0.70716748046875,-0.948974609375,-1.0353851318359375,0.3439483642578125
1761392288630249500,0.71724951171875,-0.8215484619140625,-1.3391571044921875,0.544525146484375
1761392288640331500,0.72733154296875,-0.858612060546875,-1.586761474609375,0.596405029296875
1761392288650413600,0.73741357421875,-0.9965057373046875,-1.76165771484375,0.70416259765625
1761392288660496400,0.747496337890625,-1.2622528076171875,-1.79583740234375,0.752777099609375
1761392288670578400,0.757578369140625,-1.5077056884765625,-1.537872314453125,0.6277923583984375
1761392288680660500,0.767660400390625,-1.7248992919921875,-1.3354339599609375,0.5101776123046875
1761392288690742500,0.777742431640625,-1.905914306640625,-1.3886566162109375,0.4670257568359375
1761392288700825600,0.78782568359375,-2.0940704345703125,-1.4291839599609375,0.47088623046875
1761392288710907600,0.79790771484375,-2.2982635498046875,-1.33837890625,0.4534759521484375
1761392288720989400,0.807989501953125,-2.3668975830078125,-1.1818389892578125,0.3592071533203125
1761392288731071500,0.818071533203125,-2.3609466552734375,-1.03350830078125,0.2580718994140625
1761392288741154600,0.828154541015625,-2.2729034423828125,-0.88153076171875,0.1719207763671875
1761392288751236600,0.838236572265625,-2.0976409912109375,-0.6942596435546875,0.0820465087890625
1761392288761318700,0.848318603515625,-1.917388916015625,-0.526458740234375,-0.0008087158203125
1761392288771401700,0.858401611328125,-1.7444915771484375,-0.3615875244140625,-0.0735931396484375
1761392288781483800,0.86848388671875,-1.5608978271484375,-0.1449737548828125,-0.21136474609375
1761392288791565600,0.878565673828125,-1.330718994140625,0.079437255859375,-0.387908935546875
1761392288801647600,0.888647705078125,-1.0457000732421875,0.280487060546875,-0.5323028564453125
1761392288811730700,0.898730712890625,-0.809478759765625,0.4545135498046875,-0.580718994140625
1761392288821812700,0.908812744140625,-0.601165771484375,0.5118255615234375,-0.5322265625
1761392288831891200,0.91889111328125,-0.4716796875,0.45513916015625,-0.4584808349609375
1761392288841973200,0.92897314453125,-0.365386962890625,0.456573486328125,-0.4322509765625
1761392288852056300,0.939056396484375,-0.24151611328125,0.5419158935546875,-0.4705047607421875
1761392288862138400,0.949138427734375,-0.18072509765625,0.5887298583984375,-0.4908447265625
1761392288872220200,0.95922021484375,-0.1423492431640625,0.5858917236328125,-0.490325927734375
1761392288882303200,0.96930322265625,-0.1091766357421875,0.574737548828125,-0.4969482421875
1761392288892385300,0.97938525390625,-0.0854644775390625,0.5512237548828125,-0.5059814453125
1761392288902467300,0.98946728515625,-0.08245849609375,0.53240966796875,-0.546417236328125
1761392288912549400,0.99954931640625,-0.0558319091796875,0.5009613037109375,-0.5707855224609375
1761392288922632200,1.009632080078125,-0.0025787353515625,0.4441986083984375,-0.56292724609375
1761392288932714200,1.01971435546875,0.006072998046875,0.4373779296875,-0.572479248046875
1761392288942796300,1.02979638671875,-0.0348663330078125,0.423431396484375,-0.594024658203125
1761392288952878300,1.03987841796875,-0.09490966796875,0.4084625244140625,-0.6234283447265625
1761392288962961200,1.049961181640625,-0.1803436279296875,0.406951904296875,-0.6981201171875
1761392288973043200,1.060043212890625,-0.229736328125,0.3685302734375,-0.7796478271484375
1761392288983125200,1.070125244140625,-0.2886810302734375,0.2842864990234375,-0.86029052734375
1761392288993208000,1.0802080078125,-0.3250732421875,0.280487060546875,-0.993682861328125
1761392289003290000,1.0902900390625,-0.34161376953125,0.25506591796875,-1.0890960693359375
1761392289013372200,1.1003720703125,-0.352630615234375,0.1892852783203125,-1.1499481201171875
1761392289023454200,1.1104541015625,-0.3369598388671875,0.14202880859375,-1.187164306640625
1761392289033537000,1.120537109375,-0.38427734375,-0.0491943359375,-1.181549072265625
1761392289043619000,1.130619140625,-0.6141815185546875,-0.249114990234375,-1.206512451171875
1761392289053701000,1.140701171875,-1.082489013671875,-0.380859375,-1.2411346435546875
1761392289063783200,1.150783203125,-1.7116851806640625,-0.430999755859375,-1.26824951171875
1761392289073866200,1.1608662109375,-2.3614501953125,-0.428131103515625,-1.2780914306640625
1761392289083948000,1.170947998046875,-2.7998199462890625,-0.48614501953125,-1.200958251953125
1761392289094030000,1.181030029296875,-2.944366455078125,-0.6810150146484375,-0.92926025390625
1761392289104113200,1.191113037109375,-3.04193115234375,-0.98162841796875,-0.6210479736328125
1761392289114195200,1.2011953125,-3.01385498046875,-1.205078125,-0.3588714599609375
1761392289124277000,1.211277099609375,-3.0229034423828125,-1.3490753173828125,-0.2177581787109375
1761392289134359000,1.221359130859375,-2.95648193359375,-1.4721527099609375,-0.1384735107421875
1761392289144442400,1.2314423828125,-2.7729949951171875,-1.5802001953125,-0.04962158203125
1761392289154524200,1.241524169921875,-2.539337158203125,-1.6339111328125,0.0283660888671875
1761392289164606200,1.251606201171875,-2.2980804443359375,-1.635284423828125,0.0709686279296875
1761392289174689300,1.261689208984375,-2.0389862060546875,-1.5919647216796875,0.0967254638671875
1761392289184771300,1.271771240234375,-1.721527099609375,-1.567535400390625,0.1388702392578125
1761392289194853400,1.281853271484375,-1.4015045166015625,-1.589019775390625,0.241729736328125
1761392289204935400,1.291935302734375,-1.11468505859375,-1.6169281005859375,0.392303466796875
1761392289215018200,1.302018310546875,-0.938507080078125,-1.6146240234375,0.582611083984375
1761392289225100300,1.312100341796875,-0.9238433837890625,-1.602203369140625,0.790924072265625
1761392289235182300,1.322182373046875,-0.992584228515625,-1.5062103271484375,0.93731689453125
1761392289245264400,1.332264404296875,-1.096649169921875,-1.3870697021484375,1.0080108642578125
1761392289255347200,1.34234716796875,-1.2035369873046875,-1.2940521240234375,1.0308990478515625
1761392289265429200,1.35242919921875,-1.274200439453125,-1.2167205810546875,0.9771575927734375
1761392289275511300,1.36251123046875,-1.3070526123046875,-1.1377105712890625,0.88177490234375
1761392289285594000,1.372593994140625,-1.2994232177734375,-1.07470703125,0.7600860595703125
1761392289295676200,1.38267626953125,-1.31732177734375,-0.9807281494140625,0.6358184814453125
1761392289305758200,1.39275830078125,-1.419891357421875,-0.8401336669921875,0.48565673828125
1761392289315840300,1.40284033203125,-1.56451416015625,-0.6583099365234375,0.3164825439453125
1761392289325923300,1.41292333984375,-1.676177978515625,-0.4267120361328125,0.1246185302734375
1761392289336005000,1.423005126953125,-1.756378173828125,-0.175750732421875,-0.07525634765625
1761392289346087200,1.433087158203125,-1.78619384765625,0.03375244140625,-0.2410430908203125
1761392289356170200,1.443170166015625,-1.7655792236328125,0.0396575927734375,-0.2526092529296875
1761392289366252300,1.453252197265625,-1.6981048583984375,-0.0786895751953125,-0.1593170166015625
1761392289376334000,1.463333984375,-1.77886962890625,-0.228607177734375,-0.1370391845703125
1761392289386416000,1.473416015625,-2.0925750732421875,-0.35467529296875,-0.2786407470703125
1761392289396499200,1.483499267578125,-2.530426025390625,-0.1929168701171875,-0.5413818359375
1761392289406581200,1.493581298828125,-2.9702301025390625,0.00067138671875,-0.9134063720703125
1761392289416663300,1.503663330078125,-3.2207794189453125,0.1468963623046875,-1.2580108642578125
1761392289426746000,1.51374609375,-3.2268829345703125,0.412139892578125,-1.6608734130859375
1761392289436828200,1.523828125,-2.8700408935546875,0.690032958984375,-1.9471435546875
1761392289446910200,1.53391015625,-2.285247802734375,0.7470703125,-1.9467010498046875
1761392289456993000,1.543992919921875,-1.7337799072265625,0.7715301513671875,-1.7300262451171875
1761392289467075000,1.554074951171875,-1.2868499755859375,0.839324951171875,-1.53460693359375
1761392289477157000,1.5641572265625,-0.98321533203125,0.918121337890625,-1.39678955078125
1761392289487239200,1.5742392578125,-0.790679931640625,0.9539794921875,-1.2807769775390625
1761392289497322200,1.584322265625,-0.681915283203125,0.95428466796875,-1.214599609375
1761392289507404000,1.594404052734375,-0.5392303466796875,0.9399261474609375,-1.1818084716796875
1761392289517486000,1.604486083984375,-0.3089752197265625,0.911224365234375,-1.157623291015625
1761392289527569400,1.6145693359375,-0.067291259765625,0.805419921875,-1.0998382568359375
1761392289537651200,1.624651123046875,0.1417999267578125,0.68060302734375,-1.0099639892578125
1761392289547733200,1.634733154296875,0.26910400390625,0.614532470703125,-0.966888427734375
1761392289557815300,1.644815185546875,0.3430023193359375,0.50732421875,-0.91845703125
1761392289567898400,1.6548984375,0.3935089111328125,0.444091796875,-0.88623046875
1761392289577980200,1.664980224609375,0.4229583740234375,0.40234375,-0.8832244873046875
1761392289588062200,1.675062255859375,0.421600341796875,0.307464599609375,-0.865997314453125
1761392289598145300,1.685145263671875,0.4251251220703125,0.1841888427734375,-0.8356170654296875
1761392289608227300,1.695227294921875,0.452880859375,0.0472259521484375,-0.8414306640625
1761392289618309400,1.705309326171875,0.5062255859375,-0.0519256591796875,-0.8583221435546875
1761392289628391200,1.71539111328125,0.495635986328125,-0.1246795654296875,-0.8849029541015625
1761392289638474200,1.72547412109375,0.4109649658203125,-0.18072509765625,-0.895965576171875
1761392289648556300,1.735556396484375,0.1644134521484375,-0.27532958984375,-0.8826904296875
1761392289658638300,1.745638427734375,-0.1492919921875,-0.37628173828125,-0.9019775390625
1761392289668721200,1.75572119140625,-0.3644256591796875,-0.4848480224609375,-0.927703857421875
1761392289678803200,1.76580322265625,-0.5394134521484375,-0.6714935302734375,-0.8012237548828125
1761392289688885200,1.77588525390625,-0.737762451171875,-1.00811767578125,-0.46148681640625
1761392289698968000,1.785968017578125,-1.252410888671875,-1.32122802734375,-0.178009033203125
1761392289709050000,1.796050048828125,-1.9934844970703125,-1.5745391845703125,-0.0247039794921875
1761392289719132200,1.806132080078125,-2.7322540283203125,-1.77874755859375,-0.0032958984375
1761392289729214200,1.816214111328125,-3.3658447265625,-1.7930755615234375,-0.0820465087890625
1761392289739297000,1.826297119140625,-3.8320770263671875,-1.7164306640625,-0.123199462890625
1761392289749379000,1.836379150390625,-3.908966064453125,-1.7545928955078125,-0.0393524169921875
1761392289759461000,1.846461181640625,-3.6745147705078125,-1.8824310302734375,0.1929473876953125
1761392289769544200,1.856544189453125,-3.277069091796875,-1.9575653076171875,0.3954010009765625
1761392289779626200,1.866626220703125,-2.91094970703125,-1.8932037353515625,0.4511566162109375
1761392289789708000,1.8767080078125,-2.6529388427734375,-1.73712158203125,0.3805694580078125
1761392289799790000,1.8867900390625,-2.42608642578125,-1.523834228515625,0.2568511962890625
1761392289809873200,1.896873046875,-2.1562347412109375,-1.315948486328125,0.129852294921875
1761392289819955200,1.906955078125,-1.8476104736328125,-1.076995849609375,-0.0128631591796875
1761392289830038000,1.9170380859375,-1.52630615234375,-0.88348388671875,-0.12908935546875
1761392289840121000,1.92712109375,-1.186248779296875,-0.6771392822265625,-0.2488555908203125
1761392289850203100,1.937203125,-0.8729705810546875,-0.47869873046875,-0.35198974609375
1761392289860285000,1.947284912109375,-0.5879364013671875,-0.3502960205078125,-0.387176513671875
1761392289870368000,1.957367919921875,-0.321044921875,-0.23382568359375,-0.3824615478515625
1761392289880450000,1.967449951171875,-0.120391845703125,-0.1129150390625,-0.3658294677734375
1761392289890532000,1.977531982421875,-0.0301666259765625,0.001373291015625,-0.355743408203125
1761392289900614100,1.9876142578125,-0.0052337646484375,0.1295928955078125,-0.3746795654296875
1761392289910697000,1.997697021484375,0.0167694091796875,0.2691192626953125,-0.400482177734375
1761392289920779000,2.007779052734375,0.0301055908203125,0.4117889404296875,-0.4434967041015625
1761392289930861000,2.017861083984375,0.0808563232421875,0.538055419921875,-0.4783935546875
1761392289940944000,2.02794384765625,0.1356201171875,0.673187255859375,-0.533477783203125
1761392289951026000,2.03802587890625,0.2001495361328125,0.773681640625,-0.5865325927734375
1761392289961108000,2.04810791015625,0.226715087890625,0.8629150390625,-0.6675262451171875
1761392289971191000,2.05819091796875,0.19732666015625,0.9549560546875,-0.776123046875
1761392289981272800,2.06827294921875,0.109344482421875,1.0575103759765625,-0.9104461669921875
1761392289991355000,2.07835498046875,-0.0107574462890625,1.137542724609375,-1.0292510986328125
1761392290001438000,2.08843798828125,-0.2444000244140625,1.154022216796875,-1.130462646484375
1761392290011520000,2.09852001953125,-0.5791015625,1.194793701171875,-1.288421630859375
1761392290021601800,2.108601806640625,-1.087493896484375,0.9716644287109375,-1.328704833984375
1761392290031683800,2.118683837890625,-1.656585693359375,0.66650390625,-1.41033935546875
1761392290041767000,2.128766845703125,-1.9274444580078125,0.614044189453125,-1.6471099853515625
1761392290051849000,2.138848876953125,-1.933624267578125,0.5902862548828125,-1.66973876953125
1761392290061931000,2.148930908203125,-1.8448638916015625,0.4064788818359375,-1.2627410888671875
1761392290072014000,2.15901416015625,-1.7873992919921875,0.057647705078125,-0.670745849609375
1761392290082096000,2.16909619140625,-1.8327178955078125,-0.283203125,-0.287139892578125
1761392290092178200,2.17917822265625,-2.0037841796875,-0.57269287109375,-0.137969970703125
1761392290102261000,2.189260986328125,-2.1102294921875,-0.7939605712890625,-0.167755126953125
1761392290112343000,2.199343017578125,-2.0662689208984375,-0.9124908447265625,-0.3289794921875
1761392290122425000,2.209425048828125,-1.96636962890625,-1.0739898681640625,-0.4993743896484375
1761392290132508200,2.219508056640625,-1.932342529296875,-1.28668212890625,-0.6341705322265625
1761392290142590000,2.22958984375,-1.909027099609375,-1.38739013671875,-0.7633514404296875
1761392290152672000,2.239672119140625,-1.852630615234375,-1.3463134765625,-0.8276824951171875
1761392290162754000,2.249754150390625,-1.797332763671875,-1.28204345703125,-0.691802978515625
1761392290172837000,2.259837158203125,-1.6494293212890625,-1.207122802734375,-0.361083984375
1761392290182919000,2.2699189453125,-1.4023590087890625,-1.1414642333984375,0.057342529296875
1761392290193001000,2.2800009765625,-1.1864471435546875,-1.0433349609375,0.4524993896484375
1761392290203084000,2.290083984375,-1.0363006591796875,-0.95587158203125,0.7542877197265625
1761392290213166000,2.300166015625,-0.9324188232421875,-0.912017822265625,0.944488525390625
1761392290223248100,2.310248046875,-0.85760498046875,-0.909423828125,1.0485687255859375
1761392290233331000,2.3203310546875,-0.7942962646484375,-0.9075469970703125,1.0745697021484375
1761392290243413000,2.3304130859375,-0.723907470703125,-0.8803863525390625,1.0380401611328125
1761392290253495000,2.3404951171875,-0.676727294921875,-0.89141845703125,0.987030029296875
1761392290263577000,2.3505771484375,-0.6453704833984375,-0.9579315185546875,0.928802490234375
1761392290273660000,2.360659912109375,-0.6664276123046875,-1.116729736328125,0.8987579345703125
1761392290283742000,2.370741943359375,-0.7666778564453125,-1.3623504638671875,0.91180419921875
1761392290293824000,2.380823974609375,-0.9836578369140625,-1.6278533935546875,0.9162139892578125
1761392290303906800,2.39090673828125,-1.362396240234375,-1.9128265380859375,0.87225341796875
1761392290313988900,2.40098876953125,-1.715423583984375,-2.155364990234375,0.77783203125
1761392290324071000,2.41107080078125,-2.0157623291015625,-2.3047637939453125,0.620147705078125
1761392290334154000,2.421154052734375,-2.2801513671875,-2.25482177734375,0.4328460693359375
1761392290344235800,2.43123583984375,-2.5627899169921875,-2.1482086181640625,0.3023223876953125
1761392290354317800,2.44131787109375,-2.8145294189453125,-2.0533905029296875,0.21331787109375
1761392290364401200,2.451401123046875,-2.95361328125,-1.8367462158203125,0.10595703125
1761392290374483200,2.461483154296875,-2.94146728515625,-1.54498291015625,0.0252838134765625
1761392290384565000,2.47156494140625,-2.81597900390625,-1.2822418212890625,0.018310546875
1761392290394648000,2.48164794921875,-2.58453369140625,-1.060455322265625,0.035888671875
1761392290404730000,2.491730224609375,-2.3182830810546875,-0.82476806640625,0.007110595703125
1761392290414812200,2.501812255859375,-2.0572052001953125,-0.5949249267578125,-0.0599212646484375
1761392290424894200,2.511894287109375,-1.792633056640625,-0.3939361572265625,-0.155792236328125
1761392290434977000,2.52197705078125,-1.528106689453125,-0.2080230712890625,-0.2504730224609375
1761392290445059000,2.53205908203125,-1.2948455810546875,-0.0528564453125,-0.3285980224609375
1761392290455141000,2.54214111328125,-1.0925445556640625,0.0547637939453125,-0.399261474609375
1761392290465224000,2.552223876953125,-0.9167022705078125,0.141082763671875,-0.461212158203125
1761392290475306000,2.562305908203125,-0.7870025634765625,0.194580078125,-0.502593994140625
1761392290485388000,2.572387939453125,-0.67413330078125,0.2400360107421875,-0.5396575927734375
1761392290495471000,2.58247119140625,-0.565643310546875,0.2783203125,-0.5615081787109375
1761392290505553000,2.592552978515625,-0.4432220458984375,0.3016204833984375,-0.575836181640625
1761392290515635000,2.602635009765625,-0.3198394775390625,0.3165740966796875,-0.5775909423828125
1761392290525718000,2.612718017578125,-0.2186279296875,0.359405517578125,-0.5917205810546875
1761392290535800000,2.622800048828125,-0.1360015869140625,0.42388916015625,-0.61688232421875
1761392290545882000,2.632882080078125,-0.05328369140625,0.5084381103515625,-0.6504974365234375
1761392290555964000,2.6429638671875,0.044158935546875,0.68206787109375,-0.7089691162109375
1761392290566047000,2.653046875,0.2286529541015625,0.8728179931640625,-0.7423248291015625
1761392290576129000,2.66312890625,0.4493560791015625,1.000579833984375,-0.7227325439453125
1761392290586211000,2.673211181640625,0.4823760986328125,0.953216552734375,-0.61572265625
1761392290596294000,2.6832939453125,0.1924896240234375,0.8217010498046875,-0.578369140625
1761392290606376000,2.6933759765625,-0.2460784912109375,0.874481201171875,-0.8821563720703125
1761392290616458000,2.7034580078125,-0.6112060546875,1.002227783203125,-1.313323974609375
1761392290626540800,2.713540771484375,-0.8041229248046875,1.054718017578125,-1.5963287353515625
1761392290636622800,2.723622802734375,-0.7993927001953125,1.049896240234375,-1.6528167724609375
1761392290646705000,2.733704833984375,-0.73309326171875,0.9016571044921875,-1.41912841796875
1761392290656788200,2.743788330078125,-0.641204833984375,0.7661285400390625,-1.0772247314453125
1761392290666869800,2.753869873046875,-0.5563201904296875,0.7375030517578125,-0.8136138916015625
1761392290676951800,2.763951904296875,-0.6126708984375,0.6728515625,-0.6595611572265625
1761392290687035100,2.77403515625,-0.7643585205078125,0.6045684814453125,-0.64495849609375
1761392290697117200,2.7841171875,-0.9754638671875,0.590240478515625,-0.8199920654296875
1761392290707199000,2.794198974609375,-1.2111968994140625,0.5538787841796875,-1.05450439453125
1761392290717282000,2.804281982421875,-1.4332275390625,0.4723968505859375,-1.2806549072265625
1761392290727364000,2.814364013671875,-1.5864410400390625,0.4166717529296875,-1.555511474609375
1761392290737446100,2.824446044921875,-1.6748199462890625,0.304412841796875,-1.8289794921875
1761392290747528200,2.834528076171875,-1.7493438720703125,0.1227264404296875,-2.003753662109375
1761392290757611000,2.844611083984375,-1.764373779296875,-0.083984375,-2.0145263671875
1761392290767693000,2.854693115234375,-1.79669189453125,-0.2974853515625,-1.8702239990234375
1761392290777775000,2.864775146484375,-1.81427001953125,-0.4058380126953125,-1.7399444580078125
1761392290787858000,2.87485791015625,-1.8244781494140625,-0.46612548828125,-1.5953521728515625
1761392290797940000,2.88493994140625,-1.878692626953125,-0.662261962890625,-1.445526123046875
1761392290808022000,2.89502197265625,-1.905548095703125,-0.9464263916015625,-1.2530059814453125
1761392290818105000,2.90510498046875,-2.0247802734375,-1.2517242431640625,-1.100341796875
1761392290828187000,2.915186767578125,-2.2852935791015625,-1.50341796875,-1.0551910400390625
1761392290838268200,2.92526806640625,-2.71405029296875,-1.632843017578125,-1.0758056640625
1761392290848351200,2.935351318359375,-3.1312255859375,-1.7118377685546875,-1.1057586669921875
1761392290858433300,2.945433349609375,-3.2810516357421875,-1.7127838134765625,-1.150360107421875
1761392290868515300,2.955515380859375,-3.2081146240234375,-1.69940185546875,-1.0944061279296875
1761392290878598100,2.96559814453125,-3.0072021484375,-1.7308502197265625,-0.9067840576171875
1761392290888680200,2.97568017578125,-2.7862396240234375,-1.7755126953125,-0.6667327880859375
1761392290898762200,2.98576220703125,-2.50555419921875,-1.7149658203125,-0.43359375
1761392290908844300,2.99584423828125,-2.1812896728515625,-1.6160430908203125,-0.1934814453125
1761392290918927000,3.005927001953125,-1.83636474609375,-1.54876708984375,0.045257568359375
1761392290929009200,3.016009033203125,-1.490875244140625,-1.5027618408203125,0.228851318359375
1761392290939091200,3.02609130859375,-1.1792755126953125,-1.44769287109375,0.3572998046875
1761392290949174300,3.03617431640625,-0.951629638671875,-1.3798675537109375,0.4560394287109375
1761392290959256000,3.046256103515625,-0.8181304931640625,-1.294219970703125,0.54583740234375
1761392290969338000,3.056338134765625,-0.7542877197265625,-1.204833984375,0.6276397705078125
1761392290979421200,3.066421142578125,-0.7226715087890625,-1.1043853759765625,0.702880859375
1761392290989503200,3.076503173828125,-0.6808624267578125,-0.9876556396484375,0.74884033203125
1761392290999585000,3.0865849609375,-0.633544921875,-0.8452606201171875,0.750396728515625
1761392291009668000,3.096668212890625,-0.576263427734375,-0.7176055908203125,0.7383880615234375
1761392291019750100,3.106750244140625,-0.5239410400390625,-0.61944580078125,0.7298583984375
1761392291029832200,3.116832275390625,-0.495269775390625,-0.551055908203125,0.6941986083984375
1761392291039915300,3.126915283203125,-0.491455078125,-0.509002685546875,0.628662109375
1761392291049997000,3.1369970703125,-0.5821075439453125,-0.4838714599609375,0.533111572265625
1761392291060079000,3.1470791015625,-0.68170166015625,-0.4630889892578125,0.413330078125
1761392291070161200,3.1571611328125,-0.8055267333984375,-0.463043212890625,0.2611846923828125
1761392291080244200,3.167244140625,-0.8671875,-0.4767608642578125,0.0733184814453125
1761392291090326300,3.177326171875,-0.963836669921875,-0.6222076416015625,-0.019317626953125
1761392291100408300,3.187408203125,-1.1259613037109375,-0.9144134521484375,0.03350830078125
1761392291110491400,3.197491455078125,-1.499603271484375,-1.2892913818359375,0.1421661376953125
1761392291120573200,3.2075732421875,-2.270355224609375,-1.5618896484375,0.065032958984375
1761392291130655200,3.2176552734375,-3.12432861328125,-1.3795013427734375,-0.4089202880859375
1761392291140738300,3.22773828125,-3.791259765625,-1.0858154296875,-0.931243896484375
1761392291150820400,3.2378203125,-4.068603515625,-0.8820648193359375,-1.359954833984375
1761392291160902100,3.247902099609375,-3.9237518310546875,-0.719940185546875,-1.6059112548828125
1761392291170985200,3.257985107421875,-3.4680023193359375,-0.6308441162109375,-1.718841552734375
1761392291181067300,3.2680673828125,-2.96490478515625,-0.451171875,-1.7325439453125
1761392291191149300,3.2781494140625,-2.49920654296875,-0.201019287109375,-1.62652587890625
1761392291201232100,3.288232177734375,-2.0962982177734375,0.015289306640625,-1.4259033203125
1761392291211314200,3.298314208984375,-1.7441253662109375,0.220306396484375,-1.1844024658203125
1761392291221396200,3.308396240234375,-1.459320068359375,0.3558197021484375,-0.942962646484375
1761392291231479000,3.31847900390625,-1.2287750244140625,0.4167633056640625,-0.7515716552734375
1761392291241561000,3.32856103515625,-1.058929443359375,0.4741973876953125,-0.6274871826171875
1761392291251643100,3.33864306640625,-0.9393157958984375,0.4994049072265625,-0.5271148681640625
1761392291261726200,3.348726318359375,-0.849365234375,0.4864959716796875,-0.4531097412109375
1761392291271808300,3.358808349609375,-0.746490478515625,0.477020263671875,-0.430755615234375
1761392291281890000,3.36889013671875,-0.6270599365234375,0.4731292724609375,-0.4361114501953125
1761392291291972000,3.37897216796875,-0.5050506591796875,0.472442626953125,-0.4505767822265625
1761392291302055200,3.38905517578125,-0.373870849609375,0.4806671142578125,-0.4755096435546875
1761392291312137200,3.39913720703125,-0.2550048828125,0.4879302978515625,-0.476318359375
1761392291322219000,3.409218994140625,-0.188751220703125,0.4939422607421875,-0.4655303955078125
1761392291332302000,3.419302001953125,-0.16180419921875,0.502777099609375,-0.459259033203125
1761392291342384000,3.429384033203125,-0.1178741455078125,0.516754150390625,-0.44244384765625
1761392291352466200,3.439466064453125,-0.046905517578125,0.5417633056640625,-0.436859130859375
1761392291362549200,3.44954931640625,0.038909912109375,0.5755157470703125,-0.4668731689453125
1761392291372631300,3.45963134765625,0.078125,0.6413726806640625,-0.5453338623046875
1761392291382713300,3.46971337890625,0.0950927734375,0.7434539794921875,-0.642425537109375
1761392291392796200,3.479796142578125,0.0905914306640625,0.8603363037109375,-0.778076171875
1761392291402878200,3.489878173828125,0.1075897216796875,0.980316162109375,-0.940277099609375
1761392291412960300,3.499960205078125,0.232940673828125,1.0514984130859375,-1.0824127197265625
1761392291423043300,3.510043212890625,0.3223114013671875,1.05596923828125,-1.187286376953125
1761392291433125400,3.52012548828125,0.408294677734375,1.0221405029296875,-1.2467803955078125
1761392291443207200,3.530207275390625,0.361175537109375,1.0587615966796875,-1.4087677001953125
1761392291453290200,3.540290283203125,0.2368621826171875,1.084381103515625,-1.588836669921875
1761392291463372300,3.550372314453125,-0.0545654296875,0.9672698974609375,-1.744354248046875
1761392291473454300,3.560454345703125,-0.5161590576171875,0.8370513916015625,-1.9571380615234375
1761392291483536100,3.5705361328125,-0.9079742431640625,0.7618865966796875,-2.219573974609375
1761392291493619200,3.580619140625,-1.289642333984375,0.52783203125,-2.4243621826171875
1761392291503701200,3.590701171875,-1.5032806396484375,0.286529541015625,-2.597747802734375
1761392291513783300,3.600783203125,-1.5538787841796875,0.1257171630859375,-2.558074951171875
1761392291523866000,3.6108662109375,-1.553436279296875,-0.022796630859375,-2.22943115234375
1761392291533948200,3.6209482421875,-1.6228179931640625,-0.14483642578125,-1.7569122314453125
1761392291544030200,3.6310302734375,-1.8093109130859375,-0.2418060302734375,-1.31512451171875
1761392291554113000,3.641113037109375,-2.074554443359375,-0.3630828857421875,-0.9954376220703125
1761392291564195000,3.651195068359375,-2.3223114013671875,-0.5841064453125,-0.7125701904296875
1761392291574277000,3.661277099609375,-2.51153564453125,-0.912353515625,-0.4560699462890625
1761392291584360200,3.671360107421875,-2.634521484375,-1.178955078125,-0.2941131591796875
1761392291594442200,3.681442138671875,-2.6598968505859375,-1.255523681640625,-0.216583251953125
1761392291604524000,3.69152392578125,-2.5614471435546875,-1.276519775390625,-0.1482391357421875
1761392291614607000,3.701607177734375,-2.346343994140625,-1.3942108154296875,0.0004119873046875
1761392291624689200,3.711689208984375,-2.0989837646484375,-1.6435394287109375,0.294281005859375
1761392291634771200,3.721771240234375,-1.919097900390625,-1.91015625,0.6417083740234375
1761392291644854300,3.731854248046875,-1.8465423583984375,-1.9886016845703125,1.0112762451171875
1761392291654936300,3.741936279296875,-1.9537811279296875,-1.923797607421875,1.398651123046875
1761392291665018400,3.752018310546875,-2.00299072265625,-1.8152313232421875,1.707275390625
1761392291675100200,3.76210009765625,-1.895294189453125,-1.6617431640625,1.8949432373046875
1761392291685183200,3.772183349609375,-1.72711181640625,-1.5376434326171875,1.943328857421875
1761392291695265300,3.782265380859375,-1.5128021240234375,-1.386474609375,1.8733673095703125
1761392291705347300,3.792347412109375,-1.2922821044921875,-1.21563720703125,1.715240478515625
1761392291715430100,3.80243017578125,-1.14202880859375,-1.03558349609375,1.4511260986328125
1761392291725512200,3.81251220703125,-1.056610107421875,-0.82537841796875,1.1016082763671875
1761392291735594200,3.82259423828125,-1.05010986328125,-0.6424713134765625,0.7721405029296875
1761392291745677300,3.83267724609375,-1.1034393310546875,-0.538787841796875,0.528594970703125
1761392291755759400,3.84275927734375,-1.2577056884765625,-0.5337066650390625,0.346923828125
1761392291765841200,3.852841064453125,-1.418426513671875,-0.6165313720703125,0.2656707763671875
1761392291775924200,3.86292431640625,-1.5647430419921875,-0.75006103515625,0.238037109375
1761392291786006300,3.87300634765625,-1.8672332763671875,-0.9628753662109375,0.18853759765625
1761392291796088300,3.88308837890625,-2.353271484375,-1.078521728515625,-0.0947418212890625
1761392291806170000,3.893170166015625,-2.694122314453125,-0.7814483642578125,-0.5607757568359375
1761392291816253200,3.903253173828125,-2.8795623779296875,-0.540802001953125,-1.0402374267578125
1761392291826335200,3.913335205078125,-2.726776123046875,-0.4176025390625,-1.4653167724609375
1761392291836418000,3.92341796875,-2.5218048095703125,-0.2835540771484375,-1.8844757080078125
1761392291846501000,3.933501220703125,-2.2803192138671875,-0.075531005859375,-2.28076171875
1761392291856583200,3.943583251953125,-1.9963226318359375,0.0852203369140625,-2.3672637939453125
1761392291866665200,3.953665283203125,-1.66357421875,0.2043609619140625,-2.156768798828125
1761392291876748300,3.963748291015625,-1.355987548828125,0.455169677734375,-1.8786773681640625
1761392291886830000,3.973830078125,-1.14697265625,0.6770477294921875,-1.614166259765625
1761392291896912100,3.983912109375,-0.955657958984375,0.81134033203125,-1.4503021240234375
1761392291906995200,3.9939951171875,-0.7375640869140625,0.898040771484375,-1.40924072265625
1761392291917077200,4.0040771484375,-0.3820343017578125,0.8397369384765625,-1.3387908935546875
1761392291927158000,4.014157958984375,0.0604248046875,0.7354736328125,-1.2277374267578125
1761392291937241300,4.024241455078125,0.5305633544921875,0.5958404541015625,-1.1397705078125
1761392291947323400,4.034323486328125,0.854461669921875,0.5145721435546875,-1.092498779296875
1761392291957405200,4.0444052734375,1.004608154296875,0.515655517578125,-1.05938720703125
1761392291967488300,4.05448828125,0.9057159423828125,0.4719696044921875,-1.01678466796875
1761392291977570300,4.0645703125,0.7272491455078125,0.4184722900390625,-0.982635498046875
1761392291987652400,4.07465234375,0.5601806640625,0.3053131103515625,-0.9033355712890625
1761392291997735200,4.084735107421875,0.401336669921875,0.1836700439453125,-0.847259521484375
1761392292007817200,4.094817138671875,0.275848388671875,0.039337158203125,-0.822662353515625
1761392292017899300,4.104899169921875,0.1382904052734375,-0.14837646484375,-0.8085174560546875
1761392292027982300,4.114982421875,-0.0297698974609375,-0.3442535400390625,-0.806121826171875
1761392292038064000,4.125064208984375,-0.22711181640625,-0.580780029296875,-0.7273101806640625
1761392292048146200,4.135146240234375,-0.443115234375,-0.895355224609375,-0.560272216796875
1761392292058228200,4.145228271484375,-0.673004150390625,-1.3819122314453125,-0.237030029296875
1761392292068311300,4.155311279296875,-0.9828643798828125,-2.0539703369140625,0.241790771484375
1761392292078393300,4.165393310546875,-1.3814239501953125,-2.697021484375,0.69793701171875
1761392292088475100,4.17547509765625,-1.8790130615234375,-3.1097869873046875,0.9256439208984375
1761392292098558200,4.18555810546875,-2.5137176513671875,-3.2661590576171875,0.885650634765625
1761392292108640300,4.19564013671875,-3.0539093017578125,-3.2197418212890625,0.692779541015625
1761392292118722300,4.205722412109375,-3.2176666259765625,-2.9874114990234375,0.489288330078125
1761392292128805000,4.21580517578125,-3.0288848876953125,-2.676727294921875,0.3951873779296875
1761392292138887200,4.22588720703125,-2.702667236328125,-2.3551483154296875,0.403289794921875
1761392292148969200,4.23596923828125,-2.2866058349609375,-2.090972900390625,0.501800537109375
1761392292159052000,4.246052001953125,-1.962646484375,-1.804168701171875,0.5009307861328125
1761392292169134000,4.256134033203125,-1.728179931640625,-1.5083160400390625,0.408660888671875
1761392292179216100,4.266216064453125,-1.549163818359375,-1.2173919677734375,0.24639892578125
1761392292189299200,4.27629931640625,-1.350616455078125,-0.9495849609375,0.0532379150390625
1761392292199381000,4.286381103515625,-1.1578369140625,-0.726470947265625,-0.10626220703125
1761392292209463000,4.296463134765625,-0.961181640625,-0.5244293212890625,-0.23876953125
1761392292219545000,4.306545166015625,-0.732940673828125,-0.3571624755859375,-0.3233642578125
1761392292229628400,4.31662841796875,-0.5384674072265625,-0.2815399169921875,-0.345489501953125
1761392292239710200,4.326710205078125,-0.3505859375,-0.2588043212890625,-0.35845947265625
1761392292249792000,4.3367919921875,-0.176055908203125,-0.216827392578125,-0.387115478515625
1761392292259875300,4.346875244140625,-0.0587005615234375,-0.154815673828125,-0.411956787109375
1761392292269957400,4.356957275390625,0.009918212890625,-0.080169677734375,-0.435150146484375
1761392292280039400,4.367039306640625,0.08056640625,-0.0092926025390625,-0.4582061767578125
1761392292290122200,4.377122314453125,0.117919921875,0.0197601318359375,-0.438751220703125
1761392292300204300,4.387204345703125,0.107940673828125,0.011322021484375,-0.40032958984375
1761392292310286300,4.397286376953125,0.0337066650390625,0.0357666015625,-0.4033966064453125
1761392292320369200,4.407369140625,-0.0863189697265625,0.0861358642578125,-0.4771881103515625
1761392292330451200,4.417451171875,-0.1786651611328125,0.197296142578125,-0.641448974609375
1761392292340533200,4.427533203125,-0.2231597900390625,0.2373199462890625,-0.72650146484375
1761392292350615300,4.437615234375,-0.210540771484375,0.1967315673828125,-0.748291015625
1761392292360698000,4.447697998046875,-0.1788482666015625,0.1740875244140625,-0.766265869140625
1761392292370780200,4.4577802734375,-0.18292236328125,0.1924591064453125,-0.7872772216796875
1761392292380862200,4.4678623046875,-0.272552490234375,0.27301025390625,-0.8624114990234375
1761392292390945300,4.4779453125,-0.42962646484375,0.35614013671875,-0.958465576171875
1761392292401027300,4.48802734375,-0.6297149658203125,0.394134521484375,-1.0412750244140625
1761392292411109000,4.498109130859375,-0.8377838134765625,0.3994903564453125,-1.161163330078125
1761392292421192200,4.508192138671875,-0.9610443115234375,0.3787384033203125,-1.3075714111328125
1761392292431274200,4.518274169921875,-0.98468017578125,0.3378143310546875,-1.466766357421875
1761392292441356300,4.528356201171875,-0.8862762451171875,0.244232177734375,-1.539031982421875
1761392292451439000,4.538439208984375,-0.708587646484375,0.1272430419921875,-1.4516448974609375
1761392292461521200,4.548521240234375,-0.5290985107421875,0.053253173828125,-1.25128173828125
1761392292471603200,4.558603271484375,-0.423675537109375,0.0299835205078125,-1.0458221435546875
1761392292481686000,4.56868603515625,-0.447784423828125,0.04345703125,-0.89263916015625
1761392292491768000,4.57876806640625,-0.6053466796875,0.04736328125,-0.8148651123046875
1761392292501850000,4.58885009765625,-0.8190155029296875,0.06072998046875,-0.83099365234375
1761392292511933200,4.59893310546875,-0.9912872314453125,0.058746337890625,-0.8990936279296875
1761392292522015000,4.609014892578125,-1.08990478515625,0.042633056640625,-0.9808197021484375
1761392292532097000,4.619096923828125,-1.1590576171875,0.0103912353515625,-1.04339599609375
1761392292542179000,4.629178955078125,-1.218994140625,-0.0112762451171875,-1.09857177734375
1761392292552262400,4.639262451171875,-1.264434814453125,-0.005157470703125,-1.1320037841796875
1761392292562345200,4.64934521484375,-1.262664794921875,0.0295257568359375,-1.1304779052734375
1761392292572427300,4.65942724609375,-1.19384765625,0.052703857421875,-1.107421875
1761392292582509300,4.66950927734375,-1.1014404296875,0.0514678955078125,-1.0829925537109375
1761392292592592100,4.679592041015625,-1.0218658447265625,-0.032958984375,-1.0353240966796875
1761392292602674200,4.689674072265625,-0.983245849609375,-0.079681396484375,-1.0270843505859375
1761392292612756200,4.699756103515625,-1.080169677734375,-0.0733184814453125,-1.0772705078125
1761392292622839300,4.70983935546875,-1.2594757080078125,-0.06756591796875,-1.1469268798828125
1761392292632921300,4.71992138671875,-1.4233245849609375,-0.106597900390625,-1.1172943115234375
1761392292643003100,4.730003173828125,-1.55419921875,-0.1909332275390625,-0.9955596923828125
1761392292653085200,4.740085205078125,-1.716949462890625,-0.3225555419921875,-0.8213958740234375
1761392292663168300,4.750168212890625,-1.9755401611328125,-0.5078277587890625,-0.6445159912109375
1761392292673250300,4.760250244140625,-2.4029998779296875,-0.80377197265625,-0.5061187744140625
1761392292683332000,4.77033203125,-2.824371337890625,-1.1770477294921875,-0.483123779296875
1761392292693415200,4.780415283203125,-3.0539093017578125,-1.488037109375,-0.6249237060546875
1761392292703497200,4.790497314453125,-3.139862060546875,-1.692596435546875,-0.8891143798828125
1761392292713579300,4.800579345703125,-3.161163330078125,-1.8300933837890625,-1.0963592529296875
1761392292723662000,4.810662109375,-3.2182464599609375,-1.938720703125,-1.0908050537109375
1761392292733744000,4.820744140625,-3.1971282958984375,-2.059844970703125,-0.8677520751953125
1761392292743826200,4.830826171875,-3.0004425048828125,-2.14080810546875,-0.5260009765625
1761392292753909000,4.840908935546875,-2.7400970458984375,-2.2101287841796875,-0.10137939453125
1761392292763991000,4.850990966796875,-2.5879058837890625,-2.2439117431640625,0.279632568359375
1761392292774073000,4.861072998046875,-2.67645263671875,-2.2769012451171875,0.603485107421875
1761392292784155100,4.871155029296875,-2.8130950927734375,-2.3043365478515625,0.7693023681640625
1761392292794238200,4.88123828125,-2.81378173828125,-2.317626953125,0.78173828125
1761392292804320000,4.891320068359375,-2.6023101806640625,-2.3800506591796875,0.6784515380859375
1761392292814402000,4.901402099609375,-2.19720458984375,-2.377532958984375,0.5127716064453125
1761392292824485400,4.9114853515625,-1.786865234375,-2.3596343994140625,0.365875244140625
1761392292834570200,4.9215703125,-1.476593017578125,-2.2646331787109375,0.2156982421875
1761392292844652300,4.93165234375,-1.302490234375,-2.0332183837890625,0.06500244140625
1761392292854735000,4.941735107421875,-1.288482666015625,-1.711883544921875,-0.0578460693359375
1761392292864817200,4.951817138671875,-1.404998779296875,-1.34661865234375,-0.1923065185546875
1761392292874899200,4.961899169921875,-1.5284881591796875,-0.9445037841796875,-0.3727569580078125
1761392292884982000,4.97198193359375,-1.5810089111328125,-0.53759765625,-0.583648681640625
1761392292895064000,4.98206396484375,-1.549713134765625,-0.25372314453125,-0.725738525390625
1761392292905146000,4.99214599609375,-1.4491119384765625,-0.1377105712890625,-0.731292724609375
1761392292915228200,5.002228271484375,-1.4132232666015625,-0.2115936279296875,-0.6376495361328125
1761392292925311000,5.01231103515625,-1.4838714599609375,-0.4196319580078125,-0.5515594482421875
1761392292935393000,5.02239306640625,-1.5823211669921875,-0.502471923828125,-0.5587310791015625
1761392292945475000,5.03247509765625,-1.732666015625,-0.4800872802734375,-0.66595458984375
1761392292955558100,5.04255810546875,-1.99237060546875,-0.390106201171875,-0.882049560546875
1761392292965640200,5.05264013671875,-2.340545654296875,-0.3076171875,-1.1275787353515625
1761392292975722000,5.062721923828125,-2.4959259033203125,-0.1408538818359375,-1.331268310546875
1761392292985805000,5.07280517578125,-2.3609771728515625,0.0599212646484375,-1.4537200927734375
1761392292995887000,5.08288720703125,-2.0428314208984375,0.2117462158203125,-1.497528076171875
1761392293005969200,5.09296923828125,-1.624114990234375,0.3649749755859375,-1.4837646484375
1761392293016052000,5.103052001953125,-1.245269775390625,0.543487548828125,-1.3656158447265625
1761392293026134000,5.113134033203125,-0.9844818115234375,0.6922149658203125,-1.21453857421875
1761392293036216000,5.123216064453125,-0.7985687255859375,0.9026947021484375,-1.1165771484375
1761392293046299000,5.133298828125,-0.7029876708984375,1.093231201171875,-1.0673980712890625
1761392293056381000,5.143380859375,-0.7174072265625,1.2921142578125,-1.073638916015625
1761392293066463000,5.153462890625,-0.702850341796875,1.5264434814453125,-1.144683837890625
1761392293076545000,5.163544921875,-0.610076904296875,1.7187957763671875,-1.210784912109375
1761392293086628000,5.173628173828125,-0.4696044921875,1.8682861328125,-1.2676239013671875
1761392293096710000,5.1837099609375,-0.2419891357421875,1.9200286865234375,-1.245574951171875
1761392293106792000,5.1937919921875,-0.0101165771484375,1.8527984619140625,-1.138916015625
1761392293116875300,5.203875244140625,0.096771240234375,1.70074462890625,-0.98345947265625
1761392293126957000,5.21395703125,0.0963134765625,1.5508270263671875,-0.842437744140625
1761392293137039000,5.2240390625,-0.0208740234375,1.42340087890625,-0.7441864013671875
1761392293147122200,5.2341220703125,-0.169342041015625,1.2654876708984375,-0.6809539794921875
1761392293157204200,5.244204345703125,-0.3121795654296875,1.1349945068359375,-0.688629150390625
1761392293167286300,5.254286376953125,-0.4423370361328125,0.9979400634765625,-0.774993896484375
1761392293177369000,5.264369140625,-0.4941253662109375,0.8307037353515625,-0.9338531494140625
1761392293187451100,5.274451171875,-0.4595947265625,0.7413177490234375,-1.1124420166015625
1761392293197533200,5.284533203125,-0.421966552734375,0.636566162109375,-1.240325927734375
1761392293207616000,5.294615966796875,-0.497589111328125,0.5064697265625,-1.3290863037109375
1761392293217698000,5.304697998046875,-0.7940673828125,0.3327789306640625,-1.431427001953125
1761392293227780000,5.314780029296875,-1.2807159423828125,0.1259918212890625,-1.5924072265625
1761392293237862100,5.324862060546875,-1.9447784423828125,-0.0745086669921875,-1.8385467529296875
1761392293247945000,5.334945068359375,-2.6352081298828125,-0.297149658203125,-2.1330718994140625
1761392293258027000,5.345027099609375,-3.1177825927734375,-0.491973876953125,-2.385009765625
1761392293268109000,5.355109130859375,-3.3402099609375,-0.7181396484375,-2.4330291748046875
1761392293278192000,5.365192138671875,-3.2973480224609375,-1.0150146484375,-2.2293548583984375
1761392293288274200,5.375274169921875,-3.0950164794921875,-1.2440032958984375,-1.8633270263671875
1761392293298356000,5.38535595703125,-2.88165283203125,-1.3779754638671875,-1.4424285888671875
1761392293308439000,5.39543896484375,-2.77276611328125,-1.4668731689453125,-1.0011138916015625
1761392293318521000,5.40552099609375,-2.6853485107421875,-1.541839599609375,-0.627349853515625
1761392293328603100,5.41560302734375,-2.543243408203125,-1.588714599609375,-0.3939056396484375
1761392293338686000,5.42568603515625,-2.380615234375,-1.6069183349609375,-0.2315216064453125
1761392293348768000,5.43576806640625,-2.1543121337890625,-1.6847686767578125,-0.12255859375
1761392293358850000,5.44585009765625,-1.902435302734375,-1.7689056396484375,-0.037017822265625
1761392293368932900,5.455932861328125,-1.717193603515625,-1.8708343505859375,0.125396728515625
1761392293379015000,5.466014892578125,-1.5752716064453125,-1.9231109619140625,0.352020263671875
1761392293389097000,5.476096923828125,-1.440032958984375,-1.9524383544921875,0.589324951171875
1761392293399179000,5.486178955078125,-1.31622314453125,-2.020904541015625,0.8009796142578125
1761392293409262000,5.496261962890625,-1.1613922119140625,-2.1286773681640625,0.9771575927734375
1761392293419344100,5.50634423828125,-1.044036865234375,-2.278533935546875,1.0792999267578125
1761392293429426200,5.51642626953125,-1.0014495849609375,-2.373199462890625,1.05303955078125
1761392293439509200,5.52650927734375,-1.0330963134765625,-2.3110198974609375,0.918670654296875
1761392293449591000,5.536591064453125,-1.1198883056640625,-2.1051788330078125,0.7037811279296875
1761392293459673000,5.546673095703125,-1.214141845703125,-1.7799835205078125,0.47210693359375
1761392293469756200,5.556756103515625,-1.2468109130859375,-1.387908935546875,0.27764892578125
1761392293479838200,5.566838134765625,-1.1950836181640625,-0.9381256103515625,0.1560211181640625
1761392293489920300,5.576920166015625,-1.109893798828125,-0.611602783203125,-0.1270751953125
1761392293500003000,5.587003173828125,-1.1832733154296875,-0.23785400390625,-0.1909027099609375
1761392293510085000,5.597085205078125,-1.2708892822265625,-0.122833251953125,-0.13922119140625
1761392293520167200,5.607167236328125,-1.53668212890625,-0.064849853515625,-0.0865020751953125
1761392293530249200,5.617249267578125,-1.7059173583984375,-0.021270751953125,-0.08209228515625
1761392293540332000,5.62733203125,-1.8436126708984375,0.0654296875,-0.1356658935546875
1761392293550414000,5.6374140625,-1.95947265625,0.1464691162109375,-0.245635986328125
1761392293560496000,5.64749609375,-2.0095672607421875,0.3177337646484375,-0.45806884765625
1761392293570579000,5.657578857421875,-2.008148193359375,0.5431671142578125,-0.784454345703125
1761392293580661000,5.667660888671875,-2.1141357421875,0.6689605712890625,-1.1010589599609375
1761392293590743000,5.677742919921875,-2.255523681640625,0.7744293212890625,-1.4360504150390625
1761392293600826000,5.687826171875,-2.31109619140625,1.05780029296875,-1.840301513671875
1761392293610908000,5.697907958984375,-2.166046142578125,1.2545318603515625,-2.0807342529296875
1761392293620990000,5.707989990234375,-1.9602203369140625,1.3553924560546875,-2.17742919921875
1761392293631073000,5.718072998046875,-1.6474761962890625,1.5588226318359375,-2.2215728759765625
1761392293641155000,5.728155029296875,-1.4982757568359375,1.5625457763671875,-2.149444580078125
1761392293651237000,5.738237060546875,-1.4513702392578125,1.4737548828125,-1.9924774169921875
1761392293661320000,5.74831982421875,-1.281036376953125,1.3610687255859375,-1.8093109130859375
1761392293671402000,5.758402099609375,-0.97381591796875,1.181671142578125,-1.5764312744140625
1761392293681484000,5.768484130859375,-0.6726226806640625,0.9311676025390625,-1.30889892578125
1761392293691566000,5.778566162109375,-0.42950439453125,0.6690216064453125,-1.074127197265625
1761392293701649200,5.788649169921875,-0.25531005859375,0.4221649169921875,-0.8802032470703125
1761392293711731200,5.798731201171875,-0.143035888671875,0.2261810302734375,-0.7180023193359375
1761392293721813000,5.80881298828125,-0.1439666748046875,0.10919189453125,-0.6129913330078125
1761392293731896000,5.81889599609375,-0.256866455078125,0.0224456787109375,-0.5362701416015625
1761392293741978000,5.82897802734375,-0.4252166748046875,-0.085968017578125,-0.4479827880859375
1761392293752060200,5.83906005859375,-0.549713134765625,-0.2447509765625,-0.3444671630859375
1761392293762143200,5.849143310546875,-0.607940673828125,-0.42205810546875,-0.2093048095703125
1761392293772225000,5.85922509765625,-0.662261962890625,-0.6504058837890625,0.0197906494140625
1761392293782307000,5.86930712890625,-0.8397369384765625,-1.0369110107421875,0.3437042236328125
1761392293792390100,5.87939013671875,-1.11529541015625,-1.5415496826171875,0.6443634033203125
1761392293802472200,5.88947216796875,-1.4354248046875,-1.9224395751953125,0.802154541015625
1761392293812554200,5.89955419921875,-1.6490020751953125,-2.115081787109375,0.7968292236328125
1761392293822636000,5.909635986328125,-1.6979217529296875,-2.1694488525390625,0.7435150146484375
1761392293832719000,5.919718994140625,-1.756500244140625,-2.1117401123046875,0.671630859375
1761392293842797000,5.929797119140625,-1.69989013671875,-2.0793304443359375,0.643035888671875
1761392293852879000,5.939879150390625,-1.6148681640625,-1.9901885986328125,0.7286529541015625
1761392293862962000,5.9499619140625,-1.52166748046875,-1.8561553955078125,0.87042236328125
1761392293873044000,5.9600439453125,-1.5375213623046875,-1.7620391845703125,1.0589599609375
1761392293883126000,5.9701259765625,-1.6078033447265625,-1.5521240234375,1.124237060546875
1761392293893209300,5.980209228515625,-1.6933746337890625,-1.311431884765625,1.0792694091796875
1761392293903291100,5.990291015625,-1.7947845458984375,-1.0385284423828125,0.954986572265625
1761392293913373200,6.000373291015625,-1.8253326416015625,-0.781402587890625,0.804412841796875
1761392293923456300,6.010456298828125,-1.7942352294921875,-0.5631561279296875,0.66107177734375
1761392293933538300,6.020538330078125,-1.7100830078125,-0.30645751953125,0.46868896484375
1761392293943620000,6.0306201171875,-1.5564117431640625,-0.1376495361328125,0.2329864501953125
1761392293953702100,6.0407021484375,-1.3982391357421875,0.004364013671875,-0.0094757080078125
1761392293963785200,6.05078515625,-1.292755126953125,0.0872344970703125,-0.214385986328125
1761392293973867300,6.0608671875,-1.0995635986328125,0.0510101318359375,-0.39166259765625
1761392293983949300,6.07094921875,-0.96337890625,0.1859130859375,-0.5253753662109375
1761392293994032000,6.0810322265625,-0.8657073974609375,0.3609619140625,-0.58099365234375
1761392294004114200,6.0911142578125,-0.769134521484375,0.4018402099609375,-0.5747833251953125
1761392294014196200,6.1011962890625,-0.7321014404296875,0.317108154296875,-0.4930877685546875
1761392294024279000,6.111279052734375,-0.708099365234375,0.1385345458984375,-0.38458251953125
1761392294034361000,6.121361083984375,-0.6772308349609375,0.004608154296875,-0.3139801025390625
1761392294044443100,6.131443115234375,-0.6492462158203125,0.0112152099609375,-0.3060760498046875
1761392294054526200,6.141526123046875,-0.59149169921875,0.05517578125,-0.374969482421875
1761392294064608000,6.15160791015625,-0.495513916015625,0.05029296875,-0.441436767578125
1761392294074690000,6.16168994140625,-0.393798828125,0.0428466796875,-0.4441375732421875
1761392294084772000,6.171772216796875,-0.27606201171875,0.01104736328125,-0.453582763671875
1761392294094855200,6.181855224609375,-0.22998046875,-0.0304412841796875,-0.4572601318359375
1761392294104937000,6.19193701171875,-0.230072021484375,-0.199066162109375,-0.5247802734375
1761392294115019000,6.20201904296875,-0.33465576171875,-0.298065185546875,-0.553924560546875
1761392294125102000,6.21210205078125,-0.472625732421875,-0.1934814453125,-0.441680908203125
1761392294135184100,6.22218408203125,-0.630126953125,-0.072662353515625,-0.317779541015625
1761392294145266200,6.23226611328125,-0.6898040771484375,-0.0142364501953125,-0.2353363037109375
1761392294155349000,6.242348876953125,-0.6665191650390625,-0.04498291015625,-0.21807861328125
1761392294165431000,6.25243115234375,-0.7252197265625,-0.1208038330078125,-0.262298583984375
1761392294175513000,6.26251318359375,-0.87628173828125,-0.1960601806640625,-0.3675079345703125
1761392294185596200,6.27259619140625,-1.0446929931640625,-0.2198333740234375,-0.4931640625
1761392294195678200,6.28267822265625,-1.1148681640625,-0.2170562744140625,-0.5777435302734375
1761392294205760300,6.29276025390625,-1.0480194091796875,-0.235595703125,-0.551849365234375
1761392294215842000,6.302842041015625,-1.0517730712890625,-0.2547149658203125,-0.410736083984375
1761392294225925000,6.312925048828125,-1.162933349609375,-0.259918212890625,-0.26409912109375
1761392294236007200,6.323007080078125,-1.280975341796875,-0.2357330322265625,-0.19195556640625
1761392294246089200,6.333089111328125,-1.277984619140625,-0.196502685546875,-0.127288818359375
1761392294256172300,6.34317236328125,-1.1159820556640625,-0.1431884765625,-0.0724639892578125
1761392294266254000,6.353254150390625,-0.9813995361328125,-0.073516845703125,-0.0526885986328125
1761392294276336000,6.363336181640625,-0.9373931884765625,-0.0320587158203125,-0.0635223388671875
1761392294286419200,6.373419189453125,-0.9165496826171875,-0.0777740478515625,-0.06500244140625
1761392294296501200,6.383501220703125,-0.9053192138671875,-0.219451904296875,-0.0420074462890625
1761392294306583000,6.3935830078125,-0.986053466796875,-0.334014892578125,0.008148193359375
1761392294316666000,6.403666015625,-1.0523834228515625,-0.3353271484375,0.063690185546875
1761392294326748200,6.413748046875,-1.1012420654296875,-0.28338623046875,0.0806884765625
1761392294336830200,6.423830322265625,-1.1851806640625,-0.206512451171875,0.1060791015625
1761392294346912300,6.433912353515625,-1.195648193359375,-0.1514739990234375,0.129241943359375
1761392294356995000,6.4439951171875,-1.172454833984375,-0.1304168701171875,0.1251373291015625
1761392294367077000,6.4540771484375,-1.1267242431640625,-0.1162261962890625,0.0894775390625
1761392294377159200,6.4641591796875,-1.095245361328125,-0.1174468994140625,0.0363006591796875
1761392294387242000,6.474241943359375,-1.0567169189453125,-0.1366729736328125,0.0001373291015625
1761392294397324000,6.484323974609375,-0.865753173828125,-0.1632080078125,-0.0197296142578125
1761392294407406000,6.494406005859375,-0.7557220458984375,-0.0809783935546875,-0.090667724609375
1761392294417489200,6.5044892578125,-0.8091278076171875,0.026458740234375,-0.1368560791015625
1761392294427571000,6.514571044921875,-0.725189208984375,0.022491455078125,-0.0814666748046875
1761392294437653000,6.524653076171875,-0.841888427734375,-0.03802490234375,0.061279296875
1761392294447735000,6.534735107421875,-1.105316162109375,-0.1380615234375,0.2462615966796875
1761392294457818000,6.544818115234375,-1.197998046875,-0.2525482177734375,0.3856201171875
1761392294467900200,6.554900146484375,-1.115570068359375,-0.3238525390625,0.402313232421875
1761392294477982000,6.56498193359375,-1.2408905029296875,-0.3704833984375,0.3414154052734375
1761392294488065000,6.57506494140625,-1.3401947021484375,-0.3789520263671875,0.213714599609375
1761392294498147000,6.58514697265625,-1.2893829345703125,-0.2905426025390625,0.1038665771484375
1761392294508229000,6.59522900390625,-1.2719879150390625,-0.212005615234375,-0.0189208984375
1761392294518312200,6.605312255859375,-1.258819580078125,-0.208282470703125,-0.10357666015625
1761392294528394200,6.615394287109375,-1.2915496826171875,-0.197357177734375,-0.1246185302734375
1761392294538476300,6.625476318359375,-1.3810272216796875,-0.2835693359375,-0.0307159423828125
1761392294548559000,6.63555908203125,-1.381500244140625,-0.3636932373046875,0.1070098876953125
1761392294558641200,6.64564111328125,-1.373779296875,-0.3953399658203125,0.2397003173828125
1761392294568723200,6.65572314453125,-1.3395843505859375,-0.4434967041015625,0.3572998046875
1761392294578805200,6.66580517578125,-1.284332275390625,-0.5005340576171875,0.4347991943359375
1761392294588888000,6.67588818359375,-1.214691162109375,-0.54071044921875,0.46990966796875
1761392294598970000,6.68597021484375,-1.1431732177734375,-0.5415802001953125,0.454925537109375
1761392294609052200,6.69605224609375,-1.0867156982421875,-0.469451904296875,0.4101715087890625
1761392294619135200,6.70613525390625,-1.06689453125,-0.3587799072265625,0.35540771484375
1761392294629217000,6.716217041015625,-0.9993438720703125,-0.2943115234375,0.3329315185546875
1761392294639299000,6.726299072265625,-0.9315643310546875,-0.24224853515625,0.365447998046875
1761392294649382100,6.736382080078125,-0.9678497314453125,-0.204315185546875,0.4064178466796875
1761392294659464200,6.746464111328125,-0.9867401123046875,-0.208099365234375,0.4295196533203125
1761392294669546200,6.756546142578125,-0.959442138671875,-0.1485748291015625,0.412506103515625
1761392294679628000,6.7666279296875,-0.9025421142578125,-0.085296630859375,0.3766326904296875
1761392294689711000,6.776711181640625,-0.82769775390625,-0.0706787109375,0.3440704345703125
1761392294699793200,6.786793212890625,-0.7531890869140625,-0.0722808837890625,0.29644775390625
1761392294709875200,6.796875244140625,-0.7225341796875,-0.094451904296875,0.2263031005859375
1761392294719958000,6.8069580078125,-0.69183349609375,-0.1022186279296875,0.1757049560546875
1761392294730040000,6.8170400390625,-0.61444091796875,-0.0646514892578125,0.13446044921875
1761392294740122000,6.8271220703125,-0.6794586181640625,-0.0552520751953125,0.09417724609375
1761392294750205000,6.837204833984375,-0.86309814453125,-0.0990142822265625,0.1282501220703125
1761392294760287000,6.847286865234375,-1.3399810791015625,-0.151763916015625,0.2859344482421875
1761392294770369000,6.857369140625,-1.3072509765625,-0.1789703369140625,0.33734130859375
1761392294780451000,6.867451171875,-1.2217559814453125,-0.0740203857421875,0.2498321533203125
1761392294790534100,6.8775341796875,-1.16119384765625,0.0013580322265625,0.0996551513671875
1761392294800616000,6.887615966796875,-1.1084136962890625,-0.0229339599609375,-0.031707763671875
1761392294810698000,6.897697998046875,-1.088409423828125,-0.10693359375,-0.0856781005859375
1761392294820781300,6.90778125,-1.0339508056640625,-0.186279296875,-0.0507049560546875
1761392294830863400,6.91786328125,-0.9755859375,-0.23956298828125,0.000457763671875
1761392294840945200,6.927945068359375,-0.8456878662109375,-0.2623748779296875,0.0016326904296875
1761392294851028200,6.9380283203125,-0.702880859375,-0.300628662109375,-0.0576324462890625
1761392294861110300,6.9481103515625,-0.65863037109375,-0.315673828125,-0.1154327392578125
1761392294871192300,6.9581923828125,-0.595062255859375,-0.2752532958984375,-0.1530609130859375
1761392294881275100,6.968275146484375,-0.63031005859375,-0.2555694580078125,-0.106903076171875
1761392294891357200,6.978357177734375,-0.74822998046875,-0.26702880859375,0.0007476806640625
1761392294901439200,6.988439208984375,-1.078399658203125,-0.3205718994140625,0.1664581298828125
1761392294911521300,6.998521240234375,-1.244537353515625,-0.381256103515625,0.28546142578125
1761392294921604000,7.00860400390625,-1.23712158203125,-0.3109588623046875,0.1991119384765625
1761392294931686100,7.01868603515625,-1.218963623046875,-0.1724395751953125,0.07391357421875
1761392294941768200,7.028768310546875,-1.0988006591796875,-0.1099700927734375,0.014373779296875
1761392294951851000,7.03885107421875,-1.00738525390625,-0.0479278564453125,-0.033233642578125
