time,seconds_elapsed,z,y,x
1761392288001368600,0.08836865234375,-0.011358099989593029,-0.0653577521443367,1.0035780668258667
1761392288011450600,0.09845068359375,-0.057461947202682495,0.08222690969705582,0.9109159708023071
1761392288021532400,0.108532470703125,-0.03105021081864834,0.29795873165130615,0.8397508263587952
1761392288031614500,0.118614501953125,0.062356963753700256,0.516748309135437,0.8097833395004272
1761392288041697500,0.128697509765625,0.16886699199676514,0.7535851001739502,0.8120865821838379
1761392288051779600,0.138779541015625,0.2697472870349884,0.8988351821899414,0.813797652721405
1761392288061861600,0.148861572265625,0.3175804316997528,0.9163166284561157,0.75197434425354
1761392288071943400,0.158943359375,0.2967561185359955,0.9651209115982056,0.6413047909736633
1761392288082026500,0.169026611328125,0.23724251985549927,1.038733720779419,0.46165910363197327
1761392288092108500,0.179108642578125,0.17262330651283264,1.1597357988357544,0.3338311016559601
1761392288102190600,0.189190673828125,0.09846547991037369,1.2717702388763428,0.34821397066116333
1761392288112273700,0.199273681640625,-0.026056740432977676,1.1790562868118286,0.4459799528121948
1761392288122355700,0.209355712890625,-0.09643428772687912,0.7750686407089233,0.6924075484275818
1761392288132437500,0.2194375,-0.03637441620230675,0.09268715977668762,1.0297359228134155
1761392288142519600,0.22951953125,0.0927378311753273,-0.7818984389305115,1.3515877723693848
1761392288152601600,0.2396015625,0.22267906367778778,-1.4022613763809204,1.645514726638794
1761392288162684700,0.2496845703125,0.2585008442401886,-1.8422719240188599,1.8085966110229492
1761392288172766700,0.2597666015625,0.183175191283226,-2.0712761878967285,1.822870135307312
1761392288182848800,0.269848876953125,0.08858223259449005,-2.204174757003784,1.7558095455169678
1761392288192931600,0.279931640625,-0.013920177705585957,-2.170348882675171,1.6693247556686401
1761392288203013600,0.290013671875,-0.0564289465546608,-2.032971143722534,1.5518019199371338
1761392288213095700,0.300095703125,-0.06591512262821198,-1.7697728872299194,1.4206691980361938
1761392288223177700,0.310177734375,-0.09610497951507568,-1.4316102266311646,1.2890762090682983
1761392288233260500,0.320260498046875,-0.15473447740077972,-1.1074182987213135,1.1547350883483887
1761392288243342600,0.330342529296875,-0.24512147903442383,-0.8376927971839905,1.032897710800171
1761392288253424600,0.340424560546875,-0.36982640624046326,-0.6961561441421509,0.8795288801193237
1761392288263506700,0.350506591796875,-0.5029296278953552,-0.6406265497207642,0.6602847576141357
1761392288273589500,0.360589599609375,-0.6303504109382629,-0.7599726915359497,0.36939913034439087
1761392288283671600,0.370671630859375,-0.786077618598938,-0.9621291160583496,0.0010370162781327963
1761392288293753600,0.380753662109375,-0.9624204039573669,-1.0197579860687256,-0.40094637870788574
1761392288303835600,0.390835693359375,-1.1196428537368774,-0.9483967423439026,-0.796247124671936
1761392288313918500,0.40091845703125,-1.2000503540039062,-0.8788248896598816,-1.162575602531433
1761392288324000500,0.41100048828125,-1.204507827758789,-0.6842794418334961,-1.3597474098205566
1761392288334082600,0.42108251953125,-1.1550185680389404,-0.4817759096622467,-1.364572525024414
1761392288344164600,0.43116455078125,-1.0502963066101074,-0.3689315915107727,-1.1880093812942505
1761392288354247700,0.44124755859375,-0.9118061065673828,-0.3052985370159149,-0.8977096080780029
1761392288364329500,0.45132958984375,-0.7333961725234985,-0.24197442829608917,-0.5630151629447937
1761392288374411500,0.46141162109375,-0.5384197235107422,-0.2920283079147339,-0.311081200838089
1761392288384493600,0.47149365234375,-0.3502581715583801,-0.44648057222366333,-0.20273491740226746
1761392288394576600,0.48157666015625,-0.15619124472141266,-0.6604437232017517,-0.22617340087890625
1761392288404658400,0.491658447265625,0.08559046685695648,-0.8447722792625427,-0.30083930492401123
1761392288414740500,0.501740478515625,0.41056323051452637,-0.8947393298149109,-0.29514279961586
1761392288424822500,0.511822509765625,0.7201746702194214,-0.9634789824485779,-0.18989045917987823
1761392288434905600,0.521905517578125,0.8795299530029297,-1.3155587911605835,-0.0322054922580719
1761392288444987600,0.531987548828125,0.8536642789840698,-1.726404070854187,0.1885303407907486
1761392288455069400,0.5420693359375,0.7559417486190796,-2.038132429122925,0.4535098075866699
1761392288465151500,0.5521513671875,0.7040737271308899,-2.3904311656951904,0.7897763252258301
1761392288475234600,0.562234619140625,0.7809807658195496,-2.777250051498413,1.122890591621399
1761392288485316600,0.572316650390625,0.9718315601348877,-3.145836114883423,1.3472201824188232
1761392288495398400,0.5823984375,1.2705260515213013,-3.6418590545654297,1.5016038417816162
1761392288505481500,0.5924814453125,1.5777649879455566,-4.041697025299072,1.5712484121322632
1761392288515563500,0.6025634765625,1.814864158630371,-4.148311614990234,1.58335280418396
1761392288525645600,0.6126455078125,1.9767688512802124,-3.7864909172058105,1.5053609609603882
1761392288535727600,0.6227275390625,2.047083616256714,-3.429703950881958,1.3941051959991455
1761392288545810700,0.632810791015625,2.053117275238037,-3.2277607917785645,1.2454075813293457
1761392288555892500,0.642892578125,1.993882417678833,-2.947265625,1.0305653810501099
1761392288565974500,0.652974609375,1.9307583570480347,-2.5491015911102295,0.812857449054718
1761392288576056600,0.663056640625,1.8530083894729614,-2.131509304046631,0.7116498947143555
1761392288586139600,0.6731396484375,1.7044038772583008,-1.6393015384674072,0.7268046140670776
1761392288596221700,0.6832216796875,1.427210807800293,-1.241077184677124,0.7412520051002502
1761392288606303700,0.6933037109375,1.0304999351501465,-1.0054047107696533,0.682820737361908
1761392288616385800,0.7033857421875,0.7119141817092896,-0.6128311157226562,0.5651590824127197
1761392288626468600,0.713468505859375,0.7406695485115051,-0.04616113007068634,0.33418330550193787
1761392288636550700,0.723550537109375,0.9886332750320435,0.4882620573043823,-0.07923623919487
1761392288646632700,0.7336328125,1.290984034538269,0.8423715829849243,-0.5102486610412598
1761392288656714800,0.74371484375,1.5090100765228271,1.1953967809677124,-0.681640088558197
1761392288666797600,0.753797607421875,1.525126338005066,1.5938305854797363,-0.5027861595153809
1761392288676879600,0.763879638671875,1.4983066320419312,2.1320927143096924,-0.06498991698026657
1761392288686961700,0.773961669921875,1.4834409952163696,2.769296884536743,0.49154263734817505
1761392288697044700,0.784044677734375,1.33682382106781,3.1930487155914307,1.0560669898986816
1761392288707126500,0.79412646484375,0.9554484486579895,3.4241178035736084,1.607895851135254
1761392288717208600,0.80420849609375,0.5758678913116455,3.66072416305542,2.0945065021514893
1761392288727290600,0.81429052734375,0.4060588777065277,3.913475751876831,2.4434330463409424
1761392288737373700,0.824373779296875,0.41773977875709534,4.254742622375488,2.632235288619995
1761392288747455500,0.83445556640625,0.48221492767333984,4.619700908660889,2.6551265716552734
1761392288757537500,0.84453759765625,0.6079539656639099,4.887021064758301,2.5939834117889404
1761392288767619600,0.85461962890625,0.7693222165107727,5.015328884124756,2.502946138381958
1761392288777702700,0.86470263671875,0.8776606917381287,4.945537090301514,2.393275022506714
1761392288787784700,0.87478466796875,0.973329484462738,4.791845798492432,2.298006296157837
1761392288797866500,0.884866455078125,1.027803897857666,4.576517581939697,2.1465299129486084
1761392288807948500,0.894948486328125,0.8873268365859985,4.2361626625061035,1.8792554140090942
1761392288818031600,0.905031494140625,0.6627088785171509,3.9169373512268066,1.5082675218582153
1761392288828113700,0.91511376953125,0.5993225574493408,3.556873321533203,1.068932056427002
1761392288838192000,0.925192138671875,0.690920352935791,3.25361967086792,0.611702024936676
1761392288848275200,0.935275146484375,0.8243677616119385,3.029522180557251,0.207638680934906
1761392288858357200,0.945357177734375,0.9833672642707825,2.789261817932129,-0.11062611639499664
1761392288868439300,0.955439208984375,1.1194707155227661,2.5164780616760254,-0.358075886964798
1761392288878521000,0.96552099609375,1.179463505744934,2.1909265518188477,-0.5114710330963135
1761392288888604200,0.975604248046875,1.1637688875198364,1.8633161783218384,-0.5275100469589233
1761392288898686200,0.985686279296875,1.0922521352767944,1.5124502182006836,-0.4737725257873535
1761392288908768300,0.995768310546875,0.9690595269203186,1.223046898841858,-0.5020110011100769
1761392288918850300,1.005850341796875,0.8684977293014526,0.9359804391860962,-0.6613982915878296
1761392288928933000,1.01593310546875,0.8394972085952759,0.6430612802505493,-0.9023798108100891
1761392288939015200,1.02601513671875,0.9119218587875366,0.41814476251602173,-1.103676438331604
1761392288949097200,1.03609716796875,1.053951621055603,0.31554675102233887,-1.184664011001587
1761392288959180000,1.046179931640625,1.1360828876495361,0.2371682971715927,-1.1313302516937256
1761392288969262000,1.056261962890625,1.2420371770858765,0.21340122818946838,-0.9657065272331238
1761392288979344100,1.06634423828125,1.4882315397262573,0.08275292813777924,-0.6987725496292114
1761392288989426200,1.07642626953125,1.7092353105545044,-0.17584626376628876,-0.33580175042152405
1761392288999509000,1.086509033203125,1.9143437147140503,-0.6697239279747009,-0.11336228996515274
1761392289009591000,1.096591064453125,2.0758800506591797,-1.3200514316558838,-0.2645229995250702
1761392289019673000,1.106673095703125,2.080251932144165,-1.900208830833435,-0.9220548272132874
1761392289029755100,1.116755126953125,1.95436429977417,-2.3101773262023926,-2.0335423946380615
1761392289039838200,1.126838134765625,1.747189998626709,-2.7445569038391113,-3.4678471088409424
1761392289049920300,1.136920166015625,1.5841805934906006,-3.1236963272094727,-4.751443386077881
1761392289060002000,1.147001953125,1.4987461566925049,-3.351353645324707,-5.3835859298706055
1761392289070085400,1.15708544921875,1.4427847862243652,-3.3554370403289795,-5.094601631164551
1761392289080167200,1.167167236328125,1.3887732028961182,-3.2462282180786133,-4.1850972175598145
1761392289090249200,1.177249267578125,1.3581629991531372,-3.230213165283203,-3.1880359649658203
1761392289100331300,1.187331298828125,1.487874150276184,-3.4916141033172607,-2.551452875137329
1761392289110414300,1.197414306640625,1.7255772352218628,-3.6934478282928467,-2.0387463569641113
1761392289120496400,1.207496337890625,1.9291199445724487,-3.8411664962768555,-1.4275063276290894
1761392289130578200,1.217578125,1.9884847402572632,-3.802963972091675,-0.750321090221405
1761392289140661200,1.2276611328125,1.970810890197754,-3.6416993141174316,-0.18603266775608063
1761392289150743300,1.237743408203125,1.9120270013809204,-3.322291612625122,0.300071120262146
1761392289160825300,1.247825439453125,1.7916741371154785,-2.8773231506347656,0.798057496547699
1761392289170907100,1.2579072265625,1.57485830783844,-2.2172653675079346,1.2908059358596802
1761392289180990200,1.267990234375,1.2335566282272339,-1.3978238105773926,1.6099085807800293
1761392289191072300,1.278072265625,0.8182809948921204,-0.5762898325920105,1.641822099685669
1761392289201154300,1.288154296875,0.37154823541641235,0.1946742981672287,1.4629274606704712
1761392289211237000,1.298237060546875,-0.03022932820022106,0.6790043115615845,1.2667152881622314
1761392289221319200,1.308319091796875,-0.2530576288700104,0.7615146636962891,1.2339459657669067
1761392289231401200,1.318401123046875,-0.29446691274642944,0.6331808567047119,1.5225389003753662
1761392289241483300,1.328483154296875,-0.1861463040113449,0.417690634727478,2.1321933269500732
1761392289251566000,1.338566162109375,-0.0015714131295681,0.34385672211647034,2.8769803047180176
1761392289261648100,1.348648193359375,0.10900995880365372,0.5726428031921387,3.6322996616363525
1761392289271730200,1.358730224609375,0.040959183126688004,1.1048550605773926,4.20078706741333
1761392289281812200,1.368812255859375,-0.19980095326900482,1.9517549276351929,4.460038661956787
1761392289291895000,1.37889501953125,-0.5384946465492249,2.853837728500366,4.467595100402832
1761392289301977000,1.38897705078125,-0.9091475009918213,3.5971946716308594,4.424925327301025
1761392289312059100,1.39905908203125,-1.2132014036178589,4.216467380523682,4.484676837921143
1761392289322142200,1.40914208984375,-1.3618886470794678,4.893123626708984,4.656382083892822
1761392289332224300,1.419224365234375,-1.3641825914382935,5.676504135131836,4.899965763092041
1761392289342306000,1.42930615234375,-1.1982450485229492,6.437076568603516,5.193473815917969
1761392289352388000,1.43938818359375,-0.8100816011428833,7.0493669509887695,5.5733489990234375
1761392289362471200,1.44947119140625,-0.2612301707267761,7.153604984283447,5.6769022941589355
1761392289372553200,1.45955322265625,0.3902709186077118,6.369795799255371,5.088593482971191
1761392289382635000,1.469635009765625,1.039607286453247,4.77304744720459,4.205194473266602
1761392289392718300,1.47971826171875,1.4441637992858887,2.814568519592285,3.5322792530059814
1761392289402800400,1.48980029296875,1.6221359968185425,0.8176119327545166,3.0987935066223145
1761392289412882200,1.499882080078125,1.7141363620758057,-0.3194465935230255,3.003492832183838
1761392289422964200,1.509964111328125,1.5815080404281616,-0.3234919309616089,3.283465623855591
1761392289433047300,1.52004736328125,1.2989424467086792,0.4146558344364166,3.3748300075531006
1761392289443129300,1.53012939453125,1.047255039215088,1.2052935361862183,2.93966007232666
1761392289453211400,1.54021142578125,0.9046636819839478,1.7351601123809814,2.015465259552002
1761392289463294200,1.550294189453125,0.9177411198616028,2.0430355072021484,0.9021757245063782
1761392289473376300,1.560376220703125,0.9928374886512756,2.1265342235565186,0.02780301682651043
1761392289483458300,1.570458251953125,1.0814045667648315,2.0068233013153076,-0.3891329765319824
1761392289493540400,1.580540283203125,1.1404707431793213,1.6290208101272583,-0.44520333409309387
1761392289503623200,1.590623046875,1.1864608526229858,1.3330641984939575,-0.3163721263408661
1761392289513705200,1.600705322265625,1.2655014991760254,1.3188340663909912,-0.3266386091709137
1761392289523787300,1.610787353515625,1.3310952186584473,1.503726601600647,-0.582644522190094
1761392289533870300,1.620870361328125,1.2643325328826904,1.6516677141189575,-1.0097777843475342
1761392289543952100,1.6309521484375,1.0261926651000977,1.4877177476882935,-1.511574625968933
1761392289554034200,1.6410341796875,0.749257504940033,1.1213507652282715,-1.9324527978897095
1761392289564117200,1.6511171875,0.5622631311416626,0.7265453934669495,-2.2539494037628174
1761392289574199300,1.66119921875,0.45296552777290344,0.33055612444877625,-2.4450221061706543
1761392289584281000,1.671281005859375,0.3104802966117859,-0.14735744893550873,-2.4858248233795166
1761392289594363100,1.681363037109375,0.12705370783805847,-0.7402634620666504,-2.462867021560669
1761392289604446200,1.6914462890625,-0.1525513082742691,-1.3038997650146484,-2.548644542694092
1761392289614528300,1.7015283203125,-0.47100287675857544,-1.707421898841858,-2.857196092605591
1761392289624610300,1.7116103515625,-0.7967623472213745,-1.8827764987945557,-3.3422048091888428
1761392289634693000,1.721693115234375,-1.0910884141921997,-1.95451021194458,-3.8094685077667236
1761392289644775200,1.731775146484375,-1.344189167022705,-2.2411227226257324,-4.109122276306152
1761392289654857200,1.741857177734375,-1.6099506616592407,-2.5773558616638184,-4.009972095489502
1761392289664940000,1.75193994140625,-1.9349324703216553,-2.749837636947632,-3.560523748397827
1761392289675022000,1.76202197265625,-2.2550320625305176,-2.8522679805755615,-3.524592399597168
1761392289685104000,1.772104248046875,-2.3724043369293213,-2.750009536743164,-4.001558303833008
1761392289695186200,1.782186279296875,-2.288384437561035,-2.9351117610931396,-4.443613529205322
1761392289705269000,1.79226904296875,-2.180685043334961,-3.3417446613311768,-4.454748630523682
1761392289715351000,1.80235107421875,-2.081573486328125,-3.5546927452087402,-3.923175811767578
1761392289725433000,1.81243310546875,-2.0023159980773926,-3.2742066383361816,-2.7517857551574707
1761392289735516400,1.822516357421875,-1.745940923690796,-2.371934652328491,-1.002678394317627
1761392289745598200,1.83259814453125,-1.337523341178894,-1.055118441581726,0.7027571201324463
1761392289755680300,1.84268017578125,-0.9315952658653259,-0.07079100608825684,1.809592604637146
1761392289765762000,1.852761962890625,-0.6279171705245972,0.5742340683937073,2.3345983028411865
1761392289775845400,1.862845458984375,-0.48254409432411194,0.9393343329429626,2.6242868900299072
1761392289785927200,1.87292724609375,-0.4300702214241028,1.1510683298110962,2.9558732509613037
1761392289796009200,1.88300927734375,-0.33766189217567444,1.3791054487228394,3.3732614517211914
1761392289806092300,1.89309228515625,-0.2408599704504013,1.6650769710540771,3.773463249206543
1761392289816174300,1.90317431640625,-0.15678727626800537,1.9340667724609375,4.128760814666748
1761392289826256400,1.91325634765625,-0.15302717685699463,2.09413743019104,4.35398006439209
1761392289836340000,1.923340087890625,-0.27930691838264465,2.177640438079834,4.449746608734131
1761392289846422000,1.933422119140625,-0.5261542201042175,2.1873745918273926,4.424499988555908
1761392289856504000,1.943504150390625,-0.7686465382575989,2.1835861206054688,4.237836837768555
1761392289866585900,1.9535859375,-0.9405890107154846,2.2551980018615723,3.8338446617126465
1761392289876669000,1.9636689453125,-1.0510178804397583,2.3840456008911133,3.2893738746643066
1761392289886751000,1.9737509765625,-1.0851401090621948,2.5424134731292725,2.789782762527466
1761392289896833000,1.9838330078125,-1.1095026731491089,2.69693660736084,2.4209017753601074
1761392289906915800,1.993915771484375,-1.1409629583358765,2.767104387283325,2.210792064666748
1761392289916998000,2.003997802734375,-1.1635154485702515,2.60331392288208,2.115159749984741
1761392289927080000,2.014079833984375,-1.1552643775939941,2.28401517868042,2.0320537090301514
1761392289937163000,2.0241630859375,-1.0928552150726318,1.9449363946914673,1.883987307548523
1761392289947244800,2.034244873046875,-0.9691175222396851,1.8256360292434692,1.6222840547561646
1761392289957326800,2.044326904296875,-0.9156801700592041,1.818311095237732,1.2800610065460205
1761392289967409000,2.054408935546875,-0.9608417749404907,1.728051781654358,0.891261100769043
1761392289977492000,2.064491943359375,-1.0203773975372314,1.4169621467590332,0.3809739053249359
1761392289987574000,2.074573974609375,-0.9260199666023254,0.9528908133506775,-0.3913947343826294
1761392289997656000,2.084656005859375,-0.6095373630523682,0.3832642436027527,-1.3306477069854736
1761392290007739100,2.0947392578125,-0.34332215785980225,-0.4096360504627228,-2.260685920715332
1761392290017821200,2.1048212890625,-0.19098487496376038,-1.7425061464309692,-3.2734599113464355
1761392290027903000,2.114903076171875,-0.16424141824245453,-2.840531587600708,-4.39917516708374
1761392290037986000,2.124986083984375,-0.2557811141014099,-2.3981082439422607,-5.282930374145508
1761392290048068000,2.135068115234375,-0.2194254994392395,-0.3876791298389435,-5.825578212738037
1761392290058150100,2.145150146484375,0.08833931386470795,1.469183087348938,-6.224220275878906
1761392290068233000,2.15523291015625,0.597255527973175,1.8607633113861084,-6.525283336639404
1761392290078315000,2.16531494140625,1.0795183181762695,0.4307577610015869,-6.547049045562744
1761392290088397000,2.17539697265625,1.4024028778076172,-2.187534809112549,-6.001872539520264
1761392290098479000,2.18547900390625,1.6571687459945679,-4.766070365905762,-5.02341365814209
1761392290108562000,2.19556201171875,1.7877824306488037,-6.425887107849121,-4.142249584197998
1761392290118644000,2.20564404296875,1.6867564916610718,-7.027167797088623,-3.8167922496795654
1761392290128726000,2.21572607421875,1.4183151721954346,-6.787021160125732,-4.091111183166504
1761392290138809000,2.22580908203125,0.851575493812561,-5.757255554199219,-4.672006607055664
1761392290148891000,2.235890869140625,-0.027291104197502136,-4.124380588531494,-5.180458068847656
1761392290158973000,2.245972900390625,-0.9808341860771179,-2.468653440475464,-5.420451641082764
1761392290169056000,2.256055908203125,-1.7287896871566772,-1.105055809020996,-5.421629905700684
1761392290179138000,2.266137939453125,-2.223876476287842,-0.19858130812644958,-5.178003787994385
1761392290189219800,2.2762197265625,-2.383906602859497,0.20725008845329285,-4.601510524749756
1761392290199303000,2.286302978515625,-2.2875630855560303,0.025536296889185905,-3.6557915210723877
1761392290209385000,2.296385009765625,-2.015630006790161,-0.7088199853897095,-2.454559564590454
1761392290219467000,2.306467041015625,-1.6077041625976562,-1.7827001810073853,-1.1797057390213013
1761392290229549000,2.316549072265625,-1.0957508087158203,-2.730954647064209,0.031094590201973915
1761392290239632000,2.3266318359375,-0.5749443769454956,-3.264448404312134,1.0531401634216309
1761392290249714000,2.3367138671875,-0.1428806185722351,-3.3515422344207764,1.8123724460601807
1761392290259796000,2.3467958984375,0.0904078558087349,-3.1138057708740234,2.2833359241485596
1761392290269879000,2.356879150390625,0.19062447547912598,-2.608125925064087,2.469064712524414
1761392290279961000,2.366961181640625,0.23883408308029175,-1.9237021207809448,2.4160406589508057
1761392290290043100,2.377043212890625,0.2041783630847931,-1.360474705696106,2.1807539463043213
1761392290300126000,2.3871259765625,0.007688252255320549,-1.0994280576705933,1.943100094795227
1761392290310208000,2.3972080078125,-0.4029722511768341,-0.739835798740387,1.8679333925247192
1761392290320290000,2.4072900390625,-0.9259207248687744,-0.17175573110580444,1.749697208404541
1761392290330372000,2.4173720703125,-1.4071664810180664,0.5256145596504211,1.550882339477539
1761392290340455200,2.427455078125,-1.59812593460083,1.235461711883545,1.416693925857544
1761392290350537000,2.437536865234375,-1.5601232051849365,1.9533604383468628,1.4529824256896973
1761392290360619000,2.447618896484375,-1.4246119260787964,2.8091838359832764,1.7509496212005615
1761392290370702000,2.4577021484375,-1.168405532836914,3.6853950023651123,2.236565351486206
1761392290380784000,2.4677841796875,-0.7875787019729614,4.33103609085083,2.747150182723999
1761392290390866000,2.477865966796875,-0.2950308322906494,4.696470260620117,3.168789863586426
1761392290400949000,2.487948974609375,0.18361923098564148,4.809063911437988,3.5393619537353516
1761392290411031000,2.498031005859375,0.5918549299240112,4.744658470153809,3.8857412338256836
1761392290421113000,2.508113037109375,0.9186257123947144,4.57322883605957,4.217175006866455
1761392290431196000,2.51819580078125,1.1887656450271606,4.353277683258057,4.518399715423584
1761392290441278000,2.52827783203125,1.401991844177246,4.080245494842529,4.7561116218566895
1761392290451360000,2.538360107421875,1.5204830169677734,3.904855489730835,4.97566556930542
1761392290461442000,2.548442138671875,1.5496572256088257,3.7683568000793457,5.15498685836792
1761392290471524900,2.55852490234375,1.5110968351364136,3.5823585987091064,5.285224914550781
1761392290481607000,2.56860693359375,1.4011882543563843,3.3296003341674805,5.402620792388916
1761392290491689000,2.57868896484375,1.2342246770858765,3.0511586666107178,5.492105007171631
1761392290501772000,2.58877197265625,1.081743597984314,2.8514437675476074,5.503933429718018
1761392290511853800,2.598853759765625,0.9721377491950989,2.7751734256744385,5.396844863891602
1761392290521936000,2.608935791015625,0.9200589060783386,2.781433582305908,5.187046527862549
1761392290532019000,2.61901904296875,0.8892338275909424,2.9060051441192627,4.993638038635254
1761392290542101000,2.62910107421875,0.8225816488265991,2.9483022689819336,4.81006383895874
1761392290552183000,2.63918310546875,0.7364087104797363,2.8245718479156494,4.524465560913086
1761392290562266000,2.64926611328125,0.7070561647415161,2.548428535461426,3.9343621730804443
1761392290572348000,2.659347900390625,0.9497777223587036,2.0023958683013916,2.7320566177368164
1761392290582430000,2.669429931640625,1.4588426351547241,0.6637979745864868,0.7652769684791565
1761392290592513000,2.679512939453125,1.9398856163024902,-1.321677327156067,-1.3535544872283936
1761392290602595000,2.689594970703125,2.084940195083618,-2.9824461936950684,-2.861365556716919
1761392290612677000,2.699677001953125,1.8781534433364868,-3.4981188774108887,-3.5765552520751953
1761392290622759200,2.70975927734375,1.519794225692749,-2.5893771648406982,-3.8152925968170166
1761392290632842000,2.719842041015625,1.2329344749450684,-0.7978693842887878,-4.120528221130371
1761392290642924000,2.729924072265625,1.1966361999511719,0.7311630249023438,-4.673312187194824
1761392290653006000,2.740006103515625,1.3250809907913208,1.5018692016601562,-5.381088733673096
1761392290663089200,2.750089111328125,1.5593749284744263,1.47060227394104,-6.098541736602783
1761392290673171000,2.7601708984375,1.8717831373214722,0.6906934380531311,-6.714239120483398
1761392290683253000,2.7702529296875,2.131211996078491,-0.6910429000854492,-7.191754341125488
1761392290693336000,2.780336181640625,2.1903014183044434,-2.2742209434509277,-7.404187202453613
1761392290703418000,2.790418212890625,2.199387550354004,-3.644296884536743,-7.294206142425537
1761392290713500000,2.8005,2.289942502975464,-4.36767053604126,-6.918182849884033
1761392290723583000,2.8105830078125,2.322949171066284,-4.146894454956055,-6.376689910888672
1761392290733665000,2.8206650390625,2.123098373413086,-3.2114381790161133,-5.917381286621094
1761392290743747000,2.8307470703125,1.781212329864502,-2.168365955352783,-5.694546699523926
1761392290753830000,2.840829833984375,1.3540966510772705,-1.2330577373504639,-5.565823554992676
1761392290763912000,2.850911865234375,0.9114299416542053,-0.6019421815872192,-5.33935546875
1761392290773994000,2.860993896484375,0.5479037165641785,-0.33976438641548157,-4.931652069091797
1761392290784077000,2.8710771484375,0.21136988699436188,-0.5088016986846924,-4.472866535186768
1761392290794158800,2.881158935546875,-0.037155505269765854,-0.9904474020004272,-4.2148118019104
1761392290804241000,2.891240966796875,-0.1721363663673401,-1.5125281810760498,-4.452789783477783
1761392290814324000,2.901323974609375,-0.19560600817203522,-2.0521397590637207,-5.103306770324707
1761392290824406000,2.911406005859375,-0.2795613408088684,-2.6537089347839355,-5.784640789031982
1761392290834487300,2.9214873046875,-0.49718713760375977,-3.4428648948669434,-5.906519889831543
1761392290844569000,2.931569091796875,-0.831630527973175,-3.949558973312378,-5.344712257385254
1761392290854652200,2.941652099609375,-1.1913825273513794,-3.8622732162475586,-4.42007303237915
1761392290864734200,2.951734130859375,-1.4795712232589722,-3.337082624435425,-3.5602025985717773
1761392290874816300,2.961816162109375,-1.6377686262130737,-2.7162842750549316,-2.898862600326538
1761392290884899000,2.971899169921875,-1.7241723537445068,-2.24558424949646,-2.3016068935394287
1761392290894981000,2.981981201171875,-1.7936017513275146,-1.9225720167160034,-1.6876448392868042
1761392290905063200,2.992063232421875,-1.8550559282302856,-1.7080268859863281,-1.0570683479309082
1761392290915146200,3.002146240234375,-1.8982231616973877,-1.6054680347442627,-0.5023659467697144
1761392290925228000,3.01222802734375,-1.9561396837234497,-1.450618028640747,-0.16350868344306946
1761392290935310000,3.02231005859375,-2.0382258892059326,-1.1140671968460083,-0.0734725221991539
1761392290945393400,3.032393310546875,-2.0886905193328857,-0.5730310678482056,-0.08258730918169022
1761392290955475200,3.04247509765625,-2.110949754714966,0.011371632106602192,-0.009060895070433617
1761392290965557000,3.052556884765625,-2.1041862964630127,0.4852692186832428,0.22562135756015778
1761392290975640300,3.062640380859375,-2.009601593017578,0.7842659950256348,0.6705460548400879
1761392290985722400,3.072722412109375,-1.8317816257476807,0.9793970584869385,1.2505840063095093
1761392290995804400,3.082804443359375,-1.635757565498352,1.1132243871688843,1.9014244079589844
1761392291005886200,3.09288623046875,-1.4408948421478271,1.2489639520645142,2.574655532836914
1761392291015969300,3.10296923828125,-1.2749828100204468,1.327654242515564,3.1822831630706787
1761392291026051300,3.11305126953125,-1.1461230516433716,1.3841383457183838,3.634864330291748
1761392291036133400,3.12313330078125,-1.0417753458023071,1.424083948135376,3.917691707611084
1761392291046216200,3.13321630859375,-0.9415266513824463,1.4827378988265991,4.162011623382568
1761392291056298200,3.14329833984375,-0.8412232398986816,1.643903374671936,4.426327705383301
1761392291066380300,3.15338037109375,-0.8289704322814941,1.8917784690856934,4.681413173675537
1761392291076463000,3.163463134765625,-0.9881201386451721,2.4188759326934814,4.740927696228027
1761392291086545200,3.173545166015625,-1.2494020462036133,3.0378572940826416,4.751910209655762
1761392291096627200,3.183627197265625,-1.328378677368164,3.4855141639709473,4.490405082702637
1761392291106710300,3.193710205078125,-1.035783290863037,3.4380054473876953,3.900327682495117
1761392291116792300,3.203792236328125,-0.5435911417007446,2.767791748046875,3.3384017944335938
1761392291126874000,3.2138740234375,-0.22325749695301056,2.027773141860962,3.4797322750091553
1761392291136957200,3.223957275390625,0.0011119712144136429,1.553383708000183,4.2964582443237305
1761392291147039200,3.234039306640625,0.15546026825904846,1.4470493793487549,5.166630744934082
1761392291157121300,3.244121337890625,0.3085954785346985,1.860504388809204,5.573105812072754
1761392291167203000,3.254203125,0.47779664397239685,2.588827610015869,5.359494209289551
1761392291177286100,3.2642861328125,0.4953570067882538,3.3400087356567383,4.836056232452393
1761392291187368200,3.2743681640625,0.34880387783050537,3.943502187728882,4.293667793273926
1761392291197450200,3.2844501953125,0.21078424155712128,4.327900409698486,3.898420810699463
1761392291207533000,3.294532958984375,0.22899401187896729,4.449788570404053,3.6438517570495605
1761392291217615000,3.304614990234375,0.4718945622444153,4.304211139678955,3.4885058403015137
1761392291227697200,3.314697265625,0.8927076458930969,3.9400410652160645,3.4482803344726562
1761392291237780000,3.324780029296875,1.363930344581604,3.3563919067382812,3.5218992233276367
1761392291247862000,3.334862060546875,1.7913734912872314,2.596712827682495,3.7453010082244873
1761392291257944000,3.344944091796875,2.1233725547790527,1.718685507774353,4.110649108886719
1761392291268027400,3.35502734375,2.3186330795288086,0.8786055445671082,4.5156378746032715
1761392291278109400,3.365109375,2.3815228939056396,0.18097296357154846,4.81437873840332
1761392291288191200,3.375191162109375,2.3059120178222656,-0.3140042722225189,4.9448747634887695
1761392291298274300,3.3852744140625,2.143768787384033,-0.5027041435241699,4.868550777435303
1761392291308356400,3.3953564453125,1.9745490550994873,-0.436049222946167,4.6524505615234375
1761392291318438400,3.4054384765625,1.8252711296081543,-0.22039709985256195,4.423121929168701
1761392291328521200,3.415521240234375,1.65908944606781,-0.00472139660269022,4.307512283325195
1761392291338603300,3.425603271484375,1.4730592966079712,0.16993243992328644,4.248173713684082
1761392291348685300,3.435685302734375,1.2345079183578491,0.35508525371551514,4.117805480957031
1761392291358768000,3.44576806640625,0.9177488684654236,0.5108580589294434,3.8675696849823
1761392291368850200,3.45585009765625,0.5768296718597412,0.5179007649421692,3.526977300643921
1761392291378932200,3.46593212890625,0.27339309453964233,0.3938392996788025,3.0999808311462402
1761392291389014300,3.47601416015625,0.018841244280338287,0.16612160205841064,2.6264455318450928
1761392291399097000,3.48609716796875,-0.20525391399860382,0.09003188461065292,2.1963939666748047
1761392291409179100,3.49617919921875,-0.40897732973098755,0.3529748320579529,1.8022276163101196
1761392291419261200,3.50626123046875,-0.7423412203788757,0.6578788161277771,0.9224119186401367
1761392291429344300,3.51634423828125,-1.3004603385925293,0.8348624110221863,-0.49939683079719543
1761392291439426300,3.52642626953125,-1.8178032636642456,0.7665531635284424,-2.102980375289917
1761392291449508000,3.536508056640625,-2.105710983276367,0.6755610704421997,-3.636719226837158
1761392291459591200,3.546591064453125,-2.061136484146118,0.30127161741256714,-4.9693403244018555
1761392291469673200,3.556673095703125,-1.7251977920532227,-0.18164867162704468,-5.970108985900879
1761392291479755300,3.56675537109375,-1.4501150846481323,-0.49213624000549316,-6.704697608947754
1761392291489838000,3.576838134765625,-1.4790552854537964,-0.7567917108535767,-7.410353660583496
1761392291499920100,3.586920166015625,-1.9650746583938599,-0.6785901188850403,-8.118269920349121
1761392291510002200,3.597002197265625,-2.6575701236724854,-0.17546774446964264,-8.82933521270752
1761392291520085000,3.6070849609375,-3.1341469287872314,0.3543364405632019,-9.531912803649902
1761392291530167000,3.6171669921875,-3.2477946281433105,0.49281707406044006,-9.973113059997559
1761392291540249000,3.6272490234375,-3.0923986434936523,-0.020563144236803055,-9.873190879821777
1761392291550332400,3.63733251953125,-2.7580654621124268,-1.1766037940979004,-9.170792579650879
1761392291560414200,3.647414306640625,-2.3412957191467285,-2.717794179916382,-7.981308460235596
1761392291570496300,3.657496337890625,-1.803261160850525,-4.485846996307373,-6.697333335876465
1761392291580578000,3.667578125,-1.1960444450378418,-6.094463348388672,-5.531482219696045
1761392291590661400,3.677661376953125,-0.6229968667030334,-7.020347595214844,-4.400780200958252
1761392291600743200,3.6877431640625,-0.16522715985774994,-6.94756555557251,-3.261324167251587
1761392291610825200,3.6978251953125,-0.13201412558555603,-5.932608604431152,-2.5254955291748047
1761392291620908300,3.707908203125,-0.5698135495185852,-4.370766639709473,-2.489382028579712
1761392291630990300,3.717990234375,-1.2332649230957031,-2.6449480056762695,-2.8355941772460938
1761392291641072400,3.728072265625,-2.005962371826172,-1.243332862854004,-2.8998119831085205
1761392291651155200,3.7381552734375,-2.479722261428833,-0.5204465389251709,-2.1763570308685303
1761392291661237200,3.7482373046875,-2.504077434539795,-0.18802116811275482,-0.8653265237808228
1761392291671319300,3.7583193359375,-2.262673854827881,-0.004954702220857143,0.6639641523361206
1761392291681402000,3.768402099609375,-1.95147705078125,0.06115587428212166,2.080254077911377
1761392291691484200,3.778484130859375,-1.782099723815918,0.16491180658340454,3.1968162059783936
1761392291701566200,3.788566162109375,-1.7818567752838135,0.3789849579334259,3.8743784427642822
1761392291711649300,3.798649169921875,-1.9319723844528198,0.7640584707260132,4.10421085357666
1761392291721731000,3.80873095703125,-2.179746627807617,1.402062177658081,4.042697906494141
1761392291731813000,3.818813232421875,-2.43082857131958,2.251210927963257,3.8922278881073
1761392291741895200,3.828895263671875,-2.569150924682617,3.1507840156555176,3.7566957473754883
1761392291751978200,3.838978271484375,-2.5278072357177734,3.9472241401672363,3.738654136657715
1761392291762060300,3.849060302734375,-2.312056064605713,4.651768684387207,4.030245304107666
1761392291772142000,3.85914208984375,-1.9336042404174805,5.078377723693848,4.308478355407715
1761392291782225200,3.86922509765625,-1.3074798583984375,4.777538299560547,4.066878318786621
1761392291792307200,3.87930712890625,-0.6020584106445312,4.0840020179748535,3.9404654502868652
1761392291802389200,3.88938916015625,0.1966824233531952,3.122451066970825,4.256464004516602
1761392291812472000,3.89947216796875,0.8350588083267212,1.8401305675506592,4.231210231781006
1761392291822554000,3.90955419921875,1.0689927339553833,0.8657843470573425,3.751284122467041
1761392291832637200,3.91963720703125,0.8845245838165283,0.5470892786979675,2.940788745880127
1761392291842720300,3.92972021484375,0.2458609640598297,1.1395360231399536,2.1788363456726074
1761392291852802300,3.93980224609375,-0.412087619304657,2.2261874675750732,1.4864866733551025
1761392291862884400,3.94988427734375,-0.657145082950592,3.3224308490753174,0.7478847503662109
1761392291872966400,3.95996630859375,-0.4537150263786316,3.9744176864624023,0.05431564524769783
1761392291883049200,3.97004931640625,0.12422392517328262,4.030456066131592,-0.30982500314712524
1761392291893131300,3.98013134765625,0.7862574458122253,3.4294779300689697,-0.12540976703166962
1761392291903213300,3.99021337890625,1.2244117259979248,2.307974100112915,0.5307134985923767
1761392291913296100,4.000296142578125,1.3998942375183105,1.053155779838562,1.0508524179458618
1761392291923378200,4.010378173828125,1.4374237060546875,0.10880360007286072,0.9213361740112305
1761392291933460200,4.020460205078125,1.4698257446289062,-0.1771107167005539,0.09397284686565399
1761392291943542300,4.030542236328125,1.4725066423416138,-0.005704086273908615,-1.2239861488342285
1761392291953624300,4.040624267578125,1.4298917055130005,0.389407753944397,-2.510525941848755
1761392291963707100,4.05070703125,1.2769631147384644,0.38158926367759705,-3.4673237800598145
1761392291973789200,4.0607890625,1.0113483667373657,-0.08221350610256195,-3.9895520210266113
1761392291983871200,4.070871337890625,0.8324729800224304,-0.7689250707626343,-4.085842132568359
1761392291993954300,4.080954345703125,0.8049265742301941,-1.636896014213562,-3.9352684020996094
1761392292004036000,4.0910361328125,0.7733135223388672,-2.526399612426758,-3.7433457374572754
1761392292014118100,4.1011181640625,0.724763035774231,-3.3164572715759277,-3.758420467376709
1761392292024201200,4.111201171875,0.665058434009552,-3.7440874576568604,-3.8649330139160156
1761392292034283300,4.121283203125,0.5413393378257751,-3.6852195262908936,-3.885779619216919
1761392292044365000,4.131364990234375,0.3562517464160919,-3.2579405307769775,-3.8243513107299805
1761392292054448000,4.1414482421875,0.17486250400543213,-2.76385498046875,-3.8419651985168457
1761392292064530200,4.1515302734375,0.02658328413963318,-2.524805784225464,-3.864814043045044
1761392292074612200,4.1616123046875,-0.12893137335777283,-2.4918594360351562,-3.736513614654541
1761392292084695000,4.171695068359375,-0.3245682716369629,-2.7269351482391357,-3.377882719039917
1761392292094777000,4.181777099609375,-0.6508743166923523,-3.003822088241577,-2.5384902954101562
1761392292104859100,4.191859130859375,-1.042988657951355,-2.606206178665161,-1.0760762691497803
1761392292114941200,4.201941162109375,-1.3204301595687866,-1.2357285022735596,0.5844883322715759
1761392292125024300,4.212024169921875,-1.384513020515442,0.654867947101593,2.060136318206787
1761392292135106000,4.22210595703125,-1.294621467590332,2.1352035999298096,3.120232105255127
1761392292145188000,4.23218798828125,-1.1926957368850708,2.917370319366455,3.876649856567383
1761392292155271200,4.242271240234375,-1.0417593717575073,3.0352258682250977,4.439921855926514
1761392292165353200,4.252353271484375,-0.9063825011253357,2.778559923171997,4.952704429626465
1761392292175435300,4.262435302734375,-0.8041976094245911,2.4615039825439453,5.465976238250732
1761392292185518300,4.272518310546875,-0.7185319662094116,2.3505873680114746,5.900490760803223
1761392292195600400,4.282600341796875,-0.636688768863678,2.3516125679016113,6.1847405433654785
1761392292205682200,4.29268212890625,-0.585954487323761,2.479856491088867,6.310427188873291
1761392292215765200,4.30276513671875,-0.563544511795044,2.7152702808380127,6.242855072021484
1761392292225847300,4.312847412109375,-0.49742624163627625,2.8409805297851562,5.954829216003418
1761392292235929300,4.322929443359375,-0.44113650918006897,2.9057583808898926,5.491081237792969
1761392292246012200,4.33301220703125,-0.4270590543746948,2.8859918117523193,4.85133695602417
1761392292256094200,4.34309423828125,-0.39233624935150146,2.7703781127929688,4.168320655822754
1761392292266176300,4.35317626953125,-0.2907651364803314,2.660724639892578,3.564432144165039
1761392292276258300,4.36325830078125,-0.15295109152793884,2.661707639694214,2.9923861026763916
1761392292286341000,4.373341064453125,0.016865378245711327,2.6247079372406006,2.435229539871216
1761392292296423200,4.383423095703125,0.22475674748420715,2.4147729873657227,1.8794655799865723
1761392292306505200,4.393505126953125,0.4180963933467865,1.9474433660507202,1.4151957035064697
1761392292316588300,4.40358837890625,0.5054446458816528,1.3537933826446533,1.1602628231048584
1761392292326670000,4.413670166015625,0.3475857675075531,0.8410759568214417,1.0645831823349
1761392292336752000,4.423752197265625,0.19694951176643372,0.6236583590507507,0.9698534607887268
1761392292346835200,4.433835205078125,0.19991813600063324,0.778599202632904,0.6768892407417297
1761392292356917200,4.443917236328125,0.3048228323459625,1.1678886413574219,0.17503495514392853
1761392292366999000,4.4539990234375,0.4572475254535675,1.4930936098098755,-0.4467364549636841
1761392292377082000,4.46408203125,0.6283090710639954,1.4316933155059814,-1.041809320449829
1761392292387164200,4.4741640625,0.8319939970970154,0.9425891637802124,-1.4993691444396973
1761392292397246200,4.48424609375,1.124627709388733,0.011956787668168545,-1.8321590423583984
1761392292407329300,4.494329345703125,1.4003932476043701,-1.0061547756195068,-2.0390713214874268
1761392292417411000,4.5044111328125,1.5280773639678955,-1.739736557006836,-2.212890625
1761392292427493000,4.5144931640625,1.404226541519165,-1.8808910846710205,-2.451071262359619
1761392292437575200,4.5245751953125,1.1136119365692139,-1.3775737285614014,-2.9081618785858154
1761392292447658200,4.534658203125,0.8040176033973694,-0.5642321109771729,-3.7067058086395264
1761392292457740300,4.544740234375,0.5766762495040894,0.10773351043462753,-4.740382671356201
1761392292467822300,4.554822265625,0.45876964926719666,0.3662966191768646,-5.792431354522705
1761392292477905200,4.5649052734375,0.40113919973373413,0.05194336920976639,-6.6633124351501465
1761392292487987200,4.5749873046875,0.36376118659973145,-0.7919551134109497,-7.132301330566406
1761392292498069200,4.5850693359375,0.314827024936676,-1.8911805152893066,-7.177711486816406
1761392292508152300,4.59515234375,0.3435513377189636,-2.824880361557007,-7.000251770019531
1761392292518234400,4.605234375,0.4454643726348877,-3.3544559478759766,-6.826434135437012
1761392292528316200,4.615316162109375,0.5577746629714966,-3.576112747192383,-6.701498031616211
1761392292538399200,4.625399169921875,0.580748975276947,-3.6496195793151855,-6.555399417877197
1761392292548481300,4.635481201171875,0.4886385202407837,-3.734062671661377,-6.32162618637085
1761392292558563300,4.645563232421875,0.3144928514957428,-3.866410255432129,-5.979862213134766
1761392292568646100,4.655646240234375,0.15058967471122742,-3.975543260574341,-5.629058837890625
1761392292578728200,4.665728271484375,-0.009671115316450596,-4.038668632507324,-5.449140548706055
1761392292588810200,4.675810302734375,-0.08258181065320969,-4.003737926483154,-5.625776290893555
1761392292598893000,4.68589306640625,-0.07142318040132523,-3.8173303604125977,-6.108265399932861
1761392292608975000,4.69597509765625,-0.10641898214817047,-3.4639475345611572,-6.4010138511657715
1761392292619057200,4.70605712890625,-0.2886098325252533,-3.08541202545166,-6.286387920379639
1761392292629140200,4.71614013671875,-0.437395840883255,-2.8187038898468018,-5.863147735595703
1761392292639222300,4.72622216796875,-0.43466460704803467,-2.8606348037719727,-5.2945709228515625
1761392292649304000,4.736303955078125,-0.2852245569229126,-3.2255237102508545,-4.680723667144775
1761392292659387100,4.74638720703125,-0.007706578820943832,-3.868011713027954,-4.0234150886535645
1761392292669469200,4.75646923828125,0.41237673163414,-4.78645658493042,-3.277036666870117
1761392292679551200,4.76655126953125,0.8477693796157837,-5.546636581420898,-2.4900684356689453
1761392292689634300,4.77663427734375,1.0970628261566162,-5.588135719299316,-1.9827357530593872
1761392292699716000,4.786716064453125,1.1373772621154785,-4.876953125,-1.9680466651916504
1761392292709798100,4.796798095703125,0.9055882096290588,-3.7561800479888916,-2.264291763305664
1761392292719880200,4.806880126953125,0.3690904676914215,-2.759446620941162,-2.404367208480835
1761392292729963300,4.81696337890625,-0.32747581601142883,-1.925042986869812,-2.320540189743042
1761392292740045300,4.82704541015625,-0.9865922331809998,-1.042724847793579,-2.314629077911377
1761392292750127400,4.83712744140625,-1.4176150560379028,-0.06957707554101944,-2.4512088298797607
1761392292760210200,4.847210205078125,-1.5403945446014404,0.718957781791687,-2.473982572555542
1761392292770292200,4.857292236328125,-1.2604426145553589,1.0655875205993652,-1.8636057376861572
1761392292780374300,4.867374267578125,-0.646404504776001,1.2303048372268677,-0.5636219382286072
1761392292790457300,4.877457275390625,0.056007128208875656,1.3451817035675049,1.0833027362823486
1761392292800539100,4.8875390625,0.5345064401626587,1.6510897874832153,2.636380195617676
1761392292810621200,4.89762109375,0.6600449085235596,2.168555974960327,3.726726770401001
1761392292820704300,4.907704345703125,0.4811972975730896,2.7752022743225098,4.27108907699585
1761392292830786300,4.917786376953125,0.08370131999254227,3.412506580352783,4.4647722244262695
1761392292840871200,4.92787109375,-0.36395931243896484,3.9734644889831543,4.573328971862793
1761392292850953200,4.937953125,-0.712130069732666,4.299652576446533,4.783895969390869
1761392292861036000,4.9480361328125,-0.9110764265060425,4.390196800231934,5.212007999420166
1761392292871118000,4.9581181640625,-1.0253363847732544,4.467662811279297,5.781550407409668
1761392292881200000,4.9682001953125,-1.1702995300292969,4.68245792388916,6.390453815460205
1761392292891283000,4.978282958984375,-1.328317642211914,5.065582275390625,6.868109226226807
1761392292901365000,4.988364990234375,-1.3516664505004883,5.516928672790527,7.097470283508301
1761392292911447000,4.998447021484375,-1.1608003377914429,5.624484539031982,6.957461833953857
1761392292921530000,5.008530029296875,-0.8773584961891174,5.4766316413879395,6.605268478393555
1761392292931612000,5.01861181640625,-0.5972639918327332,5.215623378753662,6.278245449066162
1761392292941694000,5.02869384765625,-0.2023201435804367,4.772218227386475,5.841755390167236
1761392292951777000,5.038777099609375,0.2694266140460968,3.9827470779418945,5.386424541473389
1761392292961859000,5.048859130859375,0.5193759799003601,2.9324111938476562,5.364846229553223
1761392292971941000,5.058941162109375,0.4291909635066986,1.9797111749649048,5.726894378662109
1761392292982023000,5.06902294921875,0.22968211770057678,1.3679487705230713,6.025918483734131
1761392292992106200,5.079106201171875,0.044136758893728256,1.2096400260925293,5.967082500457764
1761392293002188000,5.08918798828125,-0.13690441846847534,1.4358129501342773,5.472963809967041
1761392293012270000,5.09927001953125,-0.3033706247806549,1.6142473220825195,4.767489910125732
1761392293022353200,5.109353271484375,-0.49249744415283203,1.4601513147354126,3.950582504272461
1761392293032435200,5.119435302734375,-0.6497195363044739,1.1343684196472168,3.11672306060791
1761392293042517200,5.129517333984375,-0.6559380292892456,0.8415588140487671,2.502237319946289
1761392293052600000,5.13960009765625,-0.463434100151062,0.5472598075866699,2.197126865386963
1761392293062682000,5.14968212890625,-0.21068242192268372,0.33616361021995544,2.0896334648132324
1761392293072764200,5.15976416015625,-0.05415699630975723,0.08411887288093567,1.9915893077850342
1761392293082847200,5.16984716796875,-0.05903911218047142,-0.31458890438079834,1.610237717628479
1761392293092929000,5.179928955078125,-0.16378548741340637,-0.5400989651679993,0.8266103267669678
1761392293103011000,5.190010986328125,-0.2591901421546936,-0.5517370104789734,-0.32252681255340576
1761392293113094100,5.20009423828125,-0.25225475430488586,-0.4143999218940735,-1.5516775846481323
1761392293123176200,5.21017626953125,-0.12457267940044403,-0.20107026398181915,-2.5881636142730713
1761392293133258000,5.220258056640625,0.11653394997119904,-0.13014230132102966,-3.282625436782837
1761392293143341000,5.230341064453125,0.4654454290866852,-0.20944954454898834,-3.611499071121216
1761392293153423000,5.240423095703125,0.8603298664093018,-0.5281960964202881,-3.6662416458129883
1761392293163505200,5.250505126953125,1.1692763566970825,-1.03276789188385,-3.5571625232696533
1761392293173587200,5.260587158203125,1.3197531700134277,-1.5246647596359253,-3.5346486568450928
1761392293183670000,5.270669921875,1.2940731048583984,-1.8229237794876099,-3.7905373573303223
1761392293193752000,5.280751953125,1.2040542364120483,-1.8916800022125244,-4.414965629577637
1761392293203834000,5.290834228515625,1.1336482763290405,-2.107363700866699,-5.334992408752441
1761392293213917000,5.3009169921875,1.2125860452651978,-2.629737138748169,-6.369791507720947
1761392293223999000,5.3109990234375,1.3369404077529907,-3.3641130924224854,-7.238151550292969
1761392293234081000,5.3210810546875,1.3928977251052856,-4.161435127258301,-7.60664176940918
1761392293244164000,5.3311640625,1.3283611536026,-4.557359218597412,-7.3319091796875
1761392293254246000,5.341245849609375,1.1560163497924805,-4.0892014503479,-6.564373970031738
1761392293264328000,5.351327880859375,0.9082412123680115,-3.031409740447998,-5.81637716293335
1761392293274411000,5.361410888671875,0.586546003818512,-1.9460184574127197,-5.412839889526367
1761392293284493000,5.3714931640625,0.17733250558376312,-1.1443166732788086,-5.268190860748291
1761392293294574800,5.381574951171875,-0.1849338412284851,-0.8544390797615051,-5.13538932800293
1761392293304658200,5.391658203125,-0.33046913146972656,-1.1540426015853882,-4.804286956787109
1761392293314740200,5.401740234375,-0.2519940137863159,-1.6879509687423706,-4.18670129776001
1761392293324822300,5.411822265625,-0.12838882207870483,-2.0903232097625732,-3.473752498626709
1761392293334904300,5.421904296875,-0.016893720254302025,-2.2143476009368896,-2.761831283569336
1761392293344987100,5.431987060546875,-0.10561315715312958,-1.8981730937957764,-2.286001682281494
1761392293355069200,5.442069091796875,-0.3945744037628174,-1.2546113729476929,-2.0934131145477295
1761392293365151200,5.452151123046875,-0.7697145342826843,-0.5390875935554504,-1.9582091569900513
1761392293375234000,5.462234130859375,-1.1040326356887817,0.14203526079654694,-1.6214017868041992
1761392293385316000,5.472316162109375,-1.291131615638733,0.6242173910140991,-0.9797777533531189
1761392293395398100,5.482398193359375,-1.3313640356063843,0.8945692777633667,-0.09158077090978622
1761392293405481200,5.492481201171875,-1.3365185260772705,1.0337823629379272,0.8273692727088928
1761392293415563000,5.50256298828125,-1.3890480995178223,1.0916972160339355,1.5782818794250488
1761392293425645000,5.51264501953125,-1.6208860874176025,1.1727558374404907,2.1886870861053467
1761392293435728100,5.52272802734375,-2.0904781818389893,1.367526888847351,2.710991382598877
1761392293445810200,5.53281005859375,-2.7136802673339844,1.6947466135025024,3.143873453140259
1761392293455892000,5.54289208984375,-3.4315249919891357,2.1921839714050293,3.576057195663452
1761392293465974000,5.55297412109375,-3.943047285079956,2.670412302017212,3.957486152648926
1761392293476057000,5.56305712890625,-4.4587836265563965,4.08081579208374,3.8977549076080322
1761392293486139100,5.57313916015625,-4.291045665740967,5.852995872497559,3.5714192390441895
1761392293496221200,5.58322119140625,-3.8751208782196045,7.696345329284668,3.3538622856140137
1761392293506304000,5.593303955078125,-3.1439576148986816,9.07081127166748,3.371790647506714
1761392293516386000,5.603385986328125,-2.304461717605591,9.339483261108398,3.752967596054077
1761392293526468000,5.613468017578125,-1.5002788305282593,8.583121299743652,4.527916431427002
1761392293536551000,5.623551025390625,-0.8118212819099426,6.944672584533691,5.208463191986084
1761392293546633000,5.633633056640625,-0.11707007139921188,4.75597620010376,5.177643299102783
1761392293556715000,5.643715087890625,0.4696195125579834,2.9883127212524414,4.575887203216553
1761392293566798000,5.653798095703125,0.9751831889152527,1.8340344429016113,3.68845796585083
1761392293576879900,5.6638798828125,1.339134931564331,1.1138768196105957,2.7020106315612793
1761392293586962000,5.6739619140625,1.538237452507019,0.6205662488937378,2.0248067378997803
1761392293597045200,5.684045166015625,1.4390461444854736,0.5738975405693054,1.704131007194519
1761392293607127300,5.694127197265625,1.2621092796325684,0.7515156865119934,1.3704721927642822
1761392293617209000,5.704208984375,1.051882028579712,0.8325554132461548,0.7305419445037842
1761392293627291000,5.714290771484375,0.7835817933082581,1.022573471069336,-0.08839785307645798
1761392293637374200,5.724374267578125,0.6294993162155151,1.0372514724731445,-0.7297669053077698
1761392293647456300,5.734456298828125,0.6234987378120422,0.7710249423980713,-1.089551568031311
1761392293657538000,5.7445380859375,0.6317715644836426,0.46025028824806213,-1.200513243675232
1761392293667621000,5.75462109375,0.6069936752319336,0.26835116744041443,-1.2380841970443726
1761392293677703200,5.764703125,0.5358561277389526,0.04116301238536835,-1.4861602783203125
1761392293687785200,5.77478515625,0.3918541669845581,-0.2720225751399994,-2.0158534049987793
1761392293697868000,5.784867919921875,0.1986876279115677,-0.620801568031311,-2.795827627182007
1761392293707950000,5.7949501953125,-0.035930052399635315,-0.9369381666183472,-3.658273220062256
1761392293718032100,5.8050322265625,-0.3273134231567383,-1.1951133012771606,-4.299898147583008
1761392293728115200,5.815115234375,-0.6229813098907471,-1.4324498176574707,-4.58736515045166
1761392293738197000,5.825197021484375,-0.8319891095161438,-1.6567878723144531,-4.544475078582764
1761392293748279000,5.835279052734375,-0.9145801067352295,-1.7889328002929688,-4.377551078796387
1761392293758361000,5.845361083984375,-0.911171019077301,-1.6984649896621704,-4.245532035827637
1761392293768444200,5.855444091796875,-0.8874585628509521,-1.665703296661377,-4.104614734649658
1761392293778526000,5.86552587890625,-0.8216199278831482,-1.9606947898864746,-3.895782709121704
1761392293788608000,5.87560791015625,-0.7369874715805054,-2.6375460624694824,-3.4692113399505615
1761392293798691000,5.885691162109375,-0.6969889402389526,-3.3648862838745117,-2.943364143371582
1761392293808773000,5.895773193359375,-0.768761157989502,-3.4201743602752686,-2.251936674118042
1761392293818855200,5.905855224609375,-0.920435905456543,-2.625387668609619,-1.479041337966919
1761392293828938000,5.91593798828125,-1.2138606309890747,-1.3225239515304565,-0.7637742757797241
1761392293839016200,5.92601611328125,-1.663271427154541,0.2879055440425873,-0.14900323748588562
1761392293849098200,5.93609814453125,-2.064243793487549,1.5800755023956299,0.13183926045894623
1761392293859181000,5.94618115234375,-2.263942003250122,2.339139699935913,0.14126046001911163
1761392293869263000,5.95626318359375,-2.158261775970459,2.4559061527252197,0.12680110335350037
1761392293879345200,5.96634521484375,-1.8403828144073486,2.1666736602783203,0.27782124280929565
1761392293889428200,5.97642822265625,-1.4439400434494019,1.6645848751068115,0.6209848523139954
1761392293899510300,5.98651025390625,-0.9711964130401611,1.2948846817016602,1.1712682247161865
1761392293909592000,5.996592041015625,-0.40655696392059326,1.1370360851287842,1.7560679912567139
1761392293919674000,6.006674072265625,0.15684594213962555,1.0589162111282349,2.1634654998779297
1761392293929757200,6.016757080078125,0.6436563730239868,1.1634411811828613,2.3450613021850586
1761392293939839200,6.026839111328125,1.0840222835540771,1.4154467582702637,2.222486972808838
1761392293949921000,6.036921142578125,1.358300805091858,1.6829863786697388,1.889438509941101
1761392293960004000,6.047004150390625,1.50517737865448,1.732892394065857,1.4492321014404297
1761392293970086100,6.057086181640625,1.6288039684295654,1.755075454711914,1.0411946773529053
1761392293980168200,6.067168212890625,1.5213462114334106,1.761519193649292,0.6814956068992615
1761392293990251000,6.0772509765625,1.1981942653656006,1.827148675918579,0.3749527037143707
1761392294000333000,6.0873330078125,0.8579617738723755,1.9505952596664429,0.11350830644369125
1761392294010415000,6.0974150390625,0.697992742061615,2.0274558067321777,-0.0965675562620163
1761392294020497200,6.1074970703125,0.7868411540985107,1.8451308012008667,-0.2393374890089035
1761392294030580000,6.117580078125,0.9637187719345093,1.3983066082000732,-0.30441755056381226
1761392294040662000,6.127662109375,1.0359978675842285,0.8164408802986145,-0.29902011156082153
1761392294050744000,6.137744140625,0.9322375655174255,0.25840550661087036,-0.2671903669834137
1761392294060827100,6.1478271484375,0.689143180847168,-0.08855991065502167,-0.23696081340312958
1761392294070909000,6.157908935546875,0.4597564935684204,-0.12589307129383087,-0.2512906789779663
1761392294080991000,6.167990966796875,0.2585560083389282,0.13693562150001526,-0.27291741967201233
1761392294091074300,6.17807421875,0.14427469670772552,0.627111554145813,-0.2663751244544983
1761392294101156400,6.18815625,0.19867002964019775,1.2437560558319092,-0.2094183713197708
1761392294111238100,6.198238037109375,0.41948285698890686,1.5630358457565308,-0.23739930987358093
1761392294121321200,6.2083212890625,0.6123354434967041,1.5800379514694214,-0.5694182515144348
1761392294131403300,6.2184033203125,0.6368449926376343,1.2441461086273193,-1.163882851600647
1761392294141485300,6.2284853515625,0.5900846719741821,0.8722788691520691,-1.6857103109359741
1761392294151567000,6.238567138671875,0.5787821412086487,0.6668017506599426,-1.9484622478485107
1761392294161650200,6.248650146484375,0.558739185333252,0.5141310095787048,-2.1415557861328125
1761392294171732200,6.258732177734375,0.47599542140960693,0.20253683626651764,-2.4264285564422607
1761392294181814300,6.268814208984375,0.35707196593284607,-0.16666863858699799,-2.7667930126190186
1761392294191897000,6.27889697265625,0.20705761015415192,-0.3683352768421173,-3.0260977745056152
1761392294201979100,6.288979248046875,0.026586104184389114,-0.2397187054157257,-3.184542417526245
1761392294212061200,6.299061279296875,-0.16199170053005219,-0.022119587287306786,-3.363079309463501
1761392294222144000,6.30914404296875,-0.26407065987586975,-0.03866074979305267,-3.3652775287628174
1761392294232226000,6.31922607421875,-0.25746598839759827,-0.5395908951759338,-3.06127667427063
1761392294242308000,6.32930810546875,-0.26479047536849976,-1.2406551837921143,-2.57340145111084
1761392294252391200,6.33939111328125,-0.40224990248680115,-1.725210428237915,-2.1262004375457764
1761392294262473200,6.34947314453125,-0.7181593775749207,-2.020618200302124,-1.8854727745056152
1761392294272555000,6.359554931640625,-1.181254267692566,-2.218026876449585,-1.9153012037277222
1761392294282637000,6.369636962890625,-1.628377079963684,-2.282883644104004,-2.2221126556396484
1761392294292720000,6.37972021484375,-1.8891552686691284,-2.1126933097839355,-2.695984125137329
1761392294302802200,6.38980224609375,-1.9845683574676514,-1.8046656847000122,-3.112898349761963
1761392294312884000,6.399884033203125,-2.0235471725463867,-1.2677618265151978,-3.2457311153411865
1761392294322967000,6.409967041015625,-2.034630537033081,-0.8071044683456421,-2.9851226806640625
1761392294333049000,6.420049072265625,-2.0281670093536377,-0.7725263833999634,-2.4630072116851807
1761392294343131100,6.430131103515625,-2.0631842613220215,-1.0897592306137085,-1.7643842697143555
1761392294353214000,6.4402138671875,-2.183776617050171,-1.6498569250106812,-1.0524669885635376
1761392294363296000,6.4502958984375,-2.287590980529785,-2.3167057037353516,-0.5429981350898743
1761392294373378000,6.4603779296875,-2.2929446697235107,-2.9209794998168945,-0.34739047288894653
1761392294383460000,6.470460205078125,-2.1713337898254395,-3.1455912590026855,-0.451288104057312
1761392294393543000,6.48054296875,-1.9881097078323364,-2.4352519512176514,-0.47410720586776733
1761392294403625000,6.490625,-1.8274174928665161,-1.1634843349456787,-0.4472050368785858
1761392294413707000,6.50070703125,-1.6542534828186035,0.04736146703362465,-0.5125687122344971
1761392294423790300,6.510790283203125,-1.4773330688476562,1.2391852140426636,-0.4785843789577484
1761392294433872100,6.5208720703125,-1.3386282920837402,1.6990362405776978,-0.3877885937690735
1761392294443954200,6.5309541015625,-1.2993272542953491,1.2961622476577759,-0.1374693065881729
1761392294454037200,6.541037353515625,-1.311121940612793,0.6269874572753906,0.3786240816116333
1761392294464119300,6.551119384765625,-1.2896219491958618,-0.0056800078600645065,0.9183027744293213
1761392294474201000,6.561201171875,-1.1119871139526367,-0.9474244713783264,1.1321907043457031
1761392294484284200,6.5712841796875,-0.8299415707588196,-1.6516762971878052,1.0248533487319946
1761392294494366200,6.5813662109375,-0.606224775314331,-1.7684435844421387,0.7252286672592163
1761392294504448300,6.5914482421875,-0.4408387243747711,-1.376749038696289,0.34373939037323
1761392294514530300,6.6015302734375,-0.3061216473579407,-0.39497435092926025,-0.05346493795514107
1761392294524613000,6.611613037109375,-0.20717455446720123,0.6841435432434082,-0.23138566315174103
1761392294534695200,6.621695068359375,-0.06092281639575958,1.3991092443466187,-0.19803619384765625
1761392294544777200,6.631777099609375,0.0720064714550972,1.6693297624588013,-0.11328721791505814
1761392294554860000,6.641860107421875,0.089754119515419,1.472291111946106,-0.09367387741804123
1761392294564942000,6.651942138671875,-0.00794554129242897,0.9390741586685181,-0.13341516256332397
1761392294575024000,6.662024169921875,-0.17755505442619324,0.3017823100090027,-0.23501034080982208
1761392294585107200,6.672107177734375,-0.3566582202911377,-0.16526345908641815,-0.483359694480896
1761392294595189000,6.68218896484375,-0.4609775245189667,-0.28782153129577637,-0.7651199102401733
1761392294605271000,6.69227099609375,-0.4553907513618469,-0.04983268305659294,-0.9463871717453003
1761392294615353000,6.70235302734375,-0.3005228340625763,0.31603720784187317,-1.1067228317260742
1761392294625436200,6.712436279296875,-0.044331278651952744,0.7363486886024475,-1.2182369232177734
1761392294635518000,6.72251806640625,0.1922103762626648,1.0426454544067383,-1.1505844593048096
1761392294645600000,6.73260009765625,0.3569932281970978,0.9819328784942627,-0.9127452373504639
1761392294655683000,6.74268310546875,0.45191147923469543,0.7101333737373352,-0.5154315233230591
1761392294665765000,6.75276513671875,0.5012688636779785,0.3927561938762665,-0.054109957069158554
1761392294675847200,6.76284716796875,0.5426154136657715,0.21522516012191772,0.4685235023498535
1761392294685930000,6.772929931640625,0.6224241852760315,0.2032071202993393,1.0081113576889038
1761392294696012000,6.783011962890625,0.7706617116928101,0.30470728874206543,1.443381667137146
1761392294706094000,6.793093994140625,1.0204403400421143,0.4155272841453552,1.5718382596969604
1761392294716177200,6.80317724609375,1.1744439601898193,0.6500239372253418,1.432930827140808
1761392294726259200,6.81325927734375,1.1436415910720825,1.0340646505355835,1.1755692958831787
1761392294736341200,6.82334130859375,1.0346373319625854,1.6079683303833008,0.639379620552063
1761392294746423000,6.833423095703125,0.9990593791007996,2.026122570037842,0.12386645376682281
1761392294756506000,6.843506103515625,1.2336835861206055,1.7539585828781128,0.026059698313474655
1761392294766588200,6.853588134765625,1.5751267671585083,1.770369291305542,0.3392743468284607
1761392294776670200,6.863670166015625,1.7967065572738647,1.7129279375076294,0.8266392946243286
1761392294786753300,6.873753173828125,1.9088363647460938,1.4402927160263062,1.3486937284469604
1761392294796835000,6.8838349609375,1.9592812061309814,0.907301664352417,1.8202505111694336
1761392294806917000,6.893917236328125,1.8801374435424805,0.44080182909965515,2.18316912651062
1761392294817000200,6.904000244140625,1.6695212125778198,0.2646842896938324,2.3470828533172607
1761392294827082200,6.914082275390625,1.2718836069107056,0.24050144851207733,2.1054089069366455
1761392294837164300,6.924164306640625,0.7923862934112549,0.31643712520599365,1.5728116035461426
1761392294847246000,6.93424609375,0.3881506621837616,0.5572390556335449,0.8702775239944458
1761392294857329200,6.9443291015625,0.09509539604187012,0.9614154696464539,0.06178718060255051
1761392294867411200,6.9544111328125,-0.09927114844322205,1.5090053081512451,-0.7514636516571045
1761392294877493200,6.9644931640625,-0.20459622144699097,1.8051823377609253,-1.5080853700637817
1761392294887576300,6.974576416015625,-0.26601642370224,1.6708136796951294,-1.9345303773880005
1761392294897658400,6.984658447265625,-0.3218057453632355,0.8384776711463928,-2.1547694206237793
1761392294907740400,6.994740478515625,-0.22186130285263062,0.20244158804416656,-2.06467866897583
1761392294917823200,7.0048232421875,0.012211916036903858,-0.2011231929063797,-1.7201755046844482
1761392294927905300,7.0149052734375,0.22532738745212555,-0.3836008608341217,-1.1879593133926392
1761392294937987300,7.0249873046875,0.32337111234664917,-0.32015469670295715,-0.6098927855491638
1761392294948069400,7.0350693359375,0.20645010471343994,-0.12983137369155884,-0.07489726692438126
1761392294958152200,7.045152099609375,-0.015324869193136692,-0.01115430984646082,0.4268416464328766
