time,seconds_elapsed,z,y,x
1761392287984984600,0.071984619140625,0.13766811788082123,-0.2260240763425827,1.1184117794036865
1761392287995067600,0.082067626953125,0.05559002608060837,-0.1291995346546173,1.0678061246871948
1761392288005149700,0.092149658203125,-0.022495988756418228,-0.031264979392290115,0.971548855304718
1761392288015231500,0.1022314453125,-0.040758613497018814,0.1511532962322235,0.8851609826087952
1761392288025313500,0.1123134765625,0.013655091635882854,0.3719879388809204,0.8309909701347351
1761392288035396600,0.122396728515625,0.11325465142726898,0.5961693525314331,0.8110225796699524
1761392288045478700,0.132478759765625,0.22589650750160217,0.8187752962112427,0.8197010159492493
1761392288055560700,0.142560791015625,0.3110218048095703,0.9053967595100403,0.800371527671814
1761392288065642500,0.152642578125,0.32720476388931274,0.9163268804550171,0.7172617316246033
1761392288075725600,0.1627255859375,0.29510992765426636,0.9828787446022034,0.5856717228889465
1761392288085807600,0.1728076171875,0.22596149146556854,1.065701961517334,0.3978155553340912
1761392288095889700,0.1828896484375,0.1609867513179779,1.2052772045135498,0.3239860534667969
1761392288105971500,0.192971435546875,0.0753466859459877,1.2626283168792725,0.3832712173461914
1761392288116054500,0.203054443359375,-0.05643291398882866,1.049027442932129,0.5158902406692505
1761392288126136600,0.213136474609375,-0.06780381500720978,0.5530101656913757,0.8200594782829285
1761392288136218600,0.223218505859375,0.019580092281103134,-0.24785001575946808,1.1574050188064575
1761392288146300700,0.23330078125,0.15399622917175293,-1.0654796361923218,1.4713672399520874
1761392288156383500,0.243383544921875,0.26378104090690613,-1.590075969696045,1.7279303073883057
1761392288166465500,0.253465576171875,0.25467169284820557,-1.9619622230529785,1.8265788555145264
1761392288176547600,0.263547607421875,0.15683674812316895,-2.155780076980591,1.7973031997680664
1761392288186629600,0.273629638671875,0.05973736569285393,-2.203507900238037,1.7317620515823364
1761392288196712400,0.28371240234375,-0.023495206609368324,-2.139582633972168,1.6334983110427856
1761392288206794500,0.29379443359375,-0.0435703806579113,-1.964387059211731,1.5062463283538818
1761392288216876500,0.30387646484375,-0.06041167676448822,-1.6524972915649414,1.375184416770935
1761392288226958600,0.31395849609375,-0.10082781314849854,-1.31890070438385,1.2435382604599
1761392288237041400,0.32404150390625,-0.1706894487142563,-1.0051989555358887,1.1116385459899902
1761392288247123500,0.33412353515625,-0.27370983362197876,-0.7869231104850769,0.9881035685539246
1761392288257205500,0.34420556640625,-0.4099515676498413,-0.668654203414917,0.8085300922393799
1761392288267287600,0.35428759765625,-0.536919116973877,-0.6735405921936035,0.5636394023895264
1761392288277370600,0.36437060546875,-0.6730260848999023,-0.8433908820152283,0.23970261216163635
1761392288287452700,0.37445263671875,-0.8385524749755859,-1.0280637741088867,-0.1484600454568863
1761392288297534500,0.384534423828125,-1.0115026235580444,-0.9938309788703918,-0.5456193685531616
1761392288307616500,0.394616455078125,-1.1452405452728271,-0.9304243326187134,-0.9477138519287109
1761392288317699600,0.404699462890625,-1.1969622373580933,-0.8332586288452148,-1.251757025718689
1761392288327781600,0.41478173828125,-1.180240273475647,-0.6082375049591064,-1.3845717906951904
1761392288337863700,0.42486376953125,-1.1040674448013306,-0.434259831905365,-1.3156503438949585
1761392288347946800,0.43494677734375,-0.9863703846931458,-0.3596513867378235,-1.0885820388793945
1761392288358028500,0.445028564453125,-0.8341228365898132,-0.2846468985080719,-0.7716647386550903
1761392288368110600,0.455110595703125,-0.6493031978607178,-0.25302854180336,-0.45108434557914734
1761392288378192600,0.465192626953125,-0.45338374376296997,-0.34218183159828186,-0.24979518353939056
1761392288388275700,0.475275634765625,-0.2660601735115051,-0.534599781036377,-0.1988808810710907
1761392288398357500,0.485357421875,-0.05913655832409859,-0.7471809983253479,-0.24976882338523865
1761392288408439600,0.495439453125,0.21113407611846924,-0.8929027915000916,-0.31492331624031067
1761392288418521600,0.505521484375,0.5508330464363098,-0.8992136716842651,-0.25973355770111084
1761392288428604700,0.515604736328125,0.8179838061332703,-1.07935631275177,-0.136770099401474
1761392288438686700,0.525686767578125,0.8998091816902161,-1.483072280883789,0.0509025938808918
1761392288448768500,0.5357685546875,0.8320437073707581,-1.8620489835739136,0.28523892164230347
1761392288458850600,0.5458505859375,0.7391512989997864,-2.1740214824676514,0.572186291217804
1761392288468933600,0.55593359375,0.7290629744529724,-2.533773183822632,0.9266998767852783
1761392288479015700,0.566015625,0.8528501391410828,-2.92055344581604,1.2225924730300903
1761392288489097500,0.576097412109375,1.0878032445907593,-3.334538698196411,1.413124442100525
1761392288499179500,0.586179443359375,1.4039865732192993,-3.807042121887207,1.5402696132659912
1761392288509262600,0.5962626953125,1.6834867000579834,-4.161816596984863,1.585566759109497
1761392288519344600,0.6063447265625,1.9007246494293213,-4.048361778259277,1.566961407661438
1761392288529426700,0.6164267578125,2.0236151218414307,-3.6566147804260254,1.4692329168319702
1761392288539508500,0.626508544921875,2.0683228969573975,-3.3329648971557617,1.3494482040405273
1761392288549591600,0.636591552734375,2.047530174255371,-3.1653592586517334,1.1759333610534668
1761392288559673600,0.646673583984375,1.9818224906921387,-2.809826135635376,0.9435222744941711
1761392288569755600,0.656755615234375,1.9187042713165283,-2.4087932109832764,0.7599026560783386
1761392288579838500,0.66683837890625,1.8235026597976685,-1.9599624872207642,0.7106730341911316
1761392288589920500,0.67692041015625,1.6306830644607544,-1.4800083637237549,0.7428845167160034
1761392288600002600,0.68700244140625,1.2991936206817627,-1.1451693773269653,0.7325029969215393
1761392288610084600,0.697084716796875,0.8805299997329712,-0.9419235587120056,0.6529354453086853
1761392288620167400,0.70716748046875,0.7158832550048828,-0.3769906759262085,0.49381718039512634
1761392288630249500,0.71724951171875,0.81867516040802,0.13991422951221466,0.2063092291355133
1761392288640331500,0.72733154296875,1.1151657104492188,0.631352961063385,-0.2551902234554291
1761392288650413600,0.73741357421875,1.4081640243530273,0.9592799544334412,-0.6161361336708069
1761392288660496400,0.747496337890625,1.5423063039779663,1.3408252000808716,-0.6502128839492798
1761392288670578400,0.757578369140625,1.5280510187149048,1.763564109802246,-0.36263197660446167
1761392288680660500,0.767660400390625,1.507565975189209,2.363603115081787,0.1426982879638672
1761392288690742500,0.777742431640625,1.470002293586731,2.9530529975891113,0.7021996974945068
1761392288700825600,0.78782568359375,1.224470615386963,3.2795236110687256,1.2677311897277832
1761392288710907600,0.79790771484375,0.8098697066307068,3.502899169921875,1.806449055671692
1761392288720989400,0.807989501953125,0.49584731459617615,3.7427468299865723,2.2473032474517822
1761392288731071500,0.818071533203125,0.41261258721351624,4.0134100914001465,2.537198305130005
1761392288741154600,0.828154541015625,0.4521948993206024,4.393407344818115,2.6611557006835938
1761392288751236600,0.838236572265625,0.5356751680374146,4.722929000854492,2.638334035873413
1761392288761318700,0.848318603515625,0.6877384185791016,4.951117038726807,2.565236806869507
1761392288771401700,0.858401611328125,0.8275488018989563,5.0032453536987305,2.4629828929901123
1761392288781483800,0.86848388671875,0.9243054389953613,4.884578704833984,2.3600783348083496
1761392288791565600,0.878565673828125,1.0252450704574585,4.7163896560668945,2.2565534114837646
1761392288801647600,0.888647705078125,1.0079859495162964,4.449429988861084,2.0641372203826904
1761392288811730700,0.898730712890625,0.8116111159324646,4.104755401611328,1.7501064538955688
1761392288821812700,0.908812744140625,0.6262484788894653,3.778459072113037,1.354538083076477
1761392288831891200,0.91889111328125,0.6359197497367859,3.420889139175415,0.897796094417572
1761392288841973200,0.92897314453125,0.748372495174408,3.1587345600128174,0.4509458839893341
1761392288852056300,0.939056396484375,0.8959044218063354,2.9288361072540283,0.0798940360546112
1761392288862138400,0.949138427734375,1.053610920906067,2.6844756603240967,-0.20921047031879425
1761392288872220200,0.95922021484375,1.165588140487671,2.3892006874084473,-0.42750898003578186
1761392288882303200,0.96930322265625,1.1957811117172241,2.0540921688079834,-0.5358825922012329
1761392288892385300,0.97938525390625,1.1570435762405396,1.7283574342727661,-0.5001091361045837
1761392288902467300,0.98946728515625,1.0600515604019165,1.3840365409851074,-0.4663591980934143
1761392288912549400,0.99954931640625,0.9403568506240845,1.1113253831863403,-0.5405277013778687
1761392288922632200,1.009632080078125,0.8596846461296082,0.8147222399711609,-0.7468507885932922
1761392288932714200,1.01971435546875,0.8711487650871277,0.5323115587234497,-0.9830944538116455
1761392288942796300,1.02979638671875,0.9740831255912781,0.3635675609111786,-1.1474047899246216
1761392288952878300,1.03987841796875,1.1119667291641235,0.27143630385398865,-1.1802849769592285
1761392288962961200,1.049961181640625,1.1718322038650513,0.2262328714132309,-1.0780062675476074
1761392288973043200,1.060043212890625,1.3410203456878662,0.16629816591739655,-0.8779855966567993
1761392288983125200,1.070125244140625,1.5885915756225586,0.004933239426463842,-0.5609589219093323
1761392288993208000,1.0802080078125,1.7952497005462646,-0.3393181562423706,-0.22105887532234192
1761392289003290000,1.0902900390625,2.0053913593292236,-0.9197197556495667,-0.11971601098775864
1761392289013372200,1.1003720703125,2.109498977661133,-1.5595191717147827,-0.4435308277606964
1761392289023454200,1.1104541015625,2.0590274333953857,-2.0739388465881348,-1.2884304523468018
1761392289033537000,1.120537109375,1.8932825326919556,-2.4716055393218994,-2.5520293712615967
1761392289043619000,1.130619140625,1.6897379159927368,-2.9096226692199707,-3.99519681930542
1761392289053701000,1.140701171875,1.558688998222351,-3.236391067504883,-5.087234020233154
1761392289063783200,1.150783203125,1.489416241645813,-3.3921291828155518,-5.376966953277588
1761392289073866200,1.1608662109375,1.4400089979171753,-3.3340134620666504,-4.797932147979736
1761392289083948000,1.170947998046875,1.3787131309509277,-3.202246904373169,-3.7806155681610107
1761392289094030000,1.181030029296875,1.3969099521636963,-3.329308032989502,-2.912574291229248
1761392289104113200,1.191113037109375,1.5851144790649414,-3.576589822769165,-2.3500707149505615
1761392289114195200,1.2011953125,1.8279095888137817,-3.7755470275878906,-1.8266535997390747
1761392289124277000,1.211277099609375,1.9797561168670654,-3.8563153743743896,-1.1681857109069824
1761392289134359000,1.221359130859375,1.9957704544067383,-3.7651262283325195,-0.5167965292930603
1761392289144442400,1.2314423828125,1.968791127204895,-3.5553882122039795,0.0031963258516043425
1761392289154524200,1.241524169921875,1.8874949216842651,-3.175187349319458,0.4855336844921112
1761392289164606200,1.251606201171875,1.7426111698150635,-2.6795778274536133,0.9912543892860413
1761392289174689300,1.261689208984375,1.4695123434066772,-1.9242392778396606,1.4452577829360962
1761392289184771300,1.271771240234375,1.0950183868408203,-1.0975432395935059,1.6572177410125732
1761392289194853400,1.281853271484375,0.6684811115264893,-0.2803669571876526,1.5938584804534912
1761392289204935400,1.291935302734375,0.2205321043729782,0.410907119512558,1.3860267400741577
1761392289215018200,1.302018310546875,-0.12120445817708969,0.7378689646720886,1.2298551797866821
1761392289225100300,1.312100341796875,-0.27536845207214355,0.7208247780799866,1.2994979619979858
1761392289235182300,1.322182373046875,-0.2586477994918823,0.5454710721969604,1.7240880727767944
1761392289245264400,1.332264404296875,-0.10992863029241562,0.34965652227401733,2.404733180999756
1761392289255347200,1.34234716796875,0.07144515216350555,0.3858310580253601,3.1698882579803467
1761392289265429200,1.35242919921875,0.1213085874915123,0.7241507768630981,3.8802740573883057
1761392289275511300,1.36251123046875,-0.021735655143857002,1.3927037715911865,4.341525077819824
1761392289285594000,1.372593994140625,-0.3105839788913727,2.2879443168640137,4.4831342697143555
1761392289295676200,1.38267626953125,-0.6641124486923218,3.149799346923828,4.445852279663086
1761392289305758200,1.39275830078125,-1.0245212316513062,3.825827121734619,4.434683322906494
1761392289315840300,1.40284033203125,-1.2750027179718018,4.452111721038818,4.541094779968262
1761392289325923300,1.41292333984375,-1.3650317192077637,5.165859222412109,4.74473237991333
1761392289336005000,1.423005126953125,-1.311509370803833,5.964778423309326,5.004048824310303
1761392289346087200,1.433087158203125,-1.0645291805267334,6.680420398712158,5.33619499206543
1761392289356170200,1.443170166015625,-0.6000674366950989,7.176359176635742,5.683403968811035
1761392289366252300,1.453252197265625,-0.016891632229089737,6.971184730529785,5.539542198181152
1761392289376334000,1.463333984375,0.6586924195289612,5.826908111572266,4.749553203582764
1761392289386416000,1.473416015625,1.2426499128341675,4.06491231918335,3.9264118671417236
1761392289396499200,1.483499267578125,1.5410083532333374,2.015162944793701,3.3436765670776367
1761392289406581200,1.493581298828125,1.6827316284179688,0.25386369228363037,3.0139362812042236
1761392289416663300,1.503663330078125,1.7106844186782837,-0.45682987570762634,3.0898005962371826
1761392289426746000,1.51374609375,1.4967005252838135,-0.14246313273906708,3.3716225624084473
1761392289436828200,1.523828125,1.2066534757614136,0.7297884225845337,3.2796847820281982
1761392289446910200,1.53391015625,0.9892194867134094,1.433655023574829,2.6415655612945557
1761392289456993000,1.543992919921875,0.9092020988464355,1.8674471378326416,1.6022604703903198
1761392289467075000,1.554074951171875,0.9582961797714233,2.087944746017456,0.5289331078529358
1761392289477157000,1.5641572265625,1.0391515493392944,2.104499340057373,-0.1750951111316681
1761392289487239200,1.5742392578125,1.1199548244476318,1.8731786012649536,-0.4430815577507019
1761392289497322200,1.584322265625,1.170301079750061,1.478675127029419,-0.39267751574516296
1761392289507404000,1.594404052734375,1.2268255949020386,1.2815897464752197,-0.28913408517837524
1761392289517486000,1.604486083984375,1.3099570274353027,1.3678038120269775,-0.4017477035522461
1761392289527569400,1.6145693359375,1.3465139865875244,1.5733726024627686,-0.7201696038246155
1761392289537651200,1.624651123046875,1.2008494138717651,1.618075966835022,-1.1969468593597412
1761392289547733200,1.634733154296875,0.9371011257171631,1.3539763689041138,-1.6795949935913086
1761392289557815300,1.644815185546875,0.6744434237480164,0.9607827663421631,-2.0615878105163574
1761392289567898400,1.6548984375,0.5338959097862244,0.5770193934440613,-2.344421625137329
1761392289577980200,1.664980224609375,0.41634342074394226,0.15301404893398285,-2.471954584121704
1761392289588062200,1.675062255859375,0.2637975513935089,-0.3618096113204956,-2.473533868789673
1761392289598145300,1.685145263671875,0.04873212054371834,-0.9791085124015808,-2.468809127807617
1761392289608227300,1.695227294921875,-0.26490703225135803,-1.4801300764083862,-2.634786367416382
1761392289618309400,1.705309326171875,-0.5821864604949951,-1.8177917003631592,-3.022010564804077
1761392289628391200,1.71539111328125,-0.9059043526649475,-1.909770131111145,-3.5295355319976807
1761392289638474200,1.72547412109375,-1.1735613346099854,-2.0393824577331543,-3.94797945022583
1761392289648556300,1.735556396484375,-1.4275236129760742,-2.395897150039673,-4.134005069732666
1761392289658638300,1.745638427734375,-1.706235647201538,-2.654651403427124,-3.838400363922119
1761392289668721200,1.75572119140625,-2.056079864501953,-2.8286054134368896,-3.4668521881103516
1761392289678803200,1.76580322265625,-2.3110108375549316,-2.829145669937134,-3.6685125827789307
1761392289688885200,1.77588525390625,-2.344224214553833,-2.747586488723755,-4.184707164764404
1761392289698968000,1.785968017578125,-2.2307071685791016,-3.1037757396698,-4.511817932128906
1761392289709050000,1.796050048828125,-2.1287946701049805,-3.469531297683716,-4.32281494140625
1761392289719132200,1.806132080078125,-2.0414633750915527,-3.523423910140991,-3.5620052814483643
1761392289729214200,1.816214111328125,-1.9202173948287964,-3.027803897857666,-2.1400833129882812
1761392289739297000,1.826297119140625,-1.588476538658142,-1.902585744857788,-0.31024202704429626
1761392289749379000,1.836379150390625,-1.1650235652923584,-0.6506930589675903,1.1994624137878418
1761392289759461000,1.846461181640625,-0.7887257933616638,0.2047073394060135,2.063201665878296
1761392289769544200,1.856544189453125,-0.5448737144470215,0.7248469591140747,2.454505443572998
1761392289779626200,1.866626220703125,-0.4447319209575653,1.0202242136001587,2.739853620529175
1761392289789708000,1.8767080078125,-0.40325185656547546,1.2089710235595703,3.1066977977752686
1761392289799790000,1.8867900390625,-0.2832508683204651,1.4689147472381592,3.536083459854126
1761392289809873200,1.896873046875,-0.1943734735250473,1.771034836769104,3.9175057411193848
1761392289819955200,1.906955078125,-0.1290152370929718,1.9934055805206299,4.235509395599365
1761392289830038000,1.9170380859375,-0.1705365777015686,2.128645658493042,4.4087748527526855
1761392289840121000,1.92712109375,-0.34734198451042175,2.180098295211792,4.459114074707031
1761392289850203100,1.937203125,-0.6109011769294739,2.1703217029571533,4.378716945648193
1761392289860285000,1.947284912109375,-0.8269221782684326,2.194118022918701,4.113136291503906
1761392289870368000,1.957367919921875,-0.9743784666061401,2.286189556121826,3.639188289642334
1761392289880450000,1.967449951171875,-1.0563596487045288,2.4368841648101807,3.091569662094116
1761392289890532000,1.977531982421875,-1.0819240808486938,2.5961825847625732,2.63379168510437
1761392289900614100,1.9876142578125,-1.1071951389312744,2.7391445636749268,2.3241097927093506
1761392289910697000,1.997697021484375,-1.140698790550232,2.716710329055786,2.1681132316589355
1761392289920779000,2.007779052734375,-1.1514091491699219,2.490814447402954,2.0921666622161865
1761392289930861000,2.017861083984375,-1.1283185482025146,2.1303815841674805,1.9879599809646606
1761392289940944000,2.02794384765625,-1.0353538990020752,1.874140739440918,1.8042428493499756
1761392289951026000,2.03802587890625,-0.921564519405365,1.8078850507736206,1.5027687549591064
1761392289961108000,2.04810791015625,-0.9053988456726074,1.8048186302185059,1.1448034048080444
1761392289971191000,2.05819091796875,-0.9796930551528931,1.6231945753097534,0.725496768951416
1761392289981272800,2.06827294921875,-0.99613356590271,1.2518867254257202,0.1268511563539505
1761392289991355000,2.07835498046875,-0.8180988430976868,0.7344439029693604,-0.7373507618904114
1761392290001438000,2.08843798828125,-0.476321816444397,0.12309316545724869,-1.6814101934432983
1761392290011520000,2.09852001953125,-0.26668548583984375,-0.860751748085022,-2.6151282787323
1761392290021601800,2.108601806640625,-0.14596785604953766,-2.2772109508514404,-3.698983669281006
1761392290031683800,2.118683837890625,-0.1875360757112503,-2.8930671215057373,-4.770532131195068
1761392290041767000,2.128766845703125,-0.2547798156738281,-1.7805678844451904,-5.523814678192139
1761392290051849000,2.138848876953125,-0.12268916517496109,0.4219174087047577,-5.979500770568848
1761392290061931000,2.148930908203125,0.2719034254550934,1.8185569047927856,-6.3549418449401855
1761392290072014000,2.15901416015625,0.8090723156929016,1.516602635383606,-6.578503131866455
1761392290082096000,2.16909619140625,1.2302554845809937,-0.48108991980552673,-6.416849613189697
1761392290092178200,2.17917822265625,1.5157064199447632,-3.233658790588379,-5.655989170074463
1761392290102261000,2.189260986328125,1.744933009147644,-5.523661136627197,-4.653092384338379
1761392290112343000,2.199343017578125,1.7851533889770508,-6.7700018882751465,-3.9397149085998535
1761392290122425000,2.209425048828125,1.6219910383224487,-7.046037197113037,-3.8600683212280273
1761392290132508200,2.219508056640625,1.2627426385879517,-6.49710750579834,-4.288000106811523
1761392290142590000,2.22958984375,0.5618710517883301,-5.19786262512207,-4.882014751434326
1761392290152672000,2.239672119140625,-0.3801758289337158,-3.4887290000915527,-5.3030571937561035
1761392290162754000,2.249754150390625,-1.2791306972503662,-1.9292351007461548,-5.441092491149902
1761392290172837000,2.259837158203125,-1.9313713312149048,-0.71137535572052,-5.359945774078369
1761392290182919000,2.2699189453125,-2.3137993812561035,0.009289371781051159,-4.999028205871582
1761392290193001000,2.2800009765625,-2.35774827003479,0.20019914209842682,-4.284974575042725
1761392290203084000,2.290083984375,-2.189992904663086,-0.20108065009117126,-3.2238779067993164
1761392290213166000,2.300166015625,-1.8610196113586426,-1.0951459407806396,-1.9699429273605347
1761392290223248100,2.310248046875,-1.4130815267562866,-2.1935105323791504,-0.7088834047317505
1761392290233331000,2.3203310546875,-0.8807893991470337,-2.9850499629974365,0.44827792048454285
1761392290243413000,2.3304130859375,-0.38117799162864685,-3.360532760620117,1.3727964162826538
1761392290253495000,2.3404951171875,-0.01613582670688629,-3.3025360107421875,2.0260748863220215
1761392290263577000,2.3505771484375,0.15434803068637848,-2.9567644596099854,2.386190414428711
1761392290273660000,2.360659912109375,0.2288302481174469,-2.3755998611450195,2.479278326034546
1761392290283742000,2.370741943359375,0.24904444813728333,-1.6778758764266968,2.345447301864624
1761392290293824000,2.380823974609375,0.16676580905914307,-1.2558023929595947,2.077763319015503
1761392290303906800,2.39090673828125,-0.11313800513744354,-0.9975274801254272,1.8972852230072021
1761392290313988900,2.40098876953125,-0.5795522928237915,-0.5685867667198181,1.8388607501983643
1761392290324071000,2.41107080078125,-1.1150567531585693,0.07949455827474594,1.6761832237243652
1761392290334154000,2.421154052734375,-1.5043514966964722,0.7830495238304138,1.4914183616638184
1761392290344235800,2.43123583984375,-1.5851625204086304,1.4903658628463745,1.40297269821167
1761392290354317800,2.44131787109375,-1.5059185028076172,2.2482054233551025,1.5377470254898071
1761392290364401200,2.451401123046875,-1.3276188373565674,3.1429145336151123,1.921571969985962
1761392290374483200,2.461483154296875,-1.022711157798767,3.9516639709472656,2.438488006591797
1761392290384565000,2.47156494140625,-0.5985491871833801,4.489272594451904,2.9179694652557373
1761392290394648000,2.48164794921875,-0.0939512625336647,4.754831314086914,3.3124840259552
1761392290404730000,2.491730224609375,0.3590734601020813,4.796008110046387,3.6738510131835938
1761392290414812200,2.501812255859375,0.7374634146690369,4.679337501525879,4.010897636413574
1761392290424894200,2.511894287109375,1.0374908447265625,4.489583969116211,4.339548110961914
1761392290434977000,2.52197705078125,1.292240023612976,4.245458126068115,4.615687370300293
1761392290445059000,2.53205908203125,1.4713224172592163,3.9917349815368652,4.840208053588867
1761392290455141000,2.54214111328125,1.555607557296753,3.847294330596924,5.050014495849609
1761392290465224000,2.552223876953125,1.5536357164382935,3.6943204402923584,5.208134174346924
1761392290475306000,2.562305908203125,1.492261528968811,3.48943829536438,5.332973480224609
1761392290485388000,2.572387939453125,1.35475754737854,3.2113759517669678,5.441410541534424
1761392290495471000,2.58247119140625,1.1859530210494995,2.9576947689056396,5.511175155639648
1761392290505553000,2.592552978515625,1.0466375350952148,2.7976295948028564,5.482448577880859
1761392290515635000,2.602635009765625,0.9628448486328125,2.761469841003418,5.326335906982422
1761392290525718000,2.612718017578125,0.9229238033294678,2.8071441650390625,5.1127142906188965
1761392290535800000,2.622800048828125,0.8831047415733337,2.9361178874969482,4.93238639831543
1761392290545882000,2.632882080078125,0.7997928261756897,2.911659002304077,4.726546287536621
1761392290555964000,2.6429638671875,0.7270496487617493,2.731174945831299,4.358254909515381
1761392290566047000,2.653046875,0.7666015625,2.384891986846924,3.5725462436676025
1761392290576129000,2.66312890625,1.137935757637024,1.608594298362732,2.0745208263397217
1761392290586211000,2.673211181640625,1.6727200746536255,-0.06596383452415466,-0.06222182884812355
1761392290596294000,2.6832939453125,2.0584895610809326,-2.0367984771728516,-2.008119583129883
1761392290606376000,2.6933759765625,2.0495500564575195,-3.3429133892059326,-3.2131145000457764
1761392290616458000,2.7034580078125,1.7624062299728394,-3.327440023422241,-3.688279390335083
1761392290626540800,2.713540771484375,1.4071714878082275,-1.9707218408584595,-3.90153169631958
1761392290636622800,2.723622802734375,1.2021175622940063,-0.1425028145313263,-4.300041675567627
1761392290646705000,2.733704833984375,1.2456640005111694,1.0996671915054321,-4.921083927154541
1761392290656788200,2.743788330078125,1.4143065214157104,1.575413465499878,-5.657260417938232
1761392290666869800,2.753869873046875,1.6850666999816895,1.2477535009384155,-6.340043544769287
1761392290676951800,2.763951904296875,2.00474214553833,0.21775417029857635,-6.909364700317383
1761392290687035100,2.77403515625,2.1879491806030273,-1.2896336317062378,-7.3046417236328125
1761392290697117200,2.7841171875,2.196181058883667,-2.8496291637420654,-7.397282600402832
1761392290707199000,2.794198974609375,2.2409722805023193,-4.019597053527832,-7.1834893226623535
1761392290717282000,2.804281982421875,2.3368942737579346,-4.4109673500061035,-6.719122409820557
1761392290727364000,2.814364013671875,2.287627696990967,-3.85463285446167,-6.175469875335693
1761392290737446100,2.824446044921875,2.019885778427124,-2.8240816593170166,-5.8097734451293945
1761392290747528200,2.834528076171875,1.6443778276443481,-1.785760760307312,-5.643100738525391
1761392290757611000,2.844611083984375,1.1896129846572876,-0.9793399572372437,-5.501720905303955
1761392290767693000,2.854693115234375,0.7894959449768066,-0.45783519744873047,-5.196656227111816
1761392290777775000,2.864775146484375,0.4245997667312622,-0.36022502183914185,-4.7504096031188965
1761392290787858000,2.87485791015625,0.12163588404655457,-0.6808145046234131,-4.328733444213867
1761392290797940000,2.88493994140625,-0.09242234379053116,-1.2004870176315308,-4.239988327026367
1761392290808022000,2.89502197265625,-0.17341040074825287,-1.717089056968689,-4.660054683685303
1761392290818105000,2.90510498046875,-0.20218105614185333,-2.2689850330352783,-5.385995388031006
1761392290828187000,2.915186767578125,-0.3302631378173828,-2.94909405708313,-5.917572498321533
1761392290838268200,2.92526806640625,-0.5976921916007996,-3.706325054168701,-5.7599639892578125
1761392290848351200,2.935351318359375,-0.9633482098579407,-3.9836714267730713,-5.015367031097412
1761392290858433300,2.945433349609375,-1.2928880453109741,-3.7195608615875244,-4.068540573120117
1761392290868515300,2.955515380859375,-1.5413252115249634,-3.0992848873138428,-3.2942886352539062
1761392290878598100,2.96559814453125,-1.660460114479065,-2.530660629272461,-2.669339895248413
1761392290888680200,2.97568017578125,-1.737904667854309,-2.1194024085998535,-2.072373390197754
1761392290898762200,2.98576220703125,-1.8058650493621826,-1.8319551944732666,-1.4502041339874268
1761392290908844300,2.99584423828125,-1.8552943468093872,-1.6718864440917969,-0.8332900404930115
1761392290918927000,3.005927001953125,-1.902009129524231,-1.5732381343841553,-0.3441901206970215
1761392290929009200,3.016009033203125,-1.9746644496917725,-1.3549306392669678,-0.10261612385511398
1761392290939091200,3.02609130859375,-2.044347047805786,-0.937701404094696,-0.07379432767629623
1761392290949174300,3.03617431640625,-2.0872316360473633,-0.35633280873298645,-0.06756412982940674
1761392290959256000,3.046256103515625,-2.0998737812042236,0.20078210532665253,0.058997541666030884
1761392290969338000,3.056338134765625,-2.066608190536499,0.6060534119606018,0.37401965260505676
1761392290979421200,3.066421142578125,-1.936139702796936,0.8573863506317139,0.879355251789093
1761392290989503200,3.076503173828125,-1.7436200380325317,1.026168704032898,1.4892311096191406
1761392290999585000,3.0865849609375,-1.5471974611282349,1.1554968357086182,2.160677671432495
1761392291009668000,3.096668212890625,-1.364344835281372,1.281313419342041,2.8179941177368164
1761392291019750100,3.106750244140625,-1.2067296504974365,1.336694598197937,3.376096487045288
1761392291029832200,3.116832275390625,-1.0920991897583008,1.3981515169143677,3.7630205154418945
1761392291039915300,3.126915283203125,-0.9848058223724365,1.4063432216644287,4.0138630867004395
1761392291049997000,3.1369970703125,-0.8918201923370361,1.5414581298828125,4.253931045532227
1761392291060079000,3.1470791015625,-0.8058568239212036,1.6986658573150635,4.546740531921387
1761392291070161200,3.1571611328125,-0.8561671376228333,2.0552499294281006,4.722116947174072
1761392291080244200,3.167244140625,-1.0666292905807495,2.6323533058166504,4.7697367668151855
1761392291090326300,3.177326171875,-1.2987115383148193,3.2260916233062744,4.691917419433594
1761392291100408300,3.187408203125,-1.2554516792297363,3.552178144454956,4.306914806365967
1761392291110491400,3.197491455078125,-0.8320849537849426,3.2235476970672607,3.645477294921875
1761392291120573200,3.2075732421875,-0.39104950428009033,2.459386110305786,3.281916618347168
1761392291130655200,3.2176552734375,-0.11647867411375046,1.8030610084533691,3.74265193939209
1761392291140738300,3.22773828125,0.07851184904575348,1.4602253437042236,4.649759292602539
1761392291150820400,3.2378203125,0.22128897905349731,1.5220508575439453,5.394148826599121
1761392291160902100,3.247902099609375,0.388414591550827,2.111841917037964,5.557895183563232
1761392291170985200,3.257985107421875,0.5228403210639954,2.870023012161255,5.181992053985596
1761392291181067300,3.2680673828125,0.46559938788414,3.5782620906829834,4.621745586395264
1761392291191149300,3.2781494140625,0.2996636629104614,4.1066999435424805,4.129567623138428
1761392291201232100,3.288232177734375,0.2060767412185669,4.398486137390137,3.792039632797241
1761392291211314200,3.298314208984375,0.30521050095558167,4.413885593414307,3.5750205516815186
1761392291221396200,3.308396240234375,0.6290695667266846,4.180412769317627,3.4609997272491455
1761392291231479000,3.31847900390625,1.084954023361206,3.73811936378479,3.461723566055298
1761392291241561000,3.32856103515625,1.5465631484985352,3.0816690921783447,3.588373899459839
1761392291251643100,3.33864306640625,1.9463562965393066,2.265810966491699,3.8714373111724854
1761392291261726200,3.348726318359375,2.2264294624328613,1.3822112083435059,4.271512508392334
1761392291271808300,3.358808349609375,2.3716602325439453,0.5877023935317993,4.647353649139404
1761392291281890000,3.36889013671875,2.3804709911346436,-0.04123532027006149,4.890552520751953
1761392291291972000,3.37897216796875,2.263643264770508,-0.429882675409317,4.94288444519043
1761392291302055200,3.38905517578125,2.091898202896118,-0.51554936170578,4.800624847412109
1761392291312137200,3.39913720703125,1.9333510398864746,-0.3733810484409332,4.562476634979248
1761392291322219000,3.409218994140625,1.7810853719711304,-0.14485065639019012,4.373160362243652
1761392291332302000,3.419302001953125,1.6043097972869873,0.05578416958451271,4.289544582366943
1761392291342384000,3.429384033203125,1.4064608812332153,0.22896288335323334,4.212579727172852
1761392291352466200,3.439466064453125,1.1365801095962524,0.41714370250701904,4.040590763092041
1761392291362549200,3.44954931640625,0.8023025989532471,0.5230789184570312,3.747589349746704
1761392291372631300,3.45963134765625,0.4702788293361664,0.4813905954360962,3.3801023960113525
1761392291382713300,3.46971337890625,0.18453894555568695,0.30552104115486145,2.9245786666870117
1761392291392796200,3.479796142578125,-0.05639270320534706,0.09258266538381577,2.4523298740386963
1761392291402878200,3.489878173828125,-0.26815688610076904,0.16072815656661987,2.072479248046875
1761392291412960300,3.499960205078125,-0.4893859326839447,0.4561166763305664,1.548300862312317
1761392291423043300,3.510043212890625,-0.9257895946502686,0.7519366145133972,0.4372953176498413
1761392291433125400,3.52012548828125,-1.4978296756744385,0.8058490753173828,-1.0956546068191528
1761392291443207200,3.530207275390625,-1.9432740211486816,0.729465901851654,-2.6906421184539795
1761392291453290200,3.540290283203125,-2.124483823776245,0.5740856528282166,-4.166371822357178
1761392291463372300,3.550372314453125,-1.9333246946334839,0.0886843279004097,-5.389266490936279
1761392291473454300,3.560454345703125,-1.5846692323684692,-0.3081226646900177,-6.258955955505371
1761392291483536100,3.5705361328125,-1.4027655124664307,-0.6234548091888428,-6.961521625518799
1761392291493619200,3.580619140625,-1.5954095125198364,-0.7898059487342834,-7.675469875335693
1761392291503701200,3.590701171875,-2.2163453102111816,-0.5360636711120605,-8.378538131713867
1761392291513783300,3.600783203125,-2.8656060695648193,0.03898122161626816,-9.105400085449219
1761392291523866000,3.6108662109375,-3.201777458190918,0.4586799740791321,-9.745932579040527
1761392291533948200,3.6209482421875,-3.2065606117248535,0.3762998580932617,-10.003314018249512
1761392291544030200,3.6310302734375,-2.9659228324890137,-0.4009189307689667,-9.674814224243164
1761392291554113000,3.641113037109375,-2.59945011138916,-1.729860544204712,-8.762971878051758
1761392291564195000,3.651195068359375,-2.143561363220215,-3.371384382247925,-7.485616683959961
1761392291574277000,3.661277099609375,-1.5585007667541504,-5.153914451599121,-6.250546455383301
1761392291584360200,3.671360107421875,-0.9661064147949219,-6.556599140167236,-5.105113506317139
1761392291594442200,3.681442138671875,-0.41073188185691833,-7.125163555145264,-3.966817855834961
1761392291604524000,3.69152392578125,-0.07480233907699585,-6.673944473266602,-2.901937246322632
1761392291614607000,3.701607177734375,-0.24594399333000183,-5.397799015045166,-2.440199613571167
1761392291624689200,3.711689208984375,-0.7778174877166748,-3.73504900932312,-2.6032674312591553
1761392291634771200,3.721771240234375,-1.5190649032592773,-2.0438899993896484,-2.9322869777679443
1761392291644854300,3.731854248046875,-2.2244081497192383,-0.9119638204574585,-2.7209839820861816
1761392291654936300,3.741936279296875,-2.516698122024536,-0.37651291489601135,-1.7298322916030884
1761392291665018400,3.752018310546875,-2.422635793685913,-0.10517328977584839,-0.29422152042388916
1761392291675100200,3.76210009765625,-2.1304023265838623,0.016625048592686653,1.2259012460708618
1761392291685183200,3.772183349609375,-1.8485286235809326,0.07920534163713455,2.5455729961395264
1761392291695265300,3.782265380859375,-1.7510840892791748,0.22454895079135895,3.5066564083099365
1761392291705347300,3.792347412109375,-1.8105056285858154,0.487835168838501,4.012465000152588
1761392291715430100,3.80243017578125,-2.0047900676727295,0.9646701812744141,4.106473922729492
1761392291725512200,3.81251220703125,-2.264991283416748,1.68905770778656,3.991633653640747
1761392291735594200,3.82259423828125,-2.4861273765563965,2.5953543186187744,3.8388140201568604
1761392291745677300,3.83267724609375,-2.561807632446289,3.4455678462982178,3.7253856658935547
1761392291755759400,3.84275927734375,-2.44797420501709,4.223020553588867,3.814617395401001
1761392291765841200,3.852841064453125,-2.182173490524292,4.854422569274902,4.175234794616699
1761392291775924200,3.86292431640625,-1.7142506837844849,5.049674034118652,4.278479099273682
1761392291786006300,3.87300634765625,-1.0263577699661255,4.5170087814331055,3.9512555599212646
1761392291796088300,3.88308837890625,-0.3039465844631195,3.777832508087158,4.054016590118408
1761392291806170000,3.893170166015625,0.5016540288925171,2.6332814693450928,4.307816028594971
1761392291816253200,3.903253173828125,0.9804975986480713,1.4113630056381226,4.101358890533447
1761392291826335200,3.913335205078125,1.0678259134292603,0.6379296183586121,3.473238468170166
1761392291836418000,3.92341796875,0.7022337913513184,0.6717802286148071,2.639739990234375
1761392291846501000,3.933501220703125,-0.019179819151759148,1.5156499147415161,1.924136757850647
1761392291856583200,3.943583251953125,-0.5476418137550354,2.646953821182251,1.214980125427246
1761392291866665200,3.953665283203125,-0.6183494925498962,3.631390333175659,0.4741867482662201
1761392291876748300,3.963748291015625,-0.25642645359039307,4.05619478225708,-0.13443104922771454
1761392291886830000,3.973830078125,0.3948573172092438,3.8740463256835938,-0.30862361192703247
1761392291896912100,3.983912109375,0.9999216198921204,3.0406253337860107,0.0902894139289856
1761392291906995200,3.9939951171875,1.3285887241363525,1.8297685384750366,0.7861568927764893
1761392291917077200,4.0040771484375,1.432408094406128,0.627930223941803,1.0906206369400024
1761392291927158000,4.014157958984375,1.4625459909439087,-0.08831015229225159,0.6906596422195435
1761392291937241300,4.024241455078125,1.4959138631820679,-0.17324581742286682,-0.3725120425224304
1761392291947323400,4.034323486328125,1.478747844696045,0.1603878140449524,-1.7207990884780884
1761392291957405200,4.0444052734375,1.3989830017089844,0.4274749159812927,-2.9260671138763428
1761392291967488300,4.05448828125,1.1975764036178589,0.26154080033302307,-3.701881170272827
1761392291977570300,4.0645703125,0.940680980682373,-0.3219444751739502,-4.0650811195373535
1761392291987652400,4.07465234375,0.8280923366546631,-1.0960036516189575,-4.050227165222168
1761392291997735200,4.084735107421875,0.808067262172699,-1.9752521514892578,-3.842623233795166
1761392292007817200,4.094817138671875,0.766968309879303,-2.856890916824341,-3.7255868911743164
1761392292017899300,4.104899169921875,0.7170832753181458,-3.5377357006073,-3.7945337295532227
1761392292027982300,4.114982421875,0.6448287963867188,-3.7893941402435303,-3.8874425888061523
1761392292038064000,4.125064208984375,0.48699069023132324,-3.559311628341675,-3.8582816123962402
1761392292048146200,4.135146240234375,0.2996237277984619,-3.072725296020508,-3.818065643310547
1761392292058228200,4.145228271484375,0.1316557675600052,-2.6478235721588135,-3.8597049713134766
1761392292068311300,4.155311279296875,-0.0158854890614748,-2.4977595806121826,-3.833735704421997
1761392292078393300,4.165393310546875,-0.17819291353225708,-2.5603723526000977,-3.636852741241455
1761392292088475100,4.17547509765625,-0.41548535227775574,-2.8575515747070312,-3.131441116333008
1761392292098558200,4.18555810546875,-0.7872874140739441,-3.000685930252075,-2.0563528537750244
1761392292108640300,4.19564013671875,-1.1537373065948486,-2.221742630004883,-0.4541163742542267
1761392292118722300,4.205722412109375,-1.3549710512161255,-0.5097748637199402,1.1910297870635986
1761392292128805000,4.21580517578125,-1.3476183414459229,1.2757282257080078,2.4990298748016357
1761392292138887200,4.22588720703125,-1.2466424703598022,2.5135347843170166,3.436840295791626
1761392292148969200,4.23596923828125,-1.1247937679290771,3.014552593231201,4.109585762023926
1761392292159052000,4.246052001953125,-0.9728929400444031,2.9579691886901855,4.633546829223633
1761392292169134000,4.256134033203125,-0.8499678373336792,2.6385018825531006,5.15142822265625
1761392292179216100,4.266216064453125,-0.7572384476661682,2.3885600566864014,5.648699760437012
1761392292189299200,4.27629931640625,-0.6738157272338867,2.3343615531921387,6.026854038238525
1761392292199381000,4.286381103515625,-0.5950990319252014,2.3715713024139404,6.256869792938232
1761392292209463000,4.296463134765625,-0.5632526874542236,2.5628068447113037,6.314308166503906
1761392292219545000,4.306545166015625,-0.5310574769973755,2.7677788734436035,6.158080577850342
1761392292229628400,4.31662841796875,-0.4579140245914459,2.8657243251800537,5.80430269241333
1761392292239710200,4.326710205078125,-0.4156701862812042,2.899231195449829,5.267362594604492
1761392292249792000,4.3367919921875,-0.40734541416168213,2.8456859588623047,4.591958045959473
1761392292259875300,4.346875244140625,-0.347137987613678,2.7085347175598145,3.932669162750244
1761392292269957400,4.356957275390625,-0.22519530355930328,2.645077705383301,3.3488709926605225
1761392292280039400,4.367039306640625,-0.08043119311332703,2.6526005268096924,2.7894558906555176
1761392292290122200,4.377122314453125,0.10375808924436569,2.564779043197632,2.225257158279419
1761392292300204300,4.387204345703125,0.31882965564727783,2.257106304168701,1.682948112487793
1761392292310286300,4.397286376953125,0.486780047416687,1.7191849946975708,1.2967157363891602
1761392292320369200,4.407369140625,0.48182761669158936,1.1378017663955688,1.1112521886825562
1761392292330451200,4.417451171875,0.2873460352420807,0.7066066861152649,1.0449535846710205
1761392292340533200,4.427533203125,0.1934160739183426,0.6292402744293213,0.8894867300987244
1761392292350615300,4.437615234375,0.2408733367919922,0.9055415987968445,0.5102784633636475
1761392292360698000,4.447697998046875,0.37229180335998535,1.3080837726593018,-0.04872439429163933
1761392292370780200,4.4577802734375,0.5367223024368286,1.513476848602295,-0.6769688725471497
1761392292380862200,4.4678623046875,0.7055869698524475,1.291858434677124,-1.229792594909668
1761392292390945300,4.4779453125,0.9487130641937256,0.6317622661590576,-1.6371670961380005
1761392292401027300,4.48802734375,1.2530598640441895,-0.39744749665260315,-1.9180495738983154
1761392292411109000,4.498109130859375,1.4877357482910156,-1.3373491764068604,-2.100351095199585
1761392292421192200,4.508192138671875,1.5199803113937378,-1.8844530582427979,-2.2864813804626465
1761392292431274200,4.518274169921875,1.3184953927993774,-1.7647020816802979,-2.583223342895508
1761392292441356300,4.528356201171875,1.0094008445739746,-1.0927823781967163,-3.1687872409820557
1761392292451439000,4.538439208984375,0.7195807695388794,-0.2834663391113281,-4.07377815246582
1761392292461521200,4.548521240234375,0.5385705232620239,0.2538416087627411,-5.138092041015625
1761392292471603200,4.558603271484375,0.44433245062828064,0.31066492199897766,-6.15043830871582
1761392292481686000,4.56868603515625,0.40310510993003845,-0.22251643240451813,-6.889155387878418
1761392292491768000,4.57876806640625,0.3560100495815277,-1.2058079242706299,-7.190681457519531
1761392292501850000,4.58885009765625,0.32968735694885254,-2.2885117530822754,-7.1217498779296875
1761392292511933200,4.59893310546875,0.3852755129337311,-3.076051712036133,-6.927863121032715
1761392292522015000,4.609014892578125,0.5062288641929626,-3.4770195484161377,-6.772431373596191
1761392292532097000,4.619096923828125,0.5946758985519409,-3.6179139614105225,-6.649965286254883
1761392292542179000,4.629178955078125,0.5752036571502686,-3.683058738708496,-6.4736480712890625
1761392292552262400,4.639262451171875,0.43827909231185913,-3.790208101272583,-6.199573516845703
1761392292562345200,4.64934521484375,0.2683936357498169,-3.9154653549194336,-5.837697505950928
1761392292572427300,4.65942724609375,0.09661202877759933,-4.011200428009033,-5.525923728942871
1761392292582509300,4.66950927734375,-0.03612871095538139,-4.0542144775390625,-5.466126441955566
1761392292592592100,4.679592041015625,-0.06688661873340607,-3.9588534832000732,-5.7904462814331055
1761392292602674200,4.689674072265625,-0.05160913243889809,-3.7084946632385254,-6.258930206298828
1761392292612756200,4.699756103515625,-0.1523735523223877,-3.3208141326904297,-6.40378475189209
1761392292622839300,4.70983935546875,-0.34954655170440674,-2.9751532077789307,-6.1502685546875
1761392292632921300,4.71992138671875,-0.44036993384361267,-2.802997350692749,-5.657884120941162
1761392292643003100,4.730003173828125,-0.3818933069705963,-2.976651191711426,-5.066427230834961
1761392292653085200,4.740085205078125,-0.18577918410301208,-3.432600259780884,-4.438994884490967
1761392292663168300,4.750168212890625,0.14843128621578217,-4.200834274291992,-3.757016897201538
1761392292673250300,4.760250244140625,0.5971297025680542,-5.133544445037842,-2.9696056842803955
1761392292683332000,4.77033203125,0.9779236912727356,-5.669182777404785,-2.2467732429504395
1761392292693415200,4.780415283203125,1.1550542116165161,-5.407042503356934,-1.920607089996338
1761392292703497200,4.790497314453125,1.0980145931243896,-4.480419635772705,-2.060995578765869
1761392292713579300,4.800579345703125,0.7402945756912231,-3.3586695194244385,-2.3564252853393555
1761392292723662000,4.810662109375,0.13145603239536285,-2.446851968765259,-2.3803393840789795
1761392292733744000,4.820744140625,-0.5782657265663147,-1.6174908876419067,-2.2960028648376465
1761392292743826200,4.830826171875,-1.1655734777450562,-0.6910367608070374,-2.3574414253234863
1761392292753909000,4.840908935546875,-1.4879109859466553,0.26583167910575867,-2.4962854385375977
1761392292763991000,4.850990966796875,-1.471924066543579,0.8778447508811951,-2.3365325927734375
1761392292774073000,4.861072998046875,-1.043707251548767,1.1276609897613525,-1.4349324703216553
1761392292784155100,4.871155029296875,-0.3643752932548523,1.2604604959487915,0.03250015154480934
1761392292794238200,4.88123828125,0.2895476520061493,1.4205447435379028,1.7048026323318481
1761392292804320000,4.891320068359375,0.6319848895072937,1.8168894052505493,3.108590841293335
1761392292814402000,4.901402099609375,0.6410636305809021,2.3852357864379883,3.9935176372528076
1761392292824485400,4.9114853515625,0.3631212115287781,3.0054590702056885,4.371633529663086
1761392292834570200,4.9215703125,-0.07461485266685486,3.6347837448120117,4.5068559646606445
1761392292844652300,4.93165234375,-0.49872803688049316,4.1164398193359375,4.627440929412842
1761392292854735000,4.941735107421875,-0.7913274168968201,4.344070911407471,4.922809600830078
1761392292864817200,4.951817138671875,-0.9424319863319397,4.396240234375,5.413665294647217
1761392292874899200,4.961899169921875,-1.0611546039581299,4.526936054229736,6.0153608322143555
1761392292884982000,4.97198193359375,-1.220224142074585,4.7925214767456055,6.593380451202393
1761392292895064000,4.98206396484375,-1.348788857460022,5.241541385650635,6.993587970733643
1761392292905146000,4.99214599609375,-1.287381887435913,5.600019454956055,7.09391975402832
1761392292915228200,5.002228271484375,-1.0403976440429688,5.573964595794678,6.831467628479004
1761392292925311000,5.01231103515625,-0.7632257342338562,5.386261940002441,6.481475830078125
1761392292935393000,5.02239306640625,-0.45353445410728455,5.071050643920898,6.1384758949279785
1761392292945475000,5.03247509765625,-0.013104616664350033,4.5156569480896,5.651509761810303
1761392292955558100,5.04255810546875,0.42603784799575806,3.5929834842681885,5.319604396820068
1761392292965640200,5.05264013671875,0.518386960029602,2.534999132156372,5.47838020324707
1761392292975722000,5.062721923828125,0.37365028262138367,1.7022345066070557,5.865764617919922
1761392292985805000,5.07280517578125,0.17084097862243652,1.236219882965088,6.062760829925537
1761392292995887000,5.08288720703125,-0.01221405528485775,1.2617796659469604,5.826474666595459
1761392293005969200,5.09296923828125,-0.18755924701690674,1.521480679512024,5.223155498504639
1761392293016052000,5.103052001953125,-0.3595768213272095,1.586403250694275,4.475834369659424
1761392293026134000,5.113134033203125,-0.5504732728004456,1.3313409090042114,3.6290154457092285
1761392293036216000,5.123216064453125,-0.6632118225097656,1.0133527517318726,2.852263927459717
1761392293046299000,5.133298828125,-0.5903990864753723,0.7157437205314636,2.358525514602661
1761392293056381000,5.143380859375,-0.354348748922348,0.4535038471221924,2.142076253890991
1761392293066463000,5.153462890625,-0.11745445430278778,0.2525204122066498,2.0704152584075928
1761392293076545000,5.163544921875,-0.02532799355685711,-0.06625145673751831,1.8961877822875977
1761392293086628000,5.173628173828125,-0.08191457390785217,-0.4438192546367645,1.3714799880981445
1761392293096710000,5.1837099609375,-0.18925194442272186,-0.5667329430580139,0.4292389750480652
1761392293106792000,5.1937919921875,-0.26133227348327637,-0.5294097661972046,-0.7867108583450317
1761392293116875300,5.203875244140625,-0.20317068696022034,-0.33654099702835083,-1.9684842824935913
1761392293126957000,5.21395703125,-0.03326847404241562,-0.1577451527118683,-2.8934569358825684
1761392293137039000,5.2240390625,0.24998587369918823,-0.14775004982948303,-3.4451375007629395
1761392293147122200,5.2341220703125,0.6299737095832825,-0.3071269094944,-3.6579294204711914
1761392293157204200,5.244204345703125,1.0059963464736938,-0.711974024772644,-3.6296803951263428
1761392293167286300,5.254286376953125,1.2613071203231812,-1.2411917448043823,-3.5207574367523193
1761392293177369000,5.264369140625,1.340143084526062,-1.6687644720077515,-3.5919559001922607
1761392293187451100,5.274451171875,1.2759308815002441,-1.873992681503296,-3.977663278579712
1761392293197533200,5.284533203125,1.1787919998168945,-1.9381256103515625,-4.730105400085449
1761392293207616000,5.294615966796875,1.1594349145889282,-2.2863972187042236,-5.715991497039795
1761392293217698000,5.304697998046875,1.2772579193115234,-2.891209363937378,-6.735249996185303
1761392293227780000,5.314780029296875,1.3863441944122314,-3.6817922592163086,-7.442213535308838
1761392293237862100,5.324862060546875,1.3948948383331299,-4.40510892868042,-7.582657814025879
1761392293247945000,5.334945068359375,1.2921918630599976,-4.4848480224609375,-7.072873115539551
1761392293258027000,5.345027099609375,1.0838285684585571,-3.742655038833618,-6.254168510437012
1761392293268109000,5.355109130859375,0.8122902512550354,-2.6069140434265137,-5.621099948883057
1761392293278192000,5.365192138671875,0.4516047537326813,-1.611640453338623,-5.338228702545166
1761392293288274200,5.375274169921875,0.04707270488142967,-0.975587010383606,-5.226428031921387
1761392293298356000,5.38535595703125,-0.2558504045009613,-0.9209274649620056,-5.040799140930176
1761392293308439000,5.39543896484375,-0.3075719475746155,-1.361580729484558,-4.598388195037842
1761392293318521000,5.40552099609375,-0.2128467559814453,-1.8657557964324951,-3.9187042713165283
1761392293328603100,5.41560302734375,-0.0531817302107811,-2.191944122314453,-3.194535255432129
1761392293338686000,5.42568603515625,-0.011355984956026077,-2.1553022861480713,-2.546880006790161
1761392293348768000,5.43576806640625,-0.1844249665737152,-1.6902377605438232,-2.1887564659118652
1761392293358850000,5.44585009765625,-0.5219276547431946,-0.9890969395637512,-2.046679735183716
1761392293368932900,5.455932861328125,-0.8917781114578247,-0.2802002429962158,-1.8661794662475586
1761392293379015000,5.466014892578125,-1.180829644203186,0.34738433361053467,-1.4118585586547852
1761392293389097000,5.476096923828125,-1.3055732250213623,0.7316241264343262,-0.6672731041908264
1761392293399179000,5.486178955078125,-1.3182798624038696,0.9572740197181702,0.27000299096107483
1761392293409262000,5.496261962890625,-1.3333734273910522,1.0522465705871582,1.1316794157028198
1761392293419344100,5.50634423828125,-1.4366060495376587,1.105210304260254,1.8212165832519531
1761392293429426200,5.51642626953125,-1.7575491666793823,1.2228953838348389,2.399709463119507
1761392293439509200,5.52650927734375,-2.300340414047241,1.460648775100708,2.8814010620117188
1761392293449591000,5.536591064453125,-2.9661967754364014,1.8296984434127808,3.304680824279785
1761392293459673000,5.546673095703125,-3.722513198852539,2.451078176498413,3.6916985511779785
1761392293469756200,5.556756103515625,-4.098776817321777,3.1229987144470215,3.9956398010253906
1761392293479838200,5.566838134765625,-4.417505741119385,4.727481842041016,3.803494691848755
1761392293489920300,5.576920166015625,-4.1559977531433105,6.504881858825684,3.463503360748291
1761392293500003000,5.587003173828125,-3.6146397590637207,8.326833724975586,3.3292970657348633
1761392293510085000,5.597085205078125,-2.8199751377105713,9.28298282623291,3.4599878787994385
1761392293520167200,5.607167236328125,-1.9799177646636963,9.173669815063477,4.020168781280518
1761392293530249200,5.617249267578125,-1.2205605506896973,8.036906242370605,4.826351642608643
1761392293540332000,5.62733203125,-0.5274744629859924,6.156705379486084,5.308581829071045
1761392293550414000,5.6374140625,0.12214534729719162,3.9873313903808594,4.985411643981934
1761392293560496000,5.64749609375,0.6867807507514954,2.4852206707000732,4.278456211090088
1761392293570579000,5.657578857421875,1.1429791450500488,1.5161902904510498,3.3116533756256104
1761392293580661000,5.667660888671875,1.452051043510437,0.8997271060943604,2.4004101753234863
1761392293590743000,5.677742919921875,1.5427454710006714,0.5198410749435425,1.884233832359314
1761392293600826000,5.687826171875,1.37913978099823,0.644439697265625,1.6055047512054443
1761392293610908000,5.697907958984375,1.213192105293274,0.7682306170463562,1.1697138547897339
1761392293620990000,5.707989990234375,0.9621002078056335,0.891383707523346,0.4242338240146637
1761392293631073000,5.718072998046875,0.722667396068573,1.055675983428955,-0.36131930351257324
1761392293641155000,5.728155029296875,0.6279613971710205,0.9513106942176819,-0.8944678902626038
1761392293651237000,5.738237060546875,0.6420010328292847,0.6345894932746887,-1.1543275117874146
1761392293661320000,5.74831982421875,0.6420015692710876,0.36919108033180237,-1.2017309665679932
1761392293671402000,5.758402099609375,0.6002293825149536,0.18798881769180298,-1.2952606678009033
1761392293681484000,5.768484130859375,0.5057196617126465,-0.07420392334461212,-1.653186559677124
1761392293691566000,5.778566162109375,0.3362206220626831,-0.4127947688102722,-2.2816126346588135
1761392293701649200,5.788649169921875,0.12848740816116333,-0.752098798751831,-3.1221930980682373
1761392293711731200,5.798731201171875,-0.12589162588119507,-1.0538722276687622,-3.9343783855438232
1761392293721813000,5.80881298828125,-0.4341924488544464,-1.2851850986480713,-4.447958469390869
1761392293731896000,5.81889599609375,-0.6983447670936584,-1.5355725288391113,-4.600840091705322
1761392293741978000,5.82897802734375,-0.8627057075500488,-1.7314467430114746,-4.475022315979004
1761392293752060200,5.83906005859375,-0.8964754343032837,-1.7884271144866943,-4.322962760925293
1761392293762143200,5.849143310546875,-0.8855029344558716,-1.6682668924331665,-4.18737268447876
1761392293772225000,5.85922509765625,-0.8541101217269897,-1.750179409980774,-4.036174297332764
1761392293782307000,5.86930712890625,-0.7726749181747437,-2.1818833351135254,-3.7622087001800537
1761392293792390100,5.87939013671875,-0.7002872824668884,-2.94547700881958,-3.2727301120758057
1761392293802472200,5.88947216796875,-0.6986528635025024,-3.5228567123413086,-2.707756757736206
1761392293812554200,5.89955419921875,-0.8034160137176514,-3.2004849910736084,-1.9558970928192139
1761392293822636000,5.909635986328125,-0.9936389923095703,-2.1981101036071777,-1.2023056745529175
1761392293832719000,5.919718994140625,-1.3646814823150635,-0.7287889122962952,-0.5045965909957886
1761392293842797000,5.929797119140625,-1.813083529472351,0.8173001408576965,0.00552259711548686
1761392293852879000,5.939879150390625,-2.159461259841919,1.9328498840332031,0.1593387871980667
1761392293862962000,5.9499619140625,-2.244953155517578,2.4352967739105225,0.12785010039806366
1761392293873044000,5.9600439453125,-2.0404107570648193,2.3751473426818848,0.16049034893512726
1761392293883126000,5.9701259765625,-1.6868594884872437,1.9837729930877686,0.38129541277885437
1761392293893209300,5.980209228515625,-1.2659045457839966,1.4868241548538208,0.8093077540397644
1761392293903291100,5.990291015625,-0.7585622668266296,1.2135214805603027,1.4062864780426025
1761392293913373200,6.000373291015625,-0.17463359236717224,1.0986658334732056,1.936676025390625
1761392293923456300,6.010456298828125,0.35716238617897034,1.0745253562927246,2.2685999870300293
1761392293933538300,6.020538330078125,0.8320000171661377,1.2425563335418701,2.337219476699829
1761392293943620000,6.0306201171875,1.2196292877197266,1.5427113771438599,2.1246869564056396
1761392293953702100,6.0407021484375,1.432773470878601,1.71025812625885,1.732707142829895
1761392293963785200,6.05078515625,1.5810915231704712,1.7276335954666138,1.289776086807251
1761392293973867300,6.0608671875,1.6285728216171265,1.7496241331100464,0.908195436000824
1761392293983949300,6.07094921875,1.4278441667556763,1.7666512727737427,0.5619893074035645
1761392293994032000,6.0810322265625,1.0712922811508179,1.8621623516082764,0.27446964383125305
1761392294004114200,6.0911142578125,0.7844594120979309,1.9869139194488525,0.029354160651564598
1761392294014196200,6.1011962890625,0.7201334238052368,1.9893232583999634,-0.1577416956424713
1761392294024279000,6.111279052734375,0.8681164979934692,1.6916910409927368,-0.27041152119636536
1761392294034361000,6.121361083984375,1.0225473642349243,1.207731008529663,-0.30317559838294983
1761392294044443100,6.131443115234375,1.0314092636108398,0.5742712616920471,-0.2821829617023468
1761392294054526200,6.141526123046875,0.8636223673820496,0.09388894587755203,-0.2565516233444214
1761392294064608000,6.15160791015625,0.6162445545196533,-0.16076837480068207,-0.23320236802101135
1761392294074690000,6.16168994140625,0.3799760937690735,-0.05708672106266022,-0.25984275341033936
1761392294084772000,6.171772216796875,0.2249782532453537,0.273612380027771,-0.27162113785743713
1761392294094855200,6.181855224609375,0.1459532082080841,0.865973174571991,-0.24330319464206696
1761392294104937000,6.19193701171875,0.28018638491630554,1.3938745260238647,-0.19467973709106445
1761392294115019000,6.20201904296875,0.520938515663147,1.598419427871704,-0.31478244066238403
1761392294125102000,6.21210205078125,0.6556598544120789,1.4802535772323608,-0.772793173789978
1761392294135184100,6.22218408203125,0.6327311396598816,1.0766593217849731,-1.3861052989959717
1761392294145266200,6.23226611328125,0.5959265232086182,0.7685397863388062,-1.809937834739685
1761392294155349000,6.242348876953125,0.5905517339706421,0.6105219721794128,-2.0102341175079346
1761392294165431000,6.25243115234375,0.5518527626991272,0.4073307514190674,-2.234250545501709
1761392294175513000,6.26251318359375,0.44842520356178284,0.049726277589797974,-2.555250406265259
1761392294185596200,6.27259619140625,0.31795427203178406,-0.28643763065338135,-2.8787827491760254
1761392294195678200,6.28267822265625,0.15263721346855164,-0.36374759674072266,-3.0861358642578125
1761392294205760300,6.29276025390625,-0.03567437455058098,-0.16441184282302856,-3.249011993408203
1761392294215842000,6.302842041015625,-0.2050652652978897,0.011171693913638592,-3.396512031555176
1761392294225925000,6.312925048828125,-0.25613003969192505,-0.17480775713920593,-3.2790727615356445
1761392294236007200,6.323007080078125,-0.2369757890701294,-0.8177267909049988,-2.886789083480835
1761392294246089200,6.333089111328125,-0.28151848912239075,-1.4581595659255981,-2.3866865634918213
1761392294256172300,6.34317236328125,-0.4827727675437927,-1.8653759956359863,-2.004995584487915
1761392294266254000,6.353254150390625,-0.869709312915802,-2.113901138305664,-1.8608036041259766
1761392294276336000,6.363336181640625,-1.349482536315918,-2.274378538131714,-1.994737982749939
1761392294286419200,6.373419189453125,-1.7361005544662476,-2.2547550201416016,-2.388826608657837
1761392294296501200,6.383501220703125,-1.923764705657959,-2.019566059112549,-2.865732192993164
1761392294306583000,6.3935830078125,-1.9883067607879639,-1.6387863159179688,-3.207977771759033
1761392294316666000,6.403666015625,-2.016767740249634,-1.062462568283081,-3.1856348514556885
1761392294326748200,6.413748046875,-2.021048069000244,-0.7540279626846313,-2.808772087097168
1761392294336830200,6.423830322265625,-2.0158023834228516,-0.8599344491958618,-2.2149484157562256
1761392294346912300,6.433912353515625,-2.091703414916992,-1.2919644117355347,-1.4811569452285767
1761392294356995000,6.4439951171875,-2.216931104660034,-1.9026174545288086,-0.8278865218162537
1761392294367077000,6.4540771484375,-2.2883260250091553,-2.567594289779663,-0.4229475259780884
1761392294377159200,6.4641591796875,-2.251426935195923,-3.0909762382507324,-0.3680768311023712
1761392294387242000,6.474241943359375,-2.0872933864593506,-3.017754554748535,-0.48545724153518677
1761392294397324000,6.484323974609375,-1.9163156747817993,-1.9584308862686157,-0.442923903465271
1761392294407406000,6.494406005859375,-1.7518316507339478,-0.7415691614151001,-0.4768882691860199
1761392294417489200,6.5044892578125,-1.5702269077301025,0.532807469367981,-0.5071947574615479
1761392294427571000,6.514571044921875,-1.4012531042099,1.506822943687439,-0.4537414014339447
1761392294437653000,6.524653076171875,-1.2978087663650513,1.6268771886825562,-0.32264596223831177
1761392294447735000,6.534735107421875,-1.2888232469558716,1.0183805227279663,0.03381974995136261
1761392294457818000,6.544818115234375,-1.297250747680664,0.4023277461528778,0.600212037563324
1761392294467900200,6.554900146484375,-1.2296110391616821,-0.33301976323127747,1.053062915802002
1761392294477982000,6.56498193359375,-0.9979035258293152,-1.2913057804107666,1.1153126955032349
1761392294488065000,6.57506494140625,-0.7192012667655945,-1.7689757347106934,0.9347261190414429
1761392294498147000,6.58514697265625,-0.530261218547821,-1.6877692937850952,0.5863662958145142
1761392294508229000,6.59522900390625,-0.3678656220436096,-1.0880610942840576,0.18976567685604095
1761392294518312200,6.605312255859375,-0.25825658440589905,0.036603815853595734,-0.14988403022289276
1761392294528394200,6.615394287109375,-0.1468789279460907,0.9895254373550415,-0.23514194786548615
1761392294538476300,6.625476318359375,0.00959749985486269,1.552268385887146,-0.15452192723751068
1761392294548559000,6.63555908203125,0.10956777632236481,1.6369742155075073,-0.09482903778553009
1761392294558641200,6.64564111328125,0.0792442187666893,1.2949506044387817,-0.09898010641336441
1761392294568723200,6.65572314453125,-0.050452787429094315,0.6914700865745544,-0.1586863100528717
1761392294578805200,6.66580517578125,-0.2351621836423874,0.08876208961009979,-0.3068816363811493
1761392294588888000,6.67588818359375,-0.393201619386673,-0.27148449420928955,-0.597663938999176
1761392294598970000,6.68597021484375,-0.4627407491207123,-0.23559947311878204,-0.8394062519073486
1761392294609052200,6.69605224609375,-0.4024566411972046,0.07212665677070618,-1.001729130744934
1761392294619135200,6.70613525390625,-0.1955852061510086,0.460370808839798,-1.1628400087356567
1761392294629217000,6.716217041015625,0.0668482705950737,0.8757206201553345,-1.2116509675979614
1761392294639299000,6.726299072265625,0.2783956825733185,1.049864411354065,-1.0787535905838013
1761392294649382100,6.736382080078125,0.4140554964542389,0.886886715888977,-0.7748648524284363
1761392294659464200,6.746464111328125,0.4871659278869629,0.5771166086196899,-0.34938329458236694
1761392294669546200,6.756546142578125,0.5285101532936096,0.2943978011608124,0.13661430776119232
1761392294679628000,6.7666279296875,0.5803467631340027,0.18746790289878845,0.6768665909767151
1761392294689711000,6.776711181640625,0.6799740195274353,0.22315451502799988,1.1940923929214478
1761392294699793200,6.786793212890625,0.874108612537384,0.34001481533050537,1.5408663749694824
1761392294709875200,6.796875244140625,1.1146807670593262,0.4629623293876648,1.5387520790100098
1761392294719958000,6.8069580078125,1.1965681314468384,0.7832154035568237,1.3578765392303467
1761392294730040000,6.8170400390625,1.1135568618774414,1.1595426797866821,1.0371025800704956
1761392294740122000,6.8271220703125,1.0217845439910889,1.9177614450454712,0.37547507882118225
1761392294750205000,6.837204833984375,1.0587444305419922,1.8963866233825684,0.0486234612762928
1761392294760287000,6.847286865234375,1.3720715045928955,1.7265851497650146,0.11025699973106384
1761392294770369000,6.857369140625,1.692649245262146,1.7701853513717651,0.5147163271903992
1761392294780451000,6.867451171875,1.8632025718688965,1.6301230192184448,1.0233044624328613
1761392294790534100,6.8775341796875,1.9442319869995117,1.2514688968658447,1.5347179174423218
1761392294800616000,6.887615966796875,1.9634594917297363,0.6885315179824829,1.9728926420211792
1761392294810698000,6.897697998046875,1.834622859954834,0.3370020091533661,2.285165309906006
1761392294820781300,6.90778125,1.5564615726470947,0.2428632378578186,2.306739568710327
1761392294830863400,6.91786328125,1.1030988693237305,0.24092766642570496,1.9326282739639282
1761392294840945200,6.927945068359375,0.6422066688537598,0.38949182629585266,1.3295732736587524
1761392294851028200,6.9380283203125,0.2775519788265228,0.6725807785987854,0.5754579901695251
1761392294861110300,6.9481103515625,0.02574504353106022,1.1587152481079102,-0.24561242759227753
1761392294871192300,6.9581923828125,-0.13653095066547394,1.655297040939331,-1.0450105667114258
1761392294881275100,6.968275146484375,-0.21084566414356232,1.814521074295044,-1.716257929801941
1761392294891357200,6.978357177734375,-0.2796628177165985,1.3986122608184814,-2.0442373752593994
1761392294901439200,6.988439208984375,-0.29535895586013794,0.532733142375946,-2.157613515853882
1761392294911521300,6.998521240234375,-0.12551558017730713,0.029757894575595856,-1.9568265676498413
1761392294921604000,7.00860400390625,0.1106860339641571,-0.31454887986183167,-1.5352643728256226
1761392294931686100,7.01868603515625,0.2979627251625061,-0.3927254378795624,-0.9631505608558655
1761392294941768200,7.028768310546875,0.31579843163490295,-0.2670181095600128,-0.409604549407959
1761392294951851000,7.03885107421875,0.138768270611763,-0.0695180892944336,0.12697605788707733
