time,seconds_elapsed,z,y,x
1761379838918567200,0.075567138671875,-0.15158526599407196,-0.2900986671447754,-0.21824578940868378
1761379838928650200,0.085650146484375,-0.10067760944366455,0.008890430442988873,-0.3572220504283905
1761379838938732000,0.09573193359375,-0.027148263528943062,0.21051914989948273,-0.4565768539905548
1761379838948815000,0.105815185546875,0.07132983952760696,0.3166240155696869,-0.48519811034202576
1761379838958898200,0.115898193359375,0.16350291669368744,0.3088316023349762,-0.4314688444137573
1761379838968981000,0.12598095703125,0.24648594856262207,0.20577660202980042,-0.31007689237594604
1761379838979064300,0.136064208984375,0.3052014410495758,0.040042225271463394,-0.15268568694591522
1761379838989147100,0.146147216796875,0.349304735660553,-0.12873587012290955,0.03506956994533539
1761379838999230200,0.156230224609375,0.3780743181705475,-0.24963858723640442,0.22248633205890656
1761379839009313000,0.16631298828125,0.3833066523075104,-0.3218004107475281,0.3634253442287445
1761379839019396000,0.17639599609375,0.3791404068470001,-0.3504336476325989,0.45661067962646484
1761379839029479000,0.18647900390625,0.3680903911590576,-0.31982725858688354,0.5126955509185791
1761379839039562200,0.196562255859375,0.34816810488700867,-0.21874858438968658,0.5557130575180054
1761379839049645300,0.206645263671875,0.339666485786438,-0.09561999887228012,0.5804484486579895
1761379839059728100,0.21672802734375,0.32924047112464905,0.0023936491925269365,0.579509437084198
1761379839069811200,0.226811279296875,0.30811282992362976,0.07779838889837265,0.5560619235038757
1761379839079893000,0.23689306640625,0.2808455228805542,0.12042601406574249,0.5068832039833069
1761379839089976000,0.24697607421875,0.2529744803905487,0.1234111487865448,0.4471982717514038
1761379839100059100,0.25705908203125,0.2085697203874588,0.0672227144241333,0.367574542760849
1761379839110142200,0.26714208984375,0.1607753038406372,-0.02334447018802166,0.28594812750816345
1761379839120225300,0.277225341796875,0.09729885309934616,-0.14357075095176697,0.1842563897371292
1761379839130308000,0.28730810546875,0.024439029395580292,-0.2478870302438736,0.05915866047143936
1761379839140391200,0.29739111328125,-0.030015956610441208,-0.2674996256828308,-0.05753945931792259
1761379839150474000,0.307473876953125,-0.05584622174501419,-0.18625909090042114,-0.14287832379341125
1761379839160557000,0.31755712890625,-0.056594837456941605,-0.03357713297009468,-0.18197833001613617
1761379839170640100,0.32764013671875,-0.030497455969452858,0.15512514114379883,-0.16170766949653625
1761379839180723200,0.33772314453125,0.02725319191813469,0.3473161458969116,-0.11385545879602432
1761379839190806300,0.34780615234375,0.11563152074813843,0.5172820091247559,-0.07256714254617691
1761379839200889000,0.35788916015625,0.2327517569065094,0.6959372758865356,-0.05248983949422836
1761379839210971100,0.36797119140625,0.3639664947986603,0.8497606515884399,-0.04248807206749916
1761379839221054000,0.378053955078125,0.4719555377960205,0.9269313216209412,-0.06066494435071945
1761379839231137000,0.388136962890625,0.541471540927887,0.9496573805809021,-0.10034551471471786
1761379839241220400,0.398220458984375,0.6178171634674072,0.9009748101234436,-0.13987986743450165
1761379839251303200,0.40830322265625,0.6828033328056335,0.8341992497444153,-0.1627279371023178
1761379839261386200,0.41838623046875,0.7471541166305542,0.772811770439148,-0.15191122889518738
1761379839271469000,0.428468994140625,0.797386109828949,0.7245843410491943,-0.12322685867547989
1761379839281552100,0.43855224609375,0.8376597762107849,0.649528443813324,-0.10722179710865021
1761379839291635000,0.448635009765625,0.847377359867096,0.5317445993423462,-0.11296436935663223
1761379839301718300,0.45871826171875,0.8451153039932251,0.3986208736896515,-0.1437891274690628
1761379839311801000,0.468801025390625,0.8567373156547546,0.3002346456050873,-0.17561976611614227
1761379839321884200,0.47888427734375,0.8934053182601929,0.2581777572631836,-0.2033187597990036
1761379839331967200,0.48896728515625,0.936815619468689,0.26363855600357056,-0.2335917204618454
1761379839342049000,0.499049072265625,0.9792762994766235,0.29667428135871887,-0.26305267214775085
1761379839352132000,0.509132080078125,1.0054442882537842,0.33928725123405457,-0.27634236216545105
1761379839362215200,0.519215087890625,1.0195426940917969,0.39010515809059143,-0.2852621078491211
1761379839372294400,0.52929443359375,1.0430773496627808,0.4338870048522949,-0.2855478525161743
1761379839382377500,0.53937744140625,1.0720908641815186,0.4534207582473755,-0.2809413969516754
1761379839392460500,0.54946044921875,1.1042847633361816,0.450475811958313,-0.2534615695476532
1761379839402543600,0.559543701171875,1.1422476768493652,0.40765780210494995,-0.21683751046657562
1761379839412626400,0.56962646484375,1.1735341548919678,0.34068700671195984,-0.16063548624515533
1761379839422709500,0.57970947265625,1.2113596200942993,0.27897995710372925,-0.08275719732046127
1761379839432792300,0.589792236328125,1.261906623840332,0.23498427867889404,0.009431052021682262
1761379839442875400,0.59987548828125,1.320330023765564,0.21630354225635529,0.11513590812683105
1761379839452958500,0.60995849609375,1.3661062717437744,0.19657909870147705,0.20860247313976288
1761379839463040300,0.620040283203125,1.3908436298370361,0.1881115883588791,0.2896938621997833
1761379839473123600,0.63012353515625,1.3942897319793701,0.1877049207687378,0.3571365475654602
1761379839483206400,0.640206298828125,1.3912076950073242,0.21758025884628296,0.39736679196357727
1761379839493289500,0.65028955078125,1.4050153493881226,0.28373345732688904,0.43301162123680115
1761379839503372500,0.66037255859375,1.4332294464111328,0.40246090292930603,0.45716729760169983
1761379839513455400,0.670455322265625,1.4671498537063599,0.5482529997825623,0.46731287240982056
1761379839523538400,0.680538330078125,1.4999666213989258,0.7129908204078674,0.45661041140556335
1761379839533621500,0.69062158203125,1.5383350849151611,0.8812171220779419,0.3926737904548645
1761379839543704600,0.70070458984375,1.592168927192688,1.0644540786743164,0.28785842657089233
1761379839553787400,0.710787353515625,1.6927794218063354,1.2509440183639526,0.1503351777791977
1761379839563870500,0.720870361328125,1.7811660766601562,1.2037224769592285,-0.06751219928264618
1761379839573953300,0.730953369140625,1.7865337133407593,0.8187574744224548,-0.44626298546791077
1761379839584035300,0.741035400390625,1.6607285737991333,0.22590850293636322,-0.8350054025650024
1761379839594118400,0.751118408203125,1.4974017143249512,-0.240758016705513,-1.0289610624313354
1761379839604201500,0.761201416015625,1.360236644744873,-0.42304927110671997,-0.9768863916397095
1761379839614284500,0.771284423828125,1.2649836540222168,-0.25155794620513916,-0.71019446849823
1761379839624367400,0.781367431640625,1.2450182437896729,0.15979579091072083,-0.3427640199661255
1761379839634450400,0.791450439453125,1.3441400527954102,0.644139289855957,0.01563994586467743
1761379839644533500,0.801533447265625,1.5297330617904663,1.0176972150802612,0.22532713413238525
1761379839654616300,0.8116162109375,1.7098606824874878,1.2252098321914673,0.25398433208465576
1761379839664699600,0.82169970703125,1.8662610054016113,1.3456785678863525,0.15985970199108124
1761379839674782500,0.831782470703125,1.982273817062378,1.3973147869110107,0.02851100265979767
1761379839684865500,0.841865478515625,2.0309996604919434,1.4072012901306152,-0.05952218174934387
1761379839694948400,0.8519482421875,2.0368831157684326,1.3455286026000977,-0.09420505911111832
1761379839705030400,0.862030517578125,2.0322747230529785,1.2459295988082886,-0.07079187780618668
1761379839715113500,0.872113525390625,2.0232253074645996,1.1309845447540283,0.009428123012185097
1761379839725196300,0.8821962890625,2.0077457427978516,1.0115975141525269,0.1130828782916069
1761379839735279600,0.892279541015625,1.9994885921478271,0.8622958660125732,0.21141770482063293
1761379839745362400,0.902362548828125,1.998079776763916,0.6864233613014221,0.27558016777038574
1761379839755445500,0.912445556640625,1.9893501996994019,0.514207661151886,0.2957879900932312
1761379839765528300,0.9225283203125,1.9421110153198242,0.34153974056243896,0.27718526124954224
1761379839775611400,0.932611328125,1.8700306415557861,0.21294130384922028,0.2320351004600525
1761379839785694500,0.942694580078125,1.7747161388397217,0.11481606215238571,0.16612212359905243
1761379839795777500,0.952777587890625,1.6728425025939941,0.07116632163524628,0.07776563614606857
1761379839805860600,0.962860595703125,1.5678913593292236,0.09842244535684586,-0.026806047186255455
1761379839815942400,0.9729423828125,1.4677530527114868,0.18099002540111542,-0.12783439457416534
1761379839826025500,0.983025390625,1.4036059379577637,0.33408981561660767,-0.22331218421459198
1761379839836108500,0.993108642578125,1.381820797920227,0.5807787179946899,-0.29303932189941406
1761379839846191400,1.00319140625,1.392640471458435,0.8664548993110657,-0.3452817499637604
1761379839856274400,1.0132744140625,1.4286922216415405,1.1115919351577759,-0.38686755299568176
1761379839866357500,1.023357421875,1.4763171672821045,1.2639029026031494,-0.4154973328113556
1761379839876440600,1.033440673828125,1.539872169494629,1.316602349281311,-0.4138762652873993
1761379839886523400,1.0435234375,1.5858585834503174,1.2930999994277954,-0.39062634110450745
1761379839896606500,1.0536064453125,1.6165664196014404,1.21962571144104,-0.3539642095565796
1761379839906689300,1.063689208984375,1.634520411491394,1.1121366024017334,-0.29372429847717285
1761379839916772400,1.0737724609375,1.6381402015686035,0.9878751039505005,-0.2347017228603363
1761379839926855700,1.083855712890625,1.633017897605896,0.869485080242157,-0.19068659842014313
1761379839936937500,1.0939375,1.6432843208312988,0.7873901724815369,-0.14559368789196014
1761379839947020500,1.1040205078125,1.6499425172805786,0.7499040961265564,-0.10310880839824677
1761379839957103600,1.114103515625,1.6585251092910767,0.742087185382843,-0.0698898658156395
1761379839967186400,1.1241865234375,1.6909652948379517,0.7456116080284119,-0.05474047735333443
1761379839977269500,1.13426953125,1.7363804578781128,0.7668747901916504,-0.04568253457546234
1761379839987352300,1.144352294921875,1.775495171546936,0.7821323275566101,-0.04315625876188278
1761379839997435600,1.154435546875,1.8035377264022827,0.7649581432342529,-0.04415734112262726
1761379840007518500,1.1645185546875,1.8066929578781128,0.7156111001968384,-0.03907389938831329
1761379840017601500,1.1746015625,1.7873166799545288,0.6583046317100525,-0.005537510849535465
1761379840027684400,1.184684326171875,1.745935082435608,0.6115192770957947,0.04854197055101395
1761379840037766400,1.194766357421875,1.710202932357788,0.5827955007553101,0.11445707082748413
1761379840047849500,1.204849365234375,1.6919174194335938,0.5796351432800293,0.17318882048130035
1761379840057932300,1.214932373046875,1.6872313022613525,0.6045580506324768,0.20443090796470642
1761379840068015600,1.225015625,1.7014195919036865,0.6438237428665161,0.20203325152397156
1761379840078098400,1.235098388671875,1.724793553352356,0.6962813138961792,0.19295214116573334
1761379840088181500,1.245181396484375,1.7449135780334473,0.7639511823654175,0.185899555683136
1761379840098264600,1.2552646484375,1.7605204582214355,0.8633224964141846,0.1984718143939972
1761379840108347400,1.265347412109375,1.7885856628417969,0.9573784470558167,0.20241674780845642
1761379840118430500,1.275430419921875,1.8144598007202148,0.9586650133132935,0.1574266403913498
1761379840128513500,1.285513427734375,1.804417371749878,0.8450055718421936,0.0218493714928627
1761379840138596600,1.2955966796875,1.7519408464431763,0.7078378796577454,-0.1674068421125412
1761379840148678700,1.3056787109375,1.6736524105072021,0.660872757434845,-0.315422385931015
1761379840158761500,1.315761474609375,1.585741400718689,0.7538037300109863,-0.39589035511016846
1761379840168844500,1.325844482421875,1.5451383590698242,1.0045521259307861,-0.40445399284362793
1761379840178927400,1.33592724609375,1.5877037048339844,1.323783278465271,-0.382408082485199
1761379840189010400,1.346010498046875,1.7231059074401855,1.597747802734375,-0.36069002747535706
1761379840199093500,1.356093505859375,1.8911751508712769,1.706705927848816,-0.36294758319854736
1761379840209176600,1.366176513671875,2.04514479637146,1.6533234119415283,-0.3742082118988037
1761379840219259400,1.37625927734375,2.1554718017578125,1.452073335647583,-0.3726595938205719
1761379840229342500,1.386342529296875,2.2099552154541016,1.1818456649780273,-0.32224223017692566
1761379840239425500,1.396425537109375,2.2162206172943115,0.9075579047203064,-0.21867455542087555
1761379840249507300,1.40650732421875,2.22009015083313,0.6734257936477661,-0.0740760937333107
1761379840259590400,1.41659033203125,2.2612369060516357,0.49112632870674133,0.1093565821647644
1761379840269673500,1.426673583984375,2.3233351707458496,0.40682899951934814,0.30392101407051086
1761379840279756500,1.436756591796875,2.392946243286133,0.39027827978134155,0.4697997272014618
1761379840289839600,1.446839599609375,2.453195095062256,0.41765210032463074,0.6079906225204468
1761379840299922400,1.45692236328125,2.47088623046875,0.47371190786361694,0.7007506489753723
1761379840310005500,1.467005615234375,2.4377031326293945,0.5441575646400452,0.7357272505760193
1761379840320088300,1.47708837890625,2.352175235748291,0.6269730925559998,0.711902379989624
1761379840330171400,1.48717138671875,2.2240114212036133,0.736562192440033,0.6400031447410583
1761379840340254500,1.49725439453125,2.0857198238372803,0.8423927426338196,0.5301629304885864
1761379840350337500,1.507337646484375,1.9635769128799438,0.9271401166915894,0.40045127272605896
1761379840360419600,1.517419677734375,1.8785035610198975,0.9807215929031372,0.2664726972579956
1761379840370502400,1.52750244140625,1.8235888481140137,0.9784057140350342,0.1350286602973938
1761379840380585000,1.5375849609375,1.7833037376403809,0.9154240489006042,0.01786901243031025
1761379840390668000,1.54766796875,1.7453553676605225,0.8100702166557312,-0.08602489531040192
1761379840400750800,1.557750732421875,1.7005902528762817,0.6733065247535706,-0.18455146253108978
1761379840410834000,1.567833984375,1.6427637338638306,0.541475236415863,-0.27581587433815
1761379840420916700,1.577916748046875,1.5678993463516235,0.4560578167438507,-0.3616040050983429
1761379840431000000,1.588,1.4843000173568726,0.4740288257598877,-0.4200398921966553
1761379840441083000,1.598082763671875,1.3972511291503906,0.6090750694274902,-0.45153123140335083
1761379840451166000,1.608166015625,1.3474260568618774,0.8444236516952515,-0.4301372766494751
1761379840461248000,1.618248046875,1.3482143878936768,1.1102944612503052,-0.3837825357913971
1761379840471330800,1.628330810546875,1.379046082496643,1.3547582626342773,-0.3620474338531494
1761379840481414000,1.638413818359375,1.4443707466125488,1.5275535583496094,-0.3755563199520111
1761379840491496700,1.64849658203125,1.5214852094650269,1.6216187477111816,-0.4153234362602234
1761379840501580000,1.658580078125,1.5749980211257935,1.633750557899475,-0.4407672584056854
1761379840511662800,1.668662841796875,1.6054842472076416,1.5778603553771973,-0.46797704696655273
1761379840521746000,1.678745849609375,1.6362565755844116,1.494492530822754,-0.49632614850997925
1761379840531829000,1.6888291015625,1.6564630270004272,1.3912925720214844,-0.5086240768432617
1761379840541911800,1.698911865234375,1.6401034593582153,1.2399262189865112,-0.5499312877655029
1761379840551993900,1.708993896484375,1.5949159860610962,1.0518345832824707,-0.6265565752983093
1761379840562077000,1.719076904296875,1.5162848234176636,0.8382600545883179,-0.6975356936454773
1761379840572159700,1.72915966796875,1.4272955656051636,0.6372241377830505,-0.7545150518417358
1761379840582243000,1.7392431640625,1.361512541770935,0.5020298361778259,-0.7751076817512512
1761379840592326000,1.749325927734375,1.3142787218093872,0.417707234621048,-0.7723872661590576
1761379840602409000,1.759408935546875,1.2798118591308594,0.3514866530895233,-0.7675291299819946
1761379840612491800,1.76949169921875,1.2389936447143555,0.3236622214317322,-0.7607915997505188
1761379840622574800,1.779574951171875,1.1871088743209839,0.3343193829059601,-0.7594086527824402
1761379840632657700,1.78965771484375,1.1536800861358643,0.379151314496994,-0.7457290291786194
1761379840642741000,1.799740966796875,1.1529282331466675,0.46462973952293396,-0.7025511860847473
1761379840652823000,1.809822998046875,1.1724356412887573,0.5566299557685852,-0.622918426990509
1761379840662905900,1.81990576171875,1.1919691562652588,0.6136740446090698,-0.5188077688217163
1761379840672989000,1.829989013671875,1.2025094032287598,0.6092731952667236,-0.4087318480014801
1761379840683071700,1.84007177734375,1.1913243532180786,0.5961504578590393,-0.3078467845916748
1761379840693154800,1.85015478515625,1.1625689268112183,0.5757253766059875,-0.21449604630470276
1761379840703238000,1.86023779296875,1.1220227479934692,0.5442752838134766,-0.1497998833656311
1761379840713321000,1.870321044921875,1.075125813484192,0.5233215093612671,-0.10253090411424637
1761379840723404000,1.880404052734375,1.0297002792358398,0.4932994544506073,-0.06396966427564621
1761379840733486800,1.89048681640625,0.983062207698822,0.4616461992263794,-0.019758524373173714
1761379840743569000,1.90056884765625,0.9509133696556091,0.427757203578949,0.04231123626232147
1761379840753652000,1.91065185546875,0.9206475615501404,0.4057488441467285,0.11977433413267136
1761379840763734800,1.92073486328125,0.8810152411460876,0.38566914200782776,0.19425736367702484
1761379840773817900,1.93081787109375,0.8242529034614563,0.37483540177345276,0.24749422073364258
1761379840783901000,1.94090087890625,0.7734323143959045,0.378146767616272,0.26687777042388916
1761379840793984000,1.95098388671875,0.7233566045761108,0.3763693869113922,0.2616308033466339
1761379840804066800,1.96106689453125,0.6751909852027893,0.3683817684650421,0.24498578906059265
1761379840814150000,1.97114990234375,0.6276857852935791,0.3538283705711365,0.23858700692653656
1761379840824232700,1.981232666015625,0.5720195770263672,0.33238062262535095,0.24330292642116547
1761379840834314800,1.991314697265625,0.5145389437675476,0.3171640932559967,0.24713096022605896
1761379840844397800,2.001397705078125,0.44935357570648193,0.28386715054512024,0.2441556751728058
1761379840854481000,2.01148095703125,0.376878023147583,0.2419460564851761,0.21196019649505615
1761379840864564000,2.02156396484375,0.3153563439846039,0.19012600183486938,0.1651013344526291
1761379840874646800,2.031646728515625,0.2632846236228943,0.1403677612543106,0.12276453524827957
1761379840884729900,2.041729736328125,0.2010343074798584,0.09187266230583191,0.09297414869070053
1761379840894813000,2.05181298828125,0.12419731169939041,0.06065109744668007,0.06265858560800552
1761379840904895700,2.061895751953125,0.0453331284224987,0.03513987734913826,0.030824758112430573
1761379840914979000,2.07197900390625,-0.02821272984147072,0.0626484677195549,0.02889290079474449
1761379840925060900,2.082060791015625,-0.09667380899190903,0.14530420303344727,0.05675702169537544
1761379840935144000,2.09214404296875,-0.13576795160770416,0.24721725285053253,0.10683776438236237
1761379840945227000,2.10222705078125,-0.16723079979419708,0.35887107253074646,0.15161296725273132
1761379840955309800,2.112309814453125,-0.18887564539909363,0.4655458629131317,0.16575594246387482
1761379840965393000,2.122392822265625,-0.1774437576532364,0.515619695186615,0.13286830484867096
1761379840975475700,2.132475830078125,-0.1610884815454483,0.4588536024093628,0.06324741244316101
1761379840985559000,2.14255908203125,-0.1524132341146469,0.3482722342014313,-0.008956743404269218
1761379840995641900,2.152641845703125,-0.13913391530513763,0.23126943409442902,-0.029695311561226845
1761379841005725000,2.162724853515625,-0.1333460658788681,0.12968581914901733,-0.015603993088006973
1761379841015807000,2.172806884765625,-0.14400137960910797,0.012460397556424141,-0.008220112882554531
1761379841025889800,2.182889892578125,-0.16018301248550415,-0.0946601927280426,-0.033667683601379395
1761379841035972900,2.192972900390625,-0.17621152102947235,-0.12954121828079224,-0.09198558330535889
1761379841046055700,2.2030556640625,-0.16978397965431213,-0.10472055524587631,-0.17896975576877594
1761379841056139000,2.213138916015625,-0.16707207262516022,-0.05371888726949692,-0.28037306666374207
1761379841066222000,2.22322216796875,-0.16719432175159454,0.00703900121152401,-0.3756958544254303
1761379841076305000,2.233304931640625,-0.15577654540538788,0.08640040457248688,-0.4158153235912323
1761379841086388000,2.243387939453125,-0.15966077148914337,0.19023066759109497,-0.36860254406929016
1761379841096470800,2.253470703125,-0.16853761672973633,0.2971760332584381,-0.2417718768119812
1761379841106552800,2.263552734375,-0.15794649720191956,0.3897360563278198,-0.09285403788089752
1761379841116636000,2.273635986328125,-0.12481196969747543,0.42884722352027893,0.015987755730748177
1761379841126719000,2.283718994140625,-0.07180574536323547,0.3928511440753937,0.01986798085272312
1761379841136802000,2.293802001953125,-0.005685849115252495,0.3184935450553894,-0.05722520500421524
1761379841146884900,2.303884765625,0.04681331291794777,0.229868084192276,-0.16780418157577515
1761379841156968000,2.313968017578125,0.06403570622205734,0.15013517439365387,-0.24725346267223358
1761379841167050800,2.32405078125,0.05278332158923149,0.08301552385091782,-0.24266430735588074
1761379841177133800,2.3341337890625,0.024475514888763428,0.04517067223787308,-0.1606735736131668
1761379841187216000,2.3442158203125,-0.0025249430909752846,0.03588103502988815,-0.03742779791355133
1761379841197298700,2.354298583984375,-0.022047245875000954,0.02442118711769581,0.057740528136491776
1761379841207382000,2.364382080078125,-0.019583288580179214,-0.0037116475868970156,0.08770188689231873
1761379841217464800,2.37446484375,-0.0028722193092107773,-0.025413215160369873,0.048406146466732025
1761379841227548000,2.3845478515625,0.020776651799678802,-0.03897616267204285,-0.039136484265327454
1761379841237630700,2.394630615234375,0.06221304088830948,-0.030164293944835663,-0.13281317055225372
1761379841247713800,2.4047138671875,0.11134809255599976,-0.012235361151397228,-0.17683149874210358
1761379841257796900,2.414796875,0.17491082847118378,-0.0031377363484352827,-0.13370053470134735
1761379841267878700,2.424878662109375,0.23358479142189026,0.01727779023349285,0.003498062025755644
1761379841277962000,2.4349619140625,0.28725573420524597,-0.006916761863976717,0.1560007780790329
1761379841288045000,2.445045166015625,0.320091187953949,-0.03223623335361481,0.31355711817741394
1761379841298128000,2.4551279296875,0.3031074106693268,-0.13400201499462128,0.392866849899292
1761379841308211000,2.4652109375,0.27486273646354675,-0.3516877293586731,0.35693442821502686
1761379841318293800,2.475293701171875,0.2159741073846817,-0.5261846780776978,0.2478279173374176
1761379841328376800,2.485376953125,0.12104625999927521,-0.6082838177680969,0.1275949776172638
1761379841338460000,2.4954599609375,0.029212746769189835,-0.5948902368545532,0.028722457587718964
1761379841348542000,2.5055419921875,-0.040702953934669495,-0.5185853838920593,-0.0027747475542128086
1761379841358625000,2.515625,-0.09248732030391693,-0.4235187768936157,0.04014448821544647
1761379841368707800,2.525707763671875,-0.12084706127643585,-0.3154407739639282,0.1218705102801323
1761379841378795300,2.535795166015625,-0.13327576220035553,-0.21088986098766327,0.18537864089012146
1761379841388878300,2.54587841796875,-0.13956668972969055,-0.12817953526973724,0.18296422064304352
1761379841398961400,2.55596142578125,-0.17390601336956024,-0.06675346195697784,0.09851086139678955
1761379841409044200,2.566044189453125,-0.21880318224430084,-0.020801683887839317,-0.014852182939648628
1761379841419127300,2.576127197265625,-0.2677757740020752,0.012930446304380894,-0.09509136527776718
1761379841429210000,2.586210205078125,-0.32160812616348267,0.021289043128490448,-0.10049411654472351
1761379841439292200,2.596292236328125,-0.370672345161438,0.008443818427622318,-0.03345702588558197
1761379841449375200,2.606375244140625,-0.39930078387260437,-0.023027554154396057,0.09353314340114594
1761379841459458300,2.616458251953125,-0.41233590245246887,-0.054000649601221085,0.2343243509531021
1761379841469541400,2.626541259765625,-0.4312153160572052,-0.10103394091129303,0.3263394832611084
1761379841479624200,2.636624267578125,-0.4401262402534485,-0.16163736581802368,0.35350242257118225
1761379841489707300,2.646707275390625,-0.4575931131839752,-0.20037996768951416,0.3635917901992798
1761379841499790000,2.6567900390625,-0.48102253675460815,-0.21601459383964539,0.3761430084705353
1761379841509873200,2.666873046875,-0.5027946829795837,-0.24937760829925537,0.39322930574417114
1761379841519955200,2.676955078125,-0.5133429169654846,-0.30690428614616394,0.3746015727519989
1761379841530038300,2.687038330078125,-0.49489256739616394,-0.34706875681877136,0.33655059337615967
1761379841540121300,2.697121337890625,-0.4603031575679779,-0.336082398891449,0.32872435450553894
1761379841550204200,2.7072041015625,-0.4418376088142395,-0.3013947308063507,0.34585434198379517
1761379841560287200,2.717287353515625,-0.4230780303478241,-0.2776603698730469,0.36118990182876587
1761379841570370300,2.727370361328125,-0.3694648742675781,-0.2742653787136078,0.3691050708293915
1761379841580453000,2.737453125,-0.2968878746032715,-0.2722485661506653,0.39216139912605286
1761379841590535200,2.74753515625,-0.2157706469297409,-0.2811933159828186,0.4371887743473053
1761379841600618200,2.7576181640625,-0.13223206996917725,-0.28931355476379395,0.46828997135162354
1761379841610701300,2.767701416015625,-0.06620938330888748,-0.3300362229347229,0.4404633939266205
1761379841620784400,2.777784423828125,-0.027693146839737892,-0.35993900895118713,0.34607166051864624
1761379841630867200,2.7878671875,-0.008812932297587395,-0.4480443596839905,0.21560633182525635
1761379841640950300,2.7979501953125,0.018753182142972946,-0.46546781063079834,0.08451541513204575
1761379841651033000,2.808033203125,0.07227472960948944,-0.4829075336456299,-0.02677089348435402
1761379841661116400,2.818116455078125,0.1586197316646576,-0.4497050940990448,-0.10422360897064209
1761379841671198500,2.828198486328125,0.2972082495689392,-0.31306496262550354,-0.1512148231267929
1761379841681281300,2.83828125,0.46060168743133545,-0.13015666604042053,-0.1832747459411621
1761379841691364400,2.8483642578125,0.6089642643928528,-0.007525560446083546,-0.20231927931308746
1761379841701447200,2.858447265625,0.7453415393829346,0.08910670876502991,-0.15902799367904663
1761379841711530200,2.8685302734375,0.902886688709259,0.1759699583053589,-0.05217398703098297
1761379841721613000,2.878613037109375,1.0910593271255493,0.2300523817539215,0.023744743317365646
1761379841731696400,2.8886962890625,1.291333556175232,0.2056248039007187,0.0700046494603157
1761379841741778400,2.8987783203125,1.457647442817688,0.14312706887722015,0.06187375262379646
1761379841751861200,2.908861328125,1.587460994720459,0.023328226059675217,-0.002493517706170678
1761379841761944300,2.9189443359375,1.6973904371261597,-0.10896909236907959,-0.09711110591888428
1761379841772027100,2.929027099609375,1.7529746294021606,-0.2311229705810547,-0.2141096293926239
1761379841782110200,2.939110107421875,1.7817423343658447,-0.29863810539245605,-0.3315955102443695
1761379841792193300,2.949193359375,1.8083140850067139,-0.2817517817020416,-0.4258045554161072
1761379841802276400,2.9592763671875,1.8355222940444946,-0.19758205115795135,-0.4686891734600067
1761379841812359400,2.969359375,1.8544833660125732,-0.0703524574637413,-0.42571401596069336
1761379841822441200,2.979441162109375,1.8778142929077148,0.08395002782344818,-0.28578540682792664
1761379841832524300,2.989524169921875,1.895646333694458,0.270661860704422,-0.08198700845241547
1761379841842607400,2.999607421875,1.88347589969635,0.47831037640571594,0.11934210360050201
1761379841852690200,3.009690185546875,1.8395044803619385,0.5980157256126404,0.26941707730293274
1761379841862773200,3.019773193359375,1.759368896484375,0.6058188080787659,0.35556742548942566
1761379841872856000,3.02985595703125,1.6370443105697632,0.4736493229866028,0.3711674213409424
1761379841882939400,3.039939453125,1.4975708723068237,0.2796422839164734,0.3499923646450043
1761379841893021400,3.050021484375,1.3635406494140625,0.11650530993938446,0.313968300819397
1761379841903104300,3.060104248046875,1.222988247871399,0.025048095732927322,0.2713793218135834
1761379841913187300,3.070187255859375,1.0668565034866333,-0.00694978516548872,0.21303796768188477
1761379841923270100,3.080270263671875,0.92149418592453,0.043233223259449005,0.13281530141830444
1761379841933353200,3.090353271484375,0.791698157787323,0.1898183971643448,0.036730583757162094
1761379841943436000,3.10043603515625,0.6771065592765808,0.4084327816963196,-0.04839522764086723
1761379841953519400,3.110519287109375,0.573300838470459,0.619179904460907,-0.1247621700167656
1761379841963601400,3.120601318359375,0.4812638461589813,0.7728698253631592,-0.1824430376291275
1761379841973684200,3.130684326171875,0.40645962953567505,0.8777821660041809,-0.21882101893424988
1761379841983767300,3.140767333984375,0.37091708183288574,0.9246742725372314,-0.25485652685165405
1761379841993850000,3.15085009765625,0.37686365842819214,0.9062185883522034,-0.31595078110694885
1761379842003933200,3.16093310546875,0.3916889429092407,0.8140860199928284,-0.39238643646240234
1761379842014016300,3.171016357421875,0.38545820116996765,0.6696558594703674,-0.4642622172832489
1761379842024099300,3.181099365234375,0.3538219928741455,0.5209558606147766,-0.5311781167984009
1761379842034181400,3.191181396484375,0.31272995471954346,0.40376025438308716,-0.5855492353439331
1761379842044264200,3.20126416015625,0.2937772870063782,0.31584450602531433,-0.6097975969314575
1761379842054347300,3.21134716796875,0.294839084148407,0.3070688545703888,-0.5767179131507874
1761379842064430300,3.221430419921875,0.3409479856491089,0.37863120436668396,-0.4969538450241089
1761379842074513200,3.23151318359375,0.4207962155342102,0.49825453758239746,-0.3891088664531708
1761379842084596200,3.24159619140625,0.5333169102668762,0.6291339993476868,-0.2633943557739258
1761379842094679300,3.25167919921875,0.63105708360672,0.7326515913009644,-0.1477109044790268
1761379842104761300,3.26176123046875,0.6900399327278137,0.7616488933563232,-0.08978128433227539
1761379842114844400,3.271844482421875,0.7114301919937134,0.7303847074508667,-0.08899698406457901
1761379842124927200,3.28192724609375,0.7120386958122253,0.6841642260551453,-0.10949213802814484
1761379842135010300,3.29201025390625,0.6962488293647766,0.609329104423523,-0.13686224818229675
1761379842145093000,3.302093017578125,0.6978203654289246,0.48909592628479004,-0.15117087960243225
1761379842155176200,3.31217626953125,0.7245957851409912,0.3472706079483032,-0.13831952214241028
1761379842165259300,3.32225927734375,0.7620922923088074,0.20843416452407837,-0.10920611768960953
1761379842175341300,3.33234130859375,0.8077764511108398,0.0853995829820633,-0.06810981035232544
1761379842185424400,3.34242431640625,0.8467850685119629,-0.0010245180455967784,-0.017651963979005814
1761379842195507200,3.352507080078125,0.8583818078041077,-0.04874517023563385,0.03358805552124977
1761379842205590300,3.36259033203125,0.8400430083274841,-0.0487465001642704,0.0699753537774086
1761379842215673000,3.372673095703125,0.8243935108184814,-0.011628160253167152,0.08834610879421234
1761379842225756200,3.382756103515625,0.8176255822181702,0.05163949355483055,0.1037178710103035
1761379842235839500,3.392839599609375,0.819427490234375,0.09996254742145538,0.1198667511343956
1761379842245921300,3.40292138671875,0.8302748203277588,0.14169588685035706,0.12580746412277222
1761379842256004400,3.41300439453125,0.8456735014915466,0.18360364437103271,0.118502676486969
1761379842266087200,3.423087158203125,0.8589927554130554,0.22807471454143524,0.08145517855882645
1761379842276170200,3.433170166015625,0.8722395896911621,0.18973025679588318,0.017918545752763748
1761379842286253300,3.44325341796875,0.8905754685401917,0.10361534357070923,-0.010100571438670158
1761379842296336100,3.453336181640625,0.9205173850059509,0.031068436801433563,0.018084993585944176
1761379842306419500,3.46341943359375,0.9703691005706787,0.00481393001973629,0.09610682725906372
1761379842316501200,3.473501220703125,1.0241189002990723,-0.0006314354832284153,0.1933353692293167
1761379842326584300,3.483584228515625,1.0713979005813599,0.02768835239112377,0.2746344804763794
1761379842336667400,3.49366748046875,1.1053154468536377,0.06951649487018585,0.31824028491973877
1761379842346750200,3.503750244140625,1.1189521551132202,0.11479502171278,0.309334933757782
1761379842356833300,3.513833251953125,1.122497320175171,0.1461295187473297,0.24041366577148438
1761379842366916000,3.523916015625,1.1293598413467407,0.1487404704093933,0.1475745439529419
1761379842376994300,3.533994384765625,1.1452759504318237,0.10260733217000961,0.08915837109088898
1761379842387077600,3.54407763671875,1.1875178813934326,0.055864330381155014,0.13753415644168854
1761379842397160400,3.554160400390625,1.2300541400909424,0.05122217535972595,0.2601650059223175
1761379842407243500,3.564243408203125,1.2813568115234375,0.08636444807052612,0.4039418697357178
1761379842417326300,3.574326416015625,1.3073550462722778,0.16777914762496948,0.5194120407104492
1761379842427409400,3.584409423828125,1.2899867296218872,0.2647341787815094,0.5577775239944458
1761379842437492500,3.594492431640625,1.2519251108169556,0.39177682995796204,0.4939689636230469
1761379842447574300,3.60457421875,1.2149345874786377,0.5071590542793274,0.3355332612991333
1761379842457657600,3.61465771484375,1.2059978246688843,0.601992130279541,0.15006859600543976
1761379842467740400,3.624740478515625,1.2119615077972412,0.662882924079895,0.008779376745223999
1761379842477823500,3.634823486328125,1.2330622673034668,0.6732588410377502,-0.05528003349900246
1761379842487906600,3.644906494140625,1.2686721086502075,0.6029569506645203,-0.04151388630270958
1761379842497989400,3.6549892578125,1.2945849895477295,0.4792725741863251,0.012582637369632721
1761379842508071400,3.665071533203125,1.3258373737335205,0.3307635486125946,0.07555121928453445
1761379842518154500,3.675154541015625,1.3561573028564453,0.18790119886398315,0.13581694662570953
1761379842528237600,3.685237548828125,1.3721178770065308,0.06735879927873611,0.20185695588588715
1761379842538320600,3.695320556640625,1.38107430934906,-0.006738330237567425,0.2777983248233795
1761379842548403500,3.705403564453125,1.3730946779251099,-0.0008266451768577099,0.3772663176059723
1761379842558486500,3.715486572265625,1.3602098226547241,0.05884387716650963,0.46052658557891846
1761379842568569300,3.7255693359375,1.3159035444259644,0.11624325066804886,0.47439873218536377
1761379842578651400,3.7356513671875,1.2425169944763184,0.13885775208473206,0.35491546988487244
1761379842588734500,3.745734375,1.1590570211410522,0.13161741197109222,0.08086875081062317
1761379842598817300,3.7558173828125,1.0853235721588135,0.12242498248815536,-0.2646614909172058
1761379842608900600,3.765900634765625,1.0214594602584839,0.12300768494606018,-0.552309513092041
1761379842618983400,3.7759833984375,0.9416927099227905,0.149043008685112,-0.7211557626724243
1761379842629066500,3.78606640625,0.8391562104225159,0.24896268546581268,-0.7796622514724731
1761379842639148500,3.7961484375,0.7467013597488403,0.3890606760978699,-0.75681072473526
1761379842649231400,3.8062314453125,0.6531605124473572,0.5633560419082642,-0.6968400478363037
1761379842659314400,3.816314453125,0.550583004951477,0.6739683151245117,-0.6752146482467651
1761379842669397200,3.826397216796875,0.46256524324417114,0.6801849007606506,-0.6927419900894165
1761379842679480600,3.83648046875,0.398133784532547,0.6503204703330994,-0.7266823649406433
1761379842689563400,3.8465634765625,0.3443629741668701,0.6233080625534058,-0.7742184996604919
1761379842699645400,3.8566455078125,0.30792000889778137,0.5938950181007385,-0.8160367608070374
1761379842709728500,3.866728515625,0.30364376306533813,0.5868430137634277,-0.8458948135375977
1761379842719811300,3.876811279296875,0.33670690655708313,0.6190738677978516,-0.85760498046875
1761379842729894400,3.886894287109375,0.40584176778793335,0.6815090179443359,-0.8594740033149719
1761379842739977500,3.8969775390625,0.5105758905410767,0.792453944683075,-0.8274806141853333
1761379842750060500,3.907060546875,0.6178041100502014,0.9134640097618103,-0.753460705280304
1761379842760143600,3.9171435546875,0.647124707698822,1.0111188888549805,-0.6417565941810608
1761379842770225400,3.927225341796875,0.6332293748855591,1.0129759311676025,-0.5184908509254456
1761379842780308500,3.93730859375,0.6059809923171997,0.944273054599762,-0.34537309408187866
1761379842790391600,3.9473916015625,0.5867418050765991,0.7764520645141602,-0.09518377482891083
1761379842800474400,3.957474365234375,0.6142253279685974,0.5090440511703491,0.20100927352905273
1761379842810557400,3.967557373046875,0.7447279691696167,0.131725013256073,0.5162553787231445
1761379842820640500,3.977640625,0.8643603324890137,-0.2259332686662674,0.808516800403595
1761379842830722600,3.98772265625,0.9003159403800964,-0.4345141649246216,1.0150034427642822
1761379842840805600,3.9978056640625,0.889509379863739,-0.41913920640945435,1.1106576919555664
1761379842850888400,4.007888427734375,0.8746595978736877,-0.2508798837661743,1.0992377996444702
1761379842860971500,4.017971435546875,0.8777161240577698,-0.0068243504501879215,1.0734094381332397
1761379842871054300,4.028054443359375,0.9483029246330261,0.2696402668952942,1.0795488357543945
1761379842881137400,4.038137451171875,1.0213656425476074,0.4033873975276947,1.0651192665100098
1761379842891219500,4.048219482421875,1.017743468284607,0.5061824917793274,1.0359710454940796
1761379842901302500,4.058302490234375,0.951668381690979,0.6988712549209595,0.9941127300262451
1761379842911385600,4.068385498046875,0.8680070042610168,0.7659648060798645,0.8745948672294617
1761379842921468400,4.078468505859375,0.8203651905059814,0.7320630550384521,0.6849570274353027
1761379842931551500,4.088551513671875,0.7733513712882996,0.6377679705619812,0.4567406475543976
1761379842941633500,4.098633544921875,0.7147015929222107,0.43490007519721985,0.2077087163925171
1761379842951716400,4.10871630859375,0.6260734796524048,0.1466624140739441,-0.013655624352395535
1761379842961799400,4.11879931640625,0.48861363530158997,-0.1461809128522873,-0.2330329865217209
1761379842971882500,4.128882568359375,0.362864226102829,-0.34264203906059265,-0.46514052152633667
1761379842981965600,4.138965576171875,0.3032914400100708,-0.37624233961105347,-0.6443794965744019
1761379842992048400,4.14904833984375,0.3311174809932709,-0.20520055294036865,-0.7059227824211121
1761379843002131500,4.15913134765625,0.43228697776794434,0.05619562789797783,-0.6036299467086792
1761379843012213500,4.169213623046875,0.5642817616462708,0.24614346027374268,-0.353712260723114
1761379843022296300,4.17929638671875,0.6660012006759644,0.30771520733833313,-0.10937868803739548
1761379843032379400,4.18937939453125,0.6643569469451904,0.2028692215681076,-0.03605573996901512
1761379843042462500,4.19946240234375,0.5132830142974854,-0.05993736907839775,-0.2198633849620819
1761379843052545500,4.209545654296875,0.2597724497318268,-0.330031156539917,-0.595874547958374
1761379843062627600,4.219627685546875,0.060508083552122116,-0.4377821385860443,-0.9965327382087708
1761379843072710400,4.22971044921875,-0.09441838413476944,-0.4252285361289978,-1.29006028175354
1761379843082793500,4.23979345703125,-0.23428386449813843,-0.21458953619003296,-1.4260090589523315
1761379843092876500,4.24987646484375,-0.26376134157180786,0.22155076265335083,-1.3644849061965942
1761379843102959400,4.25995947265625,-0.19516123831272125,0.767723023891449,-1.136208415031433
1761379843113042400,4.27004248046875,-0.11003568768501282,1.2867201566696167,-0.8326740860939026
1761379843123124500,4.28012451171875,-0.04832465574145317,1.5393635034561157,-0.5466787815093994
1761379843133207600,4.29020751953125,-0.08227383345365524,1.3143930435180664,-0.3007427752017975
1761379843143290600,4.30029052734375,-0.19212523102760315,0.7316944599151611,-0.1295633167028427
1761379843153373400,4.31037353515625,-0.26402950286865234,0.1419968158006668,-0.06646770983934402
1761379843163456500,4.32045654296875,-0.2614220082759857,-0.2054050862789154,-0.03765896335244179
1761379843173539300,4.330539306640625,-0.23930686712265015,-0.2766917943954468,0.045043375343084335
1761379843183621400,4.340621337890625,-0.25757932662963867,-0.06375208497047424,0.10872940719127655
1761379843193704400,4.350704345703125,-0.2715092599391937,0.3853980302810669,0.07060519605875015
1761379843203787500,4.36078759765625,-0.19282644987106323,1.0408991575241089,0.026403112336993217
1761379843213870600,4.37087060546875,-0.08467654138803482,1.6127408742904663,0.005887716542929411
1761379843223953400,4.380953369140625,0.031189344823360443,2.051180124282837,-0.0004876247840002179
1761379843234036500,4.391036376953125,0.20464661717414856,2.2778255939483643,0.01726340875029564
1761379843244118500,4.401118408203125,0.36161893606185913,2.15854549407959,0.06534411758184433
1761379843254201300,4.411201416015625,0.438181072473526,1.7200052738189697,0.10406621545553207
1761379843264284400,4.421284423828125,0.3924415409564972,1.2302227020263672,0.1300453543663025
1761379843274367500,4.431367431640625,0.31502053141593933,0.7589007616043091,0.1281057745218277
1761379843284450600,4.441450439453125,0.26632195711135864,0.43537092208862305,0.12493394315242767
1761379843294532600,4.45153271484375,0.2641395032405853,0.2720847725868225,0.15250831842422485
1761379843304615400,4.461615478515625,0.2661091685295105,0.19087354838848114,0.2413172870874405
1761379843314698500,4.471698486328125,0.2423497885465622,0.10423186421394348,0.2921421229839325
1761379843324781300,4.48178125,0.2542477250099182,-0.11004021763801575,0.19610533118247986
1761379843334864400,4.491864501953125,0.3047100901603699,-0.29704418778419495,0.004101268015801907
1761379843344947500,4.501947509765625,0.29641807079315186,-0.37038925290107727,-0.21023446321487427
1761379843355029500,4.512029541015625,0.24171222746372223,-0.34764158725738525,-0.3449808359146118
1761379843365112600,4.522112548828125,0.2578693628311157,-0.2237369567155838,-0.3916497826576233
1761379843375196200,4.532196044921875,0.4097944498062134,-0.19490744173526764,-0.38191699981689453
1761379843385279200,4.542279296875,0.5408896207809448,-0.20304632186889648,-0.36978524923324585
1761379843395362000,4.552362060546875,0.6794224381446838,-0.24064722657203674,-0.3789598345756531
1761379843405444000,4.562444091796875,0.8442010283470154,-0.18063928186893463,-0.4352737069129944
1761379843415527200,4.572527099609375,0.954443097114563,-0.09046278893947601,-0.582269012928009
1761379843425610000,4.58260986328125,0.9454190135002136,0.03874420002102852,-0.7717702388763428
1761379843435693000,4.592693115234375,0.7525861263275146,0.10187363624572754,-0.9482075572013855
1761379843445776100,4.602776123046875,0.4348087012767792,0.16239343583583832,-1.118351936340332
1761379843455859200,4.612859130859375,-0.01178981363773346,0.33721983432769775,-1.196207046508789
1761379843465941200,4.622941162109375,-0.2829643189907074,0.004216582980006933,-1.27100670337677
1761379843476024000,4.633024169921875,-0.20774786174297333,-0.5049169659614563,-1.2641271352767944
1761379843486107100,4.643107177734375,0.016164854168891907,-0.7650963664054871,-1.0763887166976929
1761379843496190000,4.65318994140625,0.32684338092803955,-0.6935459971427917,-0.7651655673980713
1761379843506273000,4.66327294921875,0.6168315410614014,-0.49169278144836426,-0.3361561596393585
1761379843516355000,4.67335498046875,0.7130813598632812,-0.27212151885032654,0.02195829525589943
1761379843526438100,4.683438232421875,0.5920894145965576,-0.13321557641029358,0.23707300424575806
1761379843536521200,4.693521240234375,0.38844335079193115,0.059120044112205505,0.3740825057029724
1761379843546604000,4.70360400390625,0.14417767524719238,0.5174135565757751,0.6014986038208008
1761379843556687000,4.71368701171875,-0.03326501324772835,1.1119059324264526,0.950481653213501
1761379843566770200,4.723770263671875,0.12579786777496338,1.0128071308135986,1.2590022087097168
1761379843576852000,4.73385205078125,0.35929903388023376,0.5850863456726074,1.7352055311203003
1761379843586935000,4.74393505859375,0.6094867587089539,-0.11758175492286682,2.382521629333496
1761379843597018400,4.754018310546875,0.76981121301651,-0.4639357030391693,3.1595373153686523
1761379843607101200,4.76410107421875,0.7366631031036377,-0.06331745535135269,3.746173620223999
1761379843617184300,4.774184326171875,0.6106263399124146,0.6548345685005188,3.8747994899749756
1761379843627266000,4.78426611328125,0.0913189947605133,1.1092292070388794,3.3774898052215576
1761379843637349000,4.79434912109375,-0.7160100340843201,1.012719988822937,2.3731751441955566
1761379843647432200,4.80443212890625,-1.1267876625061035,0.00649678148329258,1.252475380897522
1761379843657515000,4.814514892578125,-1.3663287162780762,-1.1914093494415283,0.7460933327674866
1761379843667598300,4.824598388671875,-1.4858499765396118,-1.6371740102767944,1.081911563873291
1761379843677681200,4.83468115234375,-1.328311562538147,-1.1401640176773071,1.848955750465393
1761379843687763200,4.84476318359375,-1.1052381992340088,-0.4103286862373352,2.2238855361938477
1761379843697846300,4.85484619140625,-1.118670105934143,0.0698842778801918,1.8782877922058105
1761379843707929000,4.86492919921875,-1.3440680503845215,0.3230116069316864,1.0309869050979614
1761379843718012200,4.87501220703125,-1.4553325176239014,0.31762295961380005,0.054249390959739685
1761379843728095000,4.885094970703125,-1.344260334968567,0.10726999491453171,-0.5299522876739502
1761379843738177000,4.895177001953125,-1.1179356575012207,-0.0565495640039444,-0.5832791328430176
1761379843748260000,4.905260009765625,-0.738283634185791,0.026548253372311592,-0.41111430525779724
1761379843758343200,4.91534326171875,-0.249796524643898,0.17507994174957275,-0.29118895530700684
1761379843768426200,4.92542626953125,0.07570701092481613,0.09461332112550735,-0.3372323513031006
1761379843778509000,4.935509033203125,0.023608123883605003,-0.2044258415699005,-0.6841956377029419
1761379843788591000,4.945591064453125,-0.19282697141170502,-0.5134441256523132,-1.1487984657287598
1761379843798674200,4.955674072265625,-0.30959513783454895,-0.7201445698738098,-1.3938140869140625
1761379843808757000,4.965757080078125,-0.19911576807498932,-0.716683566570282,-1.2094969749450684
1761379843818840000,4.975840087890625,0.09262048453092575,-0.5402997136116028,-0.593189537525177
1761379843828923100,4.985923095703125,0.4738413393497467,-0.3637894093990326,0.20512811839580536
1761379843839005200,4.996005126953125,0.7188513278961182,-0.43156763911247253,0.8492681980133057
1761379843849088300,5.006088134765625,0.7097233533859253,-0.8234320878982544,1.0132038593292236
1761379843859171000,5.016171142578125,0.5418214797973633,-1.2305431365966797,0.6978930830955505
1761379843869254100,5.026254150390625,0.373624712228775,-1.3519619703292847,0.2128283828496933
1761379843879337000,5.0363369140625,0.31137704849243164,-1.1453912258148193,-0.001026115962304175
1761379843889420000,5.046419921875,0.3243700861930847,-0.8644618391990662,0.10242091119289398
1761379843899502000,5.056502197265625,0.3800450563430786,-0.5440728664398193,0.3749496340751648
1761379843909585200,5.066585205078125,0.4343793988227844,-0.2786436080932617,0.5894560813903809
1761379843919668200,5.076668212890625,0.4307314157485962,-0.17745068669319153,0.6130793690681458
1761379843929751000,5.0867509765625,0.35974645614624023,-0.19701319932937622,0.461902379989624
1761379843939834000,5.096834228515625,0.24190397560596466,-0.25096991658210754,0.2221747487783432
1761379843949916200,5.106916259765625,0.1016446053981781,-0.31354379653930664,0.012598349712789059
1761379843959999000,5.1169990234375,-0.044557612389326096,-0.4157540500164032,-0.1445569097995758
1761379843970082000,5.12708203125,-0.16955627501010895,-0.5040884613990784,-0.2411383092403412
1761379843980165000,5.1371650390625,-0.23739497363567352,-0.505828320980072,-0.3138066530227661
1761379843990248200,5.147248291015625,-0.2680567502975464,-0.44521448016166687,-0.44371750950813293
1761379844000330200,5.157330322265625,-0.29686522483825684,-0.34368014335632324,-0.6602545976638794
1761379844010413000,5.1674130859375,-0.35896483063697815,-0.22468796372413635,-0.9084116816520691
1761379844020496100,5.17749609375,-0.5081037282943726,-0.13037851452827454,-1.1113169193267822
1761379844030579200,5.1875791015625,-0.6956102252006531,-0.19433219730854034,-1.2579470872879028
1761379844040662000,5.197662109375,-0.8459171652793884,-0.3198392391204834,-1.3300540447235107
1761379844050744000,5.207744140625,-0.9224212765693665,-0.3994041085243225,-1.3003795146942139
1761379844060827100,5.2178271484375,-0.9491602182388306,-0.4237435460090637,-1.1878156661987305
1761379844070910200,5.22791015625,-0.9614184498786926,-0.4919053018093109,-1.0138342380523682
1761379844080993300,5.2379931640625,-0.9750495553016663,-0.4487631320953369,-0.7874376177787781
1761379844091076000,5.248076171875,-1.0161994695663452,-0.40744954347610474,-0.6166933178901672
1761379844101158100,5.258158203125,-1.0901341438293457,-0.39896151423454285,-0.5306177735328674
1761379844111241200,5.2682412109375,-1.187244176864624,-0.368024080991745,-0.47813087701797485
1761379844121324000,5.278323974609375,-1.2834001779556274,-0.36755430698394775,-0.43098682165145874
1761379844131407000,5.288406982421875,-1.35948646068573,-0.437996506690979,-0.40936753153800964
1761379844141490200,5.298490234375,-1.3947550058364868,-0.5520874261856079,-0.44065675139427185
1761379844151572200,5.308572265625,-1.3906781673431396,-0.6689639687538147,-0.5096275806427002
1761379844161655300,5.3186552734375,-1.3684695959091187,-0.795373797416687,-0.5904901623725891
1761379844171738000,5.328738037109375,-1.38766348361969,-0.7836995720863342,-0.6434346437454224
1761379844181821200,5.3388212890625,-1.4237581491470337,-0.5643414258956909,-0.724385142326355
1761379844191904000,5.348904052734375,-1.4459513425827026,-0.29249897599220276,-0.8811678290367126
1761379844201986000,5.358986083984375,-1.4401615858078003,-0.03839718922972679,-1.0136371850967407
1761379844212069000,5.369069091796875,-1.379665732383728,0.18908417224884033,-1.0180244445800781
1761379844222152200,5.379152099609375,-1.2796581983566284,0.33678096532821655,-0.9250996112823486
1761379844232235300,5.3892353515625,-1.1933786869049072,0.45020097494125366,-0.7724615931510925
1761379844242318000,5.399318115234375,-1.1218030452728271,0.44810667634010315,-0.5923604965209961
1761379844252400000,5.409400146484375,-1.044924259185791,0.23122788965702057,-0.41889846324920654
1761379844262483200,5.419483154296875,-1.0164388418197632,-0.021344702690839767,-0.25626081228256226
1761379844272566000,5.42956591796875,-1.061080813407898,-0.18871133029460907,-0.11229698359966278
1761379844282649000,5.439649169921875,-1.1540712118148804,-0.2131437063217163,0.021520471200346947
1761379844292732200,5.449732177734375,-1.2031970024108887,-0.07769506424665451,0.16432343423366547
1761379844302814200,5.459814208984375,-1.1826155185699463,0.11115022003650665,0.29443880915641785
1761379844312897300,5.469897216796875,-1.110223650932312,0.2007613331079483,0.38432398438453674
1761379844322980000,5.47997998046875,-0.9840651750564575,0.15217089653015137,0.4362689256668091
1761379844333063200,5.490063232421875,-0.8424196243286133,0.027160514146089554,0.46142062544822693
1761379844343146000,5.50014599609375,-0.7843270301818848,-0.14986513555049896,0.4734027087688446
1761379844353228000,5.51022802734375,-0.8012644648551941,-0.33723288774490356,0.4875267744064331
1761379844363311000,5.52031103515625,-0.8331131935119629,-0.4645160138607025,0.5069881081581116
1761379844373397000,5.53039697265625,-0.8668109774589539,-0.5298755764961243,0.5176340937614441
1761379844383480000,5.54047998046875,-0.9152733087539673,-0.5300092697143555,0.536249577999115
1761379844393562000,5.55056201171875,-0.9513354897499084,-0.4722658097743988,0.5353851318359375
1761379844403645000,5.56064501953125,-0.9447779655456543,-0.37858033180236816,0.5013020038604736
1761379844413728000,5.57072802734375,-0.9000980854034424,-0.27293699979782104,0.4221978485584259
1761379844423811000,5.58081103515625,-0.8488431572914124,-0.22592154145240784,0.3426726758480072
1761379844433894000,5.590893798828125,-0.7979379296302795,-0.21373598277568817,0.3259277641773224
1761379844443976000,5.600975830078125,-0.7523259520530701,-0.17202235758304596,0.383899986743927
1761379844454059000,5.61105908203125,-0.7007607817649841,-0.1818923056125641,0.47565174102783203
1761379844464142000,5.62114208984375,-0.66693514585495,-0.20502638816833496,0.5615269541740417
1761379844474225200,5.63122509765625,-0.6841548681259155,-0.16695596277713776,0.5825971364974976
1761379844484308000,5.641307861328125,-0.6975090503692627,-0.11382723599672318,0.5439549088478088
1761379844494390000,5.65139013671875,-0.6920663714408875,-0.04490195959806442,0.47996261715888977
1761379844504473000,5.66147314453125,-0.7130153179168701,0.06861554831266403,0.41107887029647827
1761379844514556000,5.671555908203125,-0.7380213141441345,0.10308510810136795,0.37712278962135315
1761379844524639000,5.681638916015625,-0.7437524199485779,0.09935908019542694,0.3910178244113922
1761379844534721800,5.6917216796875,-0.6865730285644531,0.03044419176876545,0.37756940722465515
1761379844544803800,5.701803955078125,-0.6164429783821106,-0.08465230464935303,0.3096145689487457
1761379844554887200,5.71188720703125,-0.5857670903205872,-0.26301485300064087,0.18132585287094116
1761379844564970000,5.721969970703125,-0.5957509875297546,-0.38021817803382874,0.02893923968076706
1761379844575053000,5.732052978515625,-0.6019644141197205,-0.3409823477268219,-0.0865628570318222
1761379844585135000,5.742135009765625,-0.5842536091804504,-0.22073237597942352,-0.13247361779212952
1761379844595218000,5.752218017578125,-0.5369516015052795,-0.03520086407661438,-0.10230213403701782
1761379844605301000,5.762301025390625,-0.4649868607521057,0.17190705239772797,0.007949003018438816
1761379844615383800,5.7723837890625,-0.35684919357299805,0.32749077677726746,0.13591788709163666
1761379844625467100,5.782467041015625,-0.26313042640686035,0.35872647166252136,0.21286194026470184
1761379844635549200,5.792549072265625,-0.19778577983379364,0.24812644720077515,0.26795926690101624
1761379844645632000,5.802632080078125,-0.1608048677444458,0.05398467183113098,0.30866461992263794
1761379844655715000,5.812715087890625,-0.15460795164108276,-0.14788825809955597,0.3430337905883789
1761379844665798000,5.8227978515625,-0.16977624595165253,-0.3125544488430023,0.35700711607933044
1761379844675881000,5.832880859375,-0.1957188993692398,-0.4397459626197815,0.35924312472343445
1761379844685963000,5.842962890625,-0.23433101177215576,-0.5189369320869446,0.35585132241249084
1761379844696045800,5.8530458984375,-0.2847971022129059,-0.5121951103210449,0.3555711507797241
1761379844706129200,5.863129150390625,-0.33749762177467346,-0.4349440038204193,0.35272717475891113
1761379844716212000,5.8732119140625,-0.3984925150871277,-0.33975598216056824,0.3206174373626709
1761379844726294000,5.8832939453125,-0.4679650664329529,-0.1752743422985077,0.2908448874950409
1761379844736377000,5.893377197265625,-0.5027393102645874,-0.1303873062133789,0.21400655806064606
1761379844746460000,5.9034599609375,-0.543342113494873,-0.049262356013059616,0.1577337086200714
1761379844756543000,5.91354296875,-0.5921112298965454,0.00015100123709999025,0.13890115916728973
1761379844766625800,5.923625732421875,-0.6171015501022339,0.014593856409192085,0.15198181569576263
1761379844776707800,5.933707763671875,-0.6282516717910767,0.005312473513185978,0.1963372826576233
1761379844786791000,5.943791015625,-0.6293835043907166,-0.029221268370747566,0.24686011672019958
1761379844796874000,5.9538740234375,-0.6387327909469604,-0.09377788752317429,0.2773365378379822
1761379844806957000,5.96395703125,-0.6620000600814819,-0.1902085542678833,0.2672055959701538
1761379844817040000,5.974039794921875,-0.695543110370636,-0.25965607166290283,0.24270717799663544
1761379844827122000,5.984121826171875,-0.7402405142784119,-0.2744603157043457,0.19712957739830017
1761379844837205000,5.994205078125,-0.7712293267250061,-0.25077521800994873,0.1559073030948639
1761379844847287800,6.004287841796875,-0.7700392007827759,-0.23138661682605743,0.12906263768672943
1761379844857371000,6.014370849609375,-0.7686977386474609,-0.22111880779266357,0.11540142446756363
1761379844867453000,6.024452880859375,-0.7614584565162659,-0.20944003760814667,0.10186538100242615
1761379844877536000,6.034535888671875,-0.7567015290260315,-0.18788787722587585,0.09935055673122406
1761379844887619000,6.044619140625,-0.7726842164993286,-0.18417489528656006,0.09777688980102539
1761379844897702000,6.054701904296875,-0.8224366307258606,-0.20187373459339142,0.10576238483190536
1761379844907785000,6.064784912109375,-0.8955475687980652,-0.2885495126247406,0.10568541288375854
1761379844917867000,6.074866943359375,-0.9684087038040161,-0.34137970209121704,0.1365828812122345
1761379844927949800,6.08494970703125,-1.0069435834884644,-0.3591962456703186,0.16848887503147125
1761379844938033000,6.095032958984375,-1.0127588510513306,-0.3602500557899475,0.21649955213069916
1761379844948116000,6.105115966796875,-1.0120235681533813,-0.36134782433509827,0.25263944268226624
1761379844958198000,6.115197998046875,-1.0270283222198486,-0.3691873550415039,0.26918938755989075
1761379844968281000,6.125281005859375,-1.0540733337402344,-0.35817253589630127,0.2616680860519409
1761379844978364000,6.135364013671875,-1.0908305644989014,-0.3307209312915802,0.23767566680908203
1761379844988447000,6.145447021484375,-1.1448553800582886,-0.2928622364997864,0.20286282896995544
1761379844998529000,6.155529052734375,-1.2020870447158813,-0.23986612260341644,0.16363020241260529
1761379845008611800,6.16561181640625,-1.2512664794921875,-0.22143837809562683,0.11706963181495667
1761379845018695000,6.17569482421875,-1.2772400379180908,-0.2345227599143982,0.07385504990816116
1761379845028778000,6.185778076171875,-1.287767767906189,-0.2665584683418274,0.051601409912109375
1761379845038861000,6.195861083984375,-1.2943857908248901,-0.2906680405139923,0.0650668814778328
1761379845048943000,6.205943115234375,-1.3104214668273926,-0.3213939964771271,0.1265624761581421
1761379845059026000,6.21602587890625,-1.325048565864563,-0.3731227219104767,0.2127825766801834
1761379845069109000,6.22610888671875,-1.3333749771118164,-0.436869740486145,0.31040021777153015
1761379845079191800,6.23619189453125,-1.334769368171692,-0.5406240820884705,0.39126336574554443
1761379845089273900,6.24627392578125,-1.3361542224884033,-0.6713696122169495,0.4279143214225769
1761379845099357000,6.25635693359375,-1.3308460712432861,-0.7786582112312317,0.4451417922973633
1761379845109439700,6.266439697265625,-1.3334705829620361,-0.8049860000610352,0.44731998443603516
1761379845119523000,6.276523193359375,-1.3506513833999634,-0.76435387134552,0.4417198896408081
1761379845129606000,6.28660595703125,-1.3732858896255493,-0.7046449780464172,0.4335083067417145
1761379845139688000,6.29668798828125,-1.4048688411712646,-0.654897928237915,0.44223493337631226
1761379845149771000,6.30677099609375,-1.4545544385910034,-0.6314703822135925,0.4810933768749237
1761379845159853800,6.316853759765625,-1.5097593069076538,-0.6454426646232605,0.5282753109931946
1761379845169937000,6.32693701171875,-1.5796798467636108,-0.7495229840278625,0.5554856061935425
1761379845180019000,6.33701904296875,-1.668296217918396,-0.9075278043746948,0.5345858931541443
1761379845190101800,6.347101806640625,-1.7520606517791748,-0.9949569702148438,0.5098033547401428
1761379845200185000,6.35718505859375,-1.8179312944412231,-0.9684926271438599,0.4913713335990906
1761379845210268000,6.367267822265625,-1.8679991960525513,-0.9035745859146118,0.47115394473075867
1761379845220350000,6.377349853515625,-1.9228304624557495,-0.8740297555923462,0.40237540006637573
1761379845230433000,6.38743310546875,-1.979101300239563,-0.8889567852020264,0.24502412974834442
1761379845240515800,6.397515869140625,-2.009004831314087,-0.857227623462677,0.06510523706674576
1761379845250599000,6.407598876953125,-1.9978339672088623,-0.7271993160247803,-0.07420206069946289
1761379845260682000,6.417681884765625,-1.9503822326660156,-0.5630071759223938,-0.10821621865034103
1761379845270763800,6.427763671875,-1.887729525566101,-0.4607662856578827,-0.03710555657744408
1761379845280847000,6.43784716796875,-1.8141224384307861,-0.4636012017726898,0.1056358814239502
1761379845290930000,6.447929931640625,-1.7329164743423462,-0.5281213521957397,0.2840048372745514
1761379845301013000,6.458012939453125,-1.6704907417297363,-0.6519389152526855,0.45813775062561035
1761379845311095000,6.468094970703125,-1.6408206224441528,-0.7893233895301819,0.5963912010192871
1761379845321177900,6.478177734375,-1.6192080974578857,-0.9121121764183044,0.6878588199615479
1761379845331261000,6.488260986328125,-1.6136285066604614,-1.0016223192214966,0.7619061470031738
1761379845341344000,6.498343994140625,-1.6200793981552124,-1.0501853227615356,0.7887465357780457
1761379845351425800,6.50842578125,-1.6373153924942017,-1.1070693731307983,0.7822633385658264
1761379845361508900,6.5185087890625,-1.657817006111145,-1.1420772075653076,0.762941837310791
1761379845371592000,6.528592041015625,-1.672031283378601,-1.1205143928527832,0.7364258170127869
1761379845381671700,6.538671630859375,-1.693615198135376,-1.0635658502578735,0.6786829233169556
1761379845391754800,6.548754638671875,-1.7451262474060059,-1.0249004364013672,0.6099144816398621
1761379845401836500,6.55883642578125,-1.7942384481430054,-0.9839152693748474,0.5405979752540588
1761379845411919600,6.568919677734375,-1.8296760320663452,-0.8919613361358643,0.48068779706954956
1761379845422002400,6.57900244140625,-1.8433178663253784,-0.7314574122428894,0.41000643372535706
1761379845432085500,6.58908544921875,-1.8782484531402588,-0.6460762023925781,0.32530486583709717
1761379845442167600,6.59916748046875,-1.9244712591171265,-0.658555269241333,0.22635191679000854
1761379845452250600,6.609250732421875,-1.9911030530929565,-0.7009351849555969,0.12455231696367264
1761379845462333700,6.619333740234375,-2.0519731044769287,-0.775053083896637,0.008020642213523388
1761379845472416500,6.62941650390625,-2.062398910522461,-0.8031806349754333,-0.12430970370769501
1761379845482498600,6.63949853515625,-2.0531868934631348,-0.7500388622283936,-0.2539379894733429
1761379845492581600,6.64958154296875,-2.070611000061035,-0.6626290678977966,-0.3829346001148224
1761379845502664400,6.65966455078125,-2.085967540740967,-0.5757796764373779,-0.4742299020290375
1761379845512747500,6.66974755859375,-2.072580337524414,-0.4747990071773529,-0.5122004151344299
1761379845522830800,6.679830810546875,-2.039173126220703,-0.3690701723098755,-0.5022420883178711
1761379845532912600,6.68991259765625,-1.9937089681625366,-0.2558448314666748,-0.4587230980396271
1761379845542995700,6.69999560546875,-1.9080997705459595,-0.17399869859218597,-0.3560590445995331
1761379845553078500,6.71007861328125,-1.8270806074142456,-0.14890478551387787,-0.24256204068660736
1761379845563161600,6.72016162109375,-1.8091391324996948,-0.20451532304286957,-0.1285313367843628
1761379845573243600,6.73024365234375,-1.829007625579834,-0.28770288825035095,-0.018091119825839996
1761379845583326500,6.740326416015625,-1.8379606008529663,-0.3994818925857544,0.07485559582710266
1761379845593409500,6.750409423828125,-1.8106690645217896,-0.5284180045127869,0.1600743532180786
1761379845603492900,6.760492919921875,-1.7757164239883423,-0.6523926854133606,0.243486687541008
1761379845613574700,6.77057470703125,-1.7699373960494995,-0.7690423727035522,0.30707207322120667
1761379845623657700,6.78065771484375,-1.7999298572540283,-0.8921269774436951,0.34702268242836
1761379845633740500,6.790740478515625,-1.847306728363037,-1.058665156364441,0.35935550928115845
1761379845643823600,6.80082373046875,-1.883459448814392,-1.197577714920044,0.35162514448165894
1761379845653905700,6.81090576171875,-1.887581467628479,-1.2514997720718384,0.35252636671066284
1761379845663988500,6.820988525390625,-1.8780736923217773,-1.1922242641448975,0.3755224943161011
1761379845674071600,6.831071533203125,-1.8744025230407715,-1.0788867473602295,0.3836166262626648
1761379845684154600,6.841154541015625,-1.8595473766326904,-0.9521975517272949,0.38152098655700684
1761379845694236400,6.851236328125,-1.8347901105880737,-0.8521630764007568,0.3746766746044159
1761379845704319700,6.86131982421875,-1.8169195652008057,-0.8181566596031189,0.38066238164901733
1761379845714402600,6.871402587890625,-1.8128377199172974,-0.8309757709503174,0.3959137797355652
1761379845724485600,6.881485595703125,-1.820338487625122,-0.876953661441803,0.41510823369026184
1761379845734567700,6.891567626953125,-1.821444034576416,-0.9337066411972046,0.42565035820007324
1761379845744650500,6.901650390625,-1.8019187450408936,-0.9970014691352844,0.4254074990749359
1761379845754733600,6.911733642578125,-1.7530686855316162,-1.031467318534851,0.42106813192367554
1761379845764816600,6.921816650390625,-1.7005783319473267,-1.0431207418441772,0.40590834617614746
1761379845774898400,6.9318984375,-1.6601778268814087,-1.035287618637085,0.37759655714035034
1761379845784981800,6.941981689453125,-1.6387662887573242,-0.9373853206634521,0.3690193295478821
1761379845795064600,6.952064697265625,-1.640934705734253,-0.7363331317901611,0.41499826312065125
1761379845805147600,6.962147705078125,-1.6624596118927002,-0.5774587988853455,0.45243003964424133
1761379845815230700,6.972230712890625,-1.6798112392425537,-0.5163387060165405,0.4779444634914398
1761379845825312500,6.9823125,-1.6835204362869263,-0.4860857427120209,0.4876359701156616
1761379845835395600,6.9923955078125,-1.651870608329773,-0.47708985209465027,0.46936190128326416
1761379845845478700,7.002478759765625,-1.581466794013977,-0.48250141739845276,0.431378573179245
1761379845855561700,7.012561767578125,-1.4909038543701172,-0.4748466908931732,0.4140211343765259
1761379845865643800,7.022643798828125,-1.4190115928649902,-0.4527648091316223,0.4276410937309265
1761379845875726600,7.0327265625,-1.3695324659347534,-0.43200281262397766,0.452262818813324
1761379845885809700,7.0428095703125,-1.331855058670044,-0.4180891215801239,0.48307105898857117
1761379845895892700,7.052892822265625,-1.2991379499435425,-0.42101407051086426,0.4978523850440979
1761379845905974500,7.062974609375,-1.295520544052124,-0.39133259654045105,0.5061460137367249
1761379845916057600,7.0730576171875,-1.3076860904693604,-0.35301610827445984,0.49117159843444824
1761379845926140700,7.083140625,-1.3161232471466064,-0.3313813805580139,0.43810996413230896
1761379845936223700,7.0932236328125,-1.2965022325515747,-0.3622538149356842,0.3609161078929901
1761379845946305500,7.103305419921875,-1.237599492073059,-0.43124380707740784,0.2947333753108978
1761379845956388600,7.113388671875,-1.1504336595535278,-0.5367297530174255,0.2348410040140152
1761379845966471700,7.1234716796875,-1.0627541542053223,-0.6855144500732422,0.17333689332008362
1761379845976554800,7.1335546875,-0.9947697520256042,-0.8520762324333191,0.09138104319572449
1761379845986636500,7.143636474609375,-0.9582751393318176,-0.9985719323158264,-0.00884995050728321
1761379845996719600,7.1537197265625,-0.9455516338348389,-1.0855236053466797,-0.10473280400037766
1761379846006802400,7.163802490234375,-0.9556191563606262,-1.0678609609603882,-0.14268125593662262
1761379846016885500,7.173885498046875,-1.0038330554962158,-0.8426726460456848,-0.067487433552742
1761379846026967600,7.183967529296875,-1.073099970817566,-0.5544261932373047,0.07586467266082764
1761379846037050600,7.194050537109375,-1.135790228843689,-0.3474538326263428,0.22779054939746857
1761379846047133700,7.2041337890625,-1.1593635082244873,-0.2769003212451935,0.3346402943134308
1761379846057216800,7.214216796875,-1.1507750749588013,-0.34217917919158936,0.36021941900253296
1761379846067298600,7.224298583984375,-1.1358277797698975,-0.49612852931022644,0.3289557993412018
1761379846077381600,7.234381591796875,-1.1142655611038208,-0.636970043182373,0.2644668221473694
1761379846087464400,7.24446435546875,-1.1089367866516113,-0.7381156086921692,0.2000254988670349
1761379846097547500,7.254547607421875,-1.1235556602478027,-0.7980915904045105,0.14213663339614868
1761379846107629600,7.264629638671875,-1.137805461883545,-0.818315863609314,0.08153080940246582
1761379846117712600,7.274712646484375,-1.1281211376190186,-0.7851531505584717,0.045106224715709686
1761379846127795700,7.284795654296875,-1.1108862161636353,-0.69293612241745,0.03899746760725975
1761379846137878800,7.294878662109375,-1.0818005800247192,-0.56822270154953,0.0552869588136673
1761379846147960600,7.304960693359375,-1.0365632772445679,-0.5086051821708679,0.06686771661043167
1761379846158043600,7.315043701171875,-0.9703613519668579,-0.5096179842948914,0.08313776552677155
1761379846168126500,7.32512646484375,-0.8952509164810181,-0.5073857307434082,0.11130548268556595
1761379846178209500,7.33520947265625,-0.8280420303344727,-0.5312809348106384,0.14003193378448486
1761379846188291600,7.34529150390625,-0.7854183912277222,-0.5934356451034546,0.14016322791576385
1761379846198374700,7.355374755859375,-0.7774115800857544,-0.6543884873390198,0.13384169340133667
1761379846208457700,7.365457763671875,-0.7862503528594971,-0.6657577753067017,0.1265970915555954
1761379846218540500,7.37554052734375,-0.802099347114563,-0.6759422421455383,0.11506586521863937
1761379846228622600,7.38562255859375,-0.7960553169250488,-0.6829434037208557,0.11967207491397858
1761379846238705700,7.39570556640625,-0.7419284582138062,-0.6618685126304626,0.14352095127105713
1761379846248788500,7.40578857421875,-0.6687865853309631,-0.6182326078414917,0.1774592101573944
1761379846258870500,7.41587060546875,-0.6036826968193054,-0.5587269067764282,0.22145569324493408
1761379846268953600,7.42595361328125,-0.5639296770095825,-0.5034655332565308,0.2715553343296051
1761379846279036400,7.436036376953125,-0.5606971383094788,-0.5206030011177063,0.29412031173706055
1761379846289119700,7.44611962890625,-0.6000469326972961,-0.5860680341720581,0.2773570418357849
1761379846299201800,7.456201904296875,-0.6893781423568726,-0.6961271166801453,0.23326094448566437
1761379846309284600,7.46628466796875,-0.826299786567688,-0.8201654553413391,0.1691139191389084
1761379846319367700,7.47636767578125,-0.9639289975166321,-0.9137004613876343,0.09963924437761307
1761379846329450500,7.486450439453125,-1.0486364364624023,-0.9142815470695496,0.05608244240283966
1761379846339532500,7.496532470703125,-1.0781575441360474,-0.8242299556732178,0.03079999051988125
1761379846349615600,7.50661572265625,-1.0711138248443604,-0.6995221376419067,0.021094366908073425
1761379846359698400,7.516698486328125,-1.0221816301345825,-0.5606963634490967,0.017733722925186157
1761379846369781800,7.52678173828125,-0.9594075083732605,-0.427609384059906,0.010779144242405891
1761379846379863300,7.53686328125,-0.8983436226844788,-0.33222055435180664,0.0009291769238188863
1761379846389946000,7.546946044921875,-0.857602596282959,-0.3012509346008301,-0.0037297571543604136
1761379846400029200,7.557029296875,-0.8328421115875244,-0.3196488320827484,0.003680488560348749
1761379846410112300,7.5671123046875,-0.8224483132362366,-0.3488354980945587,0.02485448308289051
1761379846420194000,7.577194091796875,-0.8171387910842896,-0.3837716281414032,0.05564568564295769
1761379846430277400,7.58727734375,-0.8154993057250977,-0.41054439544677734,0.09975908696651459
1761379846440360200,7.597360107421875,-0.8071516752243042,-0.4073094427585602,0.14407141506671906
1761379846450443300,7.607443359375,-0.7980442047119141,-0.3890273869037628,0.18516719341278076
1761379846460525300,7.617525390625,-0.7948942184448242,-0.3673521876335144,0.20528018474578857
1761379846470608100,7.627608154296875,-0.7902858853340149,-0.3405298888683319,0.23008832335472107
1761379846480691200,7.637691162109375,-0.7813528180122375,-0.3203798830509186,0.2645546793937683
1761379846490774300,7.647774169921875,-0.7870221734046936,-0.27588245272636414,0.2983339726924896
1761379846500856000,7.65785595703125,-0.8038405179977417,-0.22232894599437714,0.3014586567878723
1761379846510939400,7.667939453125,-0.831375777721405,-0.18264171481132507,0.27262964844703674
1761379846521022200,7.678022216796875,-0.8587275147438049,-0.12465937435626984,0.22465121746063232
1761379846531104300,7.688104248046875,-0.8890161514282227,-0.0897461324930191,0.158437579870224
1761379846541187300,7.698187255859375,-0.9197546243667603,-0.09064894169569016,0.07254477590322495
1761379846551270100,7.708270263671875,-0.9511793851852417,-0.11300325393676758,-0.019233083352446556
1761379846561353200,7.718353271484375,-0.9783625602722168,-0.15412938594818115,-0.12141084671020508
1761379846571435300,7.728435302734375,-0.992763876914978,-0.20072324573993683,-0.1956177055835724
1761379846581518000,7.73851806640625,-1.0144084692001343,-0.21734429895877838,-0.22435720264911652
1761379846591601400,7.748601318359375,-1.0300774574279785,-0.18132345378398895,-0.19477801024913788
1761379846601684200,7.758684326171875,-1.032806396484375,-0.13700658082962036,-0.12701307237148285
1761379846611766300,7.768766357421875,-1.0310348272323608,-0.10799544304609299,-0.0527723990380764
1761379846621849300,7.778849365234375,-1.0194194316864014,-0.1043037697672844,0.0035153725184500217
1761379846631932200,7.78893212890625,-0.9993410706520081,-0.11152493208646774,0.038123417645692825
1761379846642015200,7.79901513671875,-0.9948185086250305,-0.13825774192810059,0.02907053381204605
1761379846652097300,7.80909716796875,-1.0095816850662231,-0.18146006762981415,0.0022748722694814205
1761379846662180000,7.81918017578125,-1.0347150564193726,-0.214962899684906,-0.013550962321460247
1761379846672263200,7.82926318359375,-1.0545430183410645,-0.22630663216114044,-0.0120675815269351
1761379846682345200,7.83934521484375,-1.055243968963623,-0.2577607035636902,-0.0009512811084277928
1761379846692428300,7.84942822265625,-1.0320318937301636,-0.2880379259586334,0.012428440153598785
1761379846702511400,7.859511474609375,-1.0053308010101318,-0.3225599527359009,0.024520257487893105
1761379846712594200,7.86959423828125,-0.9745936393737793,-0.3628365099430084,0.049980610609054565
1761379846722676200,7.87967626953125,-0.9409486055374146,-0.3846108019351959,0.10180944949388504
1761379846732759300,7.88975927734375,-0.9080497622489929,-0.3818352520465851,0.18882104754447937
1761379846742842000,7.899842041015625,-0.8696110248565674,-0.3685607314109802,0.29453974962234497
1761379846752925200,7.90992529296875,-0.8472239971160889,-0.32036149501800537,0.392601877450943
1761379846763007200,7.92000732421875,-0.834744930267334,-0.3274063467979431,0.4273633062839508
1761379846773090300,7.93009033203125,-0.824655294418335,-0.444163054227829,0.3812541365623474
1761379846783173400,7.94017333984375,-0.8590103387832642,-0.6057232022285461,0.2753080129623413
1761379846793256200,7.950256103515625,-0.9229493737220764,-0.745900571346283,0.1366308182477951
1761379846803338200,7.960338134765625,-0.9808315634727478,-0.709075927734375,0.01714170165359974
1761379846813421300,7.97042138671875,-0.9911239147186279,-0.5498721599578857,-0.07242466509342194
1761379846823504100,7.980504150390625,-0.9715214371681213,-0.38476845622062683,-0.14311107993125916
1761379846833586200,7.990586181640625,-0.9441941976547241,-0.3104172646999359,-0.20462290942668915
1761379846843669200,8.000669189453125,-0.9084817171096802,-0.34561997652053833,-0.2599641978740692
1761379846853752300,8.01075244140625,-0.864849865436554,-0.3988722860813141,-0.2943781018257141
1761379846863835400,8.02083544921875,-0.8176277279853821,-0.43290749192237854,-0.28370389342308044
1761379846873917400,8.03091748046875,-0.7800071239471436,-0.4272541403770447,-0.22441738843917847
1761379846884000300,8.041000244140625,-0.7527395486831665,-0.3939635455608368,-0.12286360561847687
1761379846894083300,8.051083251953125,-0.7170276045799255,-0.38240304589271545,-0.021045098081231117
1761379846904166100,8.061166259765624,-0.6761243939399719,-0.4059789180755615,0.06819609552621841
1761379846914248200,8.071248291015625,-0.6435262560844421,-0.4034441411495209,0.15927007794380188
1761379846924331300,8.081331298828125,-0.6094716191291809,-0.3596463203430176,0.2524162828922272
1761379846934414000,8.0914140625,-0.5762361288070679,-0.297892689704895,0.32837629318237305
1761379846944496000,8.10149609375,-0.5720579028129578,-0.2566610872745514,0.38561880588531494
1761379846954579500,8.111579345703126,-0.6126998662948608,-0.2581058442592621,0.42033684253692627
1761379846964662300,8.121662353515624,-0.692484974861145,-0.33456945419311523,0.4170803129673004
1761379846974745300,8.131745361328125,-0.7893388271331787,-0.4295026361942291,0.39442694187164307
1761379846984827400,8.141827392578126,-0.8802593946456909,-0.4767119586467743,0.3562188446521759
1761379846994910200,8.15191015625,-0.9511637091636658,-0.479951411485672,0.2781551778316498
1761379847004993300,8.1619931640625,-1.0143789052963257,-0.4727073609828949,0.15959659218788147
1761379847015076000,8.172076171875,-1.063023328781128,-0.46108347177505493,0.004507133737206459
1761379847025158100,8.182158203125,-1.0895061492919922,-0.4269617199897766,-0.15593872964382172
1761379847035241500,8.192241455078126,-1.0977113246917725,-0.3530784249305725,-0.2714320421218872
1761379847045324300,8.20232421875,-1.0922396183013916,-0.2751854956150055,-0.32414451241493225
1761379847055406300,8.21240625,-1.0600001811981201,-0.18333201110363007,-0.28824377059936523
1761379847065489400,8.222489501953126,-1.0148755311965942,-0.10521616786718369,-0.16844519972801208
1761379847075572200,8.232572265625,-0.9648424983024597,-0.07252319902181625,-0.014643125236034393
1761379847085655300,8.2426552734375,-0.935840368270874,-0.11255024373531342,0.12366761267185211
1761379847095737300,8.2527373046875,-0.9243555068969727,-0.21417780220508575,0.21621832251548767
1761379847105820200,8.262820068359375,-0.9490251541137695,-0.3452937602996826,0.2576475143432617
1761379847115903200,8.2729033203125,-0.9993653297424316,-0.4495146870613098,0.2573583126068115
1761379847125986300,8.282986328125,-1.0656367540359497,-0.5045406818389893,0.23538269102573395
1761379847136068400,8.293068359375,-1.1175295114517212,-0.5195382237434387,0.19042427837848663
1761379847146151400,8.3031513671875,-1.1376643180847168,-0.48040443658828735,0.13054442405700684
1761379847156234200,8.313234130859374,-1.1253594160079956,-0.36739853024482727,0.08424856513738632
1761379847166316300,8.32331640625,-1.078472375869751,-0.2300662249326706,0.0398334339261055
1761379847176399000,8.333399169921876,-1.0157853364944458,-0.12147583067417145,0.0052237906493246555
1761379847186482200,8.343482177734375,-0.9514198899269104,-0.0706280991435051,-0.014242852106690407
1761379847196565200,8.353565185546875,-0.9104929566383362,-0.09068010002374649,-0.021636053919792175
1761379847206647000,8.36364697265625,-0.887043297290802,-0.18133783340454102,-0.01127901952713728
1761379847216730400,8.37373046875,-0.8675843477249146,-0.2953570783138275,0.005246161017566919
1761379847226813400,8.3838134765625,-0.8395341038703918,-0.376197874546051,0.043835364282131195
1761379847236895200,8.393895263671874,-0.8045899868011475,-0.4072580337524414,0.08819883316755295
1761379847246978300,8.403978271484375,-0.7580211162567139,-0.3704909682273865,0.12153362482786179
1761379847257061000,8.41406103515625,-0.7012475728988647,-0.291660875082016,0.13923431932926178
1761379847267144200,8.424144287109375,-0.6477545499801636,-0.2018529623746872,0.1447976678609848
1761379847277226200,8.434226318359375,-0.6163913011550903,-0.1371368169784546,0.1349990963935852
1761379847287309000,8.44430908203125,-0.6021047830581665,-0.11551301181316376,0.1224135309457779
1761379847297392400,8.454392333984375,-0.5702280402183533,-0.11466719210147858,0.10342758893966675
1761379847307474400,8.464474365234375,-0.5226139426231384,-0.11811838299036026,0.08459398150444031
1761379847317557200,8.47455712890625,-0.48025715351104736,-0.15014129877090454,0.06348682940006256
1761379847327640300,8.484640380859375,-0.4410857856273651,-0.19712558388710022,0.043364785611629486
1761379847337723100,8.49472314453125,-0.4090932309627533,-0.25191718339920044,0.019513780251145363
1761379847347805200,8.50480517578125,-0.3979998230934143,-0.26493045687675476,-0.01601172238588333
1761379847357888300,8.51488818359375,-0.42372357845306396,-0.2699848711490631,-0.05290902033448219
1761379847367971000,8.52497119140625,-0.4584575891494751,-0.1781337857246399,-0.07544069737195969
1761379847378054700,8.5350546875,-0.4514468014240265,-0.06201596558094025,-0.07086697965860367
1761379847388136700,8.54513671875,-0.45070379972457886,0.012514193542301655,-0.05643904209136963
1761379847398219500,8.555219482421874,-0.47942066192626953,0.10709982365369797,-0.022580675780773163
1761379847408302600,8.565302490234375,-0.4823552072048187,0.1800222247838974,0.023421436548233032
1761379847418384600,8.575384521484375,-0.4388172924518585,0.25048282742500305,0.0834759846329689
1761379847428467500,8.585467529296874,-0.3672914505004883,0.3475790023803711,0.14548982679843903
1761379847438550500,8.595550537109375,-0.2786036729812622,0.3777632713317871,0.17768317461013794
1761379847448632600,8.605632568359376,-0.2218780666589737,0.2432621866464615,0.1321668177843094
1761379847458715600,8.615715576171874,-0.22568026185035706,-0.02810300700366497,0.007448062766343355
1761379847468798700,8.625798828125,-0.31165510416030884,-0.3161643445491791,-0.1569715142250061
1761379847478881500,8.635881591796876,-0.43713685870170593,-0.5040799379348755,-0.3052635192871094
1761379847488963600,8.645963623046875,-0.530502200126648,-0.5215681195259094,-0.38224831223487854
1761379847499046700,8.656046630859375,-0.5754129886627197,-0.3910660147666931,-0.39243969321250916
1761379847509129500,8.66612939453125,-0.5500162839889526,-0.23151418566703796,-0.3738074004650116
1761379847519212500,8.676212646484375,-0.45845359563827515,-0.07952571660280228,-0.3267967700958252
1761379847529294600,8.686294677734375,-0.32182249426841736,0.08215904980897903,-0.2404903620481491
1761379847539377700,8.696377685546874,-0.19678762555122375,0.19549839198589325,-0.13320013880729675
1761379847549460700,8.706460693359375,-0.10328537225723267,0.23911191523075104,-0.03229508921504021
1761379847559542500,8.71654248046875,-0.04505828768014908,0.24721963703632355,0.058334413915872574
1761379847569625600,8.72662548828125,-0.006432865746319294,0.21312318742275238,0.13126720488071442
1761379847579708700,8.736708740234375,0.01823919080197811,0.16539081931114197,0.19357958436012268
1761379847589791500,8.74679150390625,0.026628680527210236,0.09197519719600677,0.23235228657722473
1761379847599873500,8.75687353515625,0.03947843238711357,0.029816485941410065,0.2655525803565979
1761379847609956600,8.76695654296875,0.05621640011668205,-0.002594451420009136,0.2901324927806854
1761379847620039700,8.777039794921874,0.08326239883899689,-0.038488004356622696,0.29406091570854187
1761379847630121700,8.787121826171875,0.12036608904600143,-0.08476602286100388,0.293789803981781
1761379847640204500,8.79720458984375,0.1519583761692047,-0.11753994226455688,0.3073418438434601
1761379847650287600,8.80728759765625,0.15239113569259644,-0.12764957547187805,0.34620535373687744
1761379847660369700,8.81736962890625,0.1334368884563446,-0.11763714998960495,0.4062820076942444
1761379847670452500,8.827452392578126,0.10469072312116623,-0.10659036040306091,0.4674510657787323
1761379847680535600,8.83753564453125,0.07454054802656174,-0.09658832103013992,0.49257346987724304
1761379847690618600,8.84761865234375,0.04745619744062424,-0.11787017434835434,0.469230592250824
1761379847700700400,8.857700439453126,-0.002157160546630621,-0.19564220309257507,0.3698749840259552
1761379847710783500,8.867783447265625,-0.05969848483800888,-0.3024352192878723,0.2241058051586151
1761379847720866600,8.877866455078125,-0.1293201744556427,-0.39402106404304504,0.07588783651590347
1761379847730948600,8.887948486328124,-0.1776253879070282,-0.40723568201065063,-0.03991226106882095
1761379847741031700,8.89803173828125,-0.2038668394088745,-0.31672441959381104,-0.11743981391191483
1761379847751114500,8.908114501953126,-0.21137961745262146,-0.15182894468307495,-0.14859560132026672
1761379847761197600,8.918197509765625,-0.2102656215429306,0.034398987889289856,-0.14600221812725067
1761379847771279600,8.928279541015625,-0.2070264220237732,0.19778019189834595,-0.12681493163108826
1761379847781362400,8.938362548828126,-0.1939481645822525,0.27054575085639954,-0.1079309955239296
1761379847791445500,8.948445556640625,-0.1667383909225464,0.305704265832901,-0.08280166983604431
1761379847801527600,8.958527587890625,-0.14634841680526733,0.3312722146511078,-0.032834913581609726
1761379847811610600,8.968610595703124,-0.16903668642044067,0.3716960549354553,0.1521541178226471
1761379847821693700,8.978693603515625,-0.18236954510211945,0.14221280813217163,0.35326245427131653
1761379847831775700,8.988775634765625,-0.129801943898201,-0.13299906253814697,0.5169845223426819
1761379847841858600,8.998858642578124,-0.08096116036176682,-0.3956597149372101,0.5797097086906433
1761379847851941600,9.008941650390625,-0.06414756178855896,-0.5370541214942932,0.5657414197921753
1761379847862024400,9.0190244140625,-0.057741593569517136,-0.5176748633384705,0.5096278190612793
1761379847872106500,9.0291064453125,-0.05699723958969116,-0.4025716781616211,0.42077839374542236
1761379847882189600,9.039189453125,-0.07672380656003952,-0.2528402507305145,0.30771175026893616
1761379847892272400,9.0492724609375,-0.10585799068212509,-0.10870730876922607,0.16095373034477234
1761379847902354400,9.0593544921875,-0.14625760912895203,0.03497183322906494,0.008162056095898151
1761379847912437800,9.069437744140625,-0.19904571771621704,0.12065663933753967,-0.13118252158164978
1761379847922520600,9.0795205078125,-0.23413553833961487,0.12573929131031036,-0.23985840380191803
1761379847932603600,9.089603759765625,-0.2665885388851166,0.004446147475391626,-0.2978079915046692
1761379847942685700,9.099685791015625,-0.31488364934921265,-0.1996563822031021,-0.3334394693374634
1761379847952768500,9.1097685546875,-0.3916599154472351,-0.4368753135204315,-0.3564116358757019
1761379847962851600,9.1198515625,-0.478418231010437,-0.5794066190719604,-0.28753218054771423
