time,seconds_elapsed,z,y,x
1761379831119355100,0.078355224609375,1.6306658500999212,-0.05804273138493299,0.7377459736309945
1761379831129438200,0.088438232421875,1.5071464379370212,-0.11555588593780994,0.7897670335736126
1761379831139521000,0.09852099609375,1.3279863870948552,-0.1708689000979066,0.8634853268656879
1761379831149604400,0.108604248046875,1.3130360707223414,-0.17056348741054533,0.8592449128169566
1761379831159687200,0.118687255859375,1.1891653609037398,-0.16094167258441447,0.8864921815089881
1761379831169770200,0.128770263671875,0.9755886611968279,-0.17424889792501924,0.9918299672279506
1761379831179853300,0.138853271484375,0.7644792283862829,-0.18468086009025572,1.1267211066242306
1761379831189936000,0.14893603515625,0.6283984408140182,-0.16073241374790667,1.1715204716850072
1761379831200019200,0.159019287109375,0.5014940623879433,-0.1399748724013567,1.156569716921076
1761379831210102300,0.169102294921875,0.47044425960779185,-0.14945464840829373,1.10353801863119
1761379831220185300,0.179185302734375,0.4819885669291019,-0.1042486022427678,0.9657235391341149
1761379831230268200,0.18926806640625,0.4626923303067684,-0.06212327869683504,0.8940465424112976
1761379831240351200,0.199351318359375,0.4025350909858942,-0.10456278275847435,0.8717593072794377
1761379831250434000,0.20943408203125,0.4505447963953018,-0.17083704365491867,0.8840705073200166
1761379831260517000,0.21951708984375,0.5631523539215326,-0.2339411500826478,0.8845847404524684
1761379831270600200,0.22960009765625,0.6566273409545421,-0.29992051968574523,0.88979911409989
1761379831280683300,0.239683349609375,0.577542113801837,-0.4329609166488051,0.9083259007196873
1761379831290766300,0.249766357421875,0.4876280341207981,-0.5029720259860158,0.8125310193717479
1761379831300849200,0.25984912109375,0.47435646461546416,-0.5100035320580005,0.7278010643303394
1761379831310932200,0.26993212890625,0.5417372254490852,-0.619791940510273,0.7802107582643628
1761379831321015000,0.28001513671875,0.6251876620739698,-0.7290437578678131,0.7902078361436724
1761379831331098400,0.290098388671875,0.5947632977157831,-0.7672384639665484,0.8248647235050797
1761379831341181200,0.30018115234375,0.5587941587120294,-0.7495692440241575,0.7550241484291851
1761379831351264300,0.31026416015625,0.43629824437797066,-0.7539768313333391,0.7620280358418822
1761379831361347000,0.32034716796875,0.2597656194299459,-0.7904036509767174,0.8030674638472497
1761379831371435500,0.330435546875,0.03366787632405758,-0.7741095187798142,0.8753878730401397
1761379831381518600,0.3405185546875,-0.14853870260715485,-0.6918941769078374,0.9055502254612743
1761379831391601700,0.3506015625,-0.316221081623435,-0.5682686740219592,1.0438372178409248
1761379831401684500,0.3606845703125,-0.5441302580654621,-0.5753133318364619,1.0765881254505365
1761379831411767600,0.370767578125,-0.8175631683200597,-0.6066641633898019,1.0255186671443284
1761379831421850400,0.380850341796875,-1.0783400106191634,-0.4644052717044949,0.9651979078248143
1761379831431933400,0.390933349609375,-1.2669623018115759,-0.3856666660323739,0.9460793658569454
1761379831442016500,0.4010166015625,-1.2848165229320525,-0.5161053560644387,1.1447414050266147
1761379831452099600,0.411099609375,-1.2034487378001213,-0.7946084091901778,1.4633578573539852
1761379831462182400,0.421182373046875,-1.1945406242012977,-0.8535799458578228,1.5359496308341622
1761379831472265500,0.431265380859375,-0.9930734644830226,-0.8830521240577102,1.3800532589405774
1761379831482348500,0.4413486328125,-1.0919178695946932,-0.9816270645782351,1.3135066108435391
1761379831492431400,0.451431396484375,-1.35472183380723,-1.1250266507312654,1.2588570290282368
1761379831502514700,0.4615146484375,-1.7756915761500596,-0.986338311009109,0.9947652169622481
1761379831512597500,0.471597412109375,-2.0544600022137165,-0.7159656651079654,0.6991454632103443
1761379831522680600,0.4816806640625,-1.9336036717802285,-0.3996709337264299,0.3486347201026976
1761379831532763400,0.491763427734375,-1.7685510567456484,0.004326338766515255,0.07992712133694439
1761379831542846500,0.501846435546875,-1.6266905167281627,0.3992638142302632,0.06491938482192344
1761379831552929300,0.51192919921875,-1.305162560868263,0.7413076116353273,0.19590358904069288
1761379831563012600,0.5220126953125,-0.7951064218401909,1.078900567111373,0.40159200144950297
1761379831573095700,0.532095703125,-0.14784136799275874,1.2726669431939721,0.6095142921239137
1761379831583178500,0.542178466796875,0.48618894122838974,1.2833277456790209,0.792517574390769
1761379831593261600,0.552261474609375,1.0164853197306394,1.3040242044880985,0.9704887077093124
1761379831603344400,0.562344482421875,1.4291004907041787,1.3086445577651262,1.1345434708129614
1761379831613427500,0.572427490234375,1.663206768220663,1.280822777120769,1.2316381827130913
1761379831623510500,0.582510498046875,1.5700637896209955,1.0791329145625232,1.463697756832838
1761379831633593600,0.592593505859375,1.260548343116045,0.9189292008638381,1.6104004761844872
1761379831643676400,0.602676513671875,0.8988765929162502,0.8757222195610403,1.6576196157380938
1761379831653759500,0.612759521484375,0.5476186847031116,0.8604203132718801,1.5228532717652619
1761379831663842600,0.622842529296875,0.33116379921138284,0.9366127415925264,1.3022462350301445
1761379831673925400,0.63292529296875,0.1164116259843111,1.0093222962334751,1.0535646119333804
1761379831684008700,0.6430087890625,-0.1096364327609539,1.0185305618226528,0.8121106020025909
1761379831694091500,0.653091552734375,-0.27063889562189575,1.031433882537484,0.6286640329476445
1761379831704174600,0.663174560546875,-0.2855950572133064,0.9826575766697525,0.49927901668697594
1761379831714257400,0.67325732421875,-0.19228256726562976,0.9432596322610973,0.41391405167765916
1761379831724340500,0.683340576171875,-0.04776420621573925,0.9106248983770608,0.37162747315540906
1761379831734423300,0.69342333984375,0.0769628281712532,0.8857704431056975,0.444632357481122
1761379831744506600,0.703506591796875,0.19484569575190544,0.8750330682530999,0.5792482966652139
1761379831754589400,0.71358935546875,0.3509861055344343,0.8802946420431137,0.7290846744000912
1761379831764672500,0.723672607421875,0.5358242020130157,0.8374868891909718,0.9133155257005244
1761379831774755600,0.733755615234375,0.7467237914651632,0.7695464486479758,1.0871168259885162
1761379831784838400,0.74383837890625,0.9030243602454662,0.6610381431341171,1.2305259836874902
1761379831794921500,0.75392138671875,0.913093918839097,0.5669555455967784,1.308691319516301
1761379831805004500,0.764004638671875,0.8987485826224089,0.48314650479257104,1.3615668773964047
1761379831815087600,0.774087646484375,0.7980465669453144,0.4061290238246321,1.380217363461107
1761379831825170400,0.78417041015625,0.691781071922183,0.3422410735428333,1.3629967640690506
1761379831835253500,0.79425341796875,0.536155625924468,0.3104720165774226,1.3369699040174483
1761379831845336300,0.80433642578125,0.38667701211869715,0.2611877611875534,1.280582977015525
1761379831855419400,0.81441943359375,0.27918051399588584,0.20150223103165626,1.1346872631978242
1761379831865502700,0.824502685546875,0.1692015514075756,0.18987813647240398,0.9735359664507209
1761379831875585500,0.83458544921875,0.024579145461320874,0.21841566417068242,0.8226227897971868
1761379831885668600,0.844668701171875,-0.1298094522178173,0.2040603910818696,0.6888971139837056
1761379831895751400,0.85475146484375,-0.25474106926620005,0.17670885829776525,0.5630800193376839
1761379831905834500,0.86483447265625,-0.28920038822889327,0.1386754802405834,0.4369397206192836
1761379831915917300,0.874917236328125,-0.28663842878639695,0.08705781346708535,0.3056809098433703
1761379831926000600,0.885000732421875,-0.24857260976433754,0.0048161681100726125,0.2403889745151624
1761379831936083500,0.89508349609375,-0.1582873586833477,-0.12165128020346164,0.22641915707997975
1761379831946166500,0.90516650390625,0.00004208557605743408,-0.27512480886429547,0.22540369642712174
1761379831956249600,0.91524951171875,0.17698270680308342,-0.4080401181429624,0.23180302380910142
1761379831966332400,0.92533251953125,0.28137188656032086,-0.5368474075809121,0.24579077875977381
1761379831976415500,0.93541552734375,0.3336006709694862,-0.6704027683287859,0.27899399671414865
1761379831986498600,0.94549853515625,0.3192015587389469,-0.77013564671278,0.25971869328198954
1761379831996581600,0.95558154296875,0.17072423093020914,-0.8006161251723766,0.23042273016553372
1761379832006664400,0.96566455078125,-0.028262802410125732,-0.8307353691041469,0.1601674733415246
1761379832016747500,0.97574755859375,-0.1297702892512083,-0.8119552653104066,0.12850556654501705
1761379832026830300,0.985830322265625,-0.2782482015818357,-0.7705804678708315,0.09645457823253237
1761379832036913400,0.995913330078125,-0.4432546393871307,-0.7074255080386996,-0.01147559859980829
1761379832046996500,1.00599658203125,-0.6806926916748285,-0.5711135420590638,-0.13396645316625944
1761379832057079600,1.01607958984375,-0.8657540755152702,-0.4261375003695488,-0.2508908966440707
1761379832067162600,1.02616259765625,-0.8910784863859414,-0.31460546312034127,-0.3114501408945769
1761379832077245400,1.036245361328125,-0.8571452371239662,-0.3252192115932703,-0.14475096422936767
1761379832087328500,1.04632861328125,-0.7664870610773563,-0.5400839052841067,0.22930172677896915
1761379832097411300,1.056411376953125,-0.8512386434286833,-0.6381225469708443,0.45890616283155977
1761379832107494700,1.06649462890625,-0.9064239395558834,-0.6598842969238757,0.4986079124923795
1761379832117577500,1.076577392578125,-0.9688099608421326,-0.7386632346063852,0.3966193276034668
1761379832127660500,1.08666064453125,-1.1817606376051901,-0.6995797629743814,0.19497699398137627
1761379832137743400,1.096743408203125,-1.3624451215356588,-0.6575342266663908,0.07512775823120027
1761379832147826400,1.106826416015625,-1.5868933438688515,-0.5300786440983414,-0.07071562261106445
1761379832157909500,1.116909423828125,-1.6327876645594834,-0.2230675816297531,-0.33833661345019933
1761379832167992600,1.12699267578125,-1.4350146831840276,0.05980360357761383,-0.5300473721772432
1761379832178075600,1.13707568359375,-1.2222937235236166,0.19380904618054628,-0.49658020605705677
1761379832188158500,1.147158447265625,-0.9188426916241645,0.31941870862096544,-0.3737652523690834
1761379832198241500,1.157241455078125,-0.4858306293100118,0.4792085808217525,-0.262719135473296
1761379832208324400,1.167324462890625,-0.006892682123184204,0.5731149450093508,-0.1479517695646733
1761379832218407400,1.177407470703125,0.3602180442601442,0.5524214088097215,-0.11276318647935986
1761379832228490500,1.187490478515625,0.5275719219744205,0.5133525502249598,-0.14324311694968492
1761379832238573600,1.197573486328125,0.6249596985369921,0.5185685313075781,-0.20644838219694792
1761379832248656400,1.207656494140625,0.6148883863776922,0.5275365584000945,-0.4638481492783874
1761379832258739500,1.217739501953125,0.4311509446173906,0.5336825138092041,-0.7099149137016385
1761379832268822500,1.227822509765625,0.2660936534076929,0.5587170018225908,-0.7951507724385708
1761379832278905300,1.2379052734375,0.2069423762589693,0.6416635805785655,-0.9906425110090523
1761379832288988700,1.24798876953125,0.12706044577062128,0.69531158413589,-1.1837303302429616
1761379832299071500,1.258071533203125,0.1983148331671953,0.7067386948183179,-1.333986504292488
1761379832309154600,1.268154541015625,0.2469792030930519,0.8303960541471839,-1.5517733690403401
1761379832319237400,1.2782373046875,0.08950316079258919,0.9900888957142829,-1.683628794002533
1761379832329320400,1.288320556640625,-0.12546762362122535,1.0323980513945221,-1.7407018035724757
1761379832339403300,1.2984033203125,-0.2602946117401123,1.0697741345867513,-1.8536005991302429
1761379832349486600,1.308486572265625,-0.5036211375445128,1.1337155686214566,-1.8416769371025263
1761379832359569700,1.318569580078125,-0.6632581572711468,1.2333520008936523,-1.8026612700097262
1761379832369647600,1.328647705078125,-0.5574579416722059,1.2633262833967804,-1.7117885744296013
1761379832379730400,1.33873046875,-0.2244663425117731,1.202272095236182,-1.5367363972976802
1761379832389813800,1.348813720703125,0.13243746263384817,1.0353931415572761,-1.247317690142989
1761379832399896600,1.358896484375,0.5672381619304419,0.7432517314404249,-0.9586938596930354
1761379832409979600,1.368979736328125,1.0339970110237597,0.41103900769799945,-0.8467032650213688
1761379832420062500,1.3790625,1.447248141813278,0.1289785543516278,-0.8000213010843843
1761379832430145500,1.3891455078125,1.7282663926303385,-0.08366320259273052,-0.7796478636845946
1761379832440228400,1.399228271484375,1.7971920448184013,-0.27985096060335635,-0.7561478186968713
1761379832450311700,1.409311767578125,1.803671469965577,-0.49628451104611154,-0.6540067101273686
1761379832460394500,1.41939453125,1.7161767263859509,-0.6640647974789142,-0.6031144350189716
1761379832470477600,1.4294775390625,1.7320149315088986,-0.6792854552254081,-0.6135862177379429
1761379832480560600,1.439560546875,1.7006103239417074,-0.6666381550982594,-0.6466233949430287
1761379832490643500,1.4496435546875,1.464281694200635,-0.7146168808475136,-0.7004498968724161
1761379832500726500,1.4597265625,1.1580804868102073,-0.7316124393120408,-0.687999288361147
1761379832510809600,1.4698095703125,0.9514800558567047,-0.6446183387309312,-0.7260040248457342
1761379832520892700,1.479892578125,0.7917255472302437,-0.47988195003867146,-0.7656307365089654
1761379832530975500,1.4899755859375,0.5468798490345478,-0.38431495916247366,-0.7287316231787204
1761379832541058600,1.50005859375,0.30614567781090735,-0.3993184670269489,-0.6677599987350404
1761379832551141400,1.510141357421875,0.12273965996205806,-0.3840311737850308,-0.6535685379058123
1761379832561224400,1.520224365234375,0.0037613983601331707,-0.34948417653888464,-0.6783883602552115
1761379832571307800,1.530307861328125,-0.03107669078707695,-0.3300777575403452,-0.6723718764446676
1761379832581390600,1.540390625,0.012416998502612114,-0.3461854272544384,-0.6094071784876287
1761379832591473700,1.5504736328125,0.10570552305281161,-0.37932051187604665,-0.5052478619635105
1761379832601556500,1.560556396484375,0.1837584845483303,-0.422255982761085,-0.42118280057162044
1761379832611639600,1.5706396484375,0.22876842361986635,-0.47105303915590047,-0.3897580269992351
1761379832621722600,1.58072265625,0.19281039053201673,-0.5033431973859668,-0.3903846344649792
1761379832631805700,1.5908056640625,0.15766308930516243,-0.5178992537438869,-0.4153982258208096
1761379832641888500,1.600888427734375,0.06791910549402237,-0.4933627783805132,-0.4187346767671406
1761379832651971600,1.6109716796875,-0.08048164994716644,-0.48814153660088777,-0.3672239774994552
1761379832662054700,1.6210546875,-0.24545769261419773,-0.4789823708504438,-0.29392390961945053
1761379832672137500,1.631137451171875,-0.40645372573435307,-0.44373686994612216,-0.2619043850243091
1761379832682220800,1.641220703125,-0.5169043974876404,-0.4254030486151576,-0.22328312407657502
1761379832692303600,1.6513037109375,-0.6552876167833804,-0.46297231629192825,-0.17441402535885572
1761379832702386700,1.66138671875,-0.7735042463630437,-0.5315256280362606,-0.1418191850937903
1761379832712469500,1.671469482421875,-0.8845371019184589,-0.5817366428822278,-0.10596607368513941
1761379832722552600,1.681552490234375,-0.8910510138571262,-0.6989160383686422,-0.024619623602181673
1761379832732635400,1.691635498046875,-0.8169581881642342,-1.0617305288627743,0.25684184093773366
1761379832742718700,1.70171875,-1.0242378335535525,-1.2143418877363203,0.41859658347070217
1761379832752801500,1.711801513671875,-1.1660369987726211,-1.1559385063454508,0.4082850328147411
1761379832762884600,1.721884521484375,-1.4684101723074912,-1.0200824674397706,0.11886267239823936
1761379832772967700,1.7319677734375,-1.744237868744135,-1.0423547972634435,-0.10979176945313811
1761379832783050500,1.742050537109375,-1.9336802441477774,-1.117239065594971,-0.30622268856987356
1761379832793133600,1.752133544921875,-2.206943643054366,-0.9620520110145211,-0.5587665400527417
1761379832803216600,1.762216552734375,-2.561468444108963,-0.6613280659914016,-0.8134571943059563
1761379832813299700,1.7722998046875,-2.688269946682453,-0.3171414113387465,-1.0699978603400289
1761379832823382500,1.782382568359375,-2.759524334079027,0.08138239817917346,-1.185183013269305
1761379832833465600,1.792465576171875,-2.6284821251958608,0.4459682822600007,-1.215990385595709
1761379832843548400,1.80254833984375,-2.2376924170613286,0.8153305869624018,-1.2883023192211984
1761379832853631500,1.812631591796875,-1.703655098465085,1.1352020077869296,-1.305678547566384
1761379832863714800,1.82271484375,-1.160503914564848,1.2522045854017139,-1.2423244119003414
1761379832873797600,1.832797607421875,-0.653768444392085,1.2986311132729054,-1.2343474416717886
1761379832883880700,1.842880615234375,-0.15706395436823367,1.434101659992337,-1.272958765747398
1761379832893963500,1.852963623046875,0.22792378948926925,1.5604183016583322,-1.293059596750885
1761379832904046600,1.863046630859375,0.4587520682483911,1.5704691555514931,-1.288428283688426
1761379832914129400,1.87312939453125,0.5985860708743334,1.5838389247342943,-1.2213207868382334
1761379832924212700,1.883212646484375,0.5455389558196068,1.6138073620185256,-1.2192008720748126
1761379832934295600,1.893295654296875,0.4238157794237137,1.6375307674333452,-1.1565136758849024
1761379832944378600,1.903378662109375,0.06626081689298152,1.7477058371156453,-1.2447954781889914
1761379832954461700,1.913461669921875,-0.3587105623066425,1.7617641730844973,-1.338651719624549
1761379832964544500,1.92354443359375,-0.5249146854639053,1.9372475812405348,-1.6370039670802652
1761379832974627600,1.933627685546875,-0.6949824983119964,2.1885408481404185,-1.9493439694866537
1761379832984710700,1.943710693359375,-0.7966904761612414,2.398714461405575,-2.2262505472011864
1761379832994793700,1.953793701171875,-0.8569067521929741,2.576604638442397,-2.3359932168155906
1761379833004876500,1.96387646484375,-0.8461386899411678,2.706709858736396,-2.264132826349884
1761379833014959600,1.973959716796875,-0.688886519524455,2.791237276943028,-2.1187275994628667
1761379833025042400,1.98404248046875,-0.41858664659857747,2.817382356546819,-1.8934654303982852
1761379833035125500,1.99412548828125,-0.10779928046166896,2.7639854051411152,-1.6123017797611652
1761379833045208600,2.00420849609375,0.204126734316349,2.6179233217805624,-1.318778559897095
1761379833055291600,2.014291748046875,0.5110696999847889,2.404878536993265,-1.0741687162838875
1761379833065374700,2.024374755859375,0.7302320908695459,2.2803099080383777,-0.9507961652457714
1761379833075457500,2.03445751953125,0.8701952728331088,2.141827320021391,-0.9083290425248444
1761379833085540600,2.04454052734375,0.7444324656575918,1.9419258021846413,-0.7648990612335502
1761379833095623400,2.05462353515625,0.5911123739928007,1.809486585985124,-0.6831641963548958
1761379833105706800,2.064706787109375,0.3631698798030615,1.7223747042432427,-0.5383041822604835
1761379833115789600,2.07478955078125,0.24121347917318342,1.609145799948275,-0.4876451313860714
1761379833125872600,2.08487255859375,0.16374445504546165,1.5091595313251018,-0.540873155965656
1761379833135955500,2.09495556640625,0.1355699154406786,1.3717159309670328,-0.5429534693710506
1761379833146038500,2.10503857421875,0.07999123608171939,1.165813419149816,-0.555995760165155
1761379833156121600,2.11512158203125,-0.05513502724468708,0.9220800661101937,-0.568950957197696
1761379833166204700,2.12520458984375,-0.15282500162422655,0.744014240245521,-0.6262725347012281
1761379833176287700,2.135287841796875,-0.27116262723505496,0.6504027673512697,-0.7172993979297578
1761379833186370600,2.14537060546875,-0.4861854340970516,0.602370850110054,-0.7690871605731546
1761379833196453600,2.15545361328125,-0.7119944233894347,0.5570017223373055,-0.8357944060593843
1761379833206536400,2.165536376953125,-0.8917156152456999,0.5896756191879511,-0.9323488005377352
1761379833216619500,2.17561962890625,-1.038963108998537,0.6981544063463807,-1.0188979338303208
1761379833226702600,2.18570263671875,-1.1767091994345187,0.8216197502344846,-1.0468360343307257
1761379833236785700,2.19578564453125,-1.3066226965487002,0.9430147175893187,-1.0455825271382928
1761379833246868700,2.20586865234375,-1.4255910212785006,1.0433075679436326,-1.0290547323159873
1761379833256951600,2.21595166015625,-1.5769932966232298,1.116092233647406,-0.9758202779956161
1761379833267034600,2.22603466796875,-1.6450111863166093,1.1511439655452966,-0.946667687138915
1761379833277117400,2.236117431640625,-1.5681132400751112,1.1919970771983266,-0.9415791318282485
1761379833287200800,2.24620068359375,-1.431537362462282,1.1955761047288775,-0.9142783063180744
1761379833297283600,2.25628369140625,-1.1722305927157401,1.147741171364486,-0.8383208557970822
1761379833307366700,2.26636669921875,-0.8322077797442674,1.0432052766129374,-0.7522289647527038
1761379833317449500,2.276449462890625,-0.4940004917621612,0.9479653257340193,-0.6725019325651228
1761379833327532500,2.286532470703125,-0.15366203697025774,0.9142635471403598,-0.6364512527577578
1761379833337615600,2.29661572265625,0.11553192054033279,0.908013546834886,-0.605248451372981
1761379833347698700,2.30669873046875,0.2770996160686016,0.8873106582850218,-0.5292182278767228
1761379833357781800,2.31678173828125,0.4061924444496631,0.8774664328798651,-0.4506915113896131
1761379833367864300,2.3268642578125,0.46330841637849807,0.8686682093963026,-0.3766536307543516
1761379833377947600,2.33694775390625,0.3974479969799518,0.8841557013854384,-0.2607159058921039
1761379833388030500,2.347030517578125,0.264629426074028,0.8873053975880145,-0.18245953077897428
1761379833398113500,2.357113525390625,0.10726619649827479,0.9382105321779847,-0.1755798542678356
1761379833408196400,2.3671962890625,-0.059518356895446774,1.0495493849426507,-0.18010653791204093
1761379833418279400,2.377279541015625,-0.2274029804855585,1.1910498594760894,-0.17865378182046115
1761379833428362500,2.387362548828125,-0.35494857942461966,1.3287579559892415,-0.14996384003944693
1761379833438445600,2.397445556640625,-0.40508535999059675,1.4144199311837553,-0.07343699213266372
1761379833448528600,2.407528564453125,-0.3367997592717409,1.3189827041670679,0.15332462170943617
1761379833458611500,2.417611572265625,-0.2536842536896467,1.085291437192261,0.5156443144239485
1761379833468694500,2.427694580078125,-0.310586875128746,0.9026792000696062,0.8452255206190049
1761379833478777300,2.43777734375,-0.4391232386708259,0.7630366283625364,0.9891989611372352
1761379833488860400,2.4478603515625,-0.7061942126780748,0.673744479972124,0.9574022124473005
1761379833498943500,2.457943603515625,-0.9636737669974565,0.6498936487853527,0.8471392452858388
1761379833509026600,2.468026611328125,-1.2443722843408584,0.7733718521550297,0.5994816314745695
1761379833519109400,2.478109375,-1.6234867522507905,0.9660583240464329,0.33999453672505914
1761379833529192400,2.4881923828125,-1.992147046163678,1.2786927793547511,0.09165960817411542
1761379833539275500,2.498275634765625,-2.0374562604427338,1.5551865384846926,-0.17293869210928678
1761379833549358300,2.5083583984375,-1.988141317653656,1.7079200624331832,-0.3221163502071053
1761379833559441700,2.518441650390625,-1.9546809466004371,1.8220140591248868,-0.2626783650714904
1761379833569524500,2.5285244140625,-1.6930752522617578,1.9324021870359778,-0.24954766534157097
1761379833579607600,2.538607666015625,-1.5037714085459708,2.076448838920891,-0.21189539555646478
1761379833589690400,2.5486904296875,-1.382258660030365,1.997993726365268,-0.0771308782145381
1761379833599773400,2.5587734375,-1.260579907298088,1.811597879050672,-0.03665281041897833
1761379833609856300,2.568856201171875,-1.1176800873607395,1.7622300370305775,-0.13084142561405895
1761379833619939600,2.578939697265625,-0.9132330350488423,1.7728817794263363,-0.25523499026298524
1761379833630022400,2.5890224609375,-0.7013572940409183,1.6998472306147216,-0.3087579061359167
1761379833640105500,2.59910546875,-0.599632949578762,1.5825453777924179,-0.4431107008717954
1761379833650188500,2.6091884765625,-0.4590799850285053,1.456955881357193,-0.6263315714120864
1761379833660271400,2.619271240234375,-0.3518921144634485,1.3898536452040076,-0.8687395941320806
1761379833670354400,2.6293544921875,-0.3004489274740219,1.326008072759211,-1.1150252620030194
1761379833680437500,2.6394375,-0.2631470785617828,1.2842448605239392,-1.333661802382767
1761379833690520600,2.6495205078125,-0.1335644208371639,1.2802932002887129,-1.5420646065831183
1761379833700603400,2.659603271484375,0.01863338879942894,1.3219555824980138,-1.7064517434462905
1761379833710686500,2.6696865234375,0.174212073045969,1.3005150273233652,-1.7483526105865834
1761379833720769300,2.679769287109375,0.29612054288089273,1.264032093578577,-1.699824142000079
1761379833730852400,2.689852294921875,0.3333966728299856,1.2215768074259161,-1.6158870909020304
1761379833740935700,2.699935791015625,0.21055530605912207,1.1627929022848607,-1.5538675648406146
1761379833751018500,2.7100185546875,0.0411520945996046,1.1021554782316088,-1.5166298672057688
1761379833761101600,2.7201015625,-0.12183832720816135,1.0633511158019304,-1.5220057150252162
1761379833771184400,2.730184326171875,-0.2971329347938299,1.0137038723185658,-1.4738099855244158
1761379833781267500,2.740267333984375,-0.40432781962156294,0.9532572946622967,-1.4001068898014724
1761379833791350300,2.750350341796875,-0.45734863119125363,0.9020271659016609,-1.3737141190469264
1761379833801433600,2.76043359375,-0.5250538016736507,0.86047642737329,-1.3942518801629542
1761379833811516400,2.770516357421875,-0.5965636251360178,0.8068091345936059,-1.421980283435434
1761379833821599500,2.780599609375,-0.6355307769119739,0.7546800111666321,-1.4632183027528225
1761379833831682600,2.7906826171875,-0.6875146466493606,0.7229945408314467,-1.5314919207729398
1761379833841765400,2.800765380859375,-0.7555740373969078,0.7063719073325395,-1.6004615582332014
1761379833851848400,2.810848388671875,-0.838280962178111,0.6829854787871241,-1.6440613382458686
1761379833861931500,2.820931640625,-0.9093728524893522,0.6418558882802724,-1.6517368413098155
1761379833872014600,2.8310146484375,-0.9178034117043018,0.5690186156064272,-1.6232067662656307
1761379833882097400,2.841097412109375,-0.8799842609196901,0.5116425314366817,-1.5989045380495488
1761379833892180500,2.851180419921875,-0.7940753252267837,0.46142245650142427,-1.5360146588943897
1761379833902263300,2.86126318359375,-0.6325473771870136,0.4022700103089213,-1.4735298534087835
1761379833912346400,2.871346435546875,-0.47385611387789245,0.3467781324505806,-1.3667308360308408
1761379833922429400,2.881429443359375,-0.37678923983275886,0.25371435656696556,-1.2408910180963575
1761379833932512500,2.891512451171875,-0.30927286992073055,0.16598054353445768,-1.2033275956384837
1761379833942595600,2.901595703125,-0.2596446233987808,0.11910539511293172,-1.2234990076601504
1761379833952678400,2.911678466796875,-0.15868541809022427,0.05810995140224695,-1.1989902970865367
1761379833962761500,2.921761474609375,-0.10162731382846832,-0.027617490243911743,-1.0880522802077233
1761379833972844300,2.93184423828125,-0.0007967033356428146,-0.1585471786633134,-0.9338692881032824
1761379833982927600,2.941927734375,0.1265852294743061,-0.26843203322738407,-0.8258896826386452
1761379833993010400,2.952010498046875,0.27190906168818474,-0.31746699003130197,-0.7809365883208811
1761379834003093500,2.962093505859375,0.3292056508809328,-0.37448096289038657,-0.6660806673459708
1761379834013176300,2.97217626953125,0.3146387808680534,-0.4210048136562109,-0.5677465498439968
1761379834023259400,2.98225927734375,0.3272925107359886,-0.40688919454216954,-0.5209647787943482
1761379834033342500,2.992342529296875,0.2687888838410377,-0.3630652503848076,-0.4516295228920877
1761379834043425500,3.002425537109375,0.20147885015606878,-0.31635172226577996,-0.33267464216575027
1761379834053508600,3.012508544921875,0.05606733965873718,-0.2146221171066165,-0.2210416287600994
1761379834063591400,3.02259130859375,-0.0761480046570301,-0.10870645843446254,-0.09800444715619086
1761379834073674500,3.032674560546875,-0.19375439338386058,-0.07459376095235347,0.07836582683697342
1761379834083757300,3.04275732421875,-0.27131284936070443,-0.17569471281915902,0.36529081747978925
1761379834093840400,3.05284033203125,-0.402265041872859,-0.2864353074297309,0.651926762048155
1761379834103923500,3.06292333984375,-0.5429600452423096,-0.3394473511710763,0.8225956095293164
1761379834114006500,3.073006591796875,-0.6142839907437563,-0.3163978994950652,0.7790035744316876
1761379834124089600,3.083089599609375,-0.8251946861118078,-0.29907267068475485,0.641696313804388
1761379834134172400,3.09317236328125,-1.1529641667097805,-0.2997118453711271,0.46983241131976244
1761379834144255500,3.10325537109375,-1.554480436041951,-0.13463058876395226,0.24389511947259304
1761379834154338300,3.11333837890625,-1.8133020526200532,0.13659633587896822,-0.08882833027094603
1761379834164421600,3.123421630859375,-1.9448551336348057,0.3843678583934903,-0.25510697996914383
1761379834174504400,3.13350439453125,-1.8711282186448572,0.6232485107049346,-0.25996421074196696
1761379834184587500,3.14358740234375,-1.5765134041517972,0.757807787798345,-0.1038711472325027
1761379834194670300,3.15367041015625,-1.0868892277777193,0.8003644884988665,0.13213088090270758
1761379834204753400,3.16375341796875,-0.6316571503490209,0.822070416611433,0.4369314277149737
1761379834214836500,3.17383642578125,-0.3392360465079546,0.6577782645553351,0.7437059049487114
1761379834224920600,3.183920654296875,-0.24254677360355853,0.42836248294264073,0.894836523745209
1761379834235003400,3.19400341796875,-0.1962672529876232,0.30273937649875876,0.7590856987796724
1761379834245086500,3.20408642578125,-0.22220716540813445,0.3962608330219984,0.5488141780979932
1761379834255169300,3.214169189453125,-0.13525485814213753,0.44430999365895985,0.5502650344934314
1761379834265252400,3.22425244140625,0.1917839700937271,0.3861725697278976,0.7177515986766666
1761379834275335400,3.23433544921875,0.617660189178586,0.4001709922030568,0.8741274977155029
1761379834285418500,3.24441845703125,1.088885370030999,0.3733768010407686,1.05083979007937
1761379834295501600,3.25450146484375,1.488595466724038,0.23327245704084634,1.2320090618520974
1761379834305584400,3.26458447265625,1.6668407408088444,0.106616792678833,1.3793788668103515
1761379834315667500,3.27466748046875,1.687515280047059,-0.02342208438068628,1.5228209769308567
1761379834325750300,3.284750244140625,1.5727964294552803,-0.11942922023981808,1.612415030877292
1761379834335833600,3.29483349609375,1.2896762379229068,-0.15839900236427784,1.6647572125330565
1761379834345916400,3.30491650390625,0.9420990640491247,-0.1716217642918229,1.6640300673022865
1761379834355999500,3.31499951171875,0.5104349092125893,-0.060740592166781425,1.539495048356056
1761379834366082300,3.325082275390625,0.07734919714033603,0.19354484228640795,1.3799284635171294
1761379834376165000,3.3351650390625,-0.22358488350212571,0.38361616324335335,1.3056124965928495
1761379834386248200,3.345248291015625,-0.33999007974565026,0.4772556931883096,1.1733047978185116
1761379834396331000,3.3553310546875,-0.3428378703922033,0.5953448969960212,1.0442201527439057
1761379834406414000,3.3654140625,-0.3166495361685753,0.5923702650994062,1.0296284405507146
1761379834416497200,3.3754970703125,-0.24223989961147308,0.5049585236281157,1.10013887771219
1761379834426580200,3.385580322265625,-0.0834983674198389,0.35292204203307626,1.2137439218431711
1761379834436663000,3.3956630859375,0.1251128188341856,0.22432342690974472,1.2429393289282917
1761379834446746000,3.40574609375,0.3334358357965946,0.14786650243401528,1.2539935146450996
1761379834456829200,3.4158291015625,0.5379261427283287,0.03847732243239879,1.2561262888900935
1761379834466912000,3.425912109375,0.6634849517643451,-0.02042845552265644,1.239904491277039
1761379834476995300,3.435995361328125,0.7304752519756555,-0.0328302564561367,1.254530105739832
1761379834487078100,3.446078125,0.7457657600879669,-0.047259763824939724,1.2597075083777307
1761379834497161200,3.4561611328125,0.7379588857293129,0.012345394571125507,1.2095691934417931
1761379834507244000,3.466244140625,0.739528911525011,0.047019525328278536,1.1876010341964662
1761379834517327000,3.4763271484375,0.760137399789691,0.01696545558720827,1.1593587631177156
1761379834527410000,3.486409912109375,0.8414327042073011,-0.058958969447016715,1.1124576765373348
1761379834537493200,3.4964931640625,0.9196925864517688,-0.15099603263139724,1.0714297928392886
1761379834547576000,3.506576171875,0.9775070620387792,-0.2572606508716941,1.021094932417944
1761379834557659100,3.5166591796875,1.0141168370336293,-0.3304769859910011,0.9728664696913212
1761379834567742200,3.5267421875,1.077467903959751,-0.40619653610289097,0.9667729020565747
1761379834577825000,3.536824951171875,1.2081798579752445,-0.48124768543392415,0.93594163739793
1761379834587908000,3.546908203125,1.270876260384917,-0.5553600926101208,0.9054171736661344
1761379834597991200,3.5569912109375,1.2855530205130576,-0.6120332892075181,0.8862112456757575
1761379834608074200,3.56707421875,1.2118652684897184,-0.6872346606642007,0.8614631733883171
1761379834618157000,3.577156982421875,1.0765537117242812,-0.7535264572173357,0.7722713435672223
1761379834628240100,3.587240234375,0.9597317513734102,-0.782864195382595,0.6744254479736089
1761379834638323000,3.597322998046875,0.8220254084259271,-0.8550798290267586,0.6029637745019049
1761379834648406000,3.607406005859375,0.6912918271005153,-0.9084475543379783,0.5654635534733533
1761379834658489300,3.6174892578125,0.6058873337984084,-0.9355664474099874,0.535022676371783
1761379834668572200,3.627572265625,0.512462615647912,-0.9657146251752972,0.509501500819996
1761379834678655200,3.6376552734375,0.4602227253228426,-0.9753092597335576,0.46977096345610914
1761379834688738000,3.647738037109375,0.38528058932423587,-0.9523591767787932,0.41253779488839204
1761379834698821000,3.657821044921875,0.313501885792613,-0.9070140144035219,0.3718708534572273
1761379834708904000,3.667904052734375,0.30305180344879623,-0.87434274790138,0.346268137101829
1761379834718987300,3.6779873046875,0.3023988924980163,-0.8667287657663225,0.3569917756900191
1761379834729070000,3.688070068359375,0.2985936549961567,-0.8714826822951436,0.38712950512655075
1761379834739153200,3.698153076171875,0.23395780895650387,-0.8925406678929925,0.44484183551333845
1761379834749236200,3.708236328125,0.19626433037817478,-0.9339674877807498,0.5075830269128084
1761379834759319000,3.718319091796875,0.1731447360754013,-0.9609320670738816,0.5632203776564448
1761379834769402000,3.728402099609375,0.09781856919527053,-0.9752049225762486,0.6170837044648826
1761379834779485200,3.738485107421875,-0.005360065728425979,-0.976683178435266,0.6690132136665284
1761379834789568300,3.748568359375,-0.12315408598184585,-0.9387263727456331,0.7111817187670618
1761379834799651000,3.758651123046875,-0.2775187182635069,-0.8591238437205553,0.7212371027048676
1761379834809734100,3.768734130859375,-0.4914128133565187,-0.7808353199034929,0.760746690794453
1761379834819817000,3.77881689453125,-0.6604384236752987,-0.7109843695640563,0.7723702738970518
1761379834829900000,3.788900146484375,-0.7956582105040549,-0.6534232842162251,0.7730269842401146
1761379834839983000,3.798983154296875,-0.8094301307469606,-0.7159469604074955,0.8646507904484868
1761379834850066200,3.809066162109375,-0.6287538301229476,-1.059286058320105,1.1815723484914749
1761379834860149200,3.819149169921875,-0.540146741387248,-1.2757102564126253,1.4571376676648855
1761379834870232000,3.829232177734375,-0.34442192471325395,-1.310972416190803,1.607814259083569
1761379834880315100,3.839315185546875,-0.2550251469045877,-1.3284937520951032,1.5812763807699084
1761379834890398000,3.84939794921875,-0.34179917499423024,-1.1807099595084787,1.4525912564069032
1761379834900481300,3.859481201171875,-0.5358756399393081,-1.023682830019295,1.3369450618371366
1761379834910564000,3.869564208984375,-0.8096224384486674,-0.8820870784178376,1.101022236417979
1761379834920647200,3.879647216796875,-1.027851347875595,-0.5421919834792613,0.8837658252850175
1761379834930730000,3.88972998046875,-1.2427210100024937,-0.08898761248588562,0.7515044498704373
1761379834940813000,3.89981298828125,-1.4958207418024538,0.2958919948220253,0.6841907629236579
1761379834950896000,3.909896240234375,-1.5346382559746503,0.6284530936107039,0.7279137309245765
1761379834960979200,3.919979248046875,-1.3974346018522976,1.0572224037885665,0.7041219364486634
1761379834971062300,3.930062255859375,-1.1972142273247242,1.4047116071179508,0.7633616955984384
1761379834981145000,3.94014501953125,-0.9094704676449298,1.518881299394369,0.8614598123874515
1761379834991228200,3.950228271484375,-0.5211509490162134,1.5015686378046869,0.8497920978821814
1761379835001311000,3.96031103515625,-0.006677578067779541,1.5815028830021618,0.7671773814290761
1761379835011394000,3.97039404296875,0.45878597051799297,1.6229247344538569,0.7912076608359814
1761379835021477000,3.98047705078125,0.7738876927226781,1.5411208959922194,0.9074261754009872
1761379835031560200,3.990560302734375,1.0691074873715638,1.3888397919863462,1.0363684163302183
1761379835041643300,4.000643310546875,1.2738070531398058,1.2571440876305102,1.106630870079994
1761379835051726000,4.01072607421875,1.3864467593699692,1.1125161287263035,1.17808209522292
1761379835061809200,4.02080908203125,1.4214116897672413,0.8762477047398686,1.3000247595883905
1761379835071892000,4.03089208984375,1.3440005333065985,0.6057312664538621,1.4281195168428122
1761379835081975300,4.040975341796875,1.2307096696913242,0.42534810355752706,1.5155411951862274
1761379835092058000,4.05105810546875,1.0448878228724001,0.266884219263494,1.5807659470297395
1761379835102141200,4.06114111328125,0.7281096918880939,0.15253654007166623,1.6304646284393964
1761379835112224000,4.07122412109375,0.3537164072811603,0.1434416717290878,1.5796145850375294
1761379835122307000,4.08130712890625,-0.020547113466262815,0.2381160976797342,1.4880141597047447
1761379835132390100,4.09139013671875,-0.3238800719439983,0.374914678132534,1.4458558106720447
1761379835142473200,4.10147314453125,-0.4822773207426071,0.49389878495335576,1.353000124581158
1761379835152556300,4.111556396484375,-0.4758382276058197,0.5542249511003494,1.3201944180443883
1761379835162639000,4.12163916015625,-0.420107572555542,0.6399950628444552,1.4490230425313115
1761379835172722200,4.13172216796875,-0.2641442729055881,0.6494295384049416,1.670629319436848
1761379835182805000,4.141804931640625,0.03545826687216758,0.5877239005982875,1.9445937062196432
1761379835192888000,4.15188818359375,0.24882103156745433,0.44010026700943705,2.1958067474901677
1761379835202971100,4.16197119140625,0.36484395049512386,0.3102998748809099,2.3722613387659193
1761379835213054200,4.17205419921875,0.39389936458766456,0.2646063374593854,2.4368586063608526
1761379835223137000,4.182136962890625,0.32739889371991154,0.2354156065493822,2.425659166954458
1761379835233220000,4.19222021484375,0.20077976197600364,0.2960053920686245,2.388645487333834
1761379835243303200,4.20230322265625,0.0570814851373434,0.3603852175205946,2.3529117645211515
1761379835253386000,4.212385986328125,-0.040624855855107306,0.46168812170028684,2.268969891117513
1761379835263469300,4.22246923828125,-0.04208791414499283,0.5555450937882065,2.1673561674229798
1761379835273552100,4.23255224609375,-0.014822306078672408,0.5679419262856245,2.037380710988492
1761379835283635200,4.24263525390625,0.0008276829957962036,0.5905512329787016,1.9114065991498528
1761379835293718000,4.252718017578125,-0.03724573481082916,0.6522323208659887,1.7540788792788982
1761379835303801000,4.262801025390625,-0.0694254184037447,0.7472495689049363,1.5472303187832235
1761379835313884000,4.2728837890625,-0.12524492078125476,0.8491860948130487,1.3374901284992695
1761379835323967200,4.28296728515625,-0.1990168439567089,0.965321534204483,1.0968405668191612
1761379835334050300,4.29305029296875,-0.2437812838345766,1.1051315714329482,0.8293348546564578
1761379835344133000,4.303133056640625,-0.26523732883930207,1.2607201925516127,0.6397615463495254
1761379835354216200,4.31321630859375,-0.21580665071606636,1.366431853084266,0.5232513553615659
1761379835364299000,4.323299072265625,-0.07258709730505943,1.4036553760632873,0.4773465132769197
1761379835374382800,4.3333828125,0.025931729114055634,1.4234575163811445,0.50662079428453
1761379835384465700,4.343465576171875,0.09328794002830981,1.3619266506195067,0.5414937355494126
1761379835394548700,4.353548828125,0.15356968251168726,1.3302332892388105,0.4855581690441817
1761379835404632600,4.363632568359375,0.2261480119884014,1.360579619924724,0.44695795088447626
1761379835414715600,4.373715576171875,0.20799100852906702,1.311112409183383,0.4528578591106459
1761379835424798700,4.383798828125,0.20848492952585218,1.246806818011403,0.44639081852100787
1761379835434881800,4.3938818359375,0.1733890662252903,1.2500421466708183,0.4166601355154067
1761379835444964600,4.403964599609375,0.08236673304140567,1.2427905681073665,0.3827895762261003
1761379835455047700,4.414047607421875,-0.019459318229556082,1.2571975713834165,0.36781635390203443
1761379835465130500,4.424130615234375,-0.10493979937732219,1.269727674871683,0.3467353892873972
1761379835475213600,4.434213623046875,-0.1534025092512369,1.2539295094981788,0.3432495564656332
1761379835485296600,4.444296630859375,-0.28249183050096033,1.2829828777641057,0.3848386542430147
1761379835495379700,4.454379638671875,-0.4733545940965414,1.3043769634485245,0.46212359050810337
1761379835505462500,4.464462646484375,-0.687722736442089,1.4436945409849284,0.48303065986055876
1761379835515545600,4.474545654296875,-0.931935981953144,1.5962255280986428,0.43908962866216894
1761379835525628700,4.484628662109375,-1.0918611709713935,1.706955893576145,0.3556050340393558
1761379835535711500,4.49471142578125,-1.2530968580663204,1.8424550818681715,0.27328827761951835
1761379835545794800,4.504794921875,-1.3912632197409867,1.9528686364814638,0.2016171626482159
1761379835555877600,4.514877685546875,-1.5101111329615116,2.0570073486089706,0.1647573949476704
1761379835565960700,4.524960693359375,-1.5884622006207703,2.185687504535913,0.13609843282680958
1761379835576043500,4.53504345703125,-1.6044541350007056,2.262375607419014,0.1463322420714423
1761379835586126600,4.545126708984375,-1.599257735401392,2.2601281207531687,0.2152121188890189
1761379835596209400,4.55520947265625,-1.551718570113182,2.2117966360434886,0.3268434517942369
1761379835606292700,4.565292724609375,-1.411537361484766,2.061178496813774,0.4185921264912933
1761379835616375800,4.575375732421875,-1.2431143932342528,1.7963412732079624,0.49218734139297154
1761379835626458600,4.585458740234375,-1.0741811373740433,1.430064367300272,0.535963647016324
1761379835636541700,4.595541748046875,-1.0102309355109929,1.1244672632828354,0.5143322454446927
1761379835646624500,4.60562451171875,-1.058579079094529,1.0290092857390643,0.36395153170004485
1761379835656707600,4.61570751953125,-1.1288555613696574,1.1436237991735339,0.21987751688417045
1761379835666790700,4.625790771484375,-1.1387480098307132,1.34026777651906,0.14761402551028877
1761379835676873700,4.635873779296875,-1.0097598108679056,1.6464941183507442,0.19120898321736604
1761379835686956500,4.64595654296875,-0.7266045480221509,1.8896625309839843,0.4171481747606769
1761379835697039600,4.65603955078125,-0.4292810590922832,1.8466680233880877,0.813689980148524
1761379835707122700,4.666122802734375,-0.056654784157872194,1.6970558463305234,1.1287811809591948
1761379835717205500,4.67620556640625,0.23771803827285765,1.6143907148644328,1.4425519468210637
1761379835727288800,4.686288818359375,0.19164836101531982,1.325660866756737,1.679873094730824
1761379835737371600,4.69637158203125,-0.13952420602440832,1.0525511971071362,1.7317301232181488
1761379835747454700,4.706454833984375,-0.678485537019372,1.055990523906052,1.6735510521024464
1761379835757537500,4.71653759765625,-1.181451425525546,1.1270625404730439,1.5760964939139783
1761379835767620600,4.72662060546875,-1.6794681671917437,1.158916353112459,1.5788045838288962
1761379835777703400,4.736703369140625,-1.9525988796293734,1.1339911706924437,1.5861325886294244
1761379835787786800,4.746786865234375,-2.0202309848755595,1.2072250414684413,1.4959350158318876
1761379835797869600,4.75686962890625,-2.1143004306703803,1.2821534412026405,1.4086647286579013
1761379835807952600,4.76695263671875,-2.1096435447752473,1.2413619966089724,1.4245556868813931
1761379835818035700,4.77703564453125,-1.8886364028066396,1.3161129939496516,1.2661227822475134
1761379835828118500,4.787118408203125,-1.8282248964637517,1.3716916733086109,1.2866104206115008
1761379835838201600,4.79720166015625,-1.7110265040159225,1.336933371399343,1.4320650395981966
1761379835848284700,4.80728466796875,-1.3819506169945002,1.4034025703459978,1.5580946810163556
1761379835858367700,4.81736767578125,-0.9304296690434217,1.4443340079322458,1.7133702906630932
1761379835868450600,4.827450439453125,-0.4602525359392166,1.3669398026064037,1.8701093969911335
1761379835878533600,4.83753369140625,0.018814006063342093,1.2139110951036214,2.040044961761683
1761379835888616400,4.847616455078125,0.37087037117779253,1.005820133331418,2.1863848391503096
1761379835898699500,4.857699462890625,0.6319008959770203,0.8285302602753043,2.344240090026706
1761379835908782800,4.867782958984375,0.7320967156976461,0.6411492013156413,2.532863111871481
1761379835918865700,4.87786572265625,0.7366770292252302,0.4694856437087059,2.699401873810589
1761379835928948700,4.88794873046875,0.6725871266305447,0.3898606105908751,2.7442876019805666
1761379835939031600,4.898031494140625,0.5215688821673393,0.36670039201676846,2.7176781197354196
1761379835949114600,4.908114501953125,0.24704350050091742,0.3824199391961097,2.6852719339102507
1761379835959197400,4.918197509765625,-0.06464870552122592,0.46096448360085485,2.6650512759193776
1761379835969280800,4.92828076171875,-0.3369213398247957,0.5802955041632056,2.621314133262634
1761379835979363600,4.938363525390625,-0.496106524130702,0.7009115961000323,2.6248124967724085
1761379835989446700,4.94844677734375,-0.49486324607133864,0.7456248903125524,2.6164286993086336
1761379835999529700,4.95852978515625,-0.45429801144897936,0.7312889064460992,2.623412566846609
1761379836009612500,4.968612548828125,-0.42263504520654677,0.754150726595521,2.619510590972006
1761379836019695600,4.978695556640625,-0.4017500780880451,0.7557792045801878,2.544547119924426
1761379836029778700,4.98877880859375,-0.438352838820219,0.7569160996556281,2.42709548336789
1761379836039861800,4.99886181640625,-0.565902529412508,0.8156868530541658,2.2498669851101933
1761379836049944600,5.008944580078125,-0.6614958237737417,0.9177931825712322,2.0070316038236022
1761379836060027600,5.019027587890625,-0.5846890629470348,1.0623314173653722,1.8167251589365303
1761379836070110500,5.0291103515625,-0.46566462411582465,1.1656745952010155,1.7910377599723637
1761379836080193500,5.039193603515625,-0.2993096943110227,1.198132218952477,1.7805559673160314
1761379836090276600,5.049276611328125,-0.15066519324183464,1.2557342208325861,1.7687655762791632
1761379836100359700,5.059359619140625,-0.01243804129064083,1.33240683388561,1.7132060400120912
1761379836110442800,5.06944287109375,0.09401274717152118,1.3784879093199967,1.597772026888281
1761379836120525600,5.079525634765625,0.08580196818709374,1.4079691476091742,1.4941522240683436
1761379836130608600,5.089608642578125,0.013178046002984046,1.3750570580884813,1.369852767443657
1761379836140691500,5.09969140625,-0.06963818437159061,1.4168641094654797,1.1421855099987237
1761379836150774800,5.10977490234375,-0.17053309227228164,1.452537480393052,1.0176320055477321
1761379836160857600,5.119857666015625,-0.2562339381724596,1.4234499175965785,0.9067065558895469
1761379836170940700,5.129940673828125,-0.2961976997703314,1.4092971813425421,0.7316328975781798
1761379836181023500,5.1400234375,-0.22524375662505625,1.32865829500705,0.5565788938153535
1761379836191106600,5.1501064453125,-0.15419336736798286,1.177857784947753,0.4095122730547562
1761379836201189600,5.160189697265625,-0.10883914490342139,1.0774912848353386,0.3460885427512228
1761379836211272700,5.170272705078125,-0.15394845269620416,1.0528513490974902,0.34334490659888833
1761379836221355800,5.180355712890625,-0.17351415390968322,1.086341823028028,0.33764607390277085
1761379836231438600,5.1904384765625,-0.22689093931019305,1.071309965851903,0.3690168522655964
1761379836241521700,5.200521728515625,-0.38132922134995456,1.0225018035411835,0.3158407770689577
1761379836251604500,5.2106044921875,-0.5477098701179027,0.9262208191767335,0.1912574620015919
1761379836261687600,5.2206875,-0.5658867473214865,0.7993865833774209,0.02082351925484836
1761379836271770600,5.2307705078125,-0.47477147515714163,0.5755167454540729,-0.06773278914168476
1761379836281853700,5.240853759765625,-0.3160176680058241,0.27308190485984085,-0.04313325847946107
1761379836291936500,5.2509365234375,-0.1802683043450117,-0.02504033323228359,-0.004630509344860911
1761379836302019600,5.26101953125,-0.13363748607337475,-0.277497967736423,-0.0044179625727236264
1761379836312102700,5.2711025390625,-0.2752694780319929,-0.39347850882709023,-0.18388028429709374
1761379836322185500,5.281185546875,-0.5985445698201656,-0.3554112285003066,-0.5032549345806241
1761379836332268800,5.291268798828125,-0.8532651808202266,-0.22878800510317085,-0.7844271338503808
1761379836342351600,5.3013515625,-1.0047089572191237,-0.23628420607745645,-0.7617709192756563
1761379836352434700,5.3114345703125,-0.9466524895697832,-0.31848493490219115,-0.6828019389137625
1761379836362517500,5.321517578125,-0.8077268339604139,-0.3276709886595607,-0.6231897662550211
1761379836372601000,5.33160107421875,-0.6281032572597265,-0.36738311358392234,-0.5618680131994187
1761379836382684000,5.341683837890625,-0.510791467565298,-0.5103779183283448,-0.6050310092300176
1761379836392767000,5.35176708984375,-0.3831798176527023,-0.7209194881230593,-0.7267337273597717
1761379836402849800,5.361849853515625,-0.2552899353206158,-0.9093459644824265,-0.8732296720929443
1761379836412932900,5.371932861328125,-0.07898761199712753,-0.9661366499796509,-1.0841538114644587
1761379836423016200,5.38201611328125,0.1785346124202013,-0.9986886740162968,-1.1929776126682758
1761379836433099000,5.39209912109375,0.437647905421257,-1.0552511037155985,-1.142337704885751
1761379836443182000,5.40218212890625,0.6933592810243367,-1.1031129250869154,-1.0166953092195092
1761379836453265000,5.412264892578125,0.9981769251018762,-1.1155299235895275,-0.9229333219386636
1761379836463348000,5.422347900390625,1.1725211000949143,-1.0680819437161087,-0.8317593053244053
1761379836473430800,5.4324306640625,1.1574719995230436,-0.9888196064308286,-0.7347665194287896
1761379836483514000,5.44251416015625,1.1187824956446886,-0.9032780427455902,-0.6552116289377212
1761379836493597000,5.452596923828125,1.0029419475466013,-0.827068663290143,-0.6316767318323254
1761379836503680000,5.462679931640625,0.8138006009161471,-0.7575260482475161,-0.6019434184782206
1761379836513763000,5.47276318359375,0.5753127473145723,-0.6931780792385339,-0.5993260755866766
1761379836523846000,5.482845947265625,0.4554670552283525,-0.6129694010138511,-0.6081374508127569
1761379836533929000,5.492928955078125,0.48558571463823313,-0.5457251260414719,-0.5802386594094335
1761379836544012000,5.503011962890625,0.5689677622020244,-0.5603878576442599,-0.4636613214693963
1761379836554095000,5.51309521484375,0.6502309179157019,-0.5950508824855089,-0.38138270510286093
1761379836564178000,5.523177978515625,0.6843523832261562,-0.586729044342041,-0.3943417015276849
1761379836574261000,5.533260986328125,0.7681488568097352,-0.5758519687578082,-0.44704336414560675
1761379836584343800,5.54334375,0.7760603605866432,-0.5657920547753572,-0.4865322017081082
1761379836594427000,5.553427001953125,0.7668623241305351,-0.5826639868602156,-0.546966212143749
1761379836604510000,5.563510009765625,0.748764357382059,-0.6025345162391662,-0.5925377306208014
1761379836614593000,5.573593017578125,0.7451356454908847,-0.599209755730629,-0.6027069501966238
1761379836624676000,5.583676025390625,0.7352081257164478,-0.6376724651157856,-0.5773677801482379
1761379836634759000,5.593759033203125,0.6878764656990766,-0.6622466421410441,-0.5511012661218643
1761379836644842000,5.603842041015625,0.6716431237787008,-0.6859568958133458,-0.5217955305300652
1761379836654924800,5.6139248046875,0.6695709936797618,-0.6970753789380192,-0.5282188415758311
1761379836665008000,5.624008056640625,0.7043968078672885,-0.7061623562350868,-0.5534129040651024
1761379836675091000,5.634091064453125,0.7618570631891488,-0.7911462860375642,-0.5557824096754193
1761379836685174000,5.644174072265625,0.8380810556918382,-0.8914011424690484,-0.5443817486084997
1761379836695256800,5.6542568359375,0.8599351601034403,-0.9640776716232299,-0.47270314445048567
1761379836705340000,5.66433984375,0.8231775010704994,-1.0449603035867214,-0.36573373894169925
1761379836715423000,5.674423095703125,0.7440525264292955,-1.0457575914442538,-0.3521425820931792
1761379836725506000,5.684506103515625,0.5701198548465967,-1.0092305262967944,-0.39535613926723595
1761379836735589000,5.694589111328125,0.3986012586683035,-1.0370219118028878,-0.44656230263039465
1761379836745672000,5.704671875,0.3001426380038261,-1.0462398220032454,-0.5350746988199651
1761379836755755000,5.714755126953125,0.1666746632784605,-1.014255368721485,-0.5374158551186323
1761379836765837800,5.724837890625,0.09100596657097339,-1.0461500978931784,-0.4849539926059544
1761379836775921000,5.7349208984375,-0.0381546663492918,-1.0088900422960518,-0.49356341551914806
1761379836786004000,5.74500390625,-0.16857319037616253,-0.9031284051418303,-0.4757102173119783
1761379836796087000,5.755087158203125,-0.2655588158786297,-0.898558028486371,-0.4413131499305367
1761379836806170000,5.765170166015625,-0.3482639870941639,-0.9177253780320286,-0.46212300598621364
1761379836816253000,5.7752529296875,-0.10431085382401943,-1.2116411043450235,-0.22868790572956202
1761379836826336000,5.7853359375,-0.23864684355556964,-1.5428998883634806,0.1045104680493474
1761379836836418800,5.795418701171875,-0.6542009905904531,-1.4985557197242974,0.044338177289813756
1761379836846502100,5.805502197265625,-0.8366980769008397,-1.1121113473176956,-0.5088812500298023
1761379836856585000,5.8155849609375,-1.252871817138791,-0.810856071896851,-1.0951847624361515
1761379836866668000,5.82566796875,-1.7492255940288304,-0.7379857737362384,-1.4182584864333272
1761379836876750800,5.835750732421875,-2.2639280975580216,-0.6854813872560859,-1.7161092141076921
1761379836886834000,5.845833984375,-2.497054716387391,-0.45930034978091716,-1.9965677852153776
1761379836896917000,5.8559169921875,-2.669181799852848,-0.17693828313946722,-2.210366018718481
1761379836907000000,5.866,-2.7574422671079635,0.012884908275306224,-2.2790074471376833
1761379836917083100,5.876083251953125,-2.6680226929455992,0.18674071522951124,-2.2490113911941645
1761379836927166000,5.886166015625,-2.306370816490054,0.392576299290359,-2.1391468487657606
1761379836937249000,5.8962490234375,-1.8488544275164602,0.5851844452485442,-1.9152885551497338
1761379836947331800,5.906331787109375,-1.1691577611416577,0.7076940958470106,-1.6800756315656005
1761379836957415000,5.916414794921875,-0.32448739018738265,0.7700450458198785,-1.4854685668751597
1761379836967498000,5.926498046875,0.2309445986151695,0.5706590762898326,-1.2126396138630806
1761379836977581000,5.9365810546875,0.6723802058815955,0.24906565397828817,-1.0090509319461882
1761379836987664000,5.946663818359375,0.9451415004849434,0.14397709378004073,-0.9245091929532587
1761379836997747000,5.956746826171875,0.9680658644765615,0.16858488081395626,-0.9025923985689878
1761379837007830000,5.966830078125,0.8233470124185085,0.17644699249118564,-0.9371448026426136
1761379837017912800,5.976912841796875,0.476923100233078,0.24376696304827927,-1.0498447146274148
1761379837027996200,5.98699609375,0.06034136371612549,0.37422435778081414,-1.2463915152087808
1761379837038079000,5.997078857421875,-0.4300041126698255,0.425225061699748,-1.4472398123763501
1761379837048162000,6.007162109375,-0.6959113035947084,0.5651312527790665,-1.7928195288226008
1761379837058244900,6.017244873046875,-0.7986977243304252,0.7778074965149163,-2.088240399001539
1761379837068328000,6.027327880859375,-0.6933902606844902,0.7939581285879015,-2.203020770522207
1761379837078410800,6.03741064453125,-0.4968260705769062,0.7145642738774418,-2.274907610603422
1761379837088494000,6.047494140625,-0.3688946871906519,0.7049351525276899,-2.278229302372038
1761379837098577000,6.057576904296875,-0.28113106354177,0.6481552806854247,-2.1747392634116114
1761379837108660000,6.067659912109375,-0.33441783257126806,0.5714762378916144,-2.0568067114703354
1761379837118743000,6.077742919921875,-0.23819909978806972,0.611352613466978,-2.102376184120774
1761379837128825900,6.087825927734375,-0.23978432315289971,0.5839768230244518,-1.9737325608119367
1761379837138909000,6.097908935546875,-0.1907031891196966,0.4158239038869738,-1.9158432664230465
1761379837148992000,6.107991943359375,0.11479834556877612,0.4051362133949995,-1.9325718445144593
1761379837159075000,6.118074951171875,0.126758832475543,0.25894553521871566,-1.8166617383114994
1761379837169158000,6.128157958984375,0.23924364040493964,0.15418956797569988,-1.7685132089532911
1761379837179241000,6.138240966796875,0.2531961779117584,0.16735358545333145,-1.6446142959535122
1761379837189323800,6.14832373046875,0.23657763606607912,0.14876286675184963,-1.602545671030879
1761379837199406800,6.15840673828125,0.5049228677928448,0.10697159746587276,-1.590725177116692
1761379837209490200,6.168490234375,0.5836719948589801,0.0011737199544906616,-1.5693020114682614
1761379837219573000,6.178572998046875,0.7342460026860237,-0.07327537183016539,-1.5926090911671518
1761379837229656000,6.188656005859375,0.7270902857124805,-0.13423545196652412,-1.5251502966612576
1761379837239739000,6.19873876953125,0.7008931836605071,-0.1257183835119009,-1.5867252938255667
1761379837249822000,6.208822021484375,0.6150134740620851,-0.09864479088634252,-1.6353361799985169
1761379837259904800,6.21890478515625,0.3566144668102264,-0.16408143191486596,-1.6802305298663676
1761379837269988000,6.228988037109375,0.19199965867102145,-0.22869155899137258,-1.8603380906917153
1761379837280071000,6.23907080078125,0.15042846187651157,-0.14598989490717648,-1.9310864282622933
1761379837290154000,6.249154052734375,0.19012451244890688,-0.17979396483153104,-1.9752721914693712
1761379837300236000,6.259236083984375,0.4192646919906139,-0.2697536372199654,-1.9383548118300735
1761379837310318800,6.26931884765625,0.39058512547314167,-0.4006333490177989,-1.801287789699435
1761379837320402000,6.27940185546875,0.37544016331136226,-0.5431985301733017,-1.6190917321622371
1761379837330485000,6.289485107421875,0.3613824118643999,-0.6327981370776892,-1.4261267355903982
1761379837340568000,6.299568115234375,0.3357382675200701,-0.7078855267658829,-1.3015000928379594
1761379837350651100,6.309651123046875,0.36103637490570545,-0.6688719054996967,-1.2332653455235063
1761379837360734000,6.31973388671875,0.2666477801591158,-0.6169789289161562,-1.1496033119745552
1761379837370816500,6.32981640625,0.16621581359505652,-0.6004325755238533,-1.1047188989788292
1761379837380899300,6.3398994140625,-0.08738952963948249,-0.5616857885003089,-1.1183332905724643
1761379837390982400,6.349982421875,-0.22206395754516123,-0.5124599852994084,-1.168779356283322
1761379837401065500,6.3600654296875,-0.34867198337316513,-0.37868279849439856,-1.2526432690799236
1761379837411148300,6.370148193359375,-0.3666010232955217,-0.2375003038689494,-1.2704296856611967
1761379837421231400,6.3802314453125,-0.3188034993320703,-0.2210524424150586,-1.296591131877899
1761379837431314400,6.390314453125,-0.269422505569458,-0.20528204183131454,-1.262709905064106
1761379837441397500,6.4003974609375,-0.2492266897588968,-0.2605298818007111,-1.1271047721795737
1761379837451480300,6.410480224609375,-0.20793430990576742,-0.32171354155987497,-1.0005507415611297
1761379837461563400,6.4205634765625,-0.32069325860142706,-0.29671587842553854,-0.9548629032280296
1761379837471646200,6.430646240234375,-0.5353086537063122,-0.2520031687349081,-0.932584070598334
1761379837481729300,6.440729248046875,-0.6993085448175669,-0.40428544178456066,-0.7659111608855426
1761379837491812400,6.450812255859375,-0.800825968530774,-0.5742898340076208,-0.6177345695890486
1761379837501895400,6.4608955078125,-1.1332470743268728,-0.43273090728521346,-0.719971905074641
1761379837511978500,6.470978515625,-1.2805395762652159,-0.38547932676672936,-0.9067086747813969
1761379837522061300,6.481061279296875,-1.4175509226858616,-0.28019319816976784,-1.0641546142045408
1761379837532144400,6.491144287109375,-1.5123884302437305,-0.26023031433224675,-1.1030495775271207
1761379837542227200,6.501227294921875,-1.3382067523360253,-0.16019553039222956,-1.1742314842093735
1761379837552310500,6.511310546875,-1.128529982677102,0.17166852604299782,-1.1541596601046622
1761379837562393300,6.521393310546875,-0.9760679691463708,0.12006488779485225,-1.1364516425218432
1761379837572476400,6.531476318359375,-0.6094622696757316,0.045543607556819916,-0.8838784188140183
1761379837582559200,6.541559326171875,-0.28075346240103244,0.13165098843127487,-0.6111084294475615
1761379837592642300,6.551642333984375,-0.14071663067936896,0.03156564334779978,-0.31756891603581605
1761379837602725400,6.561725341796875,-0.16991759072244167,-0.08422463586777448,-0.23307569235973058
1761379837612808400,6.571808349609375,-0.20334522854983805,-0.08231178798377513,-0.50740058301799
1761379837622891500,6.5818916015625,-0.21399346381425857,0.12351210563927888,-1.0706774401020258
1761379837632974300,6.591974365234375,-0.4216828590482473,0.45271892556399107,-1.6102509847111999
1761379837643057400,6.602057373046875,-0.6938619698494672,0.7500067586585879,-1.8906354676693677
1761379837653140200,6.61214013671875,-0.7139461419790982,0.8905079930216073,-1.9624661936491727
1761379837663223300,6.622223388671875,-0.506884523254633,1.0191402181535958,-1.9244133802391588
1761379837673306400,6.632306396484375,-0.12336626742780207,1.3351497028529644,-1.949683722835034
1761379837683389400,6.642389404296875,0.009255319601297378,1.1720777402415872,-1.745491814327985
1761379837693471500,6.652471435546875,0.28277473909556866,1.0526134486883878,-1.3770279197700321
1761379837703554300,6.66255419921875,0.5163882646590471,1.110128064545989,-1.303901308760792
1761379837713637400,6.672637451171875,0.6594657792508601,1.0646186515197158,-1.334144909724593
1761379837723720200,6.68272021484375,0.6833136878281831,1.1370675093978644,-1.4208831358484924
1761379837733803300,6.69280322265625,0.7134142270594835,1.2368676077991723,-1.4988957653336226
1761379837743886600,6.702886474609375,0.7723883940756321,1.2957812767997383,-1.5257726663433016
1761379837753969400,6.712969482421875,0.7745587238520384,1.3162287292838095,-1.4341475449606775
1761379837764052500,6.723052490234375,0.8210901734024286,1.2805211638256906,-1.3388833364233375
1761379837774135300,6.73313525390625,0.9168144006669521,1.2618959583327174,-1.320000941298902
1761379837784218400,6.74321826171875,0.792461460289359,1.220146482361853,-1.1939021801672876
1761379837794301200,6.75330126953125,0.6215308931320905,1.1196832438766955,-1.0266219522111117
1761379837804384500,6.763384521484375,0.6967442472875118,1.06176647695899,-0.9398105147205292
1761379837814467300,6.77346728515625,0.7946703685104847,1.003384138356149,-0.8938947128504514
1761379837824550400,6.78355029296875,0.8976485124260186,0.8158461352691054,-0.8489799777816981
1761379837834633500,6.793633544921875,0.9125497289597988,0.5812208023145794,-0.7889765407830476
1761379837844716300,6.80371630859375,0.9222405173689127,0.4825158056735992,-0.7776061287239193
1761379837854799400,6.81379931640625,0.8994336422771215,0.4114788604199886,-0.7180790770653634
1761379837864882400,6.82388232421875,0.6523959869951009,0.322994813542068,-0.5821152669362724
1761379837874965500,6.833965576171875,0.5749643722683191,0.3226473152786493,-0.5603248023454099
1761379837885048300,6.84404833984375,0.45899055317938325,0.3326806335151195,-0.5865189817879348
1761379837895131400,6.85413134765625,0.2654085937529802,0.26034575740545984,-0.5871720388691872
1761379837905214200,6.864214111328125,0.19606500841379165,0.12462240496873855,-0.5798911611460149
1761379837915297300,6.87429736328125,0.1799719517469406,-0.0005707856252789497,-0.5456176470790058
1761379837925380400,6.88438037109375,0.11321078411638737,-0.17204583492279052,-0.46564504263252016
1761379837935463400,6.89446337890625,0.08612462427020072,-0.3276981689274311,-0.4033883468143642
1761379837945546500,6.90454638671875,0.1489455298423767,-0.3943438934847712,-0.41416729578636585
1761379837955629300,6.91462939453125,0.00757774177789688,-0.5410366759642958,-0.36429588815830644
1761379837965711400,6.92471142578125,-0.010664601877331733,-0.663996116156876,-0.38386940735206004
1761379837975794400,6.93479443359375,0.030332594421505925,-0.7276473350733518,-0.45379634553715587
1761379837985877200,6.944877197265625,0.2085761149406433,-0.794878458303213,-0.5279427280481904
1761379837995960600,6.954960693359375,0.36771921367049215,-0.7706760371997952,-0.5330447273623198
1761379838006043400,6.96504345703125,-0.026036943054199218,-0.759514299455285,-0.30990123095214367
1761379838016126500,6.97512646484375,-0.2783013930737972,-0.9660101009905337,-0.15564795009046792
1761379838026209300,6.985209228515625,-0.0751893887579441,-0.978029624608159,-0.37560397557094694
1761379838036292400,6.995292236328125,-0.06353519132137299,-0.8988736703068018,-0.5155106781069189
1761379838046375200,7.005375244140625,0.0005219780474901199,-0.8696323782533407,-0.6207025525491684
1761379838056458500,7.01545849609375,0.0021218144595623015,-0.7414335761025548,-0.6461611111935228
1761379838066541300,7.025541259765625,-0.03312310192286968,-0.6789061005190015,-0.604353256098926
1761379838076624400,7.035624267578125,-0.005987257716059685,-0.6233975637868047,-0.5811284478560089
1761379838086707500,7.04570751953125,0.1257347501248121,-0.5411155864194035,-0.5373947392653674
1761379838096790300,7.055790283203125,0.1189560497701168,-0.5451946724265814,-0.4929837159350514
