time,seconds_elapsed,z,y,x
1761379831119355100,0.078355224609375,0.35304102301597595,0.257068395614624,0.24690568447113037
1761379831129438200,0.088438232421875,0.34560278058052063,0.30328530073165894,0.22476986050605774
1761379831139521000,0.09852099609375,0.3461039960384369,0.3663311004638672,0.21376913785934448
1761379831149604400,0.108604248046875,0.35061579942703247,0.41771450638771057,0.18436431884765625
1761379831159687200,0.118687255859375,0.3617059886455536,0.42197585105895996,0.13322657346725464
1761379831169770200,0.128770263671875,0.3637678921222687,0.3647160530090332,0.06976962834596634
1761379831179853300,0.138853271484375,0.36397987604141235,0.2747110426425934,-0.0011679311282932758
1761379831189936000,0.14893603515625,0.3649667501449585,0.17852194607257843,-0.06612077355384827
1761379831200019200,0.159019287109375,0.3733333349227905,0.11517598479986191,-0.1202244907617569
1761379831210102300,0.169102294921875,0.39354759454727173,0.12283899635076523,-0.13749690353870392
1761379831220185300,0.179185302734375,0.41934219002723694,0.1725844442844391,-0.1278780996799469
1761379831230268200,0.18926806640625,0.43015962839126587,0.22363531589508057,-0.10973067581653595
1761379831240351200,0.199351318359375,0.4337674081325531,0.2863737940788269,-0.09155593067407608
1761379831250434000,0.20943408203125,0.4503299295902252,0.34192946553230286,-0.07591370493173599
1761379831260517000,0.21951708984375,0.4938789904117584,0.3816782236099243,-0.07318875193595886
1761379831270600200,0.22960009765625,0.525610625743866,0.3796249330043793,-0.07563082128763199
1761379831280683300,0.239683349609375,0.540396511554718,0.3736168444156647,-0.05696685612201691
1761379831290766300,0.249766357421875,0.5317619442939758,0.3825533390045166,-0.020174534991383553
1761379831300849200,0.25984912109375,0.522024929523468,0.3803578019142151,0.011487786658108234
1761379831310932200,0.26993212890625,0.5424284934997559,0.38226068019866943,0.009824158623814583
1761379831321015000,0.28001513671875,0.5751864314079285,0.38185322284698486,-0.006218989845365286
1761379831331098400,0.290098388671875,0.5954871773719788,0.37259921431541443,-0.012182655744254589
1761379831341181200,0.30018115234375,0.5963292717933655,0.34986168146133423,-0.024987932294607162
1761379831351264300,0.31026416015625,0.587809145450592,0.30777397751808167,-0.04492451623082161
1761379831361347000,0.32034716796875,0.5878791809082031,0.2670859396457672,-0.049585048109292984
1761379831371435500,0.330435546875,0.6016255021095276,0.2405669093132019,-0.02528535947203636
1761379831381518600,0.3405185546875,0.6281567215919495,0.22700582444667816,0.008873144164681435
1761379831391601700,0.3506015625,0.6642290949821472,0.207086443901062,0.02522421069443226
1761379831401684500,0.3606845703125,0.7039653658866882,0.21228787302970886,0.050972986966371536
1761379831411767600,0.370767578125,0.7461475133895874,0.2427683025598526,0.10022234171628952
1761379831421850400,0.380850341796875,0.7928960919380188,0.28528326749801636,0.16869407892227173
1761379831431933400,0.390933349609375,0.8381878733634949,0.3361748456954956,0.2587283253669739
1761379831442016500,0.4010166015625,0.8842264413833618,0.3996286392211914,0.3277958035469055
1761379831452099600,0.411099609375,0.9400237202644348,0.3825136423110962,0.32718196511268616
1761379831462182400,0.421182373046875,1.003806233406067,0.3670284152030945,0.28772351145744324
1761379831472265500,0.431265380859375,1.0576566457748413,0.3662399351596832,0.2361440658569336
1761379831482348500,0.4413486328125,1.061370611190796,0.3206639289855957,0.14665864408016205
1761379831492431400,0.451431396484375,1.0215052366256714,0.17545852065086365,-0.0018144394271075726
1761379831502514700,0.4615146484375,0.9244527220726013,-0.05266571789979935,-0.19739432632923126
1761379831512597500,0.471597412109375,0.803187370300293,-0.18272259831428528,-0.3720153868198395
1761379831522680600,0.4816806640625,0.7277016639709473,-0.14194586873054504,-0.4626523554325104
1761379831532763400,0.491763427734375,0.6936846971511841,-0.011333486996591091,-0.4499965310096741
1761379831542846500,0.501846435546875,0.6814152598381042,0.15538066625595093,-0.3278181552886963
1761379831552929300,0.51192919921875,0.700163722038269,0.31052660942077637,-0.14436493813991547
1761379831563012600,0.5220126953125,0.7472513318061829,0.4373929500579834,0.016018087044358253
1761379831573095700,0.532095703125,0.8123180270195007,0.5602681040763855,0.12366418540477753
1761379831583178500,0.542178466796875,0.8924235701560974,0.6846071481704712,0.1869792342185974
1761379831593261600,0.552261474609375,0.9692326784133911,0.8000206351280212,0.2082948386669159
1761379831603344400,0.562344482421875,1.0416975021362305,0.8967735171318054,0.1948128640651703
1761379831613427500,0.572427490234375,1.1215344667434692,0.9202262759208679,0.13857947289943695
1761379831623510500,0.582510498046875,1.193860650062561,0.8509811758995056,0.07326971739530563
1761379831633593600,0.592593505859375,1.2279726266860962,0.697877049446106,0.02059711515903473
1761379831643676400,0.602676513671875,1.2445484399795532,0.5116027593612671,0.012101898901164532
1761379831653759500,0.612759521484375,1.2572957277297974,0.34562668204307556,0.04292592033743858
1761379831663842600,0.622842529296875,1.271284580230713,0.20762699842453003,0.10436931252479553
1761379831673925400,0.63292529296875,1.2724295854568481,0.08319799602031708,0.18012019991874695
1761379831684008700,0.6430087890625,1.2391108274459839,-0.03922112658619881,0.2528330087661743
1761379831694091500,0.653091552734375,1.168925404548645,-0.12392956763505936,0.29114484786987305
1761379831704174600,0.663174560546875,1.0924034118652344,-0.1511838138103485,0.27610039710998535
1761379831714257400,0.67325732421875,1.0154013633728027,-0.10220249742269516,0.21036897599697113
1761379831724340500,0.683340576171875,0.9431011080741882,0.002363591454923153,0.10941706597805023
1761379831734423300,0.69342333984375,0.8808441162109375,0.15199176967144012,0.010026026517152786
1761379831744506600,0.703506591796875,0.843978762626648,0.32636892795562744,-0.07650060951709747
1761379831754589400,0.71358935546875,0.8379348516464233,0.5059785842895508,-0.15633665025234222
1761379831764672500,0.723672607421875,0.8590108752250671,0.6561449766159058,-0.23067238926887512
1761379831774755600,0.733755615234375,0.8949045538902283,0.7686886787414551,-0.2878112494945526
1761379831784838400,0.74383837890625,0.9301613569259644,0.8051159381866455,-0.3218216896057129
1761379831794921500,0.75392138671875,0.9555898904800415,0.7791532874107361,-0.32290059328079224
1761379831805004500,0.764004638671875,0.9797865748405457,0.6932852268218994,-0.30125096440315247
1761379831815087600,0.774087646484375,1.0003783702850342,0.5659900307655334,-0.255334734916687
1761379831825170400,0.78417041015625,1.011055588722229,0.42665448784828186,-0.18827661871910095
1761379831835253500,0.79425341796875,1.000341773033142,0.28294485807418823,-0.12824305891990662
1761379831845336300,0.80433642578125,0.9960362315177917,0.17175176739692688,-0.08558028191328049
1761379831855419400,0.81441943359375,0.9981465339660645,0.11886598914861679,-0.06072819605469704
1761379831865502700,0.824502685546875,1.000224232673645,0.1189970150589943,-0.04401499405503273
1761379831875585500,0.83458544921875,1.0013781785964966,0.1541031301021576,-0.034543778747320175
1761379831885668600,0.844668701171875,0.9950882792472839,0.19888097047805786,-0.01970890909433365
1761379831895751400,0.85475146484375,0.991752028465271,0.25649014115333557,-0.008463500067591667
1761379831905834500,0.86483447265625,0.9792553782463074,0.3141494691371918,0.01727328822016716
1761379831915917300,0.874917236328125,0.9566212892532349,0.3628346920013428,0.048313822597265244
1761379831926000600,0.885000732421875,0.9234297871589661,0.394578218460083,0.0875387191772461
1761379831936083500,0.89508349609375,0.8914153575897217,0.40316474437713623,0.12415184080600739
1761379831946166500,0.90516650390625,0.8553417921066284,0.4040009677410126,0.15179011225700378
1761379831956249600,0.91524951171875,0.8135703802108765,0.385139137506485,0.17489446699619293
1761379831966332400,0.92533251953125,0.767132043838501,0.34710440039634705,0.1835113912820816
1761379831976415500,0.93541552734375,0.7151349186897278,0.3116181194782257,0.1849290132522583
1761379831986498600,0.94549853515625,0.6552870273590088,0.2575705945491791,0.1743336319923401
1761379831996581600,0.95558154296875,0.5795978307723999,0.19526194036006927,0.18404707312583923
1761379832006664400,0.96566455078125,0.5061689019203186,0.14189139008522034,0.1935494989156723
1761379832016747500,0.97574755859375,0.4468248188495636,0.09708328545093536,0.18421338498592377
1761379832026830300,0.985830322265625,0.4067471921443939,0.072172611951828,0.16936811804771423
1761379832036913400,0.995913330078125,0.3488210439682007,0.0690312311053276,0.15829402208328247
1761379832046996500,1.00599658203125,0.2849445939064026,0.09808818250894547,0.15292854607105255
1761379832057079600,1.01607958984375,0.24060533940792084,0.1713055968284607,0.15334787964820862
1761379832067162600,1.02616259765625,0.21975544095039368,0.2768695652484894,0.1504972279071808
1761379832077245400,1.036245361328125,0.21620316803455353,0.39473599195480347,0.1452198028564453
1761379832087328500,1.04632861328125,0.2298651784658432,0.4166492819786072,0.10698187351226807
1761379832097411300,1.056411376953125,0.22738270461559296,0.3253307640552521,0.012674527242779732
1761379832107494700,1.06649462890625,0.22097167372703552,0.22530803084373474,-0.09689883887767792
1761379832117577500,1.076577392578125,0.20351450145244598,0.11737939715385437,-0.20732317864894867
1761379832127660500,1.08666064453125,0.16806118190288544,0.045613594353199005,-0.3080125153064728
1761379832137743400,1.096743408203125,0.12585802376270294,-0.011915556155145168,-0.4143526554107666
1761379832147826400,1.106826416015625,0.10366350412368774,-0.03024768829345703,-0.5122107863426208
1761379832157909500,1.116909423828125,0.1046028807759285,0.05620106682181358,-0.5749726295471191
1761379832167992600,1.12699267578125,0.1298978626728058,0.23065195977687836,-0.5930046439170837
1761379832178075600,1.13707568359375,0.17372703552246094,0.45249828696250916,-0.5484448671340942
1761379832188158500,1.147158447265625,0.24244645237922668,0.6686961054801941,-0.4624543786048889
1761379832198241500,1.157241455078125,0.33042868971824646,0.8401797413825989,-0.3727363049983978
1761379832208324400,1.167324462890625,0.4278772175312042,0.9328558444976807,-0.28607118129730225
1761379832218407400,1.177407470703125,0.51047283411026,0.9228310585021973,-0.1987622082233429
1761379832228490500,1.187490478515625,0.5683091878890991,0.8274670243263245,-0.10178560018539429
1761379832238573600,1.197573486328125,0.6084600687026978,0.6768112182617188,-0.004850971978157759
1761379832248656400,1.207656494140625,0.6242496967315674,0.4893108010292053,0.11272066086530685
1761379832258739500,1.217739501953125,0.5915592908859253,0.2899295687675476,0.24254053831100464
1761379832268822500,1.227822509765625,0.5125526189804077,0.11967313289642334,0.3891923129558563
1761379832278905300,1.2379052734375,0.40696805715560913,-0.020307639613747597,0.5154849886894226
1761379832288988700,1.24798876953125,0.3035905361175537,-0.12220097333192825,0.5664733052253723
1761379832299071500,1.258071533203125,0.212309792637825,-0.18779905140399933,0.5342474579811096
1761379832309154600,1.268154541015625,0.09696190804243088,-0.26336386799812317,0.4005373418331146
1761379832319237400,1.2782373046875,-0.041784003376960754,-0.3337589204311371,0.16716016829013824
1761379832329320400,1.288320556640625,-0.16490086913108826,-0.33288219571113586,-0.1074863001704216
1761379832339403300,1.2984033203125,-0.2655355930328369,-0.23687152564525604,-0.3339526355266571
1761379832349486600,1.308486572265625,-0.3372015357017517,-0.060108732432127,-0.45463964343070984
1761379832359569700,1.318569580078125,-0.3629673719406128,0.19612351059913635,-0.44066891074180603
1761379832369647600,1.328647705078125,-0.3219134211540222,0.4849204123020172,-0.31776589155197144
1761379832379730400,1.33873046875,-0.24607005715370178,0.7184174060821533,-0.13975413143634796
1761379832389813800,1.348813720703125,-0.17692241072654724,0.8159908652305603,0.03590743988752365
1761379832399896600,1.358896484375,-0.1171673834323883,0.8111588358879089,0.16838338971138
1761379832409979600,1.368979736328125,-0.0683407261967659,0.7356806397438049,0.24769392609596252
1761379832420062500,1.3790625,-0.06982292979955673,0.6350241303443909,0.2783200442790985
1761379832430145500,1.3891455078125,-0.10230790823698044,0.5068719983100891,0.2731868028640747
1761379832440228400,1.399228271484375,-0.1527995616197586,0.363120973110199,0.25149959325790405
1761379832450311700,1.409311767578125,-0.1914798468351364,0.22563791275024414,0.2148025780916214
1761379832460394500,1.41939453125,-0.22398018836975098,0.13575825095176697,0.1670585423707962
1761379832470477600,1.4294775390625,-0.2672051787376404,0.10611674189567566,0.11406029760837555
1761379832480560600,1.439560546875,-0.3158576786518097,0.10209022462368011,0.04709242284297943
1761379832490643500,1.4496435546875,-0.3625071942806244,0.09449222683906555,-0.025639304891228676
1761379832500726500,1.4597265625,-0.3865968883037567,0.10172601044178009,-0.09109736979007721
1761379832510809600,1.4698095703125,-0.3754265308380127,0.1338014006614685,-0.12498237192630768
1761379832520892700,1.479892578125,-0.35388410091400146,0.1458626240491867,-0.14544358849525452
1761379832530975500,1.4899755859375,-0.3288778066635132,0.13924306631088257,-0.1475381702184677
1761379832541058600,1.50005859375,-0.298927903175354,0.12116260081529617,-0.1274345964193344
1761379832551141400,1.510141357421875,-0.27094870805740356,0.10860180854797363,-0.07783854752779007
1761379832561224400,1.520224365234375,-0.23457708954811096,0.12231636792421341,-0.006526964250952005
1761379832571307800,1.530307861328125,-0.19152921438217163,0.139450341463089,0.08040500432252884
1761379832581390600,1.540390625,-0.1352551132440567,0.15550559759140015,0.1664876490831375
1761379832591473700,1.5504736328125,-0.07556168735027313,0.13302531838417053,0.22851532697677612
1761379832601556500,1.560556396484375,-0.02568286657333374,0.08753463625907898,0.25792205333709717
1761379832611639600,1.5706396484375,0.011551854200661182,0.02807902917265892,0.2744983732700348
1761379832621722600,1.58072265625,0.03657756745815277,-0.016590697690844536,0.28577545285224915
1761379832631805700,1.5908056640625,0.05638536438345909,-0.03579981252551079,0.3030817210674286
1761379832641888500,1.600888427734375,0.0790209099650383,-0.03745514899492264,0.3196931481361389
1761379832651971600,1.6109716796875,0.1016194298863411,-0.03049124777317047,0.34098300337791443
1761379832662054700,1.6210546875,0.13328857719898224,-0.009504706598818302,0.3749070465564728
1761379832672137500,1.631137451171875,0.17109933495521545,0.02158397063612938,0.4137721657752991
1761379832682220800,1.641220703125,0.1991037130355835,0.04806496948003769,0.452675461769104
1761379832692303600,1.6513037109375,0.21702386438846588,0.05259500443935394,0.47665244340896606
1761379832702386700,1.66138671875,0.23152890801429749,0.040837362408638,0.48374730348587036
1761379832712469500,1.671469482421875,0.23113742470741272,0.04668326675891876,0.4771098792552948
1761379832722552600,1.681552490234375,0.22103554010391235,0.11926274001598358,0.47558870911598206
1761379832732635400,1.691635498046875,0.21265457570552826,0.15501488745212555,0.43006250262260437
1761379832742718700,1.70171875,0.2268057018518448,0.10876034200191498,0.32451319694519043
1761379832752801500,1.711801513671875,0.21047785878181458,0.045317187905311584,0.19974036514759064
1761379832762884600,1.721884521484375,0.16244958341121674,-0.032439738512039185,0.05363399535417557
1761379832772967700,1.7319677734375,0.08542831242084503,-0.05593547970056534,-0.10582464188337326
1761379832783050500,1.742050537109375,-0.011207741685211658,-0.03830595314502716,-0.2662135064601898
1761379832793133600,1.752133544921875,-0.11963674426078796,-0.03829130530357361,-0.4316996932029724
1761379832803216600,1.762216552734375,-0.21167367696762085,-0.004879480227828026,-0.5272345542907715
1761379832813299700,1.7722998046875,-0.27176952362060547,0.06968183815479279,-0.5093572735786438
1761379832823382500,1.782382568359375,-0.2985171675682068,0.17695198953151703,-0.38209301233291626
1761379832833465600,1.792465576171875,-0.2885977029800415,0.3180238902568817,-0.16885344684123993
1761379832843548400,1.80254833984375,-0.25816240906715393,0.44653263688087463,0.06209510564804077
1761379832853631500,1.812631591796875,-0.2170083075761795,0.5122882127761841,0.2509310841560364
1761379832863714800,1.82271484375,-0.16701006889343262,0.5119156837463379,0.39679455757141113
1761379832873797600,1.832797607421875,-0.1250503659248352,0.47427886724472046,0.5283759832382202
1761379832883880700,1.842880615234375,-0.10166742652654648,0.4208119511604309,0.6540509462356567
1761379832893963500,1.852963623046875,-0.08872339874505997,0.34149742126464844,0.7563648223876953
1761379832904046600,1.863046630859375,-0.07811832427978516,0.2505609095096588,0.8490506410598755
1761379832914129400,1.87312939453125,-0.0808163732290268,0.13652782142162323,0.9275587797164917
1761379832924212700,1.883212646484375,-0.09888108819723129,-0.004102461040019989,0.9749607443809509
1761379832934295600,1.893295654296875,-0.1475258618593216,-0.17158305644989014,0.9938390851020813
1761379832944378600,1.903378662109375,-0.22243602573871613,-0.4241470694541931,0.9860151410102844
1761379832954461700,1.913461669921875,-0.3251919448375702,-0.6670079231262207,0.9570044875144958
1761379832964544500,1.92354443359375,-0.45730483531951904,-0.8710780739784241,0.901573121547699
1761379832974627600,1.933627685546875,-0.6170880794525146,-1.0084102153778076,0.8276392817497253
1761379832984710700,1.943710693359375,-0.7882418632507324,-1.058491826057434,0.73374342918396
1761379832994793700,1.953793701171875,-0.9647292494773865,-1.0395832061767578,0.6186546683311462
1761379833004876500,1.96387646484375,-1.0934319496154785,-0.9335266351699829,0.5171715617179871
1761379833014959600,1.973959716796875,-1.1650270223617554,-0.7541834712028503,0.43750739097595215
1761379833025042400,1.98404248046875,-1.1968690156936646,-0.5432668328285217,0.3789600431919098
1761379833035125500,1.99412548828125,-1.2130495309829712,-0.34234386682510376,0.31419089436531067
1761379833045208600,2.00420849609375,-1.2167590856552124,-0.19088035821914673,0.2430737465620041
1761379833055291600,2.014291748046875,-1.2205055952072144,-0.08998943120241165,0.16475844383239746
1761379833065374700,2.024374755859375,-1.2161509990692139,-0.04561534523963928,0.09700130671262741
1761379833075457500,2.03445751953125,-1.2220370769500732,-0.08208067715167999,0.01780209317803383
1761379833085540600,2.04454052734375,-1.2366821765899658,-0.1806025356054306,-0.03718537464737892
1761379833095623400,2.05462353515625,-1.2623834609985352,-0.3515319228172302,-0.057182252407073975
1761379833105706800,2.064706787109375,-1.2785612344741821,-0.5305653214454651,-0.028948916122317314
1761379833115789600,2.07478955078125,-1.2633663415908813,-0.6749083399772644,0.03726578876376152
1761379833125872600,2.08487255859375,-1.2434008121490479,-0.7918236255645752,0.10928153991699219
1761379833135955500,2.09495556640625,-1.2478424310684204,-0.8793332576751709,0.16823752224445343
1761379833146038500,2.10503857421875,-1.2698240280151367,-0.9783957600593567,0.1915573626756668
1761379833156121600,2.11512158203125,-1.295881986618042,-1.0686365365982056,0.1792367845773697
1761379833166204700,2.12520458984375,-1.3289552927017212,-1.1328577995300293,0.15656039118766785
1761379833176287700,2.135287841796875,-1.3865711688995361,-1.1933406591415405,0.11908838897943497
1761379833186370600,2.14537060546875,-1.454786777496338,-1.246681809425354,0.07185098528862
1761379833196453600,2.15545361328125,-1.535522699356079,-1.2832884788513184,0.016161087900400162
1761379833206536400,2.165536376953125,-1.6219288110733032,-1.2912968397140503,-0.04077700525522232
1761379833216619500,2.17561962890625,-1.7061400413513184,-1.2696071863174438,-0.11222855001688004
1761379833226702600,2.18570263671875,-1.7646279335021973,-1.2260645627975464,-0.1824999898672104
1761379833236785700,2.19578564453125,-1.807827353477478,-1.1773953437805176,-0.25010114908218384
1761379833246868700,2.20586865234375,-1.8349109888076782,-1.1301261186599731,-0.2895711660385132
1761379833256951600,2.21595166015625,-1.8438762426376343,-1.084395408630371,-0.2714637815952301
1761379833267034600,2.22603466796875,-1.8395906686782837,-1.0255403518676758,-0.19366025924682617
1761379833277117400,2.236117431640625,-1.8268951177597046,-0.967909038066864,-0.08021732419729233
1761379833287200800,2.24620068359375,-1.8230335712432861,-0.9383473992347717,0.03941852226853371
1761379833297283600,2.25628369140625,-1.8289947509765625,-0.9449997544288635,0.12834998965263367
1761379833307366700,2.26636669921875,-1.8392449617385864,-0.9858392477035522,0.17189918458461761
1761379833317449500,2.276449462890625,-1.8557634353637695,-1.0214979648590088,0.1957682967185974
1761379833327532500,2.286532470703125,-1.8650914430618286,-1.0484246015548706,0.21255411207675934
1761379833337615600,2.29661572265625,-1.8816837072372437,-1.0689260959625244,0.2332250326871872
1761379833347698700,2.30669873046875,-1.90120530128479,-1.09489107131958,0.25261929631233215
1761379833357781800,2.31678173828125,-1.9229401350021362,-1.12681245803833,0.27270007133483887
1761379833367864300,2.3268642578125,-1.9571607112884521,-1.181785225868225,0.2722923159599304
1761379833377947600,2.33694775390625,-1.990883708000183,-1.258472204208374,0.24664634466171265
1761379833388030500,2.347030517578125,-2.03230357170105,-1.314695954322815,0.21712027490139008
1761379833398113500,2.357113525390625,-2.0732228755950928,-1.3346701860427856,0.1996704488992691
1761379833408196400,2.3671962890625,-2.11100697517395,-1.3196765184402466,0.18761317431926727
1761379833418279400,2.377279541015625,-2.139125347137451,-1.2779439687728882,0.18467970192432404
1761379833428362500,2.387362548828125,-2.1570756435394287,-1.1953530311584473,0.1839349865913391
1761379833438445600,2.397445556640625,-2.1452791690826416,-1.07492196559906,0.20710554718971252
1761379833448528600,2.407528564453125,-2.113781690597534,-0.941587507724762,0.2389758825302124
1761379833458611500,2.417611572265625,-2.080711603164673,-0.8920239806175232,0.2588241696357727
1761379833468694500,2.427694580078125,-2.0585875511169434,-0.961965024471283,0.22734718024730682
1761379833478777300,2.43777734375,-2.0601818561553955,-1.1097584962844849,0.1518111377954483
1761379833488860400,2.4478603515625,-2.087221622467041,-1.2620259523391724,0.04858167842030525
1761379833498943500,2.457943603515625,-2.1294445991516113,-1.3834221363067627,-0.06012536212801933
1761379833509026600,2.468026611328125,-2.187225341796875,-1.4495816230773926,-0.1743089109659195
1761379833519109400,2.478109375,-2.2532594203948975,-1.4737281799316406,-0.29261183738708496
1761379833529192400,2.4881923828125,-2.3064730167388916,-1.3853282928466797,-0.41537320613861084
1761379833539275500,2.498275634765625,-2.314288854598999,-1.1751779317855835,-0.5105857253074646
1761379833549358300,2.5083583984375,-2.274167537689209,-0.9124760031700134,-0.5582101941108704
1761379833559441700,2.518441650390625,-2.188628673553467,-0.6077027916908264,-0.5343584418296814
1761379833569524500,2.5285244140625,-2.0585267543792725,-0.34327808022499084,-0.47276073694229126
1761379833579607600,2.538607666015625,-1.922099232673645,-0.19251012802124023,-0.40384986996650696
1761379833589690400,2.5486904296875,-1.788589596748352,-0.1664898693561554,-0.33482813835144043
1761379833599773400,2.5587734375,-1.6729557514190674,-0.22029025852680206,-0.2306482195854187
1761379833609856300,2.568856201171875,-1.5847669839859009,-0.31590384244918823,-0.08873137831687927
1761379833619939600,2.578939697265625,-1.509758472442627,-0.4337868094444275,0.0730692446231842
1761379833630022400,2.5890224609375,-1.4292546510696411,-0.5853738784790039,0.19995318353176117
1761379833640105500,2.59910546875,-1.3725231885910034,-0.7248300313949585,0.30465349555015564
1761379833650188500,2.6091884765625,-1.3468133211135864,-0.83840012550354,0.37352848052978516
1761379833660271400,2.619271240234375,-1.3606414794921875,-0.9218220710754395,0.39351069927215576
1761379833670354400,2.6293544921875,-1.4049031734466553,-0.9727331399917603,0.3688323497772217
1761379833680437500,2.6394375,-1.4737699031829834,-0.9602088332176208,0.31748634576797485
1761379833690520600,2.6495205078125,-1.5570024251937866,-0.8734537959098816,0.24970780313014984
1761379833700603400,2.659603271484375,-1.6424682140350342,-0.7237977385520935,0.17063933610916138
1761379833710686500,2.6696865234375,-1.713647484779358,-0.5508895516395569,0.09298735857009888
1761379833720769300,2.679769287109375,-1.7649199962615967,-0.39981400966644287,0.024176066741347313
1761379833730852400,2.689852294921875,-1.8078876733779907,-0.3192063868045807,-0.04371195286512375
1761379833740935700,2.699935791015625,-1.854962706565857,-0.2993927597999573,-0.08489907532930374
1761379833751018500,2.7100185546875,-1.9005544185638428,-0.31140270829200745,-0.08191754668951035
1761379833761101600,2.7201015625,-1.9475491046905518,-0.358770489692688,-0.04044067859649658
1761379833771184400,2.730184326171875,-1.9935499429702759,-0.42569446563720703,0.027212025597691536
1761379833781267500,2.740267333984375,-2.0201053619384766,-0.4816751778125763,0.09687632322311401
1761379833791350300,2.750350341796875,-2.0395455360412598,-0.5292760133743286,0.14687468111515045
1761379833801433600,2.76043359375,-2.0567257404327393,-0.5526812076568604,0.18601170182228088
1761379833811516400,2.770516357421875,-2.0671072006225586,-0.560935378074646,0.19383597373962402
1761379833821599500,2.780599609375,-2.075531482696533,-0.5626975893974304,0.19197548925876617
1761379833831682600,2.7906826171875,-2.0779361724853516,-0.5499765872955322,0.17858658730983734
1761379833841765400,2.800765380859375,-2.077706813812256,-0.5292670726776123,0.1627921760082245
1761379833851848400,2.810848388671875,-2.0650222301483154,-0.4940726161003113,0.15680910646915436
1761379833861931500,2.820931640625,-2.046586036682129,-0.4442576467990875,0.16501484811306
1761379833872014600,2.8310146484375,-2.02543044090271,-0.38187047839164734,0.18758618831634521
1761379833882097400,2.841097412109375,-1.9997825622558594,-0.3245890736579895,0.21821893751621246
1761379833892180500,2.851180419921875,-1.94833505153656,-0.26926419138908386,0.25439712405204773
1761379833902263300,2.86126318359375,-1.8869986534118652,-0.23757337033748627,0.29661381244659424
1761379833912346400,2.871346435546875,-1.8172528743743896,-0.23934556543827057,0.33506494760513306
1761379833922429400,2.881429443359375,-1.7478876113891602,-0.2694464921951294,0.38060978055000305
1761379833932512500,2.891512451171875,-1.677114725112915,-0.30735883116722107,0.4474870562553406
1761379833942595600,2.901595703125,-1.6133027076721191,-0.3394421935081482,0.529112696647644
1761379833952678400,2.911678466796875,-1.5481691360473633,-0.39474380016326904,0.6190862059593201
1761379833962761500,2.921761474609375,-1.4905359745025635,-0.4561501443386078,0.6910094022750854
1761379833972844300,2.93184423828125,-1.4298417568206787,-0.5022057294845581,0.7311998605728149
1761379833982927600,2.941927734375,-1.3563427925109863,-0.5237027406692505,0.7390239238739014
1761379833993010400,2.952010498046875,-1.2888996601104736,-0.5133291482925415,0.7231569290161133
1761379834003093500,2.962093505859375,-1.2302722930908203,-0.5024223923683167,0.6902146935462952
1761379834013176300,2.97217626953125,-1.1767657995224,-0.4768345355987549,0.6547893285751343
1761379834023259400,2.98225927734375,-1.1310867071151733,-0.4385462999343872,0.6156991720199585
1761379834033342500,2.992342529296875,-1.0846340656280518,-0.40516701340675354,0.5751190781593323
1761379834043425500,3.002425537109375,-1.0298436880111694,-0.37736016511917114,0.540762722492218
1761379834053508600,3.012508544921875,-0.9677773714065552,-0.35901960730552673,0.5124884247779846
1761379834063591400,3.02259130859375,-0.8992869853973389,-0.32352206110954285,0.4937874376773834
1761379834073674500,3.032674560546875,-0.8046349883079529,-0.26483333110809326,0.49151042103767395
1761379834083757300,3.04275732421875,-0.6952552199363708,-0.21228355169296265,0.49801623821258545
1761379834093840400,3.05284033203125,-0.586057186126709,-0.2125992774963379,0.4892674386501312
1761379834103923500,3.06292333984375,-0.4871053099632263,-0.2714410126209259,0.4623183608055115
1761379834114006500,3.073006591796875,-0.4124418795108795,-0.3980783522129059,0.4103161692619324
1761379834124089600,3.083089599609375,-0.3839505910873413,-0.6015095114707947,0.33434736728668213
1761379834134172400,3.09317236328125,-0.4023357927799225,-0.8221064805984497,0.24081432819366455
1761379834144255500,3.10325537109375,-0.4394647777080536,-0.9903866052627563,0.1503768414258957
1761379834154338300,3.11333837890625,-0.4922843277454376,-1.0732316970825195,0.09463022649288177
1761379834164421600,3.123421630859375,-0.5527170300483704,-1.0479212999343872,0.0802592784166336
1761379834174504400,3.13350439453125,-0.564643144607544,-0.9294649958610535,0.10145755857229233
1761379834184587500,3.14358740234375,-0.5015184879302979,-0.7318195700645447,0.14792385697364807
1761379834194670300,3.15367041015625,-0.3941691815853119,-0.5411362648010254,0.18276934325695038
1761379834204753400,3.16375341796875,-0.2796902656555176,-0.4340098202228546,0.16034924983978271
1761379834214836500,3.17383642578125,-0.17530755698680878,-0.413094162940979,0.08862410485744476
1761379834224920600,3.183920654296875,-0.10463792085647583,-0.41878214478492737,0.03746051713824272
1761379834235003400,3.19400341796875,-0.08172476291656494,-0.43245840072631836,0.05071866512298584
1761379834245086500,3.20408642578125,-0.08997337520122528,-0.44152647256851196,0.11258868873119354
1761379834255169300,3.214169189453125,-0.08765491843223572,-0.4308502972126007,0.19142131507396698
1761379834265252400,3.22425244140625,-0.06320922076702118,-0.4106113314628601,0.26061874628067017
1761379834275335400,3.23433544921875,-0.011352308094501495,-0.37595582008361816,0.3032362759113312
1761379834285418500,3.24441845703125,0.04729875549674034,-0.3096678853034973,0.31659603118896484
1761379834295501600,3.25450146484375,0.09974651038646698,-0.26662108302116394,0.3028109669685364
1761379834305584400,3.26458447265625,0.12186700105667114,-0.2681422531604767,0.2669810652732849
1761379834315667500,3.27466748046875,0.11492590606212616,-0.3352331221103668,0.21006746590137482
1761379834325750300,3.284750244140625,0.08839549869298935,-0.4827677309513092,0.1293121725320816
1761379834335833600,3.29483349609375,0.03653692081570625,-0.656611442565918,0.03999586030840874
1761379834345916400,3.30491650390625,-0.011684936471283436,-0.7922747135162354,-0.017000578343868256
1761379834355999500,3.31499951171875,-0.05654996633529663,-0.8650815486907959,-0.0226035974919796
1761379834366082300,3.325082275390625,-0.09855760633945465,-0.8785483241081238,0.00014512520283460617
1761379834376165000,3.3351650390625,-0.11861412972211838,-0.8001204133033752,0.04192035272717476
1761379834386248200,3.345248291015625,-0.12225120514631271,-0.6354446411132812,0.08948361873626709
1761379834396331000,3.3553310546875,-0.11754799634218216,-0.42830193042755127,0.14079096913337708
1761379834406414000,3.3654140625,-0.11447417736053467,-0.24223193526268005,0.16824230551719666
1761379834416497200,3.3754970703125,-0.12290553748607635,-0.10817752778530121,0.16339506208896637
1761379834426580200,3.385580322265625,-0.14453811943531036,-0.03133548051118851,0.1385568231344223
1761379834436663000,3.3956630859375,-0.17696607112884521,0.014486059546470642,0.09469935297966003
1761379834446746000,3.40574609375,-0.2159121334552765,0.05393519625067711,0.03390604257583618
1761379834456829200,3.4158291015625,-0.24862542748451233,0.0865665003657341,-0.028283167630434036
1761379834466912000,3.425912109375,-0.28331097960472107,0.11962272226810455,-0.08968553692102432
1761379834476995300,3.435995361328125,-0.2944432497024536,0.16202618181705475,-0.1396431177854538
1761379834487078100,3.446078125,-0.2991655766963959,0.22406291961669922,-0.15697337687015533
1761379834497161200,3.4561611328125,-0.28974854946136475,0.294288694858551,-0.14688122272491455
1761379834507244000,3.466244140625,-0.2712656855583191,0.3580913543701172,-0.13578277826309204
1761379834517327000,3.4763271484375,-0.2456425577402115,0.39720243215560913,-0.12231546640396118
1761379834527410000,3.486409912109375,-0.2197779417037964,0.41296622157096863,-0.12480685114860535
1761379834537493200,3.4964931640625,-0.19440148770809174,0.420224666595459,-0.12197884172201157
1761379834547576000,3.506576171875,-0.17318780720233917,0.4225653111934662,-0.11042232066392899
1761379834557659100,3.5166591796875,-0.1530468761920929,0.4238302409648895,-0.09172455966472626
1761379834567742200,3.5267421875,-0.13268060982227325,0.42564812302589417,-0.0777011513710022
1761379834577825000,3.536824951171875,-0.10959598422050476,0.41764917969703674,-0.07934906333684921
1761379834587908000,3.546908203125,-0.07402494549751282,0.40116024017333984,-0.10301737487316132
1761379834597991200,3.5569912109375,-0.03525635600090027,0.3708537518978119,-0.1331663876771927
1761379834608074200,3.56707421875,0.00993029959499836,0.32649800181388855,-0.15036721527576447
1761379834618157000,3.577156982421875,0.04781012609601021,0.2769380509853363,-0.14699764549732208
1761379834628240100,3.587240234375,0.07873103022575378,0.24365894496440887,-0.12088455259799957
1761379834638323000,3.597322998046875,0.11162575334310532,0.19965246319770813,-0.08402317017316818
1761379834648406000,3.607406005859375,0.13449245691299438,0.16359539330005646,-0.049779973924160004
1761379834658489300,3.6174892578125,0.16196084022521973,0.11753255873918533,-0.03454243391752243
1761379834668572200,3.627572265625,0.19255656003952026,0.07879794389009476,-0.027954837307333946
1761379834678655200,3.6376552734375,0.2319367676973343,0.05534355714917183,-0.031110215932130814
1761379834688738000,3.647738037109375,0.26682230830192566,0.04772531986236572,-0.022265858948230743
1761379834698821000,3.657821044921875,0.3048937916755676,0.06308642774820328,-0.004504350479692221
1761379834708904000,3.667904052734375,0.35009750723838806,0.08960112929344177,0.022773077711462975
1761379834718987300,3.6779873046875,0.3999475836753845,0.11973738670349121,0.04857420176267624
1761379834729070000,3.688070068359375,0.4455225169658661,0.12344929575920105,0.07080573588609695
1761379834739153200,3.698153076171875,0.48912283778190613,0.11288948357105255,0.09251934289932251
1761379834749236200,3.708236328125,0.533035933971405,0.09952520579099655,0.12152835726737976
1761379834759319000,3.718319091796875,0.575210452079773,0.06805679947137833,0.15673162043094635
1761379834769402000,3.728402099609375,0.6097303628921509,0.022183585911989212,0.18644531071186066
1761379834779485200,3.738485107421875,0.6434985399246216,-0.030625447630882263,0.20183531939983368
1761379834789568300,3.748568359375,0.6872274279594421,-0.06716561317443848,0.21978555619716644
1761379834799651000,3.758651123046875,0.7285669445991516,-0.09990715980529785,0.2549215853214264
1761379834809734100,3.768734130859375,0.776730477809906,-0.11088897287845612,0.30158868432044983
1761379834819817000,3.77881689453125,0.8274503946304321,-0.10825111716985703,0.3541048765182495
1761379834829900000,3.788900146484375,0.8669488430023193,-0.0934588611125946,0.4208037555217743
1761379834839983000,3.798983154296875,0.8978536128997803,-0.01208124216645956,0.48678267002105713
1761379834850066200,3.809066162109375,0.9151790738105774,0.05853966251015663,0.49825581908226013
1761379834860149200,3.819149169921875,0.9260364770889282,0.07119431346654892,0.43003588914871216
1761379834870232000,3.829232177734375,0.9492357969284058,0.04935639351606369,0.2902612090110779
1761379834880315100,3.839315185546875,0.9587176442146301,-0.0107788210734725,0.12279072403907776
1761379834890398000,3.84939794921875,0.9308887124061584,-0.08886004239320755,-0.07981991022825241
1761379834900481300,3.859481201171875,0.8800289034843445,-0.16867512464523315,-0.3161582052707672
1761379834910564000,3.869564208984375,0.8189125657081604,-0.1801975667476654,-0.5361360907554626
1761379834920647200,3.879647216796875,0.7793957591056824,-0.12064075469970703,-0.7025613188743591
1761379834930730000,3.88972998046875,0.7765291333198547,-0.011514272540807724,-0.7929244637489319
1761379834940813000,3.89981298828125,0.795707643032074,0.14818201959133148,-0.7757028341293335
1761379834950896000,3.909896240234375,0.8801090717315674,0.3528219759464264,-0.6509659886360168
1761379834960979200,3.919979248046875,1.0053311586380005,0.542568564414978,-0.4629930257797241
1761379834971062300,3.930062255859375,1.1433689594268799,0.6669442653656006,-0.28731226921081543
1761379834981145000,3.94014501953125,1.282225489616394,0.7170330882072449,-0.1302158534526825
1761379834991228200,3.950228271484375,1.3934756517410278,0.7172613143920898,0.034551527351140976
1761379835001311000,3.96031103515625,1.4798582792282104,0.6686915159225464,0.21663862466812134
1761379835011394000,3.97039404296875,1.5359749794006348,0.571217954158783,0.39051029086112976
1761379835021477000,3.98047705078125,1.5726970434188843,0.43898439407348633,0.5423114895820618
1761379835031560200,3.990560302734375,1.5932793617248535,0.3142317831516266,0.6580101251602173
1761379835041643300,4.000643310546875,1.6019470691680908,0.2042027711868286,0.7412651777267456
1761379835051726000,4.01072607421875,1.5845837593078613,0.12924623489379883,0.7969990372657776
1761379835061809200,4.02080908203125,1.558584451675415,0.0755937397480011,0.808784008026123
1761379835071892000,4.03089208984375,1.514430046081543,0.027807043865323067,0.7712113261222839
1761379835081975300,4.040975341796875,1.4446772336959839,-0.014143083244562149,0.6824522018432617
1761379835092058000,4.05105810546875,1.3474587202072144,-0.05963386967778206,0.5489844083786011
1761379835102141200,4.06114111328125,1.2429389953613281,-0.087750643491745,0.38723814487457275
1761379835112224000,4.07122412109375,1.1385360956192017,-0.06867947429418564,0.23476232588291168
1761379835122307000,4.08130712890625,1.0547555685043335,0.009102027863264084,0.10609611123800278
1761379835132390100,4.09139013671875,0.9899480938911438,0.17163527011871338,0.00850936584174633
1761379835142473200,4.10147314453125,0.9376369118690491,0.43144848942756653,-0.036484379321336746
1761379835152556300,4.111556396484375,0.9167129397392273,0.7495455145835876,-0.03420791029930115
1761379835162639000,4.12163916015625,0.9250166416168213,1.0633916854858398,-0.02233453094959259
1761379835172722200,4.13172216796875,0.9714483022689819,1.3499068021774292,-0.02618066780269146
1761379835182805000,4.141804931640625,1.0537694692611694,1.5407699346542358,-0.084345243871212
1761379835192888000,4.15188818359375,1.1432855129241943,1.6298255920410156,-0.14632046222686768
1761379835202971100,4.16197119140625,1.2255117893218994,1.6370368003845215,-0.2001551240682602
1761379835213054200,4.17205419921875,1.2980825901031494,1.5864410400390625,-0.22216321527957916
1761379835223137000,4.182136962890625,1.3701815605163574,1.4895983934402466,-0.20421211421489716
1761379835233220000,4.19222021484375,1.447765588760376,1.378398060798645,-0.14492882788181305
1761379835243303200,4.20230322265625,1.5414899587631226,1.2737958431243896,-0.056033458560705185
1761379835253386000,4.212385986328125,1.6456220149993896,1.2086201906204224,0.03731459751725197
1761379835263469300,4.22246923828125,1.7439748048782349,1.1890406608581543,0.10805726051330566
1761379835273552100,4.23255224609375,1.832428216934204,1.1962980031967163,0.14046819508075714
1761379835283635200,4.24263525390625,1.9062869548797607,1.2083840370178223,0.12933126091957092
1761379835293718000,4.252718017578125,1.9736521244049072,1.2164840698242188,0.0881289690732956
1761379835303801000,4.262801025390625,2.0290088653564453,1.2219715118408203,0.030798206105828285
1761379835313884000,4.2728837890625,2.0696606636047363,1.2355022430419922,-0.025165194645524025
1761379835323967200,4.28296728515625,2.1033294200897217,1.2647979259490967,-0.06609917432069778
1761379835334050300,4.29305029296875,2.126175880432129,1.3214175701141357,-0.08153565227985382
1761379835344133000,4.303133056640625,2.1517372131347656,1.385596513748169,-0.07730655372142792
1761379835354216200,4.31321630859375,2.182188034057617,1.457033395767212,-0.06387756019830704
1761379835364299000,4.323299072265625,2.211351156234741,1.4949233531951904,-0.06644081324338913
1761379835374382800,4.3333828125,2.2436747550964355,1.4861639738082886,-0.09369001537561417
1761379835384465700,4.343465576171875,2.279080867767334,1.4558032751083374,-0.12218226492404938
1761379835394548700,4.353548828125,2.303419351577759,1.414514422416687,-0.14018069207668304
1761379835404632600,4.363632568359375,2.308241605758667,1.3556792736053467,-0.16141659021377563
1761379835414715600,4.373715576171875,2.3091208934783936,1.2817198038101196,-0.18290138244628906
1761379835424798700,4.383798828125,2.3003523349761963,1.2167816162109375,-0.19872435927391052
1761379835434881800,4.3938818359375,2.2914364337921143,1.169067621231079,-0.20332923531532288
1761379835444964600,4.403964599609375,2.271188259124756,1.1362258195877075,-0.19949790835380554
1761379835455047700,4.414047607421875,2.257798910140991,1.128947138786316,-0.19659346342086792
1761379835465130500,4.424130615234375,2.247699022293091,1.1583530902862549,-0.20992091298103333
1761379835475213600,4.434213623046875,2.2450742721557617,1.1955313682556152,-0.24110546708106995
1761379835485296600,4.444296630859375,2.2469725608825684,1.2126176357269287,-0.2799970805644989
1761379835495379700,4.454379638671875,2.2569377422332764,1.2076867818832397,-0.3072185814380646
1761379835505462500,4.464462646484375,2.2658019065856934,1.1811847686767578,-0.3142410218715668
1761379835515545600,4.474545654296875,2.279047727584839,1.173774003982544,-0.29191333055496216
1761379835525628700,4.484628662109375,2.2869694232940674,1.1695224046707153,-0.25251737236976624
1761379835535711500,4.49471142578125,2.2818660736083984,1.1530065536499023,-0.20863862335681915
1761379835545794800,4.504794921875,2.273341178894043,1.1280730962753296,-0.1665598452091217
1761379835555877600,4.514877685546875,2.2610011100769043,1.1047158241271973,-0.13524745404720306
1761379835565960700,4.524960693359375,2.259446859359741,1.103675365447998,-0.1115078255534172
1761379835576043500,4.53504345703125,2.2730705738067627,1.1372642517089844,-0.084710031747818
1761379835586126600,4.545126708984375,2.301719903945923,1.18893301486969,-0.057197920978069305
1761379835596209400,4.55520947265625,2.3335344791412354,1.2496285438537598,-0.026897007599473
1761379835606292700,4.565292724609375,2.353566884994507,1.2947602272033691,-0.01841222681105137
1761379835616375800,4.575375732421875,2.3379018306732178,1.2797809839248657,-0.06753502786159515
1761379835626458600,4.585458740234375,2.2829933166503906,1.1990971565246582,-0.17627179622650146
1761379835636541700,4.595541748046875,2.17961049079895,1.0472708940505981,-0.31968992948532104
1761379835646624500,4.60562451171875,2.0314526557922363,0.8431888222694397,-0.47436001896858215
1761379835656707600,4.61570751953125,1.8670845031738281,0.6700037121772766,-0.5959959030151367
1761379835666790700,4.625790771484375,1.7460981607437134,0.6112447381019592,-0.6239690780639648
1761379835676873700,4.635873779296875,1.6856491565704346,0.6633761525154114,-0.5712134838104248
1761379835686956500,4.64595654296875,1.6682233810424805,0.7552103996276855,-0.4658530354499817
1761379835697039600,4.65603955078125,1.6797927618026733,0.8510929942131042,-0.37184423208236694
1761379835707122700,4.666122802734375,1.6977261304855347,0.8732256293296814,-0.3478879928588867
1761379835717205500,4.67620556640625,1.7080285549163818,0.7750175595283508,-0.42819827795028687
1761379835727288800,4.686288818359375,1.6944735050201416,0.59311842918396,-0.5370003581047058
1761379835737371600,4.69637158203125,1.637723684310913,0.3626234233379364,-0.5946535468101501
1761379835747454700,4.706454833984375,1.5622587203979492,0.1381341964006424,-0.5591841340065002
1761379835757537500,4.71653759765625,1.4691476821899414,-0.051894061267375946,-0.47294801473617554
1761379835767620600,4.72662060546875,1.3893543481826782,-0.1969815492630005,-0.36536067724227905
1761379835777703400,4.736703369140625,1.328835368156433,-0.2257937788963318,-0.26148808002471924
1761379835787786800,4.746786865234375,1.287674903869629,-0.17198337614536285,-0.1794067621231079
1761379835797869600,4.75686962890625,1.2506879568099976,-0.09801620990037918,-0.13168956339359283
1761379835807952600,4.76695263671875,1.228442668914795,0.07036613672971725,-0.09244167804718018
1761379835818035700,4.77703564453125,1.200169324874878,0.26531192660331726,-0.07263095676898956
1761379835828118500,4.787118408203125,1.1678600311279297,0.4437076151371002,-0.050654686987400055
1761379835838201600,4.79720166015625,1.1583322286605835,0.6106563806533813,0.0028367675840854645
1761379835848284700,4.80728466796875,1.1710878610610962,0.7625856995582581,0.08620204031467438
1761379835858367700,4.81736767578125,1.202932357788086,0.868247926235199,0.1665101945400238
1761379835868450600,4.827450439453125,1.2350239753723145,0.928682804107666,0.22223356366157532
1761379835878533600,4.83753369140625,1.2576900720596313,0.940793514251709,0.2471679449081421
1761379835888616400,4.847616455078125,1.270700454711914,0.9054929614067078,0.26281628012657166
1761379835898699500,4.857699462890625,1.2550839185714722,0.8192435503005981,0.24661335349082947
1761379835908782800,4.867782958984375,1.2285411357879639,0.7077248692512512,0.21852193772792816
1761379835918865700,4.87786572265625,1.1925815343856812,0.5945227146148682,0.16811761260032654
1761379835928948700,4.88794873046875,1.1584416627883911,0.5013008117675781,0.09965518116950989
1761379835939031600,4.898031494140625,1.1251102685928345,0.4430292844772339,0.02812320925295353
1761379835949114600,4.908114501953125,1.097336769104004,0.4330250918865204,-0.02712629921734333
1761379835959197400,4.918197509765625,1.0786826610565186,0.4631563425064087,-0.05012109503149986
1761379835969280800,4.92828076171875,1.0714646577835083,0.5291447043418884,-0.04016833007335663
1761379835979363600,4.938363525390625,1.0796688795089722,0.6225201487541199,-0.02959105186164379
1761379835989446700,4.94844677734375,1.0950369834899902,0.7202428579330444,-0.030346637591719627
1761379835999529700,4.95852978515625,1.1137651205062866,0.7898269891738892,-0.054089780896902084
1761379836009612500,4.968612548828125,1.1227384805679321,0.8233906626701355,-0.09087733179330826
1761379836019695600,4.978695556640625,1.1287646293640137,0.8346606492996216,-0.11502288281917572
1761379836029778700,4.98877880859375,1.1301805973052979,0.8317888975143433,-0.11700907349586487
1761379836039861800,4.99886181640625,1.1108546257019043,0.8274282217025757,-0.07218301296234131
1761379836049944600,5.008944580078125,1.0744248628616333,0.8508496284484863,-0.00011336710304021835
1761379836060027600,5.019027587890625,1.0513845682144165,0.8655164241790771,0.06807341426610947
1761379836070110500,5.0291103515625,1.0419752597808838,0.8587799668312073,0.09868235141038895
1761379836080193500,5.039193603515625,1.048231840133667,0.8458228707313538,0.09118182212114334
1761379836090276600,5.049276611328125,1.0672316551208496,0.841447651386261,0.05825399234890938
1761379836100359700,5.059359619140625,1.100326418876648,0.832402229309082,0.026649991050362587
1761379836110442800,5.06944287109375,1.1305699348449707,0.8278067708015442,-0.009065352380275726
1761379836120525600,5.079525634765625,1.1546210050582886,0.8398301601409912,-0.03207986056804657
1761379836130608600,5.089608642578125,1.1802934408187866,0.8844809532165527,-0.01951977238059044
1761379836140691500,5.09969140625,1.1885404586791992,0.9279109835624695,0.026650920510292053
1761379836150774800,5.10977490234375,1.193190574645996,0.9478933215141296,0.08903131633996964
1761379836160857600,5.119857666015625,1.189900517463684,0.9131411910057068,0.13951393961906433
1761379836170940700,5.129940673828125,1.1509253978729248,0.8605031967163086,0.16404543817043304
1761379836181023500,5.1400234375,1.0814696550369263,0.8103364109992981,0.17026817798614502
1761379836191106600,5.1501064453125,0.9852139949798584,0.7768974900245667,0.14930874109268188
1761379836201189600,5.160189697265625,0.8906424641609192,0.7613726258277893,0.10217665135860443
1761379836211272700,5.170272705078125,0.8128112554550171,0.7722564339637756,0.03372578322887421
1761379836221355800,5.180355712890625,0.7787419557571411,0.8074519634246826,-0.042048871517181396
1761379836231438600,5.1904384765625,0.7833049297332764,0.8466466069221497,-0.1257953941822052
1761379836241521700,5.200521728515625,0.8084020018577576,0.8871024250984192,-0.19356033205986023
1761379836251604500,5.2106044921875,0.8404046893119812,0.9726248383522034,-0.20419219136238098
1761379836261687600,5.2206875,0.8565191626548767,1.0785259008407593,-0.18337054550647736
1761379836271770600,5.2307705078125,0.8549219965934753,1.15242338180542,-0.17253118753433228
1761379836281853700,5.240853759765625,0.8418810367584229,1.148956298828125,-0.22631427645683289
1761379836291936500,5.2509365234375,0.8160497546195984,1.0781923532485962,-0.3804548680782318
1761379836302019600,5.26101953125,0.7867382168769836,0.9578551054000854,-0.5943375825881958
1761379836312102700,5.2711025390625,0.7457756400108337,0.8395957350730896,-0.8061932325363159
1761379836322185500,5.281185546875,0.7060125470161438,0.8242306113243103,-0.9564224481582642
1761379836332268800,5.291268798828125,0.6731131076812744,0.8697201609611511,-1.0430206060409546
1761379836342351600,5.3013515625,0.6994536519050598,0.9855029582977295,-1.0566679239273071
1761379836352434700,5.3114345703125,0.8050919771194458,1.124422311782837,-1.0204511880874634
1761379836362517500,5.321517578125,0.9542492628097534,1.222875952720642,-0.9411331415176392
1761379836372601000,5.33160107421875,1.1052868366241455,1.239977478981018,-0.8374819755554199
1761379836382684000,5.341683837890625,1.218376636505127,1.1711381673812866,-0.7303150296211243
1761379836392767000,5.35176708984375,1.2877885103225708,1.054882287979126,-0.604923665523529
1761379836402849800,5.361849853515625,1.3232924938201904,0.9146575927734375,-0.4665689766407013
1761379836412932900,5.371932861328125,1.326708436012268,0.7870451211929321,-0.3028236925601959
1761379836423016200,5.38201611328125,1.299284815788269,0.6800345182418823,-0.15397483110427856
1761379836433099000,5.39209912109375,1.2735289335250854,0.6026491522789001,-0.0794617086648941
1761379836443182000,5.40218212890625,1.2622872591018677,0.5665977001190186,-0.08369773626327515
1761379836453265000,5.412264892578125,1.2703068256378174,0.5764601230621338,-0.14029303193092346
1761379836463348000,5.422347900390625,1.2842203378677368,0.5976354479789734,-0.22840771079063416
1761379836473430800,5.4324306640625,1.2813585996627808,0.631650447845459,-0.3116799592971802
1761379836483514000,5.44251416015625,1.283437967300415,0.6548900008201599,-0.38433709740638733
1761379836493597000,5.452596923828125,1.2904905080795288,0.653476357460022,-0.4252002239227295
1761379836503680000,5.462679931640625,1.283882975578308,0.6261959671974182,-0.4253128468990326
1761379836513763000,5.47276318359375,1.2760765552520752,0.5905874371528625,-0.3892326056957245
1761379836523846000,5.482845947265625,1.2700321674346924,0.5506541132926941,-0.3326287269592285
1761379836533929000,5.492928955078125,1.2760502099990845,0.5066331028938293,-0.2888121008872986
1761379836544012000,5.503011962890625,1.2876701354980469,0.46415382623672485,-0.263340026140213
1761379836554095000,5.51309521484375,1.302480936050415,0.4159737229347229,-0.2436540573835373
1761379836564178000,5.523177978515625,1.304184913635254,0.3773834705352783,-0.2236499935388565
1761379836574261000,5.533260986328125,1.3040939569473267,0.34197625517845154,-0.20695124566555023
1761379836584343800,5.54334375,1.2923812866210938,0.3137017488479614,-0.19336938858032227
1761379836594427000,5.553427001953125,1.2707278728485107,0.3021374046802521,-0.18213273584842682
1761379836604510000,5.563510009765625,1.2393484115600586,0.3101721704006195,-0.16430900990962982
1761379836614593000,5.573593017578125,1.2087587118148804,0.3116677701473236,-0.15029731392860413
1761379836624676000,5.583676025390625,1.1813856363296509,0.31138575077056885,-0.15039479732513428
1761379836634759000,5.593759033203125,1.1636264324188232,0.31741011142730713,-0.13901597261428833
1761379836644842000,5.603842041015625,1.153908610343933,0.3290891647338867,-0.1016227975487709
1761379836654924800,5.6139248046875,1.13557767868042,0.3378760814666748,-0.05555665120482445
1761379836665008000,5.624008056640625,1.0946931838989258,0.3295760452747345,-0.02326422743499279
1761379836675091000,5.634091064453125,1.041030764579773,0.3216840624809265,-0.009451467543840408
1761379836685174000,5.644174072265625,0.9856420159339905,0.31376171112060547,-0.022664207965135574
1761379836695256800,5.6542568359375,0.936379611492157,0.31635499000549316,-0.05075765773653984
1761379836705340000,5.66433984375,0.9136993885040283,0.32755279541015625,-0.07074788212776184
1761379836715423000,5.674423095703125,0.8768866658210754,0.3284951448440552,-0.07687355577945709
1761379836725506000,5.684506103515625,0.8319951295852661,0.3350161612033844,-0.08047361671924591
1761379836735589000,5.694589111328125,0.7950035929679871,0.3711140751838684,-0.07085024565458298
1761379836745672000,5.704671875,0.7579709887504578,0.40517961978912354,-0.05240359529852867
1761379836755755000,5.714755126953125,0.7293040156364441,0.4401567280292511,-0.031917691230773926
1761379836765837800,5.724837890625,0.7180601358413696,0.4735066890716553,0.012594381347298622
1761379836775921000,5.7349208984375,0.7039334774017334,0.4792817234992981,0.05676192045211792
1761379836786004000,5.74500390625,0.6861095428466797,0.46122708916664124,0.09324563294649124
1761379836796087000,5.755087158203125,0.6681998372077942,0.417861670255661,0.10839331150054932
1761379836806170000,5.765170166015625,0.6284817457199097,0.4707392454147339,0.1287342607975006
1761379836816253000,5.7752529296875,0.609529972076416,0.5057140588760376,0.09948130697011948
1761379836826336000,5.7853359375,0.5848720669746399,0.3804911673069,-0.03157364949584007
1761379836836418800,5.795418701171875,0.5495132207870483,0.21191158890724182,-0.1944866180419922
1761379836846502100,5.805502197265625,0.5217412114143372,0.07408794015645981,-0.3475145101547241
1761379836856585000,5.8155849609375,0.46610215306282043,-0.021055249497294426,-0.4861324429512024
1761379836866668000,5.82566796875,0.388921856880188,-0.04805464297533035,-0.58695387840271
1761379836876750800,5.835750732421875,0.3106340765953064,-0.017100226134061813,-0.6557926535606384
1761379836886834000,5.845833984375,0.23757211863994598,0.06085635721683502,-0.7056933641433716
1761379836896917000,5.8559169921875,0.17329727113246918,0.1557634323835373,-0.7347748279571533
1761379836907000000,5.866,0.1382836252450943,0.2586323022842407,-0.7352563738822937
1761379836917083100,5.876083251953125,0.1424485146999359,0.39574506878852844,-0.6619177460670471
1761379836927166000,5.886166015625,0.17971067130565643,0.5350169539451599,-0.5170196890830994
1761379836937249000,5.8962490234375,0.24637597799301147,0.6603589653968811,-0.320103257894516
1761379836947331800,5.906331787109375,0.33170872926712036,0.7496126890182495,-0.12150151282548904
1761379836957415000,5.916414794921875,0.41161102056503296,0.7468376755714417,0.004915634635835886
1761379836967498000,5.926498046875,0.48284363746643066,0.652073323726654,0.05849790200591087
1761379836977581000,5.9365810546875,0.528637170791626,0.5109536051750183,0.06243070960044861
1761379836987664000,5.946663818359375,0.5532903075218201,0.32799044251441956,0.03188851475715637
1761379836997747000,5.956746826171875,0.5679804682731628,0.1258016973733902,-0.023879479616880417
1761379837007830000,5.966830078125,0.5801449418067932,-0.0675017237663269,-0.07291679829359055
1761379837017912800,5.976912841796875,0.5690871477127075,-0.25013434886932373,-0.07924924790859222
1761379837027996200,5.98699609375,0.5298079252243042,-0.4402550160884857,-0.03444475308060646
1761379837038079000,5.997078857421875,0.46577775478363037,-0.5790462493896484,0.06463786959648132
1761379837048162000,6.007162109375,0.379655659198761,-0.6602537631988525,0.16608566045761108
1761379837058244900,6.017244873046875,0.297419011592865,-0.6824624538421631,0.2125818431377411
1761379837068328000,6.027327880859375,0.22898614406585693,-0.6351708173751831,0.20278407633304596
1761379837078410800,6.03741064453125,0.17673437297344208,-0.5407294631004333,0.1559939831495285
1761379837088494000,6.047494140625,0.11669289320707321,-0.4205743074417114,0.07777267694473267
1761379837098577000,6.057576904296875,0.050382714718580246,-0.30712172389030457,0.005261477082967758
1761379837108660000,6.067659912109375,-0.0012509198859333992,-0.1842099130153656,-0.029066402465105057
1761379837118743000,6.077742919921875,-0.04633142054080963,-0.0931185781955719,-0.050656549632549286
1761379837128825900,6.087825927734375,-0.08291526883840561,-0.030161721631884575,-0.0534275658428669
1761379837138909000,6.097908935546875,-0.1230589747428894,0.031979866325855255,-0.03479639068245888
1761379837148992000,6.107991943359375,-0.16272595524787903,0.062068257480859756,-0.037978336215019226
1761379837159075000,6.118074951171875,-0.19558997452259064,0.05750318244099617,-0.023415690287947655
1761379837169158000,6.128157958984375,-0.23812705278396606,0.027068044990301132,0.0064202360808849335
1761379837179241000,6.138240966796875,-0.28291645646095276,-0.050233274698257446,0.042947668582201004
1761379837189323800,6.14832373046875,-0.3269078731536865,-0.09449394047260284,0.08140131831169128
1761379837199406800,6.15840673828125,-0.3621724843978882,-0.1472923457622528,0.0749322697520256
1761379837209490200,6.168490234375,-0.3761349022388458,-0.2009771466255188,0.007244567386806011
1761379837219573000,6.178572998046875,-0.37958642840385437,-0.27197131514549255,-0.0825878158211708
1761379837229656000,6.188656005859375,-0.385927677154541,-0.355132520198822,-0.16148848831653595
1761379837239739000,6.19873876953125,-0.3910585045814514,-0.40371498465538025,-0.20714589953422546
1761379837249822000,6.208822021484375,-0.4054747223854065,-0.4457090198993683,-0.2243078500032425
1761379837259904800,6.21890478515625,-0.43768659234046936,-0.4447595477104187,-0.19389595091342926
1761379837269988000,6.228988037109375,-0.48807093501091003,-0.40503424406051636,-0.13791070878505707
1761379837280071000,6.23907080078125,-0.5327745079994202,-0.35305947065353394,-0.06742402166128159
1761379837290154000,6.249154052734375,-0.5641814470291138,-0.26963168382644653,-0.010902429930865765
1761379837300236000,6.259236083984375,-0.5811019539833069,-0.20549564063549042,0.013271056115627289
1761379837310318800,6.26931884765625,-0.607617199420929,-0.20368948578834534,0.021380648016929626
1761379837320402000,6.27940185546875,-0.6461524963378906,-0.2286398559808731,0.024066273123025894
1761379837330485000,6.289485107421875,-0.6664761304855347,-0.277495801448822,0.038636159151792526
1761379837340568000,6.299568115234375,-0.6740501523017883,-0.33364981412887573,0.06433045864105225
1761379837350651100,6.309651123046875,-0.6838719248771667,-0.4306320250034332,0.08650606870651245
1761379837360734000,6.31973388671875,-0.7022528052330017,-0.5405032634735107,0.09431350976228714
1761379837370816500,6.32981640625,-0.7431185245513916,-0.6705294251441956,0.10333416610956192
1761379837380899300,6.3398994140625,-0.7850230932235718,-0.7623584866523743,0.1232004463672638
1761379837390982400,6.349982421875,-0.8200969099998474,-0.7876816987991333,0.17812734842300415
1761379837401065500,6.3600654296875,-0.8520889282226562,-0.7632397413253784,0.2542882561683655
1761379837411148300,6.370148193359375,-0.8761253356933594,-0.707528293132782,0.33326536417007446
1761379837421231400,6.3802314453125,-0.9027051329612732,-0.6417232155799866,0.36367738246917725
1761379837431314400,6.390314453125,-0.9570794105529785,-0.6043055057525635,0.3128661513328552
1761379837441397500,6.4003974609375,-1.009326696395874,-0.5888274908065796,0.20163309574127197
1761379837451480300,6.410480224609375,-1.0367975234985352,-0.5896648168563843,0.06307230144739151
1761379837461563400,6.4205634765625,-1.0537364482879639,-0.5994072556495667,-0.07074262946844101
1761379837471646200,6.430646240234375,-1.0627515316009521,-0.5660799145698547,-0.1581403911113739
1761379837481729300,6.440729248046875,-1.049851894378662,-0.485803484916687,-0.18750064074993134
1761379837491812400,6.450812255859375,-1.0416818857192993,-0.4902925193309784,-0.22007350623607635
1761379837501895400,6.4608955078125,-1.0087045431137085,-0.5551642775535583,-0.26947206258773804
1761379837511978500,6.470978515625,-1.0030200481414795,-0.6277809739112854,-0.32021939754486084
1761379837522061300,6.481061279296875,-1.0386557579040527,-0.6917712092399597,-0.3973606526851654
1761379837532144400,6.491144287109375,-1.0835891962051392,-0.6754729151725769,-0.4773574769496918
1761379837542227200,6.501227294921875,-1.1439448595046997,-0.5713175535202026,-0.5018585920333862
1761379837552310500,6.511310546875,-1.1354767084121704,-0.4580167829990387,-0.4722439646720886
1761379837562393300,6.521393310546875,-1.0243207216262817,-0.31049373745918274,-0.37557968497276306
1761379837572476400,6.531476318359375,-0.8778122067451477,-0.1994878649711609,-0.2292325794696808
1761379837582559200,6.541559326171875,-0.7540510892868042,-0.21278992295265198,-0.07170805335044861
1761379837592642300,6.551642333984375,-0.6820027232170105,-0.38430893421173096,0.039742838591337204
1761379837602725400,6.561725341796875,-0.6702585816383362,-0.6443652510643005,0.07573539763689041
1761379837612808400,6.571808349609375,-0.7147437930107117,-0.875505268573761,0.06401588767766953
1761379837622891500,6.5818916015625,-0.8138030171394348,-1.0238487720489502,0.05005466565489769
1761379837632974300,6.591974365234375,-0.9412277936935425,-1.0760035514831543,0.053750332444906235
1761379837643057400,6.602057373046875,-1.059831142425537,-1.0069676637649536,0.08913528919219971
1761379837653140200,6.61214013671875,-1.127557396888733,-0.81881183385849,0.15763817727565765
1761379837663223300,6.622223388671875,-1.1803667545318604,-0.5302284359931946,0.2815440893173218
1761379837673306400,6.632306396484375,-1.1758017539978027,-0.33060187101364136,0.38885271549224854
1761379837683389400,6.642389404296875,-1.1688382625579834,-0.22755497694015503,0.4106711447238922
1761379837693471500,6.652471435546875,-1.2167432308197021,-0.24805811047554016,0.3716648817062378
1761379837703554300,6.66255419921875,-1.2857398986816406,-0.3365115523338318,0.2874772846698761
1761379837713637400,6.672637451171875,-1.376196026802063,-0.4403793513774872,0.18219666182994843
1761379837723720200,6.68272021484375,-1.47630774974823,-0.493648499250412,0.08677336573600769
1761379837733803300,6.69280322265625,-1.5507164001464844,-0.4717821180820465,0.01840549148619175
1761379837743886600,6.702886474609375,-1.5859243869781494,-0.40425652265548706,-0.03203972056508064
1761379837753969400,6.712969482421875,-1.5953255891799927,-0.3112512230873108,-0.07151735574007034
1761379837764052500,6.723052490234375,-1.5745080709457397,-0.21123340725898743,-0.08657526969909668
1761379837774135300,6.73313525390625,-1.5527939796447754,-0.1428319811820984,-0.07893679291009903
1761379837784218400,6.74321826171875,-1.5439929962158203,-0.15606239438056946,-0.040163490921258926
1761379837794301200,6.75330126953125,-1.5349880456924438,-0.20193535089492798,0.041557736694812775
1761379837804384500,6.763384521484375,-1.5191024541854858,-0.2644384205341339,0.11666516959667206
1761379837814467300,6.77346728515625,-1.4965121746063232,-0.31837648153305054,0.14217105507850647
1761379837824550400,6.78355029296875,-1.4768842458724976,-0.35910800099372864,0.13077174127101898
1761379837834633500,6.793633544921875,-1.4759577512741089,-0.3751905858516693,0.09196868538856506
1761379837844716300,6.80371630859375,-1.4789448976516724,-0.35683301091194153,0.04346828535199165
1761379837854799400,6.81379931640625,-1.4708853960037231,-0.3479556441307068,-0.005944537930190563
1761379837864882400,6.82388232421875,-1.442237138748169,-0.32537004351615906,-0.052747782319784164
1761379837874965500,6.833965576171875,-1.3905107975006104,-0.27658945322036743,-0.10065751522779465
1761379837885048300,6.84404833984375,-1.3309705257415771,-0.23653163015842438,-0.13761599361896515
1761379837895131400,6.85413134765625,-1.2743102312088013,-0.18954335153102875,-0.1535097360610962
1761379837905214200,6.864214111328125,-1.2168580293655396,-0.1346423327922821,-0.14156346023082733
1761379837915297300,6.87429736328125,-1.1709954738616943,-0.10373847931623459,-0.11836199462413788
1761379837925380400,6.88438037109375,-1.1236953735351562,-0.1021619513630867,-0.08983670175075531
1761379837935463400,6.89446337890625,-1.0743390321731567,-0.09814190864562988,-0.057555463165044785
1761379837945546500,6.90454638671875,-1.0212244987487793,-0.13601158559322357,-0.04418739676475525
1761379837955629300,6.91462939453125,-0.9778741598129272,-0.1475910097360611,-0.040663234889507294
1761379837965711400,6.92471142578125,-0.9474906921386719,-0.1321045309305191,-0.03932253271341324
1761379837975794400,6.93479443359375,-0.8962315320968628,-0.03268126770853996,-0.044347118586301804
1761379837985877200,6.944877197265625,-0.8244205713272095,0.09258988499641418,-0.018186602741479874
1761379837995960600,6.954960693359375,-0.7609604001045227,0.11571571230888367,0.057561423629522324
1761379838006043400,6.96504345703125,-0.6872614622116089,-0.025664489716291428,0.12596961855888367
1761379838016126500,6.97512646484375,-0.6213202476501465,-0.15609067678451538,0.19686083495616913
1761379838026209300,6.985209228515625,-0.6014772653579712,-0.25660431385040283,0.2567373812198639
1761379838036292400,6.995292236328125,-0.599617600440979,-0.2799448072910309,0.30359143018722534
1761379838046375200,7.005375244140625,-0.5996488332748413,-0.251329630613327,0.3454396724700928
1761379838056458500,7.01545849609375,-0.5882028341293335,-0.2002054750919342,0.3745408058166504
1761379838066541300,7.025541259765625,-0.5694646239280701,-0.15109480917453766,0.3839021325111389
1761379838076624400,7.035624267578125,-0.5522587299346924,-0.09490716457366943,0.3740769326686859
1761379838086707500,7.04570751953125,-0.5114949941635132,-0.01792798563838005,0.3906785249710083
1761379838096790300,7.055790283203125,-0.45276880264282227,-0.044433895498514175,0.3782162666320801
