time,seconds_elapsed,z,y,x
1761503576324796200,0.074796142578125,-0.1720123291015625,-0.8556671142578125,-0.0053253173828125
1761503576334852000,0.08485205078125,-0.165863037109375,-0.86724853515625,-0.0128173828125
1761503576344909300,0.094909423828125,-0.16705322265625,-0.8779449462890625,-0.03106689453125
1761503576354965200,0.10496533203125,-0.1604461669921875,-0.870635986328125,-0.0553436279296875
1761503576365021200,0.115021240234375,-0.1796112060546875,-0.853668212890625,-0.0660552978515625
1761503576375077000,0.1250771484375,-0.1978759765625,-0.8437652587890625,-0.0507659912109375
1761503576385133000,0.135133056640625,-0.1601715087890625,-0.8336944580078125,-0.046417236328125
1761503576395189000,0.14518896484375,-0.121917724609375,-0.8203887939453125,-0.0454559326171875
1761503576405245200,0.1552451171875,-0.1394195556640625,-0.813873291015625,-0.027008056640625
1761503576415301000,0.165301025390625,-0.1975555419921875,-0.7905426025390625,-0.027191162109375
1761503576425357000,0.175357177734375,-0.236328125,-0.762725830078125,-0.04443359375
1761503576435413200,0.185413330078125,-0.238189697265625,-0.7445068359375,-0.064453125
1761503576445469200,0.19546923828125,-0.221282958984375,-0.7108154296875,-0.0849761962890625
1761503576455525000,0.205525146484375,-0.1978912353515625,-0.6739959716796875,-0.0992889404296875
1761503576465581000,0.2155810546875,-0.17376708984375,-0.6431884765625,-0.1024932861328125
1761503576475637200,0.22563720703125,-0.1518707275390625,-0.63067626953125,-0.0915069580078125
1761503576485693200,0.235693115234375,-0.123138427734375,-0.611907958984375,-0.0728759765625
1761503576495749000,0.2457490234375,-0.07708740234375,-0.606414794921875,-0.066558837890625
1761503576505805000,0.25580517578125,-0.061859130859375,-0.63397216796875,-0.05438232421875
1761503576515861000,0.265861083984375,-0.138671875,-0.6585693359375,-0.0372772216796875
1761503576525917000,0.2759169921875,-0.2378082275390625,-0.664642333984375,-0.035858154296875
1761503576535973000,0.28597314453125,-0.276397705078125,-0.66790771484375,-0.0349578857421875
1761503576546029000,0.296029052734375,-0.2764129638671875,-0.6953582763671875,-0.03045654296875
1761503576556085000,0.3060849609375,-0.2664947509765625,-0.7425537109375,-0.014739990234375
1761503576566141200,0.31614111328125,-0.235137939453125,-0.822265625,-0.0297393798828125
1761503576576197000,0.326197021484375,-0.1742706298828125,-0.9630126953125,-0.038055419921875
1761503576586253000,0.336253173828125,-0.2241363525390625,-1.1890106201171875,0.03985595703125
1761503576596310000,0.34631005859375,-0.33013916015625,-1.5414581298828125,0.1541290283203125
1761503576606366200,0.3563662109375,-0.46942138671875,-1.9828643798828125,0.1949310302734375
1761503576616422100,0.366422119140625,-0.67169189453125,-2.36376953125,0.1808319091796875
1761503576626478000,0.37647802734375,-0.9225311279296875,-2.639892578125,0.153106689453125
1761503576636534300,0.3865341796875,-1.017974853515625,-2.8043670654296875,0.1478729248046875
1761503576646590200,0.396590087890625,-0.90032958984375,-2.8573455810546875,0.1095733642578125
1761503576656646000,0.40664599609375,-0.771148681640625,-2.7252197265625,0.080780029296875
1761503576666702000,0.4167021484375,-0.75433349609375,-2.5162353515625,0.125396728515625
1761503576676758000,0.426758056640625,-0.7513275146484375,-2.3262176513671875,0.2036590576171875
1761503576686814000,0.43681396484375,-0.631439208984375,-2.141998291015625,0.1973419189453125
1761503576696870100,0.4468701171875,-0.4840850830078125,-1.9748992919921875,0.1096038818359375
1761503576706926000,0.456926025390625,-0.4277496337890625,-1.8401031494140625,-0.004669189453125
1761503576716982000,0.46698193359375,-0.4929046630859375,-1.76568603515625,-0.102508544921875
1761503576727038200,0.4770380859375,-0.5418548583984375,-1.7112274169921875,-0.116485595703125
1761503576737094100,0.48709423828125,-0.52923583984375,-1.5829315185546875,-0.0735626220703125
1761503576747150000,0.497150146484375,-0.4936981201171875,-1.34979248046875,-0.0746002197265625
1761503576757206300,0.507206298828125,-0.376922607421875,-1.1125335693359375,-0.070281982421875
1761503576767262200,0.51726220703125,-0.2799835205078125,-0.9019317626953125,-0.017364501953125
1761503576777318100,0.527318115234375,-0.2120361328125,-0.770751953125,-0.013458251953125
1761503576787374000,0.5373740234375,-0.0973663330078125,-0.8050689697265625,-0.0393524169921875
1761503576797430000,0.547429931640625,0.0475006103515625,-0.7167816162109375,-0.0324249267578125
1761503576807486000,0.55748583984375,0.17181396484375,-0.442138671875,-0.043701171875
1761503576817542100,0.567542236328125,0.2790069580078125,-0.2454376220703125,-0.0527801513671875
1761503576827598000,0.57759814453125,0.238433837890625,-0.15509033203125,-0.044219970703125
1761503576837654000,0.587654052734375,0.1657257080078125,-0.05841064453125,-0.004119873046875
1761503576847710200,0.597710205078125,0.102813720703125,-0.054595947265625,0.023468017578125
1761503576857767200,0.60776708984375,-0.0013580322265625,-0.1436614990234375,-0.0009918212890625
1761503576867823000,0.617822998046875,-0.0953826904296875,-0.230499267578125,-0.1300201416015625
1761503576877879000,0.627879150390625,-0.00067138671875,-0.280731201171875,-0.20855712890625
1761503576887935200,0.637935302734375,0.18609619140625,-0.210205078125,-0.241546630859375
1761503576897991200,0.6479912109375,0.33941650390625,-0.0698699951171875,-0.227142333984375
1761503576908047000,0.658047119140625,0.472808837890625,0.0011138916015625,-0.145660400390625
1761503576918103300,0.668103271484375,0.4603271484375,0.004364013671875,-0.02276611328125
1761503576928159200,0.6781591796875,0.396881103515625,0.01837158203125,0.0814208984375
1761503576938215000,0.68821484375,0.30291748046875,-0.0032501220703125,0.1052093505859375
1761503576948271000,0.69827099609375,0.1771240234375,-0.1333770751953125,0.0847625732421875
1761503576958327000,0.7083271484375,-0.018341064453125,-0.265716552734375,0.041656494140625
1761503576968383000,0.718383056640625,-0.19915771484375,-0.4039306640625,0.0269775390625
1761503576978439200,0.728439208984375,-0.39324951171875,-0.4144134521484375,0.026763916015625
1761503576988495000,0.7384951171875,-0.4778900146484375,-0.3268280029296875,0.026397705078125
1761503576998551000,0.748551025390625,-0.4683074951171875,-0.222564697265625,0.0467071533203125
1761503577008607200,0.758607177734375,-0.275390625,-0.0981597900390625,0.0858154296875
1761503577018663200,0.7686630859375,-0.0419464111328125,0.040740966796875,0.072021484375
1761503577028719000,0.778718994140625,0.0656280517578125,0.153533935546875,-0.00274658203125
1761503577038775300,0.788775390625,0.0429229736328125,0.170379638671875,-0.08111572265625
1761503577048831200,0.798831298828125,-0.1453704833984375,0.1151275634765625,-0.1273040771484375
1761503577058887200,0.80888720703125,-0.36297607421875,0.0034942626953125,-0.17669677734375
1761503577068943000,0.818943115234375,-0.4452972412109375,-0.0781097412109375,-0.199432373046875
1761503577078999000,0.8289990234375,-0.42950439453125,-0.11480712890625,-0.138885498046875
1761503577089056000,0.839055908203125,-0.3720550537109375,-0.16534423828125,0.000823974609375
1761503577099112200,0.8491123046875,-0.3196563720703125,-0.1943359375,0.1520233154296875
1761503577109168400,0.85916845703125,-0.254150390625,-0.203826904296875,0.228546142578125
1761503577119224300,0.869224365234375,-0.095703125,-0.3504791259765625,0.2233428955078125
1761503577129280300,0.8792802734375,-0.02496337890625,-0.7866973876953125,0.19110107421875
1761503577139336400,0.88933642578125,-0.3115386962890625,-1.4335784912109375,0.187591552734375
1761503577149392400,0.899392333984375,-0.7806854248046875,-2.0211944580078125,0.1030426025390625
1761503577159448000,0.909447998046875,-1.066070556640625,-2.431396484375,-0.01104736328125
1761503577169504300,0.919504150390625,-1.3227691650390625,-2.537384033203125,0.037109375
1761503577179560200,0.929560302734375,-1.5552825927734375,-2.4174957275390625,0.2068634033203125
1761503577189616000,0.9396162109375,-1.6092071533203125,-2.5424957275390625,0.3051300048828125
1761503577199672300,0.94967236328125,-1.6458892822265625,-2.9190826416015625,0.2585601806640625
1761503577209728300,0.959728271484375,-1.798126220703125,-3.2425689697265625,0.2044525146484375
1761503577219784200,0.9697841796875,-1.9156494140625,-3.333343505859375,0.19439697265625
1761503577229840400,0.97984033203125,-1.85955810546875,-3.191009521484375,0.134124755859375
1761503577239896300,0.989896240234375,-1.7468414306640625,-3.07708740234375,0.0213470458984375
1761503577249952300,0.9999521484375,-1.60125732421875,-2.9633941650390625,-0.102081298828125
1761503577260008400,1.010008544921875,-1.4273834228515625,-2.7181549072265625,-0.0955963134765625
1761503577270064400,1.020064453125,-1.236724853515625,-2.4190673828125,-0.0164031982421875
1761503577280120300,1.030120361328125,-1.0225677490234375,-2.1536865234375,0.0186614990234375
1761503577290176300,1.04017626953125,-0.8335723876953125,-1.854461669921875,0.0605316162109375
1761503577300232200,1.050232177734375,-0.743988037109375,-1.5526580810546875,0.0592193603515625
1761503577310288100,1.0602880859375,-0.64398193359375,-1.3404083251953125,0.0098114013671875
1761503577320344300,1.07034423828125,-0.3157958984375,-1.1131591796875,-0.0898284912109375
1761503577330400300,1.080400146484375,0.0590667724609375,-0.7478790283203125,-0.1859283447265625
1761503577340456200,1.090456298828125,0.3038787841796875,-0.3292236328125,-0.1976165771484375
1761503577350513200,1.10051318359375,0.3267822265625,-0.0181121826171875,-0.1360321044921875
1761503577360569300,1.1105693359375,0.0278167724609375,0.06182861328125,-0.014923095703125
1761503577370625300,1.120625244140625,-0.1663360595703125,-0.023345947265625,0.0075531005859375
1761503577380681200,1.13068115234375,-0.2179107666015625,-0.025482177734375,-0.0421295166015625
1761503577390737400,1.1407373046875,-0.134796142578125,0.1193389892578125,-0.078094482421875
1761503577400793300,1.15079345703125,0.077484130859375,0.3365936279296875,-0.109954833984375
1761503577410849300,1.160849365234375,0.2864227294921875,0.4774169921875,-0.149200439453125
1761503577420905500,1.170905517578125,0.4580535888671875,0.47607421875,-0.180206298828125
1761503577430961400,1.18096142578125,0.48486328125,0.4156494140625,-0.2000732421875
1761503577441017000,1.19101708984375,0.3332061767578125,0.346771240234375,-0.1329498291015625
1761503577451073300,1.2010732421875,0.130157470703125,0.22552490234375,-0.0465850830078125
1761503577461129200,1.211129150390625,-0.0148773193359375,0.0243072509765625,-0.0074462890625
1761503577471185200,1.22118505859375,-0.135528564453125,-0.146636962890625,0.01300048828125
1761503577481241300,1.231241455078125,-0.156768798828125,-0.1966094970703125,0.0512847900390625
1761503577491297300,1.24129736328125,-0.04107666015625,-0.1509552001953125,0.033660888671875
1761503577501353200,1.251353271484375,0.1257781982421875,-0.0979461669921875,-0.00567626953125
1761503577511409400,1.261409423828125,0.221893310546875,-0.034576416015625,0.01007080078125
1761503577521465300,1.27146533203125,0.177032470703125,0.085052490234375,0.09857177734375
1761503577531521300,1.281521240234375,0.118682861328125,0.1488189697265625,0.1482391357421875
1761503577541577200,1.2915771484375,0.01739501953125,0.1153411865234375,0.1307220458984375
1761503577551633400,1.30163330078125,-0.1123199462890625,0.0020904541015625,0.1091766357421875
1761503577561689000,1.311689208984375,-0.217041015625,-0.1115264892578125,0.091705322265625
1761503577571745300,1.321745361328125,-0.184173583984375,-0.128387451171875,0.0592498779296875
1761503577581802500,1.331802490234375,-0.0070343017578125,-0.11273193359375,0.0132598876953125
1761503577591858200,1.341858154296875,0.1551971435546875,-0.0567626953125,-0.0078125
1761503577601914000,1.3519140625,0.232208251953125,-0.012451171875,0.009857177734375
1761503577611970300,1.36197021484375,0.233154296875,-0.0040283203125,0.01629638671875
1761503577622026200,1.372026123046875,0.1273193359375,0.000762939453125,0.0402374267578125
1761503577632082200,1.382082275390625,-0.0246429443359375,-0.0658416748046875,0.0015106201171875
1761503577642138400,1.392138427734375,-0.3074493408203125,-0.2983856201171875,-0.046051025390625
1761503577652194300,1.4021943359375,-0.5469818115234375,-0.496246337890625,0.02301025390625
1761503577662250200,1.412250244140625,-0.393585205078125,-0.60467529296875,0.083282470703125
1761503577672306200,1.42230615234375,-0.1365203857421875,-0.6795501708984375,0.0776824951171875
1761503577682362400,1.4323623046875,0.124359130859375,-0.87689208984375,0.06219482421875
1761503577692418300,1.442418212890625,0.31085205078125,-1.517303466796875,0.0770111083984375
1761503577702474200,1.45247412109375,0.0451812744140625,-2.5391845703125,0.133453369140625
1761503577712530400,1.462530517578125,-0.61212158203125,-3.2837371826171875,-0.0442352294921875
1761503577722586000,1.472586181640625,-1.110687255859375,-3.506072998046875,-0.3497161865234375
1761503577732642000,1.48264208984375,-1.4523468017578125,-3.59124755859375,-0.4324798583984375
1761503577742698200,1.4926982421875,-1.6002197265625,-3.7435150146484375,-0.1790924072265625
1761503577752754200,1.502754150390625,-1.337921142578125,-3.79296875,0.08056640625
1761503577762810000,1.51281005859375,-1.0763702392578125,-3.4954833984375,0.0011749267578125
1761503577772866300,1.5228662109375,-0.7733917236328125,-3.192108154296875,-0.1271820068359375
1761503577782922200,1.532922119140625,-0.7291412353515625,-3.0933380126953125,-0.21142578125
1761503577792978200,1.542978271484375,-0.9492645263671875,-3.1974945068359375,-0.2511749267578125
1761503577803034400,1.553034423828125,-1.285980224609375,-3.16851806640625,-0.2354888916015625
1761503577813090300,1.56309033203125,-1.523590087890625,-2.9543609619140625,-0.1772918701171875
1761503577823147300,1.573147216796875,-1.51654052734375,-2.649261474609375,-0.07757568359375
1761503577833203200,1.583203125,-1.1811676025390625,-2.196258544921875,-0.02520751953125
1761503577843259400,1.59325927734375,-0.7838287353515625,-1.765594482421875,0.00494384765625
1761503577853315300,1.6033154296875,-0.4383544921875,-1.235595703125,0.0101318359375
1761503577863371300,1.613371337890625,-0.144195556640625,-0.641571044921875,-0.001220703125
1761503577873427200,1.62342724609375,0.1188507080078125,-0.135406494140625,-0.0287322998046875
1761503577883483100,1.633483154296875,0.3998260498046875,0.2348785400390625,-0.08795166015625
1761503577893539000,1.6435390625,0.3882293701171875,0.4603424072265625,-0.16864013671875
1761503577903595300,1.65359521484375,0.2090911865234375,0.5533905029296875,-0.16748046875
1761503577913651200,1.663651123046875,0.142303466796875,0.578399658203125,-0.1145782470703125
1761503577923707100,1.67370703125,0.08013916015625,0.46417236328125,-0.04437255859375
1761503577933763300,1.683763427734375,0.0866546630859375,0.3383026123046875,0.0092315673828125
1761503577943819300,1.6938193359375,0.1016387939453125,0.27935791015625,0.0656890869140625
1761503577953875200,1.703875244140625,0.10821533203125,0.1629180908203125,0.1102294921875
1761503577963931400,1.713931396484375,0.086944580078125,0.014678955078125,0.101043701171875
1761503577973987300,1.7239873046875,0.0143280029296875,-0.1172027587890625,0.0612640380859375
1761503577984043300,1.734043212890625,-0.099639892578125,-0.1933441162109375,0.0129852294921875
1761503577994099200,1.74409912109375,-0.1985931396484375,-0.2210693359375,-0.002716064453125
1761503578004155100,1.754155029296875,-0.1639556884765625,-0.1823577880859375,0.003021240234375
1761503578014211000,1.764211181640625,-0.087799072265625,-0.0932769775390625,0.03167724609375
1761503578024267300,1.774267333984375,-0.0017852783203125,0.0378875732421875,0.0638427734375
1761503578034323200,1.7843232421875,0.0825347900390625,0.1925506591796875,0.0871734619140625
1761503578044379100,1.794379150390625,0.129119873046875,0.318267822265625,0.0990447998046875
1761503578054436000,1.80443603515625,0.1606597900390625,0.3669891357421875,0.0840911865234375
1761503578064492300,1.8144921875,0.10968017578125,0.3916778564453125,0.0661163330078125
1761503578074548200,1.82454833984375,-0.011138916015625,0.369384765625,0.068878173828125
1761503578084604200,1.834604248046875,-0.091949462890625,0.3519439697265625,0.0831451416015625
1761503578094659800,1.844659912109375,-0.1390838623046875,0.333404541015625,0.0812835693359375
1761503578104715800,1.8547158203125,-0.1181182861328125,0.3237457275390625,0.0652313232421875
1761503578114772000,1.86477197265625,-0.0553741455078125,0.38372802734375,0.058990478515625
1761503578124828000,1.874827880859375,-0.0060272216796875,0.3985595703125,0.067138671875
1761503578134883800,1.8848837890625,-0.0242919921875,0.3206024169921875,0.080230712890625
1761503578144939800,1.894939697265625,-0.097900390625,0.2318878173828125,0.08636474609375
1761503578154996000,1.904995849609375,-0.2079315185546875,0.1301422119140625,0.071502685546875
1761503578165052000,1.915052001953125,-0.3569793701171875,-0.038970947265625,0.0520477294921875
1761503578175107800,1.92510791015625,-0.5272369384765625,-0.2329864501953125,0.017578125
1761503578185164000,1.9351640625,-0.6309661865234375,-0.3642730712890625,0.0185699462890625
1761503578195220000,1.945219970703125,-0.6759185791015625,-0.46710205078125,0.08685302734375
1761503578205276000,1.95527587890625,-0.6942596435546875,-0.7370758056640625,0.20037841796875
1761503578215332000,1.96533203125,-0.53594970703125,-1.220794677734375,0.2631378173828125
1761503578225387800,1.9753876953125,-0.2412261962890625,-2.0051116943359375,0.160736083984375
1761503578235443700,1.985443603515625,0.1919097900390625,-3.1252899169921875,-0.033447265625
1761503578245500000,1.9955,0.1168975830078125,-4.1476287841796875,0.01641845703125
1761503578255555800,2.005555908203125,-0.736175537109375,-4.5252685546875,0.102264404296875
1761503578265611800,2.01561181640625,-1.3192291259765625,-4.407135009765625,0.15875244140625
1761503578275668000,2.02566796875,-1.480987548828125,-4.4044189453125,0.065673828125
1761503578285725000,2.035724853515625,-1.456512451171875,-4.2368621826171875,-0.1883544921875
1761503578295780900,2.04578076171875,-1.297027587890625,-3.5605316162109375,-0.209259033203125
1761503578305836800,2.0558369140625,-0.989349365234375,-3.0179290771484375,-0.1386260986328125
1761503578315893000,2.06589306640625,-0.6456756591796875,-3.0290069580078125,-0.00408935546875
1761503578325949000,2.075948974609375,-0.561309814453125,-3.151763916015625,0.19476318359375
1761503578336004900,2.0860048828125,-0.6202850341796875,-3.2749176025390625,0.3056488037109375
1761503578346061000,2.09606103515625,-0.7656097412109375,-3.2747039794921875,0.273162841796875
1761503578356117000,2.106116943359375,-0.9573822021484375,-2.970245361328125,0.1490325927734375
1761503578366173000,2.1161728515625,-0.9626617431640625,-2.5125274658203125,-0.013153076171875
1761503578376228900,2.126228759765625,-0.7761688232421875,-1.864349365234375,-0.054931640625
1761503578386284800,2.136284912109375,-0.52117919921875,-1.114654541015625,-0.0641632080078125
1761503578396340700,2.1463408203125,-0.30035400390625,-0.4795989990234375,-0.0937957763671875
1761503578406397000,2.15639697265625,-0.292572021484375,-0.0688934326171875,0.0371246337890625
1761503578416452900,2.166452880859375,-0.1134796142578125,0.08477783203125,0.208251953125
1761503578426508800,2.1765087890625,0.1845855712890625,0.2085418701171875,0.1881561279296875
1761503578436565000,2.18656494140625,0.0512847900390625,0.2442626953125,0.132904052734375
1761503578446621000,2.196620849609375,-0.0092010498046875,0.297454833984375,0.0720977783203125
1761503578456676900,2.2066767578125,-0.0189666748046875,0.4562835693359375,-0.03680419921875
1761503578466733000,2.216733154296875,-0.0718841552734375,0.4080047607421875,-0.1423187255859375
1761503578476789000,2.2267890625,-0.0876007080078125,0.25677490234375,-0.22589111328125
1761503578486845000,2.236844970703125,-0.0333251953125,0.1029510498046875,-0.2810821533203125
1761503578496901000,2.246901123046875,-0.0545806884765625,0.0035400390625,-0.2033233642578125
1761503578506958000,2.2569580078125,-0.154388427734375,-0.088897705078125,-0.025970458984375
1761503578517014000,2.267013916015625,-0.1786041259765625,-0.1229400634765625,0.1095428466796875
1761503578527069700,2.277069580078125,-0.085113525390625,-0.1136322021484375,0.2211761474609375
1761503578537126000,2.2871259765625,0.067047119140625,-0.219573974609375,0.2281341552734375
1761503578547181800,2.297181884765625,0.0512847900390625,-0.142486572265625,0.15087890625
1761503578557237800,2.30723779296875,-0.00360107421875,-0.0416107177734375,0.0847625732421875
1761503578567294000,2.3172939453125,-0.0639190673828125,0.008636474609375,0.0375213623046875
1761503578577350000,2.327349853515625,-0.0318145751953125,0.1295013427734375,-0.0435791015625
1761503578587405800,2.33740576171875,-0.0337677001953125,0.2686767578125,-0.0985565185546875
1761503578597462000,2.3474619140625,-0.1080169677734375,0.4311981201171875,-0.054107666015625
1761503578607518000,2.35751806640625,-0.1933441162109375,0.508636474609375,0.001495361328125
1761503578617574000,2.367573974609375,-0.186737060546875,0.476104736328125,0.0021209716796875
1761503578627630000,2.377630126953125,-0.1261749267578125,0.441375732421875,0.000701904296875
1761503578637686000,2.38768603515625,-0.0816192626953125,0.450225830078125,0.0180816650390625
1761503578647742000,2.397741943359375,-0.0325927734375,0.4886016845703125,0.0486297607421875
1761503578657798000,2.4077978515625,0.023468017578125,0.5666961669921875,0.05841064453125
1761503578667853800,2.417853759765625,0.1205291748046875,0.65032958984375,0.0511016845703125
1761503578677909800,2.42790966796875,0.1529693603515625,0.5994873046875,0.0731048583984375
1761503578687966000,2.437966064453125,0.0660247802734375,0.4091033935546875,0.086883544921875
1761503578698022000,2.44802197265625,-0.07611083984375,0.08526611328125,0.07305908203125
1761503578708077800,2.458077880859375,-0.2086944580078125,-0.2832489013671875,0.048248291015625
1761503578718134000,2.468134033203125,-0.32427978515625,-0.6334228515625,0.040863037109375
1761503578728191000,2.47819091796875,-0.3481292724609375,-0.911590576171875,0.0516815185546875
1761503578738247000,2.488246826171875,-0.3472137451171875,-1.14404296875,0.043792724609375
1761503578748302800,2.498302734375,-0.36590576171875,-1.2819061279296875,0.04864501953125
1761503578758359000,2.508359130859375,-0.2547149658203125,-1.28900146484375,0.0662689208984375
1761503578768415000,2.5184150390625,-0.0505523681640625,-1.38824462890625,0.034698486328125
1761503578778471000,2.528470947265625,-0.023590087890625,-1.624969482421875,0.02996826171875
1761503578788527000,2.538527099609375,0.15948486328125,-2.2463836669921875,0.050323486328125
1761503578798583000,2.5485830078125,0.0430755615234375,-3.144073486328125,0.095550537109375
1761503578808638700,2.558638671875,-0.4378509521484375,-3.675079345703125,0.14202880859375
1761503578818695000,2.56869482421875,-1.1280517578125,-3.71160888671875,0.1024322509765625
1761503578828750800,2.578750732421875,-1.27215576171875,-3.6306915283203125,-0.0584564208984375
1761503578838806800,2.588806884765625,-1.13787841796875,-3.673614501953125,-0.19384765625
1761503578848863000,2.598863037109375,-1.1060791015625,-3.5447845458984375,-0.192535400390625
1761503578858919000,2.6089189453125,-1.0311737060546875,-3.1980133056640625,-0.1727142333984375
1761503578868974800,2.618974853515625,-0.7117767333984375,-3.0064849853515625,-0.2413177490234375
1761503578879031000,2.629031005859375,-0.5298919677734375,-3.0744171142578125,-0.317596435546875
1761503578889087000,2.6390869140625,-0.7840728759765625,-3.2387847900390625,-0.2500152587890625
1761503578899143000,2.649142822265625,-1.173919677734375,-3.21417236328125,-0.1321563720703125
1761503578909199000,2.65919921875,-1.4175262451171875,-2.9752960205078125,-0.112213134765625
1761503578919255000,2.669255126953125,-1.3861541748046875,-2.544403076171875,-0.07952880859375
1761503578929311000,2.67931103515625,-1.017578125,-2.143341064453125,-0.0306396484375
1761503578939367000,2.689366943359375,-0.6168670654296875,-1.6741943359375,-0.0359954833984375
1761503578949422800,2.6994228515625,-0.2699737548828125,-1.0980377197265625,-0.1011962890625
1761503578959479800,2.709479736328125,0.0347442626953125,-0.6228179931640625,-0.201873779296875
1761503578969535700,2.71953564453125,0.1948089599609375,-0.328460693359375,-0.281005859375
1761503578979592000,2.729592041015625,0.129150390625,-0.1045379638671875,-0.2740936279296875
1761503578989648000,2.73964794921875,0.000518798828125,0.00201416015625,-0.2097015380859375
1761503578999703800,2.749703857421875,-0.1197052001953125,0.01470947265625,-0.0944366455078125
1761503579009760000,2.759760009765625,-0.11236572265625,0.0330047607421875,0.0332489013671875
1761503579019816000,2.76981591796875,-0.0156707763671875,0.079925537109375,0.138092041015625
1761503579029871900,2.779871826171875,0.0593109130859375,0.1893768310546875,0.2259063720703125
1761503579039928000,2.789927978515625,0.1360321044921875,0.3285675048828125,0.2773284912109375
1761503579049984000,2.79998388671875,0.244659423828125,0.3639678955078125,0.2477569580078125
1761503579060040000,2.8100400390625,0.3171234130859375,0.4029083251953125,0.1343231201171875
1761503579070096100,2.82009619140625,0.258758544921875,0.43023681640625,0.018890380859375
1761503579080152000,2.830152099609375,0.01055908203125,0.3804779052734375,-0.065216064453125
1761503579090207700,2.840207763671875,-0.2315826416015625,0.3279571533203125,-0.06396484375
1761503579100267800,2.850267822265625,-0.3193511962890625,0.270233154296875,-0.03076171875
1761503579110324000,2.860323974609375,-0.3150787353515625,0.2444000244140625,0.0281829833984375
1761503579120379600,2.870379638671875,-0.2937774658203125,0.28753662109375,0.0676116943359375
1761503579130435600,2.880435546875,-0.2842864990234375,0.31396484375,0.0691070556640625
1761503579140491800,2.89049169921875,-0.3025360107421875,0.30340576171875,0.041168212890625
1761503579150547700,2.900547607421875,-0.1996612548828125,0.1137847900390625,0.064727783203125
1761503579160604700,2.910604736328125,-0.070526123046875,-0.003936767578125,0.03656005859375
1761503579170660600,2.92066064453125,0.0286712646484375,0.0823974609375,-0.0589141845703125
1761503579180716800,2.930716796875,-0.022857666015625,0.1304931640625,-0.1359100341796875
1761503579190772700,2.940772705078125,-0.23370361328125,0.1053466796875,-0.1455230712890625
1761503579200828700,2.95082861328125,-0.2379608154296875,-0.0185699462890625,-0.1239776611328125
1761503579210884900,2.960884765625,-0.2369537353515625,-0.076263427734375,-0.092254638671875
1761503579220940800,2.97094091796875,-0.1667633056640625,-0.1161651611328125,-0.0025177001953125
1761503579230996700,2.980996826171875,-0.04193115234375,-0.123504638671875,-0.004852294921875
1761503579241053000,2.991052978515625,0.1151885986328125,0.00299072265625,-0.04718017578125
1761503579251108900,3.00110888671875,0.1977691650390625,0.1563262939453125,-0.0162811279296875
1761503579261164800,3.011164794921875,0.200103759765625,0.17034912109375,0.05645751953125
1761503579271220700,3.021220703125,0.1921844482421875,0.1058349609375,0.071624755859375
1761503579281276700,3.031276611328125,0.266387939453125,-0.2224273681640625,0.15057373046875
1761503579291332600,3.04133251953125,0.2631683349609375,-0.70660400390625,0.3150177001953125
1761503579301388800,3.051388916015625,0.0128631591796875,-0.8533477783203125,0.3257293701171875
1761503579311444700,3.06144482421875,-0.2827606201171875,-0.7713775634765625,0.180908203125
1761503579321500700,3.071500732421875,-0.3863372802734375,-0.9823455810546875,0.0761566162109375
1761503579331556900,3.081556884765625,-0.2449951171875,-1.475616455078125,0.029632568359375
1761503579341612800,3.09161279296875,-0.030120849609375,-1.93475341796875,-0.0435791015625
1761503579351668700,3.101668701171875,0.15887451171875,-2.437835693359375,-0.049041748046875
1761503579361725000,3.111724853515625,-0.0558319091796875,-2.984588623046875,-0.0159149169921875
1761503579371780900,3.12178076171875,-0.771759033203125,-3.434600830078125,-0.0074462890625
1761503579381837800,3.131837890625,-1.0380401611328125,-3.87738037109375,0.03912353515625
1761503579391893800,3.141893798828125,-1.0749053955078125,-4.2743072509765625,-0.038604736328125
1761503579401950000,3.151949951171875,-1.1017303466796875,-4.1818389892578125,-0.3609466552734375
1761503579412006000,3.162005859375,-1.1359710693359375,-3.9083099365234375,-0.5688934326171875
1761503579422061600,3.1720615234375,-1.001953125,-3.6340179443359375,-0.450775146484375
1761503579432117800,3.18211767578125,-0.8248138427734375,-3.4545440673828125,-0.15325927734375
1761503579442173700,3.192173583984375,-0.568817138671875,-3.463653564453125,0.051116943359375
1761503579452229600,3.202229736328125,-0.2166290283203125,-3.501678466796875,0.1000213623046875
1761503579462285800,3.212285888671875,0.126617431640625,-3.345550537109375,-0.039825439453125
1761503579472341800,3.222341796875,0.4322509765625,-2.9927978515625,-0.282440185546875
1761503579482397700,3.232397705078125,0.5657501220703125,-2.5041046142578125,-0.412109375
1761503579492454000,3.242453857421875,0.38323974609375,-1.8222503662109375,-0.343231201171875
1761503579502509800,3.252509765625,0.0903167724609375,-1.1046600341796875,-0.2449493408203125
1761503579512565800,3.262565673828125,-0.1271209716796875,-0.6116180419921875,-0.14739990234375
1761503579522622000,3.2726220703125,-0.3419647216796875,-0.366241455078125,0.0096435546875
1761503579532678000,3.282677978515625,-0.451446533203125,-0.1773681640625,0.089324951171875
1761503579542733800,3.29273388671875,-0.56048583984375,0.10565185546875,0.14630126953125
1761503579552789800,3.302789794921875,-0.5733184814453125,0.2884063720703125,0.1571197509765625
1761503579562845700,3.312845703125,-0.5610198974609375,0.3880767822265625,0.0841827392578125
1761503579572901600,3.322901611328125,-0.45587158203125,0.4102783203125,0.0609588623046875
1761503579582957800,3.332957763671875,-0.27691650390625,0.34332275390625,-0.0294036865234375
1761503579593014800,3.343014892578125,-0.0804901123046875,0.364898681640625,-0.121490478515625
1761503579603070700,3.35307080078125,-0.0542449951171875,0.33355712890625,-0.112213134765625
1761503579613126700,3.363126708984375,-0.30230712890625,0.240203857421875,-0.0460052490234375
1761503579623182800,3.373182861328125,-0.3806304931640625,0.0939788818359375,0.0517120361328125
1761503579633238800,3.38323876953125,-0.2920989990234375,0.0886688232421875,0.030792236328125
1761503579643294700,3.393294677734375,-0.2147369384765625,0.27178955078125,-0.0184478759765625
1761503579653351000,3.403350830078125,-0.10870361328125,0.365264892578125,-0.0169219970703125
1761503579663406800,3.41340673828125,-0.0318145751953125,0.3260650634765625,0.0214691162109375
1761503579673462800,3.423462890625,-0.007110595703125,0.25421142578125,0.0287933349609375
1761503579683519000,3.43351904296875,-0.0475311279296875,0.21630859375,-0.001678466796875
1761503579693575000,3.443574951171875,-0.1210479736328125,0.167724609375,-0.0199127197265625
1761503579703630600,3.453630615234375,-0.185760498046875,0.1137237548828125,-0.0298309326171875
1761503579713686800,3.463686767578125,-0.206512451171875,0.1146392822265625,-0.0611419677734375
1761503579723742700,3.47374267578125,-0.130889892578125,0.0900726318359375,-0.1087493896484375
1761503579733798700,3.483798583984375,0.0533447265625,0.0196380615234375,-0.1593780517578125
1761503579743854800,3.493854736328125,0.1614227294921875,-0.067657470703125,-0.223236083984375
1761503579753910800,3.503910888671875,0.1500091552734375,-0.1489410400390625,-0.2132415771484375
1761503579763966700,3.513966796875,0.051727294921875,-0.1555328369140625,-0.132720947265625
1761503579774023000,3.52402294921875,0.022674560546875,-0.0729522705078125,-0.0327606201171875
1761503579784078800,3.534078857421875,0.053955078125,-0.0027008056640625,0.09014892578125
1761503579794135800,3.5441357421875,0.1070556640625,0.0327301025390625,0.2122650146484375
1761503579804191700,3.554191650390625,0.1894378662109375,-0.0404510498046875,0.21905517578125
1761503579814248000,3.564248046875,0.174407958984375,-0.212646484375,0.2118682861328125
1761503579824303900,3.574303955078125,0.0633697509765625,-0.3861083984375,0.2344970703125
1761503579834359800,3.58435986328125,-0.136871337890625,-0.5683135986328125,0.276123046875
1761503579844416000,3.594416015625,-0.3507080078125,-0.7421875,0.3148956298828125
1761503579854471700,3.6044716796875,-0.350799560546875,-0.8618316650390625,0.3045501708984375
1761503579864527600,3.614527587890625,-0.13287353515625,-0.9676361083984375,0.271087646484375
1761503579874583800,3.624583740234375,0.128265380859375,-1.2204437255859375,0.18408203125
1761503579884639700,3.6346396484375,0.3480377197265625,-1.5195770263671875,0.0601654052734375
1761503579894695700,3.64469580078125,0.4094696044921875,-2.1024017333984375,-0.0347137451171875
1761503579904751900,3.654751953125,0.2723388671875,-2.8460540771484375,-0.07952880859375
1761503579914807800,3.664807861328125,-0.3413543701171875,-3.4650726318359375,-0.1999969482421875
1761503579924863700,3.67486376953125,-0.6839599609375,-4.0466461181640625,-0.178619384765625
1761503579934920000,3.684919921875,-0.45928955078125,-4.4228057861328125,-0.26763916015625
1761503579944976000,3.694975830078125,-0.3020477294921875,-4.448089599609375,-0.2572479248046875
1761503579955031800,3.70503173828125,-0.4218292236328125,-4.0368194580078125,-0.2376861572265625
1761503579965088000,3.715087890625,-0.3901214599609375,-3.7694854736328125,-0.229644775390625
1761503579975144000,3.72514404296875,-0.410003662109375,-3.5249176025390625,-0.3707427978515625
1761503579985199600,3.73519970703125,-0.1740570068359375,-3.8031005859375,0.0043182373046875
1761503579995256800,3.7452568359375,0.365447998046875,-3.3003082275390625,-0.0312347412109375
1761503580005312800,3.755312744140625,0.4622802734375,-3.001708984375,-0.3885040283203125
1761503580015368700,3.76536865234375,0.779022216796875,-2.6011199951171875,-0.643310546875
1761503580025424600,3.775424560546875,0.7540435791015625,-2.2782440185546875,-0.6498260498046875
1761503580035480800,3.785480712890625,0.387725830078125,-2.065277099609375,-0.4627685546875
1761503580045536800,3.795536865234375,-0.0240020751953125,-1.6271820068359375,-0.161590576171875
1761503580055592700,3.8055927734375,-0.16064453125,-1.1222686767578125,0.0314178466796875
1761503580065649000,3.81564892578125,-0.21356201171875,-0.6322784423828125,0.08575439453125
1761503580075704800,3.825704833984375,-0.330535888671875,-0.138275146484375,0.0664825439453125
1761503580085760800,3.8357607421875,-0.5106964111328125,0.3436737060546875,0.114288330078125
1761503580095817200,3.845817138671875,-0.60748291015625,0.756927490234375,0.0646820068359375
1761503580105873400,3.855873291015625,-0.5624847412109375,0.9490814208984375,0.0099639892578125
1761503580115929300,3.865929443359375,-0.5907745361328125,1.066619873046875,0.0149078369140625
1761503580125985300,3.8759853515625,-0.5775146484375,1.1732025146484375,0.0350494384765625
1761503580136041500,3.88604150390625,-0.4260406494140625,1.0073089599609375,0.083831787109375
1761503580146097400,3.896097412109375,-0.2599639892578125,0.7514495849609375,0.095184326171875
1761503580156153300,3.9061533203125,-0.3488616943359375,0.541778564453125,0.1625213623046875
1761503580166209500,3.91620947265625,-0.423431396484375,0.322296142578125,0.2108001708984375
1761503580176265500,3.926265380859375,-0.39874267578125,0.090606689453125,0.238250732421875
1761503580186322400,3.936322509765625,-0.29058837890625,-0.035675048828125,0.2225799560546875
1761503580196378400,3.94637841796875,-0.1489105224609375,-0.108245849609375,0.176727294921875
1761503580206434600,3.9564345703125,-0.004974365234375,-0.1860198974609375,0.127349853515625
1761503580216490200,3.966490234375,0.039794921875,-0.241607666015625,0.0977325439453125
1761503580226546200,3.976546142578125,0.0220184326171875,-0.2301483154296875,0.08575439453125
1761503580236602400,3.986602294921875,0.0372314453125,-0.201904296875,0.0424957275390625
1761503580246658300,3.996658203125,0.0357513427734375,-0.1100921630859375,-0.0587005615234375
1761503580256714200,4.00671435546875,0.042449951171875,-0.076507568359375,-0.1707763671875
1761503580266770400,4.0167705078125,0.0470428466796875,-0.1032257080078125,-0.172088623046875
1761503580276826400,4.026826416015625,0.0159759521484375,-0.1311187744140625,-0.1022186279296875
1761503580286882300,4.03688232421875,0.0181884765625,-0.1866455078125,-0.020294189453125
1761503580296938500,4.0469384765625,0.0180816650390625,-0.189422607421875,0.0447540283203125
1761503580306994400,4.056994384765625,0.0110321044921875,-0.0921630859375,0.072479248046875
1761503580317050400,4.06705029296875,0.0242156982421875,0.0158233642578125,0.0647430419921875
1761503580327106600,4.0771064453125,0.0461578369140625,0.08856201171875,0.0211029052734375
1761503580337162500,4.08716259765625,0.045928955078125,0.084747314453125,-0.019500732421875
1761503580347218200,4.09721826171875,-0.0102996826171875,-0.0360107421875,-0.015289306640625
1761503580357274400,4.1072744140625,-0.0712890625,-0.1837005615234375,-0.01300048828125
1761503580367331300,4.117331298828125,-0.140655517578125,-0.2595062255859375,-0.0584716796875
1761503580377387300,4.12738720703125,-0.2025909423828125,-0.3336029052734375,-0.0910186767578125
1761503580387443200,4.137443115234375,-0.25677490234375,-0.44049072265625,-0.090606689453125
1761503580397499400,4.14749951171875,-0.25689697265625,-0.507110595703125,-0.051177978515625
1761503580407555300,4.157555419921875,-0.14288330078125,-0.6331024169921875,-0.008758544921875
1761503580417611300,4.167611328125,0.0291290283203125,-0.8318023681640625,-0.015960693359375
1761503580427667500,4.17766748046875,0.230255126953125,-1.2381439208984375,-0.0684051513671875
1761503580437723400,4.187723388671875,0.362945556640625,-2.0453643798828125,-0.153411865234375
1761503580447779300,4.197779296875,0.2894439697265625,-3.0411376953125,-0.273712158203125
1761503580457835500,4.20783544921875,-0.0302276611328125,-3.7562255859375,-0.4822845458984375
1761503580467891500,4.217891357421875,-0.51739501953125,-4.15240478515625,-0.5261383056640625
1761503580477947400,4.227947509765625,-0.7377471923828125,-4.3531036376953125,-0.08953857421875
1761503580488003600,4.238003662109375,-0.7794036865234375,-4.498565673828125,0.3693695068359375
1761503580498059300,4.248059326171875,-0.7988433837890625,-4.4379730224609375,0.76849365234375
1761503580508115200,4.258115234375,-0.8788604736328125,-4.1759490966796875,1.1504058837890625
1761503580518171400,4.26817138671875,-0.85955810546875,-3.9292144775390625,1.258880615234375
1761503580528227300,4.278227294921875,-0.766632080078125,-3.534149169921875,0.9478302001953125
1761503580538283300,4.288283203125,-0.609161376953125,-3.0603179931640625,0.452667236328125
1761503580548340200,4.29834033203125,-0.4837493896484375,-2.631622314453125,-0.0864410400390625
1761503580558396400,4.308396484375,-0.257232666015625,-2.161590576171875,-0.4682464599609375
1761503580568452400,4.318452392578125,0.076019287109375,-1.8697509765625,-0.590911865234375
1761503580578508300,4.32850830078125,0.3103485107421875,-1.673583984375,-0.5371856689453125
1761503580588564500,4.338564453125,0.38580322265625,-1.426361083984375,-0.3993072509765625
1761503580598620400,4.348620361328125,0.3970947265625,-1.226837158203125,-0.199615478515625
1761503580608676400,4.35867626953125,0.323516845703125,-1.0235748291015625,0.0201873779296875
1761503580618732500,4.368732666015625,0.0682830810546875,-0.6877288818359375,0.201751708984375
1761503580628788500,4.37878857421875,-0.0947113037109375,-0.322509765625,0.24530029296875
1761503580638844400,4.388844482421875,-0.1052398681640625,-0.0449676513671875,0.1346282958984375
1761503580648900400,4.398900390625,-0.1120452880859375,0.1134033203125,-0.041900634765625
1761503580658956300,4.408956298828125,-0.1707916259765625,0.2108612060546875,-0.1264801025390625
1761503580669012200,4.41901220703125,-0.2684173583984375,0.2976226806640625,-0.193878173828125
1761503580679068400,4.429068359375,-0.329925537109375,0.4178924560546875,-0.21258544921875
1761503580689124400,4.439124267578125,-0.450408935546875,0.513702392578125,-0.1059112548828125
1761503580699180300,4.44918017578125,-0.6458740234375,0.60797119140625,0.0640411376953125
1761503580709236500,4.459236572265625,-0.558013916015625,0.5767364501953125,0.227874755859375
1761503580719292400,4.46929248046875,-0.338714599609375,0.44219970703125,0.2904815673828125
1761503580729349400,4.479349365234375,-0.267486572265625,0.3515472412109375,0.2732391357421875
1761503580739405300,4.4894052734375,-0.2144927978515625,0.3206024169921875,0.1504669189453125
1761503580749461500,4.49946142578125,-0.1898651123046875,0.358367919921875,0.0012969970703125
1761503580759517400,4.509517333984375,-0.2711944580078125,0.3391265869140625,-0.0458221435546875
1761503580769573400,4.519573486328125,-0.360107421875,0.262847900390625,0.01666259765625
1761503580779629600,4.529629638671875,-0.369964599609375,0.18646240234375,0.0952301025390625
1761503580789685500,4.539685546875,-0.3001251220703125,0.1352691650390625,0.0735321044921875
1761503580799741200,4.5497412109375,-0.197479248046875,0.0648956298828125,-0.0301513671875
1761503580809797400,4.55979736328125,-0.0989227294921875,-0.08111572265625,-0.1168060302734375
1761503580819853300,4.569853271484375,-0.064697265625,-0.103668212890625,-0.2018585205078125
1761503580829909200,4.5799091796875,-0.071563720703125,-0.08868408203125,-0.1881561279296875
1761503580839965400,4.58996533203125,-0.1444091796875,-0.176300048828125,-0.005279541015625
1761503580850021400,4.600021484375,-0.105712890625,-0.219512939453125,0.153717041015625
1761503580860077300,4.610077392578125,-0.01214599609375,-0.21466064453125,0.2497100830078125
1761503580870133500,4.620133544921875,0.0232086181640625,-0.12384033203125,0.245880126953125
1761503580880189400,4.630189453125,0.0655670166015625,0.0330047607421875,0.09771728515625
1761503580890246400,4.640246337890625,0.088409423828125,0.1396636962890625,-0.0382843017578125
1761503580900302300,4.65030224609375,0.058135986328125,0.1687164306640625,-0.0747222900390625
1761503580910358500,4.660358642578125,0.02569580078125,0.067413330078125,-0.031646728515625
1761503580920414500,4.67041455078125,-0.0188751220703125,-0.1293182373046875,0.00604248046875
1761503580930470400,4.680470458984375,-0.0881805419921875,-0.3401031494140625,0.0023651123046875
1761503580940526600,4.690526611328125,-0.1893463134765625,-0.5475921630859375,0.0471038818359375
1761503580950582300,4.700582275390625,-0.104827880859375,-0.7104644775390625,0.0644989013671875
1761503580960638200,4.71063818359375,0.0911712646484375,-0.888458251953125,0.0439453125
1761503580970694400,4.7206943359375,0.31304931640625,-1.3216552734375,-0.0584716796875
1761503580980750300,4.730750244140625,0.449493408203125,-2.18017578125,-0.2190399169921875
1761503580990806300,4.74080615234375,0.287628173828125,-3.2691497802734375,-0.2436065673828125
1761503581000862500,4.750862548828125,-0.1962890625,-3.968292236328125,-0.147491455078125
1761503581010918400,4.76091845703125,-0.6640472412109375,-4.290771484375,0.041259765625
1761503581020974300,4.770974365234375,-0.797393798828125,-4.5201873779296875,0.306121826171875
1761503581031030500,4.781030517578125,-0.92266845703125,-4.370361328125,0.5015869140625
1761503581041086500,4.79108642578125,-1.0965728759765625,-3.95794677734375,0.5501708984375
1761503581051143400,4.801143310546875,-1.03326416015625,-3.55523681640625,0.4001007080078125
1761503581061199400,4.811199462890625,-0.660614013671875,-3.1717681884765625,0.12982177734375
1761503581071255600,4.821255615234375,-0.4733734130859375,-2.979217529296875,-0.0615692138671875
1761503581081311500,4.8313115234375,-0.531524658203125,-2.9586029052734375,-0.1208343505859375
1761503581091367400,4.841367431640625,-0.5202178955078125,-2.83831787109375,-0.1544342041015625
1761503581101423000,4.851423095703125,-0.28662109375,-2.6781768798828125,-0.10418701171875
1761503581111479000,4.86147900390625,0.1194000244140625,-2.5310516357421875,-0.1006317138671875
1761503581121535000,4.871534912109375,0.427947998046875,-2.284942626953125,-0.1182098388671875
1761503581131591200,4.881591064453125,0.5655975341796875,-1.9234771728515625,-0.10614013671875
1761503581141647000,4.891647216796875,0.52374267578125,-1.4953460693359375,-0.030731201171875
1761503581151703000,4.901703125,0.3346405029296875,-1.0402069091796875,0.01177978515625
1761503581161759200,4.91175927734375,0.0913848876953125,-0.5975341796875,-0.0572509765625
1761503581171815200,4.921815185546875,-0.1189422607421875,-0.220062255859375,-0.04461669921875
1761503581181870800,4.931870849609375,-0.281646728515625,0.146270751953125,0.0047760009765625
1761503581191927000,4.941927001953125,-0.3404693603515625,0.407440185546875,0.0269622802734375
1761503581201983000,4.95198291015625,-0.3376617431640625,0.5319366455078125,0.065521240234375
1761503581212039000,4.962038818359375,-0.373321533203125,0.585845947265625,0.0741119384765625
1761503581222096000,4.972095947265625,-0.3209381103515625,0.5573577880859375,0.0517425537109375
1761503581232152000,4.982152099609375,-0.3685760498046875,0.49853515625,0.03924560546875
1761503581242208000,4.9922080078125,-0.4114990234375,0.3988494873046875,0.0186767578125
1761503581252264000,5.002263916015625,-0.335235595703125,0.24322509765625,-0.00750732421875
1761503581262320000,5.012320068359375,-0.2954254150390625,0.139068603515625,-0.001007080078125
1761503581272376000,5.0223759765625,-0.2779388427734375,0.0947418212890625,0.08905029296875
1761503581282432000,5.032431884765625,-0.2194976806640625,0.0048675537109375,0.16754150390625
1761503581292488200,5.04248828125,-0.144256591796875,-0.0708465576171875,0.2204437255859375
1761503581302544100,5.052544189453125,-0.0965728759765625,-0.1210784912109375,0.2549285888671875
1761503581312600000,5.06260009765625,-0.09210205078125,-0.1468505859375,0.2414093017578125
1761503581322656300,5.07265625,-0.1235504150390625,-0.1634063720703125,0.20233154296875
1761503581332712000,5.0827119140625,-0.1604461669921875,-0.1301422119140625,0.1462554931640625
1761503581342767900,5.092767822265625,-0.173126220703125,-0.0176849365234375,0.0553131103515625
1761503581352824000,5.102823974609375,-0.171783447265625,0.156402587890625,-0.068389892578125
1761503581362880000,5.1128798828125,-0.0575103759765625,0.2355804443359375,-0.166717529296875
1761503581372937000,5.12293701171875,0.0365447998046875,0.237457275390625,-0.160247802734375
1761503581382993000,5.132992919921875,0.01910400390625,0.2262725830078125,-0.0841064453125
1761503581393049000,5.143049072265625,-0.0246124267578125,0.2250823974609375,-0.0352325439453125
1761503581403105000,5.15310498046875,-0.093963623046875,0.298553466796875,-0.0419464111328125
1761503581413161000,5.163160888671875,-0.10906982421875,0.4146575927734375,-0.1003570556640625
1761503581423217200,5.173217041015625,-0.0923614501953125,0.4509735107421875,-0.127197265625
1761503581433273000,5.183273193359375,-0.0753936767578125,0.3957672119140625,-0.1082916259765625
1761503581443329000,5.1933291015625,-0.0508270263671875,0.2580413818359375,-0.0984954833984375
1761503581453385200,5.20338525390625,-0.0426025390625,-0.053924560546875,-0.0783843994140625
1761503581463441200,5.213441162109375,-0.090972900390625,-0.4298858642578125,-0.02532958984375
1761503581473497000,5.2234970703125,-0.18682861328125,-0.7284698486328125,0.0174407958984375
1761503581483553000,5.233552978515625,-0.3413238525390625,-0.9679718017578125,0.1351776123046875
1761503581493609000,5.24360888671875,-0.337371826171875,-1.09881591796875,0.255767822265625
1761503581503665000,5.253664794921875,-0.09918212890625,-1.147674560546875,0.2852783203125
1761503581513721000,5.26372119140625,0.1691131591796875,-1.296661376953125,0.147491455078125
1761503581523778000,5.273778076171875,0.3305206298828125,-1.629150390625,-0.040771484375
1761503581533834000,5.283833984375,0.4225006103515625,-2.335113525390625,0.012664794921875
1761503581543890000,5.293889892578125,0.2815704345703125,-3.2573089599609375,0.0925140380859375
1761503581553946000,5.303946044921875,-0.0709075927734375,-3.7025909423828125,0.0190582275390625
1761503581564002000,5.314001953125,-0.486083984375,-3.909149169921875,0.10992431640625
1761503581574058000,5.32405810546875,-0.904144287109375,-3.9757843017578125,0.3264617919921875
1761503581584114200,5.3341142578125,-0.8609771728515625,-3.921539306640625,0.297393798828125
1761503581594170000,5.344170166015625,-0.699310302734375,-3.91302490234375,0.155792236328125
1761503581604226000,5.35422607421875,-0.79351806640625,-3.670745849609375,0.2000274658203125
1761503581614282200,5.3642822265625,-0.6700897216796875,-3.3929443359375,0.173553466796875
1761503581624338200,5.374338134765625,-0.2730255126953125,-3.281005859375,0.098968505859375
1761503581634393900,5.384393798828125,0.1940155029296875,-3.085906982421875,-0.0610198974609375
1761503581644450000,5.394449951171875,0.586090087890625,-2.830810546875,-0.2292327880859375
1761503581654506000,5.404506103515625,0.68157958984375,-2.53436279296875,-0.2325592041015625
1761503581664562000,5.41456201171875,0.6371002197265625,-2.165008544921875,-0.166656494140625
1761503581674618000,5.4246181640625,0.4552154541015625,-1.7472686767578125,-0.05078125
1761503581684674000,5.434674072265625,0.2304840087890625,-1.375244140625,0.0057830810546875
1761503581694731000,5.44473095703125,-0.01190185546875,-1.148345947265625,-0.0839996337890625
1761503581704787000,5.454786865234375,-0.311553955078125,-0.9878082275390625,-0.13421630859375
1761503581714839800,5.46483984375,-0.611785888671875,-0.7960662841796875,-0.043121337890625
1761503581724896000,5.47489599609375,-0.64080810546875,-0.6182403564453125,0.1334228515625
1761503581734952000,5.484951904296875,-0.4860992431640625,-0.4095306396484375,0.2120513916015625
1761503581745007900,5.4950078125,-0.1959381103515625,-0.2027587890625,0.112640380859375
1761503581755064000,5.50506396484375,0.0264892578125,-0.045684814453125,-0.0587158203125
1761503581765120000,5.5151201171875,0.0659027099609375,0.094329833984375,-0.186553955078125
1761503581775176000,5.525176025390625,-0.0815887451171875,0.216064453125,-0.2155914306640625
1761503581785232100,5.535232177734375,-0.3579864501953125,0.3439178466796875,-0.1230316162109375
1761503581795288000,5.5452880859375,-0.618408203125,0.5025482177734375,-0.01885986328125
1761503581805344000,5.555343994140625,-0.598419189453125,0.6550445556640625,-0.008270263671875
1761503581815400200,5.565400146484375,-0.3135223388671875,0.545318603515625,0.0015869140625
1761503581825456000,5.5754560546875,-0.272674560546875,0.4019012451171875,0.131500244140625
1761503581835512000,5.585511962890625,-0.2086029052734375,0.4009552001953125,0.1570587158203125
1761503581845569000,5.595569091796875,-0.13970947265625,0.440704345703125,0.0684814453125
1761503581855625200,5.605625244140625,-0.1080169677734375,0.46820068359375,-0.0414581298828125
1761503581865681000,5.615680908203125,-0.1219482421875,0.4540863037109375,-0.0964508056640625
1761503581875736800,5.62573681640625,-0.1898345947265625,0.3897705078125,-0.111083984375
1761503581885793000,5.63579296875,-0.2803192138671875,0.27484130859375,-0.113739013671875
1761503581895849000,5.645848876953125,-0.3258056640625,0.1168670654296875,-0.133880615234375
1761503581905905000,5.65590478515625,-0.261688232421875,-0.059326171875,-0.152435302734375
1761503581915961000,5.665961181640625,-0.2067108154296875,-0.153778076171875,-0.1046600341796875
1761503581926017000,5.67601708984375,-0.11248779296875,-0.1941986083984375,-0.0815887451171875
1761503581936073000,5.686072998046875,-0.015838623046875,-0.1809539794921875,-0.1186981201171875
1761503581946129200,5.696129150390625,-0.0017852783203125,-0.118865966796875,-0.0999755859375
1761503581956185000,5.70618505859375,-0.0042266845703125,-0.074981689453125,-0.053985595703125
1761503581966241000,5.716240966796875,-0.03106689453125,-0.0527496337890625,0.016387939453125
1761503581976297200,5.726297119140625,-0.0877532958984375,-0.0757293701171875,0.1006622314453125
1761503581986354200,5.736354248046875,-0.114532470703125,-0.09393310546875,0.1618804931640625
1761503581996410000,5.74641015625,-0.0847625732421875,-0.13787841796875,0.181915283203125
1761503582006466000,5.756466064453125,0.0085906982421875,-0.196929931640625,0.1558685302734375
1761503582016522000,5.76652197265625,0.0827178955078125,-0.2270965576171875,0.0968017578125
1761503582026578000,5.776577880859375,0.0797576904296875,-0.2417449951171875,0.0161285400390625
1761503582036633900,5.7866337890625,0.0806427001953125,-0.2839813232421875,-0.0025787353515625
1761503582046690000,5.79668994140625,0.1192779541015625,-0.4296875,0.0485076904296875
1761503582056746000,5.80674609375,0.0804443359375,-0.7617645263671875,0.1943817138671875
1761503582066802000,5.816802001953125,0.176239013671875,-1.314788818359375,0.2371673583984375
1761503582076858000,5.826858154296875,0.4021453857421875,-2.235198974609375,0.1033172607421875
1761503582086914000,5.8369140625,0.3795928955078125,-3.3597869873046875,0.05755615234375
1761503582096970000,5.846969970703125,0.0094451904296875,-4.11456298828125,0.0242767333984375
1761503582107022300,5.857022216796875,-0.52325439453125,-4.659698486328125,0.0250701904296875
1761503582117078300,5.867078369140625,-0.675201416015625,-4.9982452392578125,0.1180267333984375
1761503582127138300,5.87713818359375,-0.5901336669921875,-4.65802001953125,0.0767669677734375
1761503582137194500,5.887194580078125,-0.5114898681640625,-3.8073272705078125,0.00067138671875
1761503582147250400,5.89725048828125,-0.2874908447265625,-3.0574798583984375,0.0222625732421875
1761503582157306000,5.90730615234375,0.0003662109375,-2.6817779541015625,0.079986572265625
1761503582167362300,5.9173623046875,0.225311279296875,-2.5489349365234375,0.162261962890625
1761503582177418200,5.927418212890625,0.291534423828125,-2.5126190185546875,0.2021026611328125
1761503582187474200,5.93747412109375,0.3037109375,-2.3286895751953125,0.1584625244140625
1761503582197530400,5.9475302734375,0.325927734375,-2.133636474609375,0.0006561279296875
1761503582207586300,5.95758642578125,0.58111572265625,-2.1590118408203125,-0.279937744140625
1761503582217642200,5.967642333984375,0.661895751953125,-2.307342529296875,-0.545013427734375
1761503582227698400,5.977698486328125,0.6927032470703125,-2.3925323486328125,-0.666229248046875
1761503582237754400,5.98775439453125,0.6045684814453125,-2.2417755126953125,-0.5713348388671875
1761503582247810300,5.997810302734375,0.4920501708984375,-1.873199462890625,-0.3846893310546875
1761503582257866500,6.007866455078125,0.4360809326171875,-1.2108001708984375,-0.201202392578125
1761503582267922400,6.01792236328125,0.142333984375,-0.4825897216796875,0.0366668701171875
1761503582277979400,6.0279794921875,-0.103302001953125,-0.0723876953125,0.36090087890625
1761503582288035300,6.038035400390625,-0.22882080078125,0.16357421875,0.495697021484375
1761503582298091500,6.048091552734375,-0.3954925537109375,0.355499267578125,0.4100341796875
1761503582308147200,6.058147216796875,-0.530853271484375,0.4445037841796875,0.2601165771484375
1761503582318203100,6.068203125,-0.668975830078125,0.5538482666015625,0.06304931640625
1761503582328259300,6.07825927734375,-0.705535888671875,0.53289794921875,-0.1450653076171875
1761503582338315300,6.088315185546875,-0.7015533447265625,0.5056304931640625,-0.23797607421875
1761503582348371200,6.09837109375,-0.644622802734375,0.508697509765625,-0.2584686279296875
1761503582358427400,6.108427490234375,-0.51007080078125,0.431488037109375,-0.2436981201171875
1761503582368483300,6.1184833984375,-0.4566650390625,0.3418731689453125,-0.101409912109375
1761503582378539300,6.128539306640625,-0.38739013671875,0.2599334716796875,0.05279541015625
1761503582388595500,6.138595458984375,-0.2487945556640625,0.1699371337890625,0.0728607177734375
1761503582398651400,6.1486513671875,-0.162567138671875,0.095855712890625,0.0992431640625
1761503582408707300,6.158707275390625,-0.149993896484375,0.0554351806640625,0.0574798583984375
1761503582418764300,6.168764404296875,-0.13818359375,-0.0107421875,-0.0385284423828125
1761503582428820500,6.178820556640625,-0.2157135009765625,-0.0617828369140625,-0.1244964599609375
1761503582438876400,6.18887646484375,-0.2716827392578125,-0.0467529296875,-0.18902587890625
1761503582448932400,6.198932373046875,-0.2358245849609375,-0.0320587158203125,-0.22418212890625
1761503582458988300,6.20898828125,-0.1707763671875,-0.0463714599609375,-0.219879150390625
1761503582469044200,6.219044189453125,-0.1158599853515625,-0.0655059814453125,-0.121063232421875
1761503582479100200,6.22910009765625,-0.098602294921875,-0.09564208984375,0.03472900390625
1761503582489156400,6.23915625,-0.0967559814453125,-0.002685546875,0.1534423828125
1761503582499212300,6.24921240234375,-0.066375732421875,0.141387939453125,0.16845703125
1761503582509268200,6.259268310546875,0.041107177734375,0.1777496337890625,0.133697509765625
1761503582519324400,6.269324462890625,0.148529052734375,0.1170806884765625,0.0796356201171875
1761503582529380400,6.27938037109375,0.164947509765625,-0.01849365234375,0.0272064208984375
1761503582539436300,6.289436279296875,0.12664794921875,-0.113983154296875,0.0106048583984375
1761503582549493200,6.2994931640625,0.0572509765625,-0.21905517578125,0.0507354736328125
1761503582559549400,6.309549560546875,0.0439605712890625,-0.3162078857421875,0.1020050048828125
1761503582569605400,6.31960546875,0.0723724365234375,-0.31976318359375,0.128692626953125
1761503582579661300,6.329661376953125,0.104400634765625,-0.3273468017578125,0.1231842041015625
1761503582589717500,6.339717529296875,0.11468505859375,-0.4208831787109375,0.0492095947265625
1761503582599773400,6.3497734375,0.022796630859375,-0.555999755859375,0.02911376953125
1761503582609829000,6.3598291015625,0.0235137939453125,-0.913665771484375,0.031341552734375
1761503582619885300,6.36988525390625,0.1298980712890625,-1.566009521484375,0.087158203125
1761503582629941200,6.379941162109375,0.28802490234375,-2.3864288330078125,0.1872100830078125
1761503582639997200,6.3899970703125,0.178009033203125,-3.272003173828125,0.18023681640625
1761503582650053400,6.400053466796875,-0.192291259765625,-3.8736114501953125,0.06549072265625
1761503582660109300,6.410109375,-0.3417816162109375,-4.390625,-0.0889129638671875
1761503582670165200,6.420165283203125,-0.49334716796875,-4.8424072265625,-0.0854339599609375
1761503582680221400,6.430221435546875,-0.7400054931640625,-4.71893310546875,-0.0745697021484375
1761503582690278400,6.4402783203125,-0.972686767578125,-4.0134735107421875,-0.1288299560546875
1761503582700334300,6.450334228515625,-0.74810791015625,-3.3775177001953125,-0.084991455078125
1761503582710390300,6.460390380859375,-0.222412109375,-3.0697784423828125,-0.0464630126953125
1761503582720446500,6.470446533203125,0.1495361328125,-2.8031158447265625,-0.02734375
1761503582730502400,6.48050244140625,0.2749786376953125,-2.6143798828125,0.0466766357421875
1761503582740558300,6.490558349609375,0.3435516357421875,-2.4415435791015625,0.118988037109375
1761503582750614500,6.500614501953125,0.5682830810546875,-2.2940673828125,0.121368408203125
1761503582760670200,6.510670166015625,0.7137298583984375,-2.22076416015625,0.1166839599609375
1761503582770726100,6.52072607421875,0.560333251953125,-2.175262451171875,0.1500396728515625
1761503582780782300,6.5307822265625,0.1031341552734375,-2.042694091796875,0.1592254638671875
1761503582790838300,6.54083837890625,-0.179351806640625,-1.759124755859375,0.1030731201171875
1761503582800894200,6.550894287109375,-0.274322509765625,-1.2809906005859375,0.0103607177734375
1761503582810950400,6.560950439453125,-0.3176422119140625,-0.73681640625,-0.1088409423828125
1761503582821006300,6.57100634765625,-0.42572021484375,-0.234161376953125,-0.1300048828125
1761503582831063300,6.581063232421875,-0.4998626708984375,0.1451263427734375,-0.0586700439453125
1761503582841119200,6.591119140625,-0.5360565185546875,0.37353515625,0.0307464599609375
1761503582851175400,6.601175537109375,-0.5108184814453125,0.3834228515625,0.08697509765625
1761503582861231400,6.6112314453125,-0.536102294921875,0.45953369140625,0.084503173828125
1761503582871287300,6.621287353515625,-0.553558349609375,0.6865386962890625,-0.013519287109375
1761503582881343500,6.631343505859375,-0.498565673828125,0.8039398193359375,-0.1534576416015625
1761503582891399400,6.6413994140625,-0.4374847412109375,0.805938720703125,-0.23919677734375
1761503582901455400,6.651455322265625,-0.3737640380859375,0.7153778076171875,-0.274139404296875
1761503582911511300,6.66151123046875,-0.3888092041015625,0.486083984375,-0.1678314208984375
1761503582921567200,6.671567138671875,-0.380767822265625,0.2622528076171875,-0.0201416015625
1761503582931623200,6.681623046875,-0.2741851806640625,0.1013031005859375,0.0700836181640625
1761503582941679400,6.691679443359375,-0.0606231689453125,0.014068603515625,0.1115264892578125
1761503582951735300,6.7017353515625,0.06964111328125,-0.0619964599609375,0.1175994873046875
1761503582961792300,6.711792236328125,0.09918212890625,-0.1273193359375,0.0614776611328125
1761503582971848200,6.72184814453125,0.1055450439453125,-0.2176513671875,-0.0156402587890625
1761503582981904400,6.731904296875,0.0442047119140625,-0.3266754150390625,-0.016876220703125
1761503582991960300,6.741960205078125,-0.0319976806640625,-0.339508056640625,0.00213623046875
1761503583002016300,6.752016357421875,-0.02679443359375,-0.335540771484375,0.0179595947265625
1761503583012072400,6.762072509765625,-0.034454345703125,-0.2101287841796875,0.046905517578125
1761503583022128400,6.77212841796875,-0.0612945556640625,-0.0089569091796875,0.068634033203125
1761503583032184300,6.782184326171875,-0.0649871826171875,0.120330810546875,0.097442626953125
1761503583042240300,6.792240234375,-0.023590087890625,0.20941162109375,0.085601806640625
1761503583052296400,6.80229638671875,-0.0441436767578125,0.258880615234375,0.040252685546875
1761503583062352100,6.81235205078125,-0.1416015625,0.2591094970703125,0.042633056640625
1761503583072408300,6.822408203125,-0.189208984375,0.255523681640625,0.022613525390625
1761503583082464300,6.83246435546875,-0.1371612548828125,0.2252197265625,0.009979248046875
1761503583092521200,6.842521240234375,-0.127166748046875,0.1143646240234375,0.0740966796875
1761503583102581000,6.8525810546875,-0.102081298828125,-0.0572509765625,0.0998687744140625
1761503583112637000,6.862636962890625,-0.107635498046875,-0.266021728515625,0.062286376953125
1761503583122693000,6.872693115234375,-0.1580047607421875,-0.4903106689453125,0.086334228515625
1761503583132749000,6.8827490234375,-0.1088104248046875,-0.8361663818359375,0.0614471435546875
1761503583142805000,6.892804931640625,-0.009765625,-1.1872406005859375,-0.0313720703125
1761503583152861200,6.902861083984375,0.1503753662109375,-1.6162261962890625,-0.0532073974609375
1761503583162917000,6.912917236328125,0.3093414306640625,-2.21258544921875,0.021331787109375
1761503583172973000,6.92297314453125,0.4349822998046875,-2.8721771240234375,0.08624267578125
1761503583183029200,6.933029296875,0.2612762451171875,-3.539764404296875,0.0494232177734375
1761503583193085200,6.943085205078125,-0.1085968017578125,-3.87164306640625,-0.0233001708984375
1761503583203141000,6.95314111328125,-0.2230072021484375,-3.88177490234375,-0.04925537109375
1761503583213197300,6.963197265625,-0.228790283203125,-3.652557373046875,-0.0705108642578125
1761503583223253200,6.973253173828125,-0.21441650390625,-3.4361114501953125,-0.118865966796875
1761503583233310200,6.983310302734375,-0.2436981201171875,-3.4378204345703125,-0.0334320068359375
1761503583243366100,6.9933662109375,-0.237548828125,-3.5236358642578125,0.193634033203125
1761503583253422000,7.003422119140625,-0.19183349609375,-3.6253662109375,0.42822265625
1761503583263478000,7.01347802734375,-0.00396728515625,-3.5415802001953125,0.45074462890625
1761503583273534000,7.023533935546875,0.3996734619140625,-3.2479095458984375,0.243865966796875
1761503583283590100,7.033590087890625,0.7621002197265625,-2.8694610595703125,-0.0533599853515625
1761503583293646000,7.04364599609375,0.939605712890625,-2.3272705078125,-0.3885345458984375
1761503583303702000,7.053701904296875,0.79595947265625,-1.77447509765625,-0.617095947265625
1761503583313758200,7.06375830078125,0.403045654296875,-1.347076416015625,-0.551544189453125
1761503583323814100,7.073814208984375,0.0529632568359375,-1.0590972900390625,-0.2761688232421875
1761503583333870000,7.0838701171875,-0.0395050048828125,-0.695770263671875,-0.1136474609375
1761503583343926300,7.09392626953125,-0.0969085693359375,-0.4046630859375,-0.0074462890625
1761503583353982200,7.103982177734375,-0.2067718505859375,-0.2630767822265625,0.1027374267578125
1761503583364039200,7.1140390625,-0.4048309326171875,-0.1595916748046875,0.244232177734375
1761503583374095000,7.12409521484375,-0.6754302978515625,-0.038543701171875,0.2837066650390625
1761503583384151300,7.1341513671875,-0.7657318115234375,0.1956329345703125,0.1265106201171875
1761503583394207200,7.144207275390625,-0.670928955078125,0.399993896484375,0.054779052734375
1761503583404263000,7.154262939453125,-0.6466522216796875,0.50762939453125,0.1475067138671875
1761503583414319000,7.164319091796875,-0.52813720703125,0.458740234375,0.2036895751953125
1761503583424375000,7.174375,-0.3017425537109375,0.2896728515625,0.1821441650390625
1761503583434431000,7.184430908203125,-0.0946807861328125,0.041046142578125,0.1307373046875
1761503583444487200,7.194487060546875,0.0885162353515625,-0.2152862548828125,0.0228271484375
1761503583454543000,7.204543212890625,-0.101165771484375,-0.2580108642578125,-0.0998382568359375
1761503583464599000,7.21459912109375,-0.0914764404296875,-0.1484832763671875,-0.1777801513671875
1761503583474655200,7.2246552734375,0.0741119384765625,-0.108154296875,-0.1204833984375
1761503583484712200,7.234712158203125,0.103363037109375,-0.0282745361328125,-0.0069427490234375
1761503583494768000,7.24476806640625,0.0855865478515625,0.0886688232421875,0.0085601806640625
1761503583504824000,7.254823974609375,0.0460357666015625,0.1249237060546875,-0.03961181640625
1761503583514880300,7.26488037109375,-0.0440673828125,0.095794677734375,-0.058380126953125
1761503583524936200,7.274936279296875,-0.121612548828125,0.092559814453125,-0.0522918701171875
1761503583534992100,7.2849921875,-0.1443328857421875,0.0948638916015625,-0.0386810302734375
1761503583545048300,7.29504833984375,-0.10565185546875,0.127655029296875,-0.0202178955078125
1761503583555104000,7.30510400390625,-0.067840576171875,0.18597412109375,0.0068511962890625
1761503583565160000,7.315159912109375,-0.0518798828125,0.255096435546875,0.0255584716796875
1761503583575216000,7.325216064453125,-0.0741729736328125,0.306427001953125,0.0277557373046875
1761503583585272000,7.33527197265625,-0.06207275390625,0.35430908203125,-0.01953125
1761503583595328000,7.345327880859375,-0.0511474609375,0.338775634765625,-0.0316314697265625
1761503583605385000,7.355385009765625,-0.0496368408203125,0.207244873046875,0.002105712890625
1761503583615441200,7.365441162109375,-0.0680389404296875,-0.0321044921875,0.0521087646484375
1761503583625497000,7.3754970703125,-0.10528564453125,-0.300048828125,0.1192626953125
1761503583635553000,7.385552978515625,-0.087066650390625,-0.4521484375,0.1361236572265625
1761503583645609200,7.395609130859375,-0.0847930908203125,-0.501922607421875,0.1007537841796875
1761503583655665200,7.4056650390625,-0.0629119873046875,-0.6333160400390625,0.080078125
1761503583665721000,7.41572119140625,-0.000030517578125,-0.7690277099609375,0.0562896728515625
1761503583675777300,7.42577734375,0.0424346923828125,-0.9338226318359375,0.05059814453125
1761503583685833200,7.435833251953125,0.1035003662109375,-1.29852294921875,0.1224822998046875
1761503583695889200,7.44588916015625,0.1529541015625,-1.7914276123046875,0.1730194091796875
1761503583705945000,7.455945068359375,0.21148681640625,-2.43939208984375,0.09442138671875
1761503583716001000,7.4660009765625,0.079803466796875,-3.149200439453125,-0.026947021484375
1761503583726057000,7.476056884765625,-0.1282806396484375,-3.9017791748046875,-0.059478759765625
1761503583736114000,7.486114013671875,-0.2974853515625,-4.529144287109375,0.1388702392578125
1761503583746170000,7.496170166015625,-0.5337066650390625,-4.6176910400390625,0.3787994384765625
1761503583756226000,7.50622607421875,-0.6267547607421875,-4.1711883544921875,0.3192138671875
1761503583766282000,7.516281982421875,-0.3974151611328125,-3.60919189453125,0.0237274169921875
1761503583776338200,7.526338134765625,-0.140045166015625,-3.2561492919921875,-0.141021728515625
1761503583786394000,7.53639404296875,0.0798492431640625,-3.1870574951171875,-0.066650390625
1761503583796450000,7.546449951171875,0.299835205078125,-3.2441253662109375,0.065277099609375
1761503583806506200,7.55650634765625,0.5605621337890625,-3.2048187255859375,0.09344482421875
1761503583816562200,7.566562255859375,0.8270416259765625,-2.988067626953125,-0.009185791015625
1761503583826618000,7.5766181640625,0.9017486572265625,-2.49578857421875,-0.0717315673828125
1761503583836674300,7.58667431640625,0.7263031005859375,-2.0088958740234375,-0.0143585205078125
1761503583846730200,7.596730224609375,0.416900634765625,-1.4956817626953125,0.0441741943359375
1761503583856787200,7.606787109375,-0.0013427734375,-0.9465789794921875,0.1605682373046875
1761503583866843100,7.616843017578125,-0.4737396240234375,-0.5733642578125,0.2201080322265625
1761503583876899300,7.6268994140625,-0.6755828857421875,-0.2144622802734375,0.1195068359375
1761503583886955000,7.636955078125,-0.7263336181640625,0.1148223876953125,0.0674591064453125
1761503583897011000,7.647010986328125,-0.8010406494140625,0.2551116943359375,0.081817626953125
1761503583907067100,7.657067138671875,-0.767547607421875,0.3252105712890625,0.0457611083984375
1761503583917123000,7.667123046875,-0.631561279296875,0.294891357421875,-0.0214385986328125
1761503583927179000,7.677178955078125,-0.4708709716796875,0.204193115234375,-0.0840606689453125
1761503583937235200,7.687235107421875,-0.4476776123046875,0.1770782470703125,-0.14923095703125
1761503583947291100,7.697291015625,-0.42913818359375,0.0890045166015625,-0.2604217529296875
1761503583957347000,7.70734716796875,-0.270477294921875,-0.000518798828125,-0.396942138671875
1761503583967403300,7.7174033203125,-0.1295928955078125,-0.04022216796875,-0.387176513671875
1761503583977460200,7.727460205078125,-0.0968017578125,-0.0222320556640625,-0.2257843017578125
1761503583987516200,7.73751611328125,-0.048980712890625,0.061004638671875,-0.053985595703125
1761503583997572000,7.747572021484375,0.0640716552734375,0.1365814208984375,0.054656982421875
1761503584007628300,7.757628173828125,0.1671600341796875,0.16595458984375,0.1119232177734375
1761503584017684200,7.767684326171875,0.1550750732421875,0.1427459716796875,0.1470947265625
1761503584027740200,7.777740234375,0.006988525390625,0.0973663330078125,0.1589508056640625
1761503584037796000,7.787796142578125,-0.13397216796875,0.0101470947265625,0.16497802734375
1761503584047852000,7.79785205078125,-0.19818115234375,-0.0340728759765625,0.13043212890625
1761503584057908000,7.807907958984375,-0.188079833984375,-0.0359344482421875,0.0743255615234375
1761503584067964200,7.817964111328125,-0.147125244140625,-0.05621337890625,0.0140838623046875
1761503584078020000,7.82802001953125,-0.1240997314453125,-0.0510101318359375,-0.028839111328125
1761503584088077000,7.8380771484375,-0.1144256591796875,-0.0356597900390625,-0.0494537353515625
1761503584098129200,7.848129150390625,-0.0716094970703125,-0.0392608642578125,-0.043426513671875
1761503584108185300,7.858185302734375,-0.0672607421875,0.021636962890625,-0.0392303466796875
1761503584118241300,7.8682412109375,-0.09124755859375,0.091949462890625,-0.0234222412109375
1761503584128297200,7.878297119140625,-0.119171142578125,0.1218719482421875,0.04248046875
1761503584138353400,7.888353515625,-0.1583251953125,0.1133575439453125,0.105743408203125
1761503584148409300,7.898409423828125,-0.1720428466796875,0.080535888671875,0.129791259765625
1761503584158465000,7.908465087890625,-0.1372528076171875,0.0074005126953125,0.1181640625
1761503584168521200,7.918521240234375,-0.0558624267578125,-0.1156158447265625,0.0958099365234375
1761503584178577200,7.9285771484375,0.0338897705078125,-0.3109893798828125,0.0894317626953125
1761503584188633000,7.938633056640625,0.0989837646484375,-0.5538330078125,0.09716796875
1761503584198689300,7.948689208984375,0.1654510498046875,-0.78240966796875,0.0496063232421875
1761503584208746200,7.958746337890625,0.2784423828125,-1.04071044921875,0.0090179443359375
1761503584218802200,7.96880224609375,0.408538818359375,-1.375030517578125,-0.0122833251953125
1761503584228858000,7.978858154296875,0.464691162109375,-1.7318115234375,-0.1795654296875
1761503584238914300,7.988914306640625,0.9560394287109375,-2.2952423095703125,-0.1213226318359375
1761503584248970200,7.99897021484375,0.90142822265625,-2.912078857421875,0.15655517578125
1761503584259026200,8.009026123046874,-0.218719482421875,-3.5698394775390625,0.6151885986328125
1761503584269082400,8.019082275390625,-1.155242919921875,-3.994476318359375,0.92291259765625
1761503584279138300,8.02913818359375,-1.301513671875,-3.65863037109375,0.51837158203125
1761503584289194200,8.0391943359375,-1.324493408203125,-3.3871307373046875,-0.0076904296875
1761503584299250400,8.04925048828125,-1.1429595947265625,-2.8175811767578125,-0.27960205078125
1761503584309306000,8.05930615234375,-0.9086456298828125,-2.2324066162109375,-0.3903045654296875
1761503584319363300,8.06936328125,-0.6769256591796875,-1.956207275390625,-0.34173583984375
1761503584329419300,8.079419189453125,-0.5487823486328125,-1.776824951171875,-0.2032470703125
1761503584339475200,8.08947509765625,-0.483184814453125,-1.82135009765625,0.013336181640625
1761503584349531100,8.09953125,-0.5600738525390625,-1.7818450927734375,0.10906982421875
1761503584359587000,8.109587158203125,-0.5625457763671875,-1.6277923583984375,0.0877532958984375
1761503584369643300,8.119643310546875,-0.6257781982421875,-1.6021575927734375,0.013946533203125
1761503584379699200,8.12969921875,-0.840911865234375,-1.542755126953125,-0.0268096923828125
1761503584389755100,8.139755126953125,-0.887451171875,-1.3385772705078125,-0.0389251708984375
1761503584399811300,8.149811279296875,-0.820709228515625,-1.125091552734375,-0.0522918701171875
1761503584409867300,8.1598671875,-0.753875732421875,-0.948211669921875,-0.0202178955078125
1761503584419923200,8.169923095703124,-0.82855224609375,-0.892608642578125,-0.0105743408203125
1761503584429979400,8.1799794921875,-0.8265838623046875,-0.80584716796875,-0.0834808349609375
1761503584440036400,8.190036376953126,-0.722442626953125,-0.603271484375,-0.209991455078125
1761503584450092300,8.20009228515625,-0.6683807373046875,-0.395843505859375,-0.2807769775390625
1761503584460148200,8.210148193359375,-0.8897857666015625,-0.085479736328125,-0.40618896484375
1761503584470204400,8.220204345703126,-0.9268798828125,0.188629150390625,-0.5073089599609375
1761503584480260400,8.23026025390625,-0.5632476806640625,0.1621246337890625,-0.5102691650390625
1761503584490316000,8.24031591796875,-0.33929443359375,0.0636444091796875,-0.440155029296875
1761503584500372200,8.250372314453125,-0.4021453857421875,-0.0808868408203125,-0.3164520263671875
1761503584510428200,8.26042822265625,-0.397857666015625,-0.1890716552734375,-0.117950439453125
1761503584520484000,8.270484130859375,-0.417816162109375,-0.313934326171875,-0.0531005859375
1761503584530540300,8.280540283203125,-0.4978179931640625,-0.3679351806640625,0.0223846435546875
1761503584540596200,8.29059619140625,-0.5443115234375,-0.29022216796875,0.0295562744140625
1761503584550653200,8.300653076171875,-0.5355987548828125,-0.19134521484375,0.001861572265625
1761503584560709000,8.310709228515625,-0.4985198974609375,-0.1416473388671875,0.00457763671875
1761503584570765300,8.320765380859376,-0.426727294921875,-0.1251373291015625,-0.0113372802734375
1761503584580821200,8.3308212890625,-0.439788818359375,-0.1337890625,-0.05096435546875
1761503584590877200,8.340877197265625,-0.527557373046875,-0.134490966796875,-0.0416412353515625
1761503584600933400,8.350933349609376,-0.556243896484375,-0.1326904296875,-0.0069122314453125
1761503584610989300,8.3609892578125,-0.5897369384765625,-0.1314697265625,0.05145263671875
1761503584621045200,8.371045166015625,-0.7805328369140625,-0.2163238525390625,0.0626678466796875
1761503584631101400,8.381101318359375,-0.740814208984375,-0.2679290771484375,0.0670623779296875
1761503584641157000,8.3911572265625,-0.6621856689453125,-0.1999053955078125,0.0786285400390625
1761503584651213000,8.401213134765625,-0.6228790283203125,-0.1260223388671875,0.095947265625
1761503584661270000,8.41127001953125,-0.7418975830078125,-0.1415252685546875,0.13031005859375
1761503584671326200,8.421326171875,-0.821380615234375,-0.2378997802734375,0.1705169677734375
1761503584681382100,8.431382080078125,-0.7211761474609375,-0.34814453125,0.206085205078125
1761503584691438000,8.44143798828125,-0.7337188720703125,-0.403839111328125,0.196929931640625
1761503584701494300,8.451494384765626,-0.7966766357421875,-0.4142608642578125,0.145172119140625
1761503584711550200,8.46155029296875,-0.832183837890625,-0.390625,0.06695556640625
1761503584721606100,8.471606201171875,-0.8492584228515625,-0.3722686767578125,0.0151214599609375
1761503584731662300,8.481662353515626,-0.8619537353515625,-0.358489990234375,-0.00103759765625
1761503584741718300,8.49171826171875,-0.936279296875,-0.3271026611328125,0.009979248046875
1761503584751774200,8.501774169921875,-0.982391357421875,-0.3085479736328125,0.0304107666015625
1761503584761830400,8.511830322265626,-1.0017242431640625,-0.32269287109375,0.0480804443359375
1761503584771887400,8.521887451171875,-1.0338134765625,-0.3658599853515625,0.06976318359375
1761503584781943300,8.531943359375,-1.0357208251953125,-0.4084320068359375,0.095306396484375
1761503584791999200,8.541999267578126,-1.0204010009765625,-0.4289703369140625,0.114959716796875
1761503584802055400,8.552055419921874,-0.9986114501953125,-0.437042236328125,0.133087158203125
1761503584812111000,8.562111083984375,-0.964813232421875,-0.4292755126953125,0.1499786376953125
1761503584822167000,8.5721669921875,-0.9535064697265625,-0.400146484375,0.1603546142578125
1761503584832223200,8.58222314453125,-0.9556121826171875,-0.3832550048828125,0.165863037109375
1761503584842279200,8.592279052734375,-0.9672698974609375,-0.3761749267578125,0.192779541015625
1761503584852335000,8.602335205078125,-0.9269256591796875,-0.3601837158203125,0.222747802734375
1761503584862391300,8.612391357421876,-0.9274139404296875,-0.359588623046875,0.2199859619140625
1761503584872448300,8.6224482421875,-0.9241790771484375,-0.3957366943359375,0.1888885498046875
1761503584882504200,8.632504150390625,-0.907501220703125,-0.4329986572265625,0.1402435302734375
1761503584892560100,8.64256005859375,-0.9190521240234375,-0.4458465576171875,0.12164306640625
1761503584902616300,8.6526162109375,-0.944610595703125,-0.46282958984375,0.1076812744140625
1761503584912672300,8.66267236328125,-0.9335479736328125,-0.43890380859375,0.100677490234375
