time,seconds_elapsed,z,y,x
1761503576376333300,0.126333251953125,0.1705672868028283,1.281300039243698,-0.4951917473733425
1761503576386389000,0.136388916015625,0.4006250195808708,1.3416969325393437,-0.38556452083215115
1761503576396445000,0.14644482421875,0.9151669257208704,1.4717606517791748,-0.3795044901408255
1761503576406501000,0.156501220703125,1.0252661536879837,1.5349907226741313,-0.23596301129907368
1761503576416557000,0.16655712890625,0.5963406300351023,1.6614976262152195,-0.1028818256678991
1761503576426613000,0.176613037109375,0.12563143588081002,1.9613719686716793,-0.23090572790950536
1761503576436669200,0.186669189453125,0.007923194214701652,2.1367706211537123,-0.4035768551237881
1761503576446725000,0.19672509765625,0.13910641900375484,2.400378302964568,-0.6072745503731072
1761503576456781000,0.206781005859375,0.3568248946905136,2.7661761931836604,-0.7848619450710713
1761503576466837200,0.216837158203125,0.6025561435490846,3.1097324409782883,-0.8811148723848163
1761503576476893200,0.22689306640625,0.8636129718333482,3.2800989445120092,-0.8466524846822023
1761503576486949000,0.23694921875,1.0997171451687813,3.403363505131006,-0.688623776935041
1761503576497005300,0.24700537109375,1.6441037160828709,3.554466505268216,-0.5983635141648351
1761503576507061200,0.257061279296875,2.0286492691308258,3.3451994854539633,-0.5504452864311635
1761503576517117000,0.267116943359375,1.7457438893929123,3.03900879945755,-0.36324396795257924
1761503576527173000,0.277173095703125,0.7384487150728702,2.8877871413767338,-0.31729177959486843
1761503576537229000,0.28722900390625,0.18858225144296883,2.8786978259921074,-0.31077348374202846
1761503576547285000,0.297284912109375,0.07961597302854061,2.701794614166021,-0.31814386637955905
1761503576557341200,0.307341064453125,0.14543313780725,2.316156297445297,-0.19667583378851414
1761503576567397000,0.317397216796875,0.28463176513910293,1.6976520586580037,-0.22949425367638468
1761503576577453000,0.327453125,0.8892205835595727,0.5705775354862213,-0.4861296122565865
1761503576587509200,0.33750927734375,0.8454469082847237,-1.2978858478635549,-0.12549452989445997
1761503576597566200,0.347566162109375,0.02641629776060581,-4.2508261371523135,1.0138358281351625
1761503576607622100,0.3576220703125,-1.2130647074073553,-8.453439155277609,1.6689510109610854
1761503576617678000,0.367677978515625,-2.8792268183022736,-12.507994532310962,1.7056788593776524
1761503576627734300,0.377734375,-5.388250204902887,-15.612963119888304,1.411078511801362
1761503576637790200,0.387790283203125,-7.248055065500735,-17.565902191257475,1.309632253628224
1761503576647846100,0.39784619140625,-6.907288156163692,-18.529201279723644,1.1090361776560544
1761503576657902300,0.40790234375,-5.601139506867527,-17.891491405206917,0.6929461701788008
1761503576667958000,0.4179580078125,-5.195167427170277,-15.839353123939036,0.8677019947126507
1761503576678014000,0.428013916015625,-5.420328766208887,-13.938369865256547,1.6849419224277138
1761503576688070100,0.438070068359375,-4.720152790907025,-12.051228084921837,2.073241859573126
1761503576698126000,0.4481259765625,-3.17993731932193,-10.39117890394926,1.490631210335344
1761503576708182000,0.45818212890625,-2.1208014831274746,-8.880933330953122,0.4595492099754512
1761503576718238200,0.46823828125,-2.34807996045053,-7.984720404288172,-0.622561405223608
1761503576728294100,0.478294189453125,-3.055987991309166,-7.434991595563292,-1.1133655851624906
1761503576738350000,0.48835009765625,-3.040802697136998,-6.59550008855164,-0.8033870511904359
1761503576748406300,0.49840625,-2.9224332150831818,-4.574269571244717,-0.6175719263732433
1761503576758462200,0.508462158203125,-2.0611489784583448,-2.1714380299091336,-0.7752858690828085
1761503576768518100,0.51851806640625,-1.0329387341424823,-0.03605155659019947,-0.44297582244575023
1761503576778574300,0.52857421875,-0.2900947067201137,1.8236054199695586,-0.103599198423326
1761503576788630300,0.53863037109375,0.5050356805175542,1.8463918367952108,-0.5045706933543086
1761503576798686000,0.54868603515625,2.1101301592484116,1.9396201555907726,-0.46715530106499786
1761503576808742100,0.5587421875,3.370418097862601,4.128013996475935,-0.5743298737570643
1761503576818798000,0.568798095703125,4.9606280189335346,6.600463848438858,-0.647882601223886
1761503576828854000,0.57885400390625,5.161013813155889,7.58624657139182,-0.7207844635665416
1761503576838910200,0.58891015625,4.725690259028971,8.51127058199942,-0.42467239625304937
1761503576848966100,0.598966064453125,4.206908084970713,8.932495760408043,-0.07215498949810863
1761503576859023000,0.609023193359375,3.648258010904491,8.237874496623872,-0.036423038517404346
1761503576869079000,0.6190791015625,2.505928635455668,7.272991353836655,-0.968921750653535
1761503576879135200,0.62913525390625,2.8192507807672023,6.551074671369791,-2.0437176589250563
1761503576889191200,0.639191162109375,4.569769921737909,6.700084498620033,-2.4499933977439996
1761503576899247000,0.6492470703125,6.279753638702631,8.002325619083642,-2.58504805713892
1761503576909303300,0.65930322265625,7.857726594012975,8.947695667627453,-2.0300160274393857
1761503576919359200,0.669359130859375,8.43391203250885,9.135290953859686,-1.0267802115127445
1761503576929415200,0.679415283203125,8.202679849123955,9.015998804002999,0.1329101581795141
1761503576939471400,0.689471435546875,7.55077486051619,9.027194736278057,0.6098090372867881
1761503576949527000,0.699527099609375,6.899045228475332,7.87062406950891,0.4973224392591044
1761503576959583000,0.7095830078125,5.362031475540995,6.417910648027062,0.1072723339781165
1761503576969639200,0.71963916015625,3.812120831632614,4.860561963072419,-0.14025529677793383
1761503576979695000,0.729695068359375,2.016720930927992,4.07246454321146,-0.11691972163692116
1761503576989751000,0.7397509765625,0.8367389934331179,4.662934527647495,-0.033570425565261394
1761503576999807200,0.74980712890625,0.5560732093155384,5.646464503237604,0.13949161892905831
1761503577009863200,0.75986328125,1.744894286826253,6.741030256992578,0.5808695046588778
1761503577019919000,0.769919189453125,4.158574554434418,8.17021550337076,0.8074871799856423
1761503577029975300,0.779975341796875,5.649174931240082,9.408498823186754,0.2295708260439336
1761503577040031200,0.79003125,5.911415416350961,10.050540589427948,-0.571259818661958
1761503577050087200,0.800087158203125,4.585575978156924,9.717067928752302,-1.1883663194805383
1761503577060143400,0.810143310546875,2.2214614132285115,8.866689117023348,-1.656677366451919
1761503577070199000,0.820198974609375,0.7444307120919227,7.896257692459225,-2.133218335499614
1761503577080255000,0.8302548828125,0.4562409622102976,7.56162943200767,-1.8962302189365028
1761503577090312200,0.840312255859375,0.7476110956937074,7.21783411476016,-0.8513514561533927
1761503577100368400,0.850368408203125,1.1004703016236423,6.898766411533951,0.6801056855671107
1761503577110424300,0.86042431640625,1.4181436278820037,6.934240460497141,1.714317362254858
1761503577120480300,0.870480224609375,2.47712865742892,6.282368789637088,1.8862237887069582
1761503577130536200,0.8805361328125,3.857659763014316,3.1758827832341194,1.5114613785266875
1761503577140592400,0.89059228515625,2.390818155197799,-2.658002234190702,1.3928836605496704
1761503577150648300,0.9006484375,-1.9905726364538072,-8.901817713549733,0.9877569456353783
1761503577160704300,0.910704345703125,-5.659944747057557,-13.64844934605956,-0.23046645970940588
1761503577170760200,0.92076025390625,-7.941815913063287,-15.947372769153118,-0.4165811885276809
1761503577180816100,0.930816162109375,-10.70524719145298,-15.126020145422219,1.0347750096589325
1761503577190872300,0.940872314453125,-11.909456976753473,-14.990221681922673,2.487325349533558
1761503577200928300,0.95092822265625,-12.114527129399775,-18.137838155615327,2.488468089827895
1761503577210984200,0.960984130859375,-13.256043434900045,-21.71817735328674,1.8496477698512375
1761503577221040000,0.9710400390625,-14.79128900911808,-23.647889862847325,1.7374154753781854
1761503577231096300,0.981096435546875,-14.844287608855963,-22.85570838854313,1.4877869268201291
1761503577241152300,0.99115234375,-13.800526744186877,-21.43325800337791,0.5931991171389818
1761503577251208200,1.001208251953125,-12.532476647138594,-20.539416482019423,-0.6012018063306808
1761503577261264400,1.011264404296875,-10.938318280702829,-18.63545800691843,-1.128195197764784
1761503577271320300,1.0213203125,-9.188771784156561,-15.675725573271512,-0.3296751680888235
1761503577281376300,1.031376220703125,-7.285542792373895,-12.973314873033761,0.09119535166323184
1761503577291432200,1.04143212890625,-5.314133413812518,-10.136658199435471,0.48141178995445366
1761503577301488000,1.051488037109375,-4.239302288097143,-7.056769692578912,0.6420192621484399
1761503577311544000,1.0615439453125,-3.7258269882753488,-4.497761501103639,0.293790638628602
1761503577321600300,1.071600341796875,-1.5634963939294217,-2.606433959516883,-0.4304901426210999
1761503577331656200,1.08165625,2.211859764407575,0.6431675554007291,-1.5497905246600507
1761503577341712100,1.091712158203125,4.977612471482157,4.598823582264781,-1.8866613033413886
1761503577351769000,1.10176904296875,6.246563316762447,8.37453220730126,-1.6793080081939695
1761503577361825300,1.1118251953125,4.131581041307747,10.025819989669323,-0.5190265042081474
1761503577371881200,1.121881103515625,1.3727537495821713,9.59346083830595,0.12996961121559142
1761503577381937200,1.131937255859375,0.4655681780040264,9.0419790484339,-0.13050035709142685
1761503577391993300,1.141993408203125,0.509019781717658,10.02571243764162,-0.5444453153640032
1761503577402049300,1.15204931640625,2.24239504179433,12.029681439024209,-0.7718582327216863
1761503577412105200,1.162105224609375,4.269332976962626,13.890474141615629,-1.1259443500980735
1761503577422161400,1.172161376953125,6.177247203952073,14.34773392547965,-1.4661729147747158
1761503577432217300,1.18221728515625,7.110363920122385,13.865754710900783,-1.7900819205522536
1761503577442273000,1.19227294921875,6.332013402771949,13.185822482204436,-1.5460577678725123
1761503577452329200,1.2023291015625,4.346720752547681,12.286871070486306,-0.680781246741116
1761503577462385200,1.21238525390625,2.739434024469554,10.508948374283314,-0.17254706244319676
1761503577472441000,1.222441162109375,1.5926427011758089,8.571815359333158,-0.029081717577576636
1761503577482497300,1.232497314453125,0.7519758667744696,7.6060899205029004,0.31787410952746864
1761503577492553200,1.24255322265625,1.4909266861505805,7.800769027516245,0.37824031542390585
1761503577502609200,1.252609130859375,3.030407559850812,8.372868073481321,-0.03872428293079137
1761503577512665300,1.262665283203125,4.407168791508674,8.862109972539544,-0.13952099115401506
1761503577522721300,1.27272119140625,4.479481455786526,9.862700973045825,0.48837856022715564
1761503577532777200,1.282777099609375,3.8788457589060066,10.838207216656208,1.275056176418066
1761503577542833400,1.29283349609375,3.1772029259219763,10.804220775902271,1.2229016262888908
1761503577552889300,1.302889404296875,1.9526535324260592,9.989170467185973,0.9912205300927162
1761503577562945300,1.3129453125,0.7004416405007243,8.68408389416337,0.7991931066319345
1761503577573001200,1.323001220703125,0.37825872786343095,8.214031848743558,0.5739736076653004
1761503577583058400,1.333058349609375,1.6789160862669348,8.28178144288957,0.15246843413836322
1761503577593114000,1.343114013671875,3.539228896386921,8.69689778302908,-0.19211395096676423
1761503577603170000,1.353170166015625,4.62858071488589,9.215971925771235,-0.09043898947113194
1761503577613226200,1.363226318359375,5.0647395507931705,9.411436630204319,0.024007483053207396
1761503577623282200,1.3732822265625,4.514618235619366,9.369704105368257,0.16755407646149395
1761503577633338000,1.383338134765625,3.2065465093061327,9.202624952942132,0.12399490245385095
1761503577643394300,1.393394287109375,1.1039388545170425,7.3818994723230595,-0.6084726741164922
1761503577653450200,1.4034501953125,-2.0211840478166936,5.116250542321801,-0.32417788584679363
1761503577663506200,1.413506103515625,-2.0255016187548636,3.8126936630845067,0.4786781272068619
1761503577673562400,1.423562255859375,0.4575862393394112,3.0330624582737684,0.617182634794712
1761503577683618300,1.433618408203125,2.9323551818996667,1.9307173026889561,0.4790560206085443
1761503577693674200,1.44367431640625,5.554933636009693,-2.567053550764918,0.43068361936658617
1761503577703730400,1.45373046875,5.247182861089706,-11.71760637116432,1.0734569147527218
1761503577713786400,1.463786376953125,-0.09996960974931716,-20.99914528634548,0.549335717754066
1761503577723842000,1.473842041015625,-5.939123507487774,-24.74809333022833,-2.4422578350558877
1761503577733898200,1.483898193359375,-9.388568380314112,-25.76236740365028,-4.220103958891332
1761503577743954200,1.4939541015625,-12.28925007457733,-26.883269960188866,-2.899146447519958
1761503577754010000,1.504010009765625,-10.947467217320202,-28.16556134855747,0.32381840488463637
1761503577764066300,1.51406640625,-8.306890749704838,-26.347359248936176,0.7653785153135657
1761503577774122200,1.524122314453125,-5.481909316331148,-22.950262987506388,-0.6194669463396072
1761503577784178200,1.53417822265625,-3.7439632412075996,-21.127749454426763,-1.5554866904750466
1761503577794234400,1.544234375,-4.926323598271608,-21.66968541731834,-2.1747373637154697
1761503577804290300,1.554290283203125,-8.08274881684184,-22.33518229342699,-2.205966614715755
1761503577814346200,1.56434619140625,-10.804917525994776,-20.555755037879944,-1.8879279622763394
1761503577824403200,1.5744033203125,-11.919638179028034,-18.183648305153845,-0.9538847789108753
1761503577834459400,1.58445947265625,-9.865507847160101,-13.931755415552853,-0.2999167202934623
1761503577844515300,1.594515380859375,-5.92751139562726,-9.639977090287209,0.07288521260195412
1761503577854571300,1.6045712890625,-2.5261279583975673,-4.884030516943335,0.24651655401736497
1761503577864627500,1.61462744140625,0.46251668147891756,0.9153799839496612,0.224750146155525
1761503577874683100,1.62468310546875,2.904983775371313,6.385212493517995,0.0664192588577047
1761503577884739000,1.634739013671875,5.756903484553098,10.507973391771316,-0.29472788294609636
1761503577894795300,1.644795166015625,6.908853505784273,13.314038527750968,-1.158622046341002
1761503577904851200,1.654851318359375,5.237137267893552,14.60569863296747,-1.4558736390784381
1761503577914907100,1.6649072265625,4.202821400178968,15.164777453839777,-1.079799269516766
1761503577924963300,1.67496337890625,3.5632854792788624,14.555653037816285,-0.42277127533946185
1761503577935019300,1.685019287109375,3.3810774390429255,13.12197866332531,0.17505962978601455
1761503577945075200,1.6950751953125,3.593341010324657,12.406329809081553,0.6613035160720347
1761503577955131400,1.70513134765625,3.7213673785179853,11.540306853497027,1.211317571479082
1761503577965187300,1.715187255859375,3.7368890650376674,10.104346998417377,1.2840925925716757
1761503577975243300,1.7252431640625,3.230231044015288,8.680786606183647,0.9489107898905873
1761503577985299500,1.735299560546875,2.34351981292814,7.708948821952939,0.448319521561265
1761503577995355400,1.74535546875,1.138737196175754,7.25860276300013,0.10593759650932624
1761503578005411000,1.7554111328125,0.9759954884320496,7.371036717525124,0.0893473857089877
1761503578015467300,1.76546728515625,1.6723565816208719,8.118633200171589,0.24186492881923913
1761503578025523200,1.775523193359375,2.411045827451348,9.245179900076986,0.5649380682945251
1761503578035579100,1.7855791015625,3.287104147098958,10.729325986176729,0.7876347707852721
1761503578045635300,1.79563525390625,3.8415994395732875,12.168838565301895,0.9489867777362465
1761503578055692300,1.8056923828125,4.2590345780491825,12.88336747560501,0.8494865390643477
1761503578065748200,1.815748291015625,4.172700402681529,13.18820382438302,0.6227244868308306
1761503578075804200,1.82580419921875,3.153424575449526,13.138754441559314,0.49340398717373607
1761503578085860400,1.8358603515625,2.202338195085525,12.853625832813977,0.6323161987796425
1761503578095916000,1.845916015625,1.655341733933985,12.751954095321892,0.6095654377892613
1761503578105971700,1.8559716796875,1.6248796679139137,12.465462381529807,0.5054331554025411
1761503578116028000,1.86602783203125,2.1726985513642427,12.872692936855554,0.3167158794030547
1761503578126083800,1.876083740234375,2.848378967835009,13.290949913108348,0.3714432026296854
1761503578136139800,1.886139892578125,2.9851217264473435,12.809171774059534,0.42787835268750785
1761503578146196000,1.896196044921875,2.511350368243456,11.849890689063072,0.5591811122030019
1761503578156252000,1.906251953125,1.5999226290509103,10.98954694815874,0.44535435161273923
1761503578166307800,1.916307861328125,0.37711832565665243,9.546940494671464,0.2728042569622397
1761503578176364000,1.926364013671875,-1.2797294289261103,7.624552628910541,-0.03616203122735023
1761503578186420000,1.936419921875,-2.6843732315048574,6.057687343069911,-0.2977169086942449
1761503578196476000,1.946475830078125,-3.399282957819104,5.200248091435432,0.10736176582723855
1761503578206532000,1.956531982421875,-3.7755508041262624,3.301355083030462,1.0197503128759562
1761503578216588000,1.966588134765625,-3.0306755631372333,-0.5782727661639452,1.9611647556617855
1761503578226644000,1.97664404296875,-0.6315326471865177,-7.0604895898848765,1.616099418478459
1761503578236700000,1.986699951171875,3.421010220980644,-16.984318108588457,-0.26042232977300883
1761503578246755800,1.996755859375,5.8977849504053586,-28.18709981114864,-0.780169257210195
1761503578256811800,2.006811767578125,-0.9776017545849084,-34.62515483705997,0.5014304956324398
1761503578266868000,2.016867919921875,-7.931668613058328,-34.45100706142187,1.070465039460361
1761503578276924000,2.026923828125,-11.2363613160789,-33.75279098801612,1.178461888320744
1761503578286980900,2.03698095703125,-11.436910776430368,-33.46601519658565,-1.1891469484642148
1761503578297036800,2.047036865234375,-10.669970126366614,-28.330606949329376,-2.3083900473579764
1761503578307093000,2.057093017578125,-8.254608189281821,-21.528483633470533,-1.7463070762336252
1761503578317149000,2.06714892578125,-4.854633742067217,-19.77199067878723,-0.7360197343602776
1761503578327204900,2.077204833984375,-3.051671589414775,-21.05248641591072,1.0673249878689646
1761503578337261000,2.087260986328125,-3.2546307412564754,-22.141981442272662,2.7858634749501943
1761503578347317000,2.09731689453125,-4.4454321789294475,-22.985294553399086,2.9329730215370655
1761503578357373000,2.107373046875,-6.283976224833727,-20.981918257212637,2.262697971241176
1761503578367429000,2.11742919921875,-7.401803027188778,-16.99713667362928,0.643897038719058
1761503578377485000,2.127485107421875,-6.168370654535293,-11.340068358790873,-0.13620671550687402
1761503578387540700,2.137540771484375,-4.1004236864998935,-4.055243943819403,-0.13567275476064533
1761503578397597000,2.147596923828125,-1.5903588280223309,2.75567642647922,-0.4663788733324036
1761503578407652900,2.15765283203125,-1.1182961734324692,7.811538843333721,0.028398996010422704
1761503578417708800,2.167708740234375,-0.5193902229540049,10.083691163879632,2.0009657279133797
1761503578427765000,2.177764892578125,2.7822195654898882,11.247330453860759,2.5232161626040934
1761503578437821000,2.187821044921875,2.6794272995352744,12.078221305787563,1.9517095295742153
1761503578447876900,2.197876953125,1.6601820135720073,12.147208917295933,1.6017261713415383
1761503578457933000,2.20793310546875,1.4546670397676527,13.676075019609927,0.7838640931401402
1761503578467989000,2.217989013671875,1.241402328619361,14.012878870534896,-0.266082255230844
1761503578478045000,2.228044921875,0.6968612977959215,12.769168264973162,-1.1101449426155536
1761503578488101000,2.23810107421875,1.151826833242923,11.136030471801757,-1.8239280760526655
1761503578498157000,2.248156982421875,1.3096307923234998,10.01079543901682,-1.7197785502701997
1761503578508214000,2.258214111328125,0.4164357521750033,9.120479169175029,-0.24673319244273006
1761503578518270000,2.26827001953125,-0.3032512715436518,8.467399876090884,1.2352636797338723
1761503578528326100,2.278326171875,0.09478153958693146,8.663298880288004,2.3086560048177835
1761503578538381800,2.2883818359375,1.5998920877821743,7.892568774813413,2.857574666203558
1761503578548437800,2.298437744140625,1.96857459352687,7.793368980392813,2.2459178090929983
1761503578558494000,2.308493896484375,1.5252863441310822,9.075362262597679,1.5284966844797134
1761503578568550000,2.3185498046875,0.7128055936418474,9.535982462805508,1.101538003920391
1761503578578605800,2.328605712890625,0.7896082628153264,10.50886186504364,0.46787535896785554
1761503578588662000,2.338662109375,0.9457422428570688,11.7823994535923,-0.24958945865668355
1761503578598718000,2.348718017578125,0.5378689326483757,13.388166424757241,-0.18083887077458202
1761503578608774000,2.35877392578125,-0.43443537311553954,14.545688108640908,0.48782969417273997
1761503578618830000,2.368830078125,-0.6670879446923732,14.572960730969905,0.6477692039772868
1761503578628886000,2.378885986328125,-0.11110767435729503,14.09181972078085,0.5767471640318632
1761503578638942000,2.38894189453125,0.5138198754757642,14.029173002731799,0.6759526575408875
1761503578648998100,2.398998046875,1.0237805913053453,14.279310962116718,0.9351870196383446
1761503578659054000,2.40905419921875,1.623453288372606,14.873299768328666,1.159110341314599
1761503578669109800,2.41910986328125,2.5968963158428666,15.779863993138074,1.0399375800538808
1761503578679166000,2.429166015625,3.412526470273733,15.876394276088476,1.1326178365126252
1761503578689222000,2.439221923828125,3.210274005396664,14.41242997727394,1.3086290679350494
1761503578699277800,2.44927783203125,2.0903578295469285,11.670524301993845,1.2435925321400165
1761503578709334000,2.459333984375,1.0094783635780216,8.033575912871957,0.9948480729401111
1761503578719390000,2.469389892578125,-0.1291203009098768,4.4140562129348515,0.8256563122741878
1761503578729447000,2.479447021484375,-0.5748492214560509,1.4048311418443917,0.8933028844371438
1761503578739502800,2.4895029296875,-0.49017362695038313,-1.072872392863035,0.8769823026247322
1761503578749559000,2.49955908203125,-0.6823121095702052,-2.856106054955721,0.7888815559759735
1761503578759615000,2.509614990234375,-0.25827830348163844,-3.309628405857086,0.9959484353974462
1761503578769671000,2.5196708984375,1.6418424931526183,-3.6109324888557195,0.8054767169460654
1761503578779727000,2.52972705078125,2.6543650467321274,-5.55989973398447,0.5640822917154058
1761503578789783000,2.539782958984375,3.7891856539860367,-9.73130220580995,0.7229995092675089
1761503578799839000,2.5498388671875,4.211759616655111,-18.294637321567535,1.0103329345807432
1761503578809895000,2.55989501953125,0.9932456061795353,-25.4594962174654,1.6616022556334733
1761503578819950800,2.569950927734375,-5.907900686228275,-27.24378435704708,1.686454080556333
1761503578830006800,2.5800068359375,-9.66824924504757,-26.46495570079088,0.5750514660298824
1761503578840063000,2.59006298828125,-8.709452144175767,-26.46648714814186,-1.09205406319499
1761503578850119000,2.600118896484375,-8.02133543998003,-26.252236494696138,-1.534708106340468
1761503578860174800,2.6101748046875,-7.925964848458767,-23.217560171484944,-1.2427683562755585
1761503578870231000,2.62023095703125,-5.59796496848464,-20.48154647685289,-1.6447186331108212
1761503578880287000,2.630286865234375,-2.6680560106933116,-20.20687028853893,-2.6174264781743286
1761503578890343000,2.640343017578125,-3.5291833031907673,-21.86350352358818,-2.6314167173430323
1761503578900398800,2.65039892578125,-7.430324772796034,-22.500550550282,-1.3780664690375328
1761503578910455000,2.660455078125,-10.36691656935215,-20.90131268862486,-0.883511266002059
1761503578920511000,2.670510986328125,-11.562174986433982,-17.201925086724756,-0.6167427820727229
1761503578930567000,2.68056689453125,-8.946381077897549,-12.962913890528679,-0.1033905241087079
1761503578940622800,2.690622802734375,-5.015261526396871,-8.85266351428032,0.23960750528126953
1761503578950678800,2.7006787109375,-1.569622475594282,-3.3758366157799955,-0.19222557638138532
1761503578960736000,2.710736083984375,1.5554801146037875,1.9074808040082454,-0.9910969037130475
1761503578970792000,2.7207919921875,3.6942864793688055,5.383235007089376,-1.9436013341814278
1761503578980847900,2.730847900390625,3.6765614375859497,7.8138389369696375,-2.2103426378428934
1761503578990903800,2.74090380859375,2.326683682809025,9.411721876886487,-1.7432327833548187
1761503579000960000,2.7509599609375,0.8788388902768492,9.768307117602228,-0.8612893511913716
1761503579011016000,2.761015869140625,0.24506737812235949,9.894683672761916,0.43295514449514444
1761503579021072000,2.77107177734375,0.9225335089661181,10.257379505312443,1.4869012300267814
1761503579031127800,2.7811279296875,1.6660019518971443,11.062520998954772,2.437824236522615
1761503579041184000,2.79118408203125,2.2539222518503665,12.492151651012897,3.0981857955694196
1761503579051240000,2.801239990234375,3.174416802334785,13.267213648211955,3.199527570454776
1761503579061295900,2.8112958984375,4.060570691800117,13.448416603058575,2.337952826450765
1761503579071352000,2.82135205078125,4.089887387177348,13.968191003024577,1.1982024346444755
1761503579081408000,2.831407958984375,2.239523870272189,13.660622598934173,0.18721542006917297
1761503579091463700,2.841463623046875,-0.44942054160572587,13.142639174038171,-0.07427709621861577
1761503579101524000,2.85152392578125,-1.9067296933799982,12.582572511172295,0.17215806312561033
1761503579111580000,2.861579833984375,-2.1128537389934063,12.14844576561451,0.6556251781746745
1761503579121635800,2.8716357421875,-1.9654279660642147,12.353348745000362,1.1666332111001014
1761503579131691800,2.88169189453125,-1.7160241661727427,12.755450705265998,1.3272405371636151
1761503579141747700,2.891747802734375,-1.9992682763457297,12.86926646953821,1.0465770911335945
1761503579151803600,2.9018037109375,-1.4227578436791897,11.73842236469984,1.1333055265158414
1761503579161860600,2.911860595703125,-0.044644612890481945,9.774724583429098,1.1790744672611355
1761503579171916800,2.921916748046875,1.1615969704985618,10.165665682733058,0.47433673700168727
1761503579181972700,2.93197265625,1.5289946971297264,10.886826578396558,-0.46116161360815167
1761503579192028700,2.942028564453125,-0.06063757018372416,10.871150870358944,-0.7200274346541613
1761503579202084900,2.9520849609375,-1.0716296993255614,10.027824899750946,-0.53551791254282
1761503579212140800,2.962140869140625,-0.7646084077239036,8.992440233761071,-0.417481607966125
1761503579222196700,2.97219677734375,-0.36755262493193147,8.683475991398096,0.41459655404910445
1761503579232253000,2.9822529296875,0.6134304426543414,8.351860356765984,0.7803005554396659
1761503579242308900,2.992308837890625,2.1413415823310613,9.08101400474906,0.2933081158086657
1761503579252364800,3.00236474609375,3.237038385942578,10.76583873053789,0.18868081644661724
1761503579262421000,3.0124208984375,3.5819402031272647,11.418989335292578,0.8592883866325021
1761503579272477000,3.022476806640625,3.3471213934272526,11.107928997433184,1.0637497597306966
1761503579282532600,3.03253271484375,4.043315605616569,9.033736120745539,1.429077402089536
1761503579292588800,3.0425888671875,4.516073402863741,4.411981744748354,2.8315672415047883
1761503579302644700,3.052644775390625,3.26100027628839,1.1600403887063264,3.8406206576690076
1761503579312700700,3.06270068359375,0.016602759754657744,1.9731471621394157,2.6542536953121423
1761503579322756900,3.0727568359375,-1.689663397991657,1.1192793392509222,1.3902958360135556
1761503579332812800,3.082812744140625,-1.1329774636052548,-2.899209283623099,0.7350824535101652
1761503579342868700,3.09286865234375,0.9777288880959153,-7.826403234988451,0.12909286491367966
1761503579352925000,3.102925048828125,3.0616788964271544,-12.296970439696311,-0.3479781558901071
1761503579362980900,3.11298095703125,3.4309362794503566,-17.796584924066067,0.08507244833614677
1761503579373036800,3.123036865234375,-3.0088468854278325,-22.595203348922727,0.12908493733555076
1761503579383093800,3.13309375,-7.238357847350835,-26.71027953789234,0.5216694199323654
1761503579393150000,3.14314990234375,-8.256354740688204,-31.44954327198267,0.49648178718388075
1761503579403206000,3.153205810546875,-8.208387120854853,-32.22610164521932,-2.011273186916113
1761503579413261800,3.16326171875,-8.913055731400847,-29.82433860989809,-5.012437701147794
1761503579423318000,3.173318115234375,-8.286975504401326,-27.0817525511384,-5.11339866002202
1761503579433373700,3.183373779296875,-6.614219986590743,-24.705612617373465,-2.588048700259626
1761503579443429600,3.1934296875,-4.66325104625076,-24.23448797428608,-0.013972705795301589
1761503579453485800,3.20348583984375,-1.5146644123516977,-24.639664519691465,0.9934390829250216
1761503579463541800,3.213541748046875,1.9111125846393404,-24.119512518584727,0.4594017643287778
1761503579473597700,3.22359765625,5.007504336398839,-21.09893953952789,-1.8463102959915993
1761503579483654000,3.23365380859375,6.968536113330721,-16.906928579437732,-3.7210719027027483
1761503579493709800,3.243709716796875,6.274732595670223,-10.876909580016136,-3.7835418028801677
1761503579503765800,3.253765869140625,3.121033587193489,-3.5860675121903416,-2.7318986605286595
1761503579513822000,3.263822021484375,0.7093881133485586,2.248499642279744,-1.9893454327464102
1761503579523878000,3.2738779296875,-1.7683377062559127,5.468892013847827,-0.622781477715075
1761503579533933800,3.283933837890625,-3.320516295096278,7.245027242112159,0.5867983101859688
1761503579543990000,3.293989990234375,-4.55818528240621,9.763246327081323,1.0561460067287087
1761503579554046000,3.3040458984375,-5.320256280606984,12.13451310185194,1.5473866783887147
1761503579564101600,3.3141015625,-5.146075187221169,13.275965109944343,1.0430059546485542
1761503579574157800,3.32415771484375,-4.867635846981406,13.911663060116767,0.6282470496445894
1761503579584213800,3.3342138671875,-3.1275545133948324,13.351418702596424,0.16734335632026195
1761503579594270700,3.344270751953125,-1.1600362970530986,13.275351361960173,-0.9746657011330128
1761503579604326700,3.35432666015625,0.13668171260748058,13.269299222314357,-1.2554668020680546
1761503579614382800,3.3643828125,-1.5729045660048722,12.585455373132229,-0.8825643405407667
1761503579624438800,3.374438720703125,-3.431935519620776,11.229529424232243,0.09057018723590299
1761503579634494700,3.38449462890625,-2.8409979176729916,10.39861869856119,0.3308732552995905
1761503579644551000,3.394551025390625,-2.1930162399888036,11.74769054378271,-0.22297699900316073
1761503579654606800,3.40460693359375,-1.2328367448478936,13.249107498157024,-0.4200967589005828
1761503579664662800,3.414662841796875,-0.36192309461236,13.223735741013288,-0.09272155658351257
1761503579674719000,3.424718994140625,0.15590252763973547,12.54688511171937,0.1703518904864788
1761503579684775000,3.43477490234375,0.04186988748013973,12.02363631364107,-0.020733283688127994
1761503579694830800,3.444830810546875,-0.5131114714780822,11.68290213752985,-0.24584961454123258
1761503579704887000,3.454886962890625,-1.1303659659326075,11.036411575186252,-0.3180997349768877
1761503579714942700,3.464942626953125,-1.4490075527012347,10.893098498272895,-0.4801169278383255
1761503579724998700,3.47499853515625,-1.0268991617172956,10.820722997891902,-0.9326189957812427
1761503579735054800,3.485054931640625,0.6054466042935848,10.256210461533069,-1.3244213880896567
1761503579745110800,3.49511083984375,2.2449615312814712,9.434089776039123,-2.015291190385818
1761503579755166700,3.505166748046875,2.6110394074857233,8.554498898351191,-2.191211382523924
1761503579765223000,3.515222900390625,1.9773316082172094,8.122246129971742,-1.6580821186833083
1761503579775278800,3.52527880859375,1.2512573676794767,8.676950973543525,-0.6615937311902642
1761503579785334800,3.535334716796875,1.591529917628318,9.519580778580904,0.33248364963829513
1761503579795391700,3.545391845703125,1.9331711255818604,9.966505046391486,1.705078847657889
1761503579805448000,3.555447998046875,2.884983482132852,9.785355867558717,2.1361682713463903
1761503579815504000,3.56550390625,3.205017984564602,8.285129584273696,1.964257753241062
1761503579825559800,3.575559814453125,2.540558342549205,6.546296204921603,2.1042351098604497
1761503579835616000,3.585615966796875,0.8952893820792436,4.830038229992986,2.4089020934209224
1761503579845672000,3.595671875,-1.405218679857254,3.0203157894253727,2.9160511128306386
1761503579855727900,3.605727783203125,-2.442870706257224,1.6243430768191813,2.915995290990174
1761503579865783800,3.61578369140625,-0.9811677765034139,0.7435925077021122,2.7417729888111353
1761503579875839700,3.62583984375,1.5595600773937999,-1.1907178510427474,2.0792472374677655
1761503579885895700,3.635895751953125,3.997144513811171,-3.9725101310312745,1.0445166514724493
1761503579895952000,3.645951904296875,5.368310994201898,-8.285573820909857,-0.09135667970478534
1761503579906007800,3.6560078125,4.92156383652389,-15.646991646218298,-0.46057080810815093
1761503579916063700,3.666063720703125,0.6721091338552534,-22.016942857718465,-1.5277964272558688
1761503579926119700,3.67611962890625,-4.848056994025409,-28.039921875500678,-1.8169509305164218
1761503579936175900,3.68617578125,-4.253006403800845,-32.492211080718036,-2.267265425287187
1761503579946231800,3.696231689453125,-1.8231809109471737,-34.4816102894783,-2.8751430561199784
1761503579956287700,3.706287841796875,-2.463447045817971,-31.49042005677223,-2.439416474150121
1761503579966344000,3.716343994140625,-3.1111095745503903,-27.879688058924675,-2.515376262758672
1761503579976400000,3.72639990234375,-2.1391449490696193,-25.447585999441145,-3.101037093347311
1761503579986455600,3.73645556640625,-3.5002205358177423,-26.991083853697774,-1.9401687293842433
1761503579996512800,3.7465126953125,3.8477281515866517,-24.670985540628433,0.7031245959743857
1761503580006569000,3.75656884765625,4.657153021636605,-20.618502293694018,-2.5622040649071334
1761503580016624600,3.766624755859375,7.516330154600739,-17.377447657847405,-5.656863147655129
1761503580026680800,3.776680908203125,8.749697060802578,-13.455111716783046,-6.588920125639438
1761503580036736800,3.78673681640625,5.905882916665077,-11.412070934206247,-5.549352621006966
1761503580046792700,3.796792724609375,1.2521306433826684,-7.984357416194677,-2.681619256621599
1761503580056848600,3.8068486328125,-1.424620130419731,-3.0187942789465185,-0.34171354253739117
1761503580066904800,3.81690478515625,-2.273744558173418,1.7791887706160545,0.8072071940004825
1761503580076960800,3.826960693359375,-3.237303174358606,6.621710634607076,0.6162780871704221
1761503580087016700,3.8370166015625,-5.235490085208416,11.398564971423149,1.0005044912666081
1761503580097073400,3.847073486328125,-6.599778204262257,15.817697756969928,0.99144644780308
1761503580107129300,3.85712939453125,-6.915539267158508,18.681920482885836,0.2054255419552326
1761503580117185300,3.867185302734375,-6.713381202566623,19.607756394398212,0.1653130195364356
1761503580127241500,3.877241455078125,-6.854564281713962,21.141205148327348,0.20045593684911728
1761503580137297400,3.88729736328125,-6.105435182672739,20.481315006184577,0.6145037709742784
1761503580147353300,3.897353271484375,-3.81384400216341,18.03025690181851,0.7771542933031916
1761503580157409500,3.907409423828125,-3.8116672426462173,15.813823545885086,1.1466700350016354
1761503580167465500,3.917465576171875,-4.734986202901601,13.809077130389213,1.7537727359391748
1761503580177521400,3.927521484375,-4.691548043191433,11.443999857908487,2.009441149183363
1761503580187578400,3.937578369140625,-3.8383471597790715,9.79185867358148,2.015368493405729
1761503580197634600,3.947634521484375,-2.3893419451653957,8.98500219271481,1.5550500526234508
1761503580207690500,3.9576904296875,-0.8570084590017795,8.26441938920021,1.0645186982765793
1761503580217746400,3.967746337890625,0.1524900523151271,7.560558587905764,0.6285235284984111
1761503580227802400,3.97780224609375,0.10237550184726714,7.453339153158664,0.5273338754348457
1761503580237858300,3.9878583984375,0.26574586288332935,7.664847229897975,0.22335498373638837
1761503580247914200,3.997914306640625,0.3879974470674991,8.366663373622298,-0.48522700086105613
1761503580257970400,4.007970458984375,0.4818184710592031,9.030928662109375,-1.7753912780292331
1761503580268026400,4.0180263671875,0.6513397559404372,8.899778316676617,-2.2284037797123193
1761503580278082300,4.028082275390625,0.5303694437384605,8.616284615656733,-1.7856125200532376
1761503580288138500,4.038138427734375,0.3955336512586102,8.191806572932004,-0.9733766111705452
1761503580298194400,4.0481943359375,0.5413543270787223,7.780246463969349,-0.2937310904610902
1761503580308250400,4.05825048828125,0.46133627605531363,8.492711427479982,0.15859887231793254
1761503580318306600,4.068306640625,0.5518015598783269,9.549397824695706,0.20830865964349357
1761503580328362500,4.078362548828125,0.86070029925704,10.462432122302054,-0.07492167773246765
1761503580338418400,4.08841845703125,1.0105394900035112,10.737284836226701,-0.5524515847522765
1761503580348474400,4.098474365234375,0.816502407220751,9.991814844214916,-0.6751230017837136
1761503580358530300,4.1085302734375,0.18405198760218916,8.435878948667645,-0.5413574688838795
1761503580368587500,4.11858740234375,-0.33327151208035644,7.441624165445566,-0.8559419257488101
1761503580378643200,4.128643310546875,-1.027278443358466,6.823070826819539,-1.291716219317913
1761503580388699400,4.138699462890625,-1.533846228814125,5.809225207942724,-1.4171293362729251
1761503580398755300,4.14875537109375,-1.8835083922684193,5.03471441488564,-1.1709658334769308
1761503580408811300,4.158811279296875,-1.1289958466231822,4.120817947492003,-0.668243690598756
1761503580418867500,4.168867431640625,0.48817923826277254,2.4272423444926736,-0.5314581157580017
1761503580428923400,4.17892333984375,2.5249814187109467,-0.48653965436220165,-0.900193812994659
1761503580438979300,4.188979248046875,4.392416043534874,-6.927030382987857,-1.6018842845126986
1761503580449035500,4.199035400390625,4.718655245825648,-16.563961529707907,-2.557285020944476
1761503580459091500,4.209091552734375,2.4814625949800013,-24.91713004646301,-4.25491662133634
1761503580469147400,4.2191474609375,-1.7976735447250305,-29.907478665399548,-5.9121542520195245
1761503580479203600,4.22920361328125,-5.399216420075297,-32.35164525668621,-3.253264421339333
1761503580489259500,4.239259521484375,-5.898052661430835,-34.02841176370382,1.5600905310086906
1761503580499315500,4.2493154296875,-6.206182791057229,-34.40767996087074,5.428258974686265
1761503580509371400,4.259371337890625,-6.93795275901854,-32.31014887869358,9.468865321344136
1761503580519427300,4.26942724609375,-7.220708793413639,-29.71454435622692,11.929861466878652
1761503580529483300,4.279483154296875,-6.613057372552156,-26.72044554259777,10.504434696251153
1761503580539539500,4.28953955078125,-5.241285035222768,-21.875044323778152,6.188399881607293
1761503580549596400,4.299596435546875,-3.980517496398091,-17.770533952486513,1.045211063477397
1761503580559652400,4.30965234375,-2.4097563721626996,-13.068457501018047,-3.445714746387303
1761503580569708300,4.319708251953125,0.5491822807580232,-9.431594452092051,-5.56806901191473
1761503580579764500,4.329764404296875,3.2575504280954597,-7.397959211242198,-5.552259448364377
1761503580589820400,4.3398203125,4.47914798604846,-5.165186130404472,-4.490156579057872
1761503580599876400,4.34987646484375,4.455529794573784,-2.8573727138906717,-2.7389970943570137
1761503580609932500,4.3599326171875,4.251315381973981,-1.1384575024515389,-0.547016481026262
1761503580619988500,4.369988525390625,2.0296178219020367,1.7085259193718432,1.4461724754057823
1761503580630044400,4.38004443359375,-0.3340595206528902,5.351458059078455,2.5440911928504706
1761503580640100400,4.390100341796875,-0.9834136557340621,8.480539343649149,2.032732592921704
1761503580650156500,4.400156494140625,-1.0834171677529811,10.45238886719346,0.32645123760625716
1761503580660212200,4.410212158203125,-1.5731038879692554,11.542190183025598,-0.7953107122406363
1761503580670268400,4.420268310546875,-2.615978617453575,12.36448739413023,-1.4527664668433367
1761503580680324400,4.430324462890625,-3.4544249993264673,13.44773621957898,-1.924057552538812
1761503580690380300,4.44038037109375,-4.422558083820343,14.503973119461536,-1.380852592624724
1761503580700436500,4.4504365234375,-6.353789181250334,15.425339776605366,0.1654436419124715
1761503580710492400,4.460492431640625,-6.977758115184307,15.774653565013407,1.8300537193261086
1761503580720548400,4.47054833984375,-4.729827212703228,14.59915315684676,2.8567706563442945
1761503580730605300,4.480605224609375,-3.5645664590001105,13.478021467727421,2.921957414264977
1761503580740661500,4.49066162109375,-3.033645226597786,12.96344931257963,2.1783624223448337
1761503580750717400,4.500717529296875,-2.5005448965907093,13.127026594364642,0.6246515093706548
1761503580760773400,4.5107734375,-2.8611060552001,13.312987557393312,-0.22038080849749966
1761503580770829300,4.520829345703125,-3.739492817795276,12.649377517944574,0.07084246386112644
1761503580780885500,4.530885498046875,-4.117962558060884,11.902127072256803,0.9705622113369404
1761503580790941400,4.54094140625,-3.5168344014883037,11.26532788284421,1.211973551169783
1761503580800997400,4.550997314453125,-2.5219571024537086,10.818504152798653,0.3515573660837486
1761503580811053300,4.56105322265625,-1.2647580697655678,9.520833408990502,-0.6241635797232389
1761503580821109200,4.571109130859375,-0.6528694497257471,8.67104496437013,-1.512810016656667
1761503580831165400,4.58116552734375,-0.39813305663466453,9.018575376492738,-2.030456026291847
1761503580841221400,4.591221435546875,-0.9701035077840089,8.427765200316905,-0.7634509082518518
1761503580851277300,4.60127734375,-1.0286164870291947,7.71101686039865,1.0074272762671113
1761503580861333200,4.611333251953125,-0.03483107488453388,7.644038250625133,2.1374691248118878
1761503580871389400,4.621389404296875,0.6830996797513217,8.082868059307337,2.556227913106978
1761503580881445400,4.6314453125,1.0814227790653705,9.574794716280698,1.5533492400549351
1761503580891502300,4.64150244140625,1.675261947673559,10.803545068597792,-0.08943098147236742
1761503580901558300,4.651558349609375,1.5748393334597348,11.452674162751435,-0.8383560732409358
1761503580911614500,4.661614501953125,1.3852958357691765,10.940545309102534,-0.7316701608486473
1761503580921670400,4.67167041015625,1.0651707324445248,9.240034353882074,-0.2035899970911443
1761503580931726300,4.681726318359375,0.6627003772579133,7.188900281220674,-0.2332718542526476
1761503580941782500,4.691782470703125,-0.32373101886212824,5.066804082107543,0.06791559836268425
1761503580951838500,4.70183837890625,-0.2232977371238172,3.2987077833920715,0.42973800907954574
1761503580961894400,4.711894287109375,1.6298188778817653,1.7763836500674486,0.3905842486903071
1761503580971950300,4.721950439453125,3.763392164298892,-1.2391086647242306,-0.28841349390121174
1761503580982006300,4.73200634765625,5.989888064563274,-8.100771964788436,-1.8148638951092957
1761503580992062200,4.742062255859375,5.514828420114517,-18.513608573794365,-2.7837743937164543
1761503581002118400,4.752118408203125,2.1669103233516216,-27.440405830299852,-2.1294792951017616
1761503581012174300,4.76217431640625,-3.3626708447366953,-31.351165899860856,-0.6456842143967747
1761503581022230300,4.772230224609375,-5.460563161441684,-34.16709542725086,1.765431755681336
1761503581032286500,4.782286376953125,-6.629494128090143,-34.3067026353836,4.085925497809052
1761503581042342400,4.79234228515625,-8.279355092525481,-30.746819365763663,5.170905677095055
1761503581052399400,4.8023994140625,-9.16273893275559,-26.69465176064968,4.458908038835228
1761503581062455300,4.812455322265625,-6.177345403629541,-22.72746896212101,2.1113832280494274
1761503581072511500,4.822511474609375,-3.2957483490645885,-19.985261673545835,-0.2618330733537674
1761503581082567400,4.8325673828125,-3.241067495328188,-19.383746563482283,-1.1115211263395846
1761503581092623400,4.842623291015625,-3.7423815249741077,-18.79371847759485,-1.5746359198421238
1761503581102679000,4.852678955078125,-2.385029634924233,-17.09770483379364,-1.2709994483731686
1761503581112735000,4.86273486328125,1.209205547761172,-15.753345404046772,-0.9759364517211914
1761503581122791200,4.872791259765625,4.667805933076143,-13.752890548264979,-1.1471243546403944
1761503581132847000,4.88284716796875,6.608754122400283,-10.577294180756807,-1.1227559293203055
1761503581142903000,4.892903076171875,6.699514589777588,-6.5719578849226234,-0.6439055142864585
1761503581152959200,4.902959228515625,5.11957121117711,-2.1166239051818847,0.1937565853409469
1761503581163015200,4.91301513671875,2.5859710172027346,2.349797285762429,-0.27806320040374993
1761503581173071000,4.923071044921875,0.22552783426344394,6.268506853023171,-0.5576636933773755
1761503581183127000,4.933126953125,-1.8335411230504512,9.924845002269745,-0.10580781438350677
1761503581193183000,4.943182861328125,-2.9691157635420558,13.027269750583171,0.18039952950924634
1761503581203239000,4.953239013671875,-3.1425422391682862,14.670561858022213,0.4743953353211283
1761503581213295000,4.963295166015625,-3.519450721466541,15.428408516526222,0.726735919316858
1761503581223352000,4.97335205078125,-3.4386651201367378,15.464818385034798,0.5617312350772321
1761503581233408000,4.983407958984375,-3.2778678244590758,14.915676436287164,0.40001068707481025
1761503581243464000,4.9934638671875,-4.240432753431797,14.17128313359618,0.23223829168751833
1761503581253520100,5.00352001953125,-3.708386900913715,12.771071468245982,-0.014137534118327312
1761503581263576000,5.013576171875,-3.118981915360689,11.42909104259014,-0.20336217968463896
1761503581273632000,5.023632080078125,-3.007659721469879,10.927812084257601,0.39331601174175734
1761503581283688200,5.033688232421875,-2.551656659668684,10.206236178052425,1.2732136172913013
1761503581293744000,5.043744140625,-1.8679332219958305,9.350026175951957,1.82473573917374
1761503581303800000,5.053800048828125,-1.2390695017576216,8.769276206019521,2.2686181550703943
1761503581313856000,5.06385595703125,-1.0393874718904494,8.451216218531131,2.3308254587888717
1761503581323912200,5.073912109375,-1.2243033097803593,8.231589132744073,2.015752085895836
1761503581333968100,5.083968017578125,-1.6257354079604147,8.327415651339292,1.5677335931077598
1761503581344024000,5.094024169921875,-1.7932511982381343,9.105360510498285,0.8350358427770436
1761503581354080000,5.104080078125,-1.8889315863609313,10.726065523076057,-0.31393092485964297
1761503581364136000,5.114135986328125,-1.184088203769922,11.975672785460949,-1.4903667141802608
1761503581374193000,5.12419287109375,0.12383096233010292,12.147482473540306,-1.8976102751180528
1761503581384249000,5.1342490234375,0.30864275532364843,12.079348263990878,-1.270018766772747
1761503581394305000,5.144304931640625,0.01234568683207035,11.965758125168085,-0.6295940803393721
1761503581404361000,5.15436083984375,-0.5813906059235334,12.352895156013965,-0.43903366069123145
1761503581414417200,5.164417236328125,-0.8863491197764873,13.482690628582239,-0.8569825939081609
1761503581424473000,5.17447314453125,-0.6691700116634368,14.22464179881811,-1.3219172963142394
1761503581434529000,5.184529052734375,-0.3796925600588322,13.941108934831618,-1.2766430072180925
1761503581444585000,5.1945849609375,-0.0062958487411960955,13.000758175754546,-1.1003181798018515
1761503581454641200,5.20464111328125,0.3659487699318677,10.575830537945032,-1.0677210014492273
1761503581464697000,5.214697021484375,0.2394365326285362,6.872603796273469,-0.5720220352061093
1761503581474753000,5.2247529296875,-0.3430815429549664,3.6224808878302572,-0.19320554559575392
1761503581484809200,5.234809326171875,-1.7192201857350766,1.045384666478634,0.6414610437437892
1761503581494865000,5.244864990234375,-2.5203718790888785,-0.6987684465914964,2.011907393166423
1761503581504920800,5.2549208984375,-0.9158645525962114,-1.3300637778908013,2.6823142531484363
1761503581514977000,5.26497705078125,1.8245716346532106,-2.2046131542801857,2.0393939505070446
1761503581525034000,5.275033935546875,3.826046481132507,-4.760814471641183,-0.03706716337352991
1761503581535090000,5.28508984375,5.277063620090484,-9.997470678019523,-0.4301128337413072
1761503581545146000,5.29514599609375,4.641261625021696,-19.114381341058014,0.7175891746565699
1761503581555202000,5.3052021484375,2.0257909570902584,-25.493947937643526,0.4293775052040815
1761503581565258000,5.315258056640625,-2.009069393261522,-27.910625633502004,0.4522352337002754
1761503581575314000,5.32531396484375,-6.318212840956449,-29.27934676656723,2.5125407470718026
1761503581585370000,5.3353701171875,-7.970077546429634,-28.86301988159418,3.4436423240274188
1761503581595426000,5.345426025390625,-5.843092406231165,-28.78500257593393,1.8977324401929974
1761503581605482000,5.35548193359375,-6.222360018876195,-27.46942851116657,1.7982956221461295
1761503581615538200,5.3655380859375,-6.339606342118978,-24.302308880102633,2.00043352073282
1761503581625594000,5.375593994140625,-3.2628777605980632,-22.811546590733528,1.3549383991673587
1761503581635650000,5.385650146484375,1.0545745926935226,-21.364249349081515,0.21236381678581237
1761503581645706000,5.3957060546875,5.333408023124933,-18.920252269142864,-1.7358195844888686
1761503581655762000,5.405761962890625,7.3476687014192335,-16.272191583251953,-2.3400068363711237
1761503581665817900,5.41581787109375,7.053329196736216,-12.837277924603223,-1.956696962597966
1761503581675874000,5.4258740234375,5.749117068460583,-8.926974366638063,-0.9467273083716631
1761503581685930000,5.435929931640625,3.3851731839239596,-4.894361941343545,-0.06573241367128212
1761503581695987000,5.445987060546875,1.161150980296731,-2.137884135353565,-0.4545058089807629
1761503581706043000,5.45604296875,-1.7525661366283893,-0.49571547898650165,-1.4176079135701058
1761503581716097000,5.466096923828125,-5.126539881145954,1.2794558726817369,-0.9704474989160895
1761503581726153200,5.4761533203125,-6.611513065719604,3.099693862044811,0.4461339942157268
1761503581736209200,5.486209228515625,-6.05127338437438,4.960733232873678,1.8941656876221298
1761503581746264800,5.496264892578125,-3.5415631845533846,7.092143788298964,1.412557352182269
1761503581756321000,5.506321044921875,-1.1503414900559932,8.798550231298805,-0.10719782570349051
1761503581766377000,5.516376953125,-0.10616327675767243,10.185885463941096,-1.6367811181098222
1761503581776433000,5.526432861328125,-0.9882558350682258,11.44712705001831,-2.3042793971687554
1761503581786489000,5.536489013671875,-3.521771273368597,12.624414926123618,-1.8333283570826053
1761503581796545000,5.546544921875,-6.344501128423214,14.023198019975423,-0.704510643505305
1761503581806601000,5.55660107421875,-7.853143942397832,15.758603762966393,-0.2933423103392124
1761503581816657200,5.5666572265625,-5.304976878410577,15.746588331001997,-0.5027445373730733
1761503581826713000,5.576713134765625,-4.159739506560564,13.953845666807888,0.430813529356569
1761503581836770000,5.58677001953125,-3.887065890240669,13.537118968862295,1.281728055397421
1761503581846826000,5.596825927734375,-3.0945526997640727,13.83263570063114,0.7416185042154043
1761503581856882200,5.606882080078125,-2.654931156182289,14.230393494212626,-0.3050309580346569
1761503581866938000,5.616938232421875,-2.535817285501957,14.23928056502342,-1.0422089590519665
1761503581876994000,5.626994140625,-2.9381670830488202,13.84587629047632,-1.2386395859077572
1761503581887050200,5.63705029296875,-3.6675919491887092,12.873739231038092,-1.283205434473604
1761503581897106000,5.64710595703125,-4.322482091087102,11.534403182411193,-1.3744494475841522
1761503581907161900,5.657161865234375,-3.900909706676006,9.759043030172586,-1.6845678284183143
1761503581917218000,5.667218017578125,-3.176746706587076,8.492943482670187,-1.439982973115891
1761503581927274000,5.67727392578125,-2.4144787245094776,7.976950939330458,-0.9869038359373807
1761503581937330000,5.687329833984375,-1.222849019318819,7.852631901222467,-1.2230137083612382
1761503581947386000,5.69738623046875,-0.7468401113212109,8.39021434507966,-1.2860624313399196
1761503581957442000,5.707442138671875,-0.6783844147324561,8.901219747656583,-0.8510488199450075
1761503581967498000,5.717498046875,-0.6977134576458484,9.247566502952575,-0.2733496341516264
1761503581977554200,5.72755419921875,-1.1006313374042511,9.15770386119783,0.5763005893081427
1761503581987611100,5.737611083984375,-1.4302256953418253,8.938084958717226,1.2762453862026333
1761503581997667000,5.7476669921875,-1.2697042939960956,8.668069747951627,1.676332791775465
1761503582007723000,5.757722900390625,-0.4805529811680317,8.064365018889308,1.571579162620008
1761503582017779200,5.767779296875,0.5346995818972587,7.652887327513098,1.1620559663124381
1761503582027835100,5.777835205078125,0.826904412639141,7.500641002559662,0.40122108577787874
1761503582037891000,5.78789111328125,0.716177262032032,7.238537880092859,-0.047184068240225314
1761503582047947000,5.797947021484375,1.1970774492025376,6.312246041506529,0.18537322626858949
1761503582058003000,5.8080029296875,1.1807254493385553,3.7928228414446115,1.3470169585183263
1761503582068059000,5.818058837890625,1.4365145663529633,-0.7496399711728096,2.497468557885289
1761503582078115000,5.828114990234375,3.8419431384444236,-8.256354156166315,1.6160294219821691
1761503582088171000,5.8381708984375,4.959024090868234,-19.22429133006334,0.7245598904520273
1761503582098227000,5.84822705078125,2.762612947744131,-28.2995244133234,0.5592419024795293
1761503582108279300,5.858279296875,-2.3365379912167787,-33.959393757057185,0.1416167943894863
1761503582118335200,5.868335205078125,-5.710076851448417,-38.59909938480854,0.8942492253765463
1761503582128394200,5.878394287109375,-5.088356573224067,-38.02654850342274,0.9939178063526749
1761503582138450400,5.888450439453125,-4.753741756775975,-30.894095501089094,0.13101999705135822
1761503582148506400,5.89850634765625,-3.1433629079014063,-22.53207030866146,-0.09848784675896168
1761503582158562300,5.908562255859375,-0.5595505300372838,-17.511146518719194,0.44834231791496276
1761503582168618200,5.9186181640625,2.027455675432086,-15.486463230609893,1.1804025009945034
1761503582178674200,5.928674072265625,3.2312299919247627,-15.039173052096366,1.9097084169298408
1761503582188730000,5.938730224609375,3.468627712202072,-13.906376644146441,1.8746619457289575
1761503582198786300,5.948786376953125,3.4289842685997485,-11.653802299773693,0.8896072447896003
1761503582208842200,5.95884228515625,5.263678068816661,-11.069268719649314,-1.4606965291902423
1761503582218898200,5.968898193359375,6.891503142532706,-12.233830385172366,-4.3314243992164725
1761503582228954400,5.978954345703125,7.18676326919198,-13.57439159168005,-6.2137383210033175
1761503582239010300,5.98901025390625,6.638851739022136,-13.01809743309021,-6.148091252094507
1761503582249066200,5.999066162109375,5.182680870562791,-10.186752894425391,-4.564283307020366
1761503582259122400,6.009122314453125,4.354783939754963,-4.840583004882931,-2.751013987626135
1761503582269178400,6.019178466796875,2.3264181637406347,2.640221662828326,-0.8934536910846829
1761503582279235300,6.0292353515625,-1.0155437280315904,7.94503662867546,2.2143372604370115
1761503582289291300,6.039291259765625,-2.440703883612156,10.526600935351848,4.480198956406117
1761503582299347500,6.049347412109375,-4.119803802013397,12.702289608442783,4.275675916248559
1761503582309403100,6.059403076171875,-5.54870964692831,13.787974721127748,2.9781098018586634
1761503582319459000,6.069458984375,-7.097922956222296,14.86180339180231,1.3165885025069117
1761503582329515300,6.079515380859375,-7.924274411153793,15.181812759792804,-0.8629802268877625
1761503582339571200,6.0895712890625,-7.9974413541734215,14.71931799788475,-2.244269018972665
1761503582349627100,6.099627197265625,-7.857533701789379,14.764983185994625,-2.6434692664474246
1761503582359683300,6.109683349609375,-6.66603376045823,14.332834462511538,-2.7576509414225816
1761503582369739300,6.1197392578125,-5.849107136476039,13.363819919008016,-1.9745064677938817
1761503582379795200,6.129795166015625,-5.395121844238043,12.59362231297493,-0.20011841199044136
1761503582389851400,6.139851318359375,-4.161436958128213,11.722358534127473,0.3296419964715838
1761503582399907300,6.1499072265625,-2.919617865401506,10.899666186225414,0.5694369506163522
1761503582409963300,6.15996337890625,-2.5613775509551164,10.434830998671055,0.57028388630189
1761503582420020200,6.170020263671875,-2.2863246382832525,9.944576123178004,-0.24400734767541288
1761503582430076400,6.180076416015625,-2.6304744680568573,9.257961640238761,-1.0677502275437116
1761503582440132400,6.19013232421875,-3.385623265779018,9.213958832383156,-1.810488894895464
1761503582450188300,6.200188232421875,-3.2685166432678696,9.454301373940705,-2.253154043956846
1761503582460244500,6.210244384765625,-2.62247850086689,9.380590241041778,-2.48963421099782
1761503582470300200,6.220300048828125,-1.9363129307389257,9.242118758940697,-1.8993841529227793
1761503582480356000,6.230356201171875,-1.5636311262249947,8.899726878750323,-0.5229492671424523
1761503582490412300,6.240412353515625,-1.422815126824379,9.247217543384432,0.9211657277442514
1761503582500468200,6.25046826171875,-1.203447568756342,10.744813478165865,1.4262681898877023
1761503582510524200,6.260524169921875,-0.3136825030565262,11.518303111481666,1.2167216224797068
1761503582520580400,6.270580322265625,1.024943935996294,11.309960805296898,0.7400022281251847
1761503582530636300,6.28063623046875,1.705357810729742,10.109932689595222,0.16110406007189304
1761503582540692200,6.290692138671875,1.576204192072153,8.998573621949554,-0.1616637215149589
1761503582550749200,6.300749267578125,1.1336761133939026,8.073173179244995,0.011299831040948628
1761503582560805400,6.310805419921875,0.7554501187562942,6.980589539217949,0.5572074740424752
1761503582570861300,6.320861328125,1.0992033504277468,6.554250378796458,0.8814160472884773
1761503582580917200,6.330917236328125,1.3926245712220668,6.74628627782464,1.0385944218166172
1761503582590973400,6.340973388671875,1.8289783451795576,6.019993279969692,0.45105420722216366
1761503582601029400,6.351029296875,1.247280280742049,4.95360557295084,-0.05140270884856581
1761503582611085300,6.361085205078125,0.8610989431858063,2.5039018058031797,-0.05901581420078873
1761503582621141200,6.371141357421875,1.760893819990754,-2.9767578027278185,0.12806874603033064
1761503582631197200,6.381197265625,3.3886499201238154,-10.457391205525397,1.1751463340319692
1761503582641253000,6.391253173828125,4.013301575624943,-19.29136170977354,1.618035647238046
1761503582651309300,6.401309326171875,0.7735546613760292,-26.40712778120041,0.8804431106030941
1761503582661365200,6.411365234375,-1.5776890238024293,-31.360291455602646,-0.6269961728006601
1761503582671421200,6.421421142578125,-2.518198042181134,-36.554203329753875,-1.339051678727567
1761503582681477400,6.431477294921875,-4.809895605674385,-37.879422005701066,-0.8954320054203271
1761503582691534300,6.441534423828125,-7.50463504063189,-32.60335207282304,-1.4722148252874612
1761503582701590300,6.45159033203125,-7.505560923305153,-25.265958681702614,-1.4227755254663526
1761503582711646200,6.461646240234375,-2.891844892334938,-21.359009694862365,-0.9091841980494558
1761503582721702400,6.471702392578125,1.5124223325133324,-18.704562522804736,-0.756042677821964
1761503582731758300,6.48175830078125,3.5293355711430308,-16.49444784849882,-0.28544118182584644
1761503582741814300,6.491814208984375,3.9722289760023353,-14.85863177602887,0.6168466808386147
1761503582751870500,6.501870361328125,5.550264475154877,-13.196610418200493,0.8479241120532155
1761503582761926400,6.511926513671875,7.5586279121041295,-12.197673030120134,0.7788095131643116
1761503582771982000,6.521982177734375,7.271840430235862,-11.775113972759247,0.9763124454267322
1761503582782038300,6.532038330078125,3.3315503148078918,-10.887257955551148,1.341506086142361
1761503582792094200,6.54209423828125,-0.6311860257059335,-8.708975174313784,0.9536215979300439
1761503582802150100,6.552150146484375,-2.2624504262208935,-4.700847201934456,0.25488279755814
1761503582812206300,6.562206298828125,-2.9441642776370047,0.5865431663811207,-0.9584832126170396
1761503582822262300,6.57226220703125,-3.9518145490050314,5.774790438899397,-1.6196699704416095
1761503582832319200,6.5823193359375,-5.129543154615163,9.946309815102815,-1.1683189722299576
1761503582842375200,6.592375244140625,-5.800352165657282,12.87680446382761,-0.27464727274673056
1761503582852431400,6.602431396484375,-5.943693299621343,13.623575601565838,0.49339299085568633
1761503582862487300,6.6124873046875,-5.947581539231538,13.726198940694331,0.7695379730805754
1761503582872543200,6.622543212890625,-6.541887156307697,15.66763695936203,0.23369243601858614
1761503582882599400,6.632599365234375,-6.124801561921835,17.390608752715586,-1.1074413096800446
1761503582892655400,6.6426552734375,-5.653325036656856,17.704567150104044,-2.139248993965983
1761503582902711300,6.652711181640625,-4.878437226980925,17.290784104394913,-2.783972838898003
1761503582912767500,6.662767578125,-4.784108253467083,15.421020159840582,-2.2902485337287186
1761503582922823200,6.6728232421875,-4.852136080032587,13.087737371027469,-0.836544639904797
1761503582932879000,6.682879150390625,-4.308487468004226,11.24205222119689,0.2953051165784709
1761503582942935300,6.692935302734375,-2.3719058033265172,10.163374356925488,0.8430112055703997
1761503582952991200,6.7029912109375,-0.6168260764420033,9.43616482874751,1.0942948278591036
1761503582963048200,6.713048095703125,0.011389920477196573,8.731642348673939,0.8078083747640251
1761503582973104000,6.723104248046875,0.19004669797234236,8.05432643995583,0.01624210518214386
1761503582983160300,6.733160400390625,0.007547273574396968,6.876260565215349,-0.27954993183016774
1761503582993216300,6.74321630859375,-0.8879670763671398,6.444562508109212,-0.05405950696766376
1761503583003272200,6.753272216796875,-1.002211952771619,6.42958997990489,0.07914075673222541
1761503583013328400,6.763328369140625,-1.0162708732623607,7.057213344693183,0.3457636947110295
1761503583023384300,6.77338427734375,-1.1883482723671943,9.01359232738316,0.5887336621627212
1761503583033440300,6.783440185546875,-1.4458967272043228,10.556980876046419,0.8758084365397691
1761503583043496400,6.793496337890625,-1.0403319861989468,11.528901662385463,0.9871899594023823
1761503583053552400,6.803552490234375,-0.8745487188022584,12.221223417055606,0.5888268934041261
1761503583063608300,6.8136083984375,-1.5100082571089266,12.354868501913547,0.4123389843806624
1761503583073664300,6.823664306640625,-2.2977122937381265,12.315746451836823,0.4028796666398644
1761503583083720200,6.83372021484375,-1.8559283114254475,12.2062783613801,0.0766752434015274
1761503583093777200,6.843777099609375,-1.510714359551668,11.399627632218598,0.46363837898522614
1761503583103837000,6.8538369140625,-1.2999848659694193,9.970483302372694,1.0227224605545402
1761503583113893000,6.86389306640625,-0.9524082766175269,7.928387691691517,0.7163567102521657
1761503583123949000,6.873948974609375,-1.4103677331835032,5.9559150678128,0.7366080556422472
1761503583134005000,6.8840048828125,-1.1956190670877693,2.9511978295356034,0.849279033793509
1761503583144061200,6.894061279296875,-0.2905564607466571,-0.5627443576425314,0.05885346781250555
1761503583154117000,6.9041171875,1.1555267106741667,-4.249707362255454,-0.5234115874245763
1761503583164173000,6.914173095703125,2.8884529118090865,-9.618374330288171,-0.06402415301525034
1761503583174229200,6.924229248046875,4.4488054547548295,-15.836085646575688,0.7686550527662038
1761503583184285200,6.93428515625,4.208427841883897,-22.69044768371582,0.8792828346520661
1761503583194341000,6.944341064453125,0.6719008979320525,-27.399201713252065,0.11981268486576153
1761503583204397300,6.954397216796875,-1.5256909794092177,-28.570478366243837,-0.24395808343989772
1761503583214453200,6.964453369140625,-1.6788842298239468,-27.033842798972127,-0.449000197301805
1761503583224509200,6.97450927734375,-1.553227221110463,-24.47768181362152,-0.9700824649959802
1761503583234566100,6.984566162109375,-1.7130074487000704,-23.73846737487316,-0.8315288575693964
1761503583244622300,6.994622314453125,-1.7435224139511585,-24.384551109981537,0.9107982091173529
1761503583254678300,7.00467822265625,-1.5896943727642296,-25.494534797620773,3.367391443517804
1761503583264734000,7.01473388671875,-0.4034182670285925,-25.56899353401661,4.5701711960151785
1761503583274790100,7.0247900390625,2.72977216989398,-23.212837234616277,3.240136644218862
1761503583284846000,7.03484619140625,6.724456138810515,-19.94709940841198,0.5793582233130932
1761503583294902000,7.044902099609375,9.131559950637817,-15.083955612152813,-2.584308929209411
1761503583304958200,7.054958251953125,8.931633006098865,-9.607306992828846,-5.471897625404596
1761503583315014100,7.06501416015625,5.598269504389166,-4.694560084488987,-6.062679744529723
1761503583325070000,7.075070068359375,1.4732827467799186,-1.678508966770768,-3.78596230802536
1761503583335126300,7.085126220703125,-0.4318786743700504,1.5983891358733175,-1.686234300325811
1761503583345182200,7.09518212890625,-0.8701414968192577,4.960301271197199,-0.6400038306728005
1761503583355238100,7.105238037109375,-1.8868588717401027,6.809470171490311,0.3815662449762225
1761503583365295000,7.115295166015625,-3.3273967022597786,7.856303867733478,1.6801377370163797
1761503583375351300,7.125351318359375,-6.060398940116166,8.887005928865074,2.7119547736525536
1761503583385407200,7.1354072265625,-7.880383831501007,10.75260047878027,1.7831699492067097
1761503583395463200,7.145463134765625,-7.452552386695146,13.130541909009217,0.43532267734408375
1761503583405519400,7.155519287109375,-6.920041254752874,14.432774846166371,0.881002790312469
1761503583415575000,7.165574951171875,-6.4625616906583305,14.717910469174385,1.74062844607532
1761503583425631000,7.175630859375,-4.291003249239921,13.306255034267902,1.7599112386941909
1761503583435687200,7.185687255859375,-2.3763585449516773,11.212188997852802,1.3073968957915902
1761503583445743000,7.1957431640625,0.059278702920675275,8.482367143598198,0.49620881546139717
1761503583455799000,7.205799072265625,-0.6478793863534927,7.108090714493393,-0.7690025510296226
1761503583465855200,7.215855224609375,-1.949837598222494,7.951876703828573,-1.790651829394698
1761503583475911200,7.2259111328125,-0.36677806036286054,8.630039000242949,-1.8099013042658567
1761503583485968100,7.235968017578125,0.37618301756791767,9.101203390818833,-0.6644929597631096
1761503583496024000,7.246024169921875,0.24109898594804108,10.273561409306526,-0.11342994329240172
1761503583506080300,7.256080322265625,0.06018003567457199,10.994999368345736,-0.4591720472261309
1761503583516136200,7.26613623046875,-0.6823053875684738,10.828333472895622,-0.8224716908887029
1761503583526192000,7.276192138671875,-1.4601311503924428,10.689031385189294,-0.8224115581993013
1761503583536248300,7.286248291015625,-1.9173954643011093,10.696208144950866,-0.7138099483788013
1761503583546304300,7.29630419921875,-1.6683377013683318,10.878396603703498,-0.5792059918934479
1761503583556360200,7.306360107421875,-1.2035469374775887,11.391218700313567,-0.2986372201432474
1761503583566416100,7.316416015625,-0.8767477632164955,12.041046882647276,-0.09265837342049926
1761503583576472000,7.32647216796875,-0.8751905969023704,12.639762132859229,0.05540620886888355
1761503583586528000,7.336528076171875,-0.8419301323354244,13.11862233863473,-0.27869598188195377
1761503583596584200,7.346584228515625,-0.48614276399910444,13.309834646320342,-0.6458829518392681
1761503583606641200,7.35664111328125,-0.3056949749013409,12.442221791195868,-0.4732932923633605
1761503583616697000,7.366697021484375,-0.2429752281486988,10.471614961189031,-0.03709112877100706
1761503583626753000,7.3767529296875,-0.5260445297440514,7.759207183071971,0.5504129550641402
1761503583636809200,7.386809326171875,-0.49893674258794635,5.731056511113048,1.0315788439661264
1761503583646865200,7.396865234375,-0.270890240034461,5.060956525123119,0.7214683541774749
1761503583656921000,7.406921142578125,-0.2525993079971522,4.154131019029021,0.47423893918301907
1761503583666977300,7.416977294921875,0.4148082971036434,2.6836568999290464,0.22831045071929693
1761503583677033200,7.427033203125,0.9357208342541009,1.3830840049386024,-0.008228058912791311
1761503583687089200,7.437089111328125,1.6276508861929178,-1.4107172772735357,0.3796969074403867
1761503583697145300,7.447145263671875,2.2599627010583876,-5.880477257251739,1.1419158262118696
1761503583707201300,7.457201171875,3.056261547553539,-11.6458446187675,0.805358059002459
1761503583717257000,7.467257080078125,2.6731004346013068,-18.5264832529366,-0.4193783814981579
1761503583727313200,7.477313232421875,0.6408760834626853,-25.753036096203324,-1.275856094624102
1761503583737370000,7.4873701171875,-1.080462994122505,-32.80252206151485,-0.19081220245212316
1761503583747426000,7.497426025390625,-3.153374598827958,-36.010088269257544,2.3781278927117584
1761503583757482000,7.50748193359375,-5.016918061432242,-33.204200827932354,3.1754528673842546
1761503583767538200,7.5175380859375,-3.8884693272978064,-27.602736911416052,0.7072872686117887
1761503583777594000,7.527593994140625,-1.1781494613707064,-23.194247100436687,-1.6988927063688635
1761503583787650000,7.537650146484375,0.9819260475248098,-21.453674183940887,-1.7262267034962773
1761503583797706200,7.547706298828125,3.0185312440961596,-21.929157022237778,-0.3195648390933871
1761503583807762200,7.55776220703125,5.232977225604653,-21.923260365414617,0.5310162172093987
1761503583817818000,7.567818115234375,7.810605946397781,-20.656082375025747,-0.025007563473843038
1761503583827874300,7.577874267578125,9.253658390086889,-16.659154426574705,-0.9583531564965844
1761503583837930200,7.58793017578125,8.065262259989977,-11.605326730418204,-0.8023580004036426
1761503583847986200,7.597986083984375,5.23538954744339,-6.89584087947607,-0.12898326705936342
1761503583858043100,7.608043212890625,1.4641104292869567,-1.379524266630411,0.5818795219516382
1761503583868099300,7.618099365234375,-3.5129835712790487,2.977111438471079,1.7453963911294936
1761503583878155300,7.6281552734375,-6.699095487582683,6.248750597673654,1.149252160449326
1761503583888211200,7.638211181640625,-7.6104259038805955,9.898776495033502,0.27919129111822694
1761503583898267100,7.64826708984375,-8.329537465798854,11.914548162412643,0.3886587970530614
1761503583908323000,7.658322998046875,-8.715501945734024,12.735448366200924,0.2875602563390508
1761503583918379000,7.66837890625,-7.627831796711683,12.940519687891006,-0.27006569884382187
1761503583928435200,7.678435302734375,-6.098484048360586,12.006977439785002,-0.9054171736661344
1761503583938491100,7.6884912109375,-5.261732779967785,11.607774708092212,-1.463768776242435
1761503583948547000,7.698547119140625,-5.392174684870243,11.043418823599815,-2.294052309925854
1761503583958603300,7.708603271484375,-4.328036218082905,9.978740258586406,-3.7069334872350095
1761503583968659200,7.7186591796875,-2.683693140286207,9.490057162454724,-4.297220516319572
1761503583978716200,7.728716064453125,-2.1303214450143275,9.336437211060524,-3.169656163804233
1761503583988772000,7.738772216796875,-1.9316157128334044,10.0015810359478,-1.4006106015399098
1761503583998828300,7.748828369140625,-1.1113875630877912,10.811059682011603,-0.09721062989737837
1761503584008884200,7.75888427734375,0.019717092382907867,11.307826131355762,0.5919157993301749
1761503584018940200,7.768940185546875,0.4615827616296708,11.228107866996526,1.0394470931231974
1761503584028996400,7.778996337890625,-0.554767533544451,10.895934598481654,1.225472938081622
1761503584039052300,7.78905224609375,-2.0611761587262154,10.153194323694706,1.375361593993008
1761503584049108000,7.79910791015625,-2.913673277783394,9.489874207103252,1.2183590144231915
1761503584059164200,7.8091640625,-3.0200702902317045,9.405922250697015,0.7572852252289652
1761503584069220000,7.81922021484375,-2.579579270339012,9.287483502799272,0.17746754944426937
1761503584079276000,7.829276123046875,-2.2372470113813874,9.180128458973766,-0.3140162650555372
1761503584089333000,7.8393330078125,-2.1032418610394,9.399870111051202,-0.593498976868391
1761503584099385300,7.84938525390625,-1.748831041753292,9.359764310634135,-0.6148690971553326
1761503584109441300,7.859441162109375,-1.4607891759097575,9.678381932005285,-0.5207482134342193
1761503584119497200,7.869497314453125,-1.5543091711282728,10.468709887397289,-0.4893582189142704
1761503584129553400,7.879553466796875,-1.7608347832798956,10.908097329962253,-0.004810332024330273
1761503584139609300,7.889609375,-1.9695827476561067,10.971779820799826,0.6821402601346374
1761503584149665300,7.899665283203125,-2.1449217789053914,10.734543428564072,1.077764548818767
1761503584159721500,7.909721435546875,-1.7970283786892889,10.209736295127868,1.04450583781749
1761503584169777200,7.919777099609375,-1.0261819533586503,9.169720462206005,0.8896274107947945
1761503584179833000,7.9298330078125,0.0906307035177946,7.590237686854601,0.696120854692161
1761503584189889300,7.93988916015625,0.9802607446610927,5.246424736198783,0.8526593238815665
1761503584199945200,7.9499453125,1.7365139964938163,2.96802679926157,0.5888751164600253
1761503584210002200,7.960002197265625,2.883140776875615,0.5973796176940203,0.07768091331273316
1761503584220058000,7.97005810546875,4.51961852812469,-2.4156635503798722,0.0030953356668353077
1761503584230114300,7.9801142578125,5.443360097706318,-5.88332972407341,-1.260507134322822
1761503584240170200,7.990170166015625,8.890214954039454,-10.507034649616479,-1.9543115287661552
1761503584250226200,8.00022607421875,13.05770931251049,-16.839427991616724,0.2277460948348045
1761503584260282400,8.010282470703125,5.034620306861401,-22.94371400425434,3.837171101737022
1761503584270338300,8.02033837890625,-5.439508682975172,-29.415110158753393,8.568036425316333
1761503584280394200,8.030394287109376,-9.179106714710592,-28.22080568139553,7.021494381058216
1761503584290450400,8.040450439453124,-9.240180484354495,-25.082173309147358,1.6335495888426899
1761503584300506400,8.05050634765625,-8.202545409089327,-21.297431482827662,-1.89465025626868
1761503584310562300,8.060562255859375,-5.748410381495952,-14.54469792855978,-3.4265222624003884
1761503584320619300,8.070619384765624,-3.255716198405623,-11.276032816731929,-3.466089133635163
1761503584330675500,8.080675537109375,-1.3780056787610053,-9.032523237824439,-2.374462063680589
1761503584340731100,8.090731201171875,-0.22710896597504615,-8.943592908483744,-0.3604723112821579
1761503584350787000,8.100787109375,-0.22831483463346958,-9.383519864752888,1.218135288669914
1761503584360843300,8.11084326171875,-0.46594811723232266,-8.154647931882739,1.3815392597146332
1761503584370899200,8.120899169921875,-0.12632687079906463,-7.5456836748570195,0.7963358175046742
1761503584380955100,8.130955078125,-1.7738263668000698,-7.62916158401072,0.23855361231416464
1761503584391011300,8.14101123046875,-2.74623990509212,-6.209810333904624,0.1281419573970139
1761503584401067300,8.1510673828125,-2.0251514901429415,-4.308924105855822,0.038064138521626587
1761503584411123200,8.161123291015626,-1.0419500158548354,-2.5707939063370224,0.22625483336374164
1761503584421179400,8.171179443359375,-0.7774106061518192,-1.8660767804741858,0.7309299369405955
1761503584431235300,8.1812353515625,-1.3041414011269807,-1.7025690567940472,0.4858431965306401
1761503584441292300,8.191292236328126,-0.07222644729912281,-0.3322948490679264,-0.4896157008066773
1761503584451348200,8.20134814453125,0.9190735777705907,1.4822189174294471,-1.188513472866267
1761503584461404400,8.211404296875,0.1354039112240076,3.684508012676239,-1.9466561917074023
1761503584471460400,8.22146044921875,-1.8521943855941294,6.905923297551274,-3.1249153970628973
1761503584481516300,8.231516357421874,0.9894587811172008,7.446796599647402,-3.4679102115824816
1761503584491572200,8.241572265625,4.117670297116041,6.530158140069246,-3.0437615469425916
1761503584501628200,8.251628173828125,4.588096436545253,5.183059056225419,-2.2719322480544446
1761503584511684000,8.26168408203125,3.967878379577398,3.9197301424801347,-0.48519350045025345
1761503584521740300,8.271740234375,4.299586953189968,2.6910014174729584,0.4278138360839337
1761503584531796200,8.281796142578125,3.556239360159635,1.7326210807085036,0.9175049402143806
1761503584541852200,8.29185205078125,3.091075671303272,1.9244874683886766,1.1754732278987765
1761503584551909000,8.3019091796875,2.9955577802658078,2.952983543908596,0.749168773464486
1761503584561965300,8.31196533203125,3.331393662941456,3.4884254686057568,0.5198107133883982
1761503584572021200,8.322021240234376,4.025518083119392,3.7047418224096296,0.37785862262994047
1761503584582077200,8.3320771484375,4.419273070800304,3.5605621917948125,-0.18480799360126257
1761503584592133400,8.34213330078125,3.7091888649463653,3.420400564649701,-0.4240630321830511
1761503584602189300,8.352189208984376,3.202466838777065,3.299725436002016,-0.3344236777901649
1761503584612245200,8.362245361328124,3.244547154137492,3.2836125055909156,0.04128373988894746
1761503584622301400,8.372301513671875,1.7149609208554029,2.705700681693852,0.1954963782129809
1761503584632357400,8.382357421875,1.07551150919497,1.7863649458557367,0.035811610354483124
1761503584642413000,8.3924130859375,2.085143894290924,2.0769757854044437,0.025801380732655525
1761503584652469200,8.40246923828125,2.518715344053507,2.926495349955559,0.008099062238261102
1761503584662526500,8.4125263671875,2.1508120059877633,3.1260961312800646,0.24649039666280148
1761503584672582100,8.42258203125,0.6452835246413946,2.433938919521868,0.6295393544774502
1761503584682638000,8.43263818359375,1.3487865985393523,1.2617115416765212,1.0712224336989222
1761503584692694300,8.4426943359375,1.8049048111528156,0.4553974971234798,1.23704427954033
1761503584702750200,8.452750244140624,1.1908072828918694,0.1482069864347577,0.9430772614315152
1761503584712806100,8.46280615234375,0.8401566929221153,0.18866174641996622,0.2756801777247339
1761503584722862300,8.4728623046875,0.5986287409722805,0.35901305238455533,-0.3229205792620778
1761503584732918300,8.482918212890626,0.6133955174714326,0.352909474812448,-0.599713357871212
1761503584742974200,8.49297412109375,0.11826105324327946,0.5298310990780591,-0.5776622330501675
1761503584753030400,8.503030517578125,-0.5143044441223145,0.7212520810782909,-0.42157771817333994
1761503584763086300,8.51308642578125,-0.6727408558875322,0.62824588060081,-0.2826177949681878
1761503584773143300,8.523143310546875,-0.9634557403326034,0.24661796856522558,-0.1592946360297501
1761503584783199200,8.53319921875,-1.1132581792652607,-0.2661380770713091,0.02801774160787463
1761503584793255400,8.54325537109375,-0.967540963819623,-0.5677922886818647,0.17734006887339054
1761503584803311400,8.553311279296874,-0.8116139045268297,-0.7121113277673721,0.3131581869214773
1761503584813367300,8.5633671875,-0.4851601827025413,-0.7312135031223297,0.4421973854191601
1761503584823423200,8.57342333984375,-0.2476151629090309,-0.5237541172519325,0.5521373311713338
1761503584833479200,8.583479248046874,-0.25830022305250167,-0.31046763266324995,0.5908475855767726
1761503584843535000,8.59353515625,-0.3112935620933771,-0.25016513965278864,0.7562632617700844
1761503584853591300,8.60359130859375,-0.23387422232627866,-0.1890060298129916,1.1299841270081699
1761503584863647200,8.613647216796876,0.1649795497983694,-0.0006745382606983184,1.273068948123604
1761503584873704200,8.6237041015625,0.008690671455860137,-0.28567572123408314,1.096563284247741
1761503584883760000,8.633760009765625,0.17462299193441866,-0.6863882729679346,0.6840246125765145
1761503584893816300,8.64381640625,0.24277064548730848,-0.8831804266124963,0.42512138212956485
1761503584903872300,8.653872314453125,-0.03820785784125328,-1.108370991745591,0.3235243173088878
1761503584913928200,8.66392822265625,-0.055555298483371734,-1.0923685359716415,0.259082897862792
