time,seconds_elapsed,z,y,x
1761503576329825300,0.0798251953125,-0.10764550417661667,-0.20925521850585938,-0.2817126512527466
1761503576339881200,0.089881103515625,-0.10658077150583267,-0.12248916178941727,-0.23633717000484467
1761503576349937200,0.099937255859375,-0.0934591069817543,-0.011487545445561409,-0.2078847587108612
1761503576359993300,0.109993408203125,-0.06040129065513611,0.026939205825328827,-0.22482939064502716
1761503576370049300,0.12004931640625,0.0013792511308565736,-0.003984089009463787,-0.28941529989242554
1761503576380105000,0.13010498046875,0.0782303586602211,-0.014791196212172508,-0.4092192053794861
1761503576390161200,0.1401611328125,0.1467127501964569,0.010371414013206959,-0.5417879223823547
1761503576400217000,0.150217041015625,0.20548124611377716,0.04011999070644379,-0.5817379951477051
1761503576410273000,0.16027294921875,0.21704629063606262,0.04390460625290871,-0.522871732711792
1761503576420329200,0.1703291015625,0.18518316745758057,0.04362737014889717,-0.40401777625083923
1761503576430385200,0.18038525390625,0.13205523788928986,0.0653638243675232,-0.25557345151901245
1761503576440441000,0.190441162109375,0.05000244826078415,0.10458233207464218,-0.11355265974998474
1761503576450497000,0.2004970703125,-0.040470462292432785,0.14785736799240112,-0.04042891412973404
1761503576460553200,0.21055322265625,-0.12663304805755615,0.17128120362758636,-0.06926429271697998
1761503576470609200,0.220609130859375,-0.17799928784370422,0.16697300970554352,-0.2225334793329239
1761503576480665000,0.2306650390625,-0.21362093091011047,0.13411305844783783,-0.4543115794658661
1761503576490721300,0.24072119140625,-0.20494648814201355,0.10909479856491089,-0.7263447046279907
1761503576500777200,0.250777099609375,-0.11170682311058044,0.19936662912368774,-0.9049264192581177
1761503576510833200,0.260833251953125,-0.02279958873987198,0.25855085253715515,-0.8998104929924011
1761503576520889000,0.27088916015625,0.022542860358953476,0.3077349066734314,-0.7253997921943665
1761503576530945000,0.280945068359375,0.021992649883031845,0.3562129735946655,-0.42462530732154846
1761503576541001000,0.2910009765625,-0.03321840614080429,0.3808027505874634,-0.08685100823640823
1761503576551057200,0.30105712890625,-0.12230700254440308,0.31051206588745117,0.21322119235992432
1761503576561113000,0.311113037109375,-0.2481248527765274,0.2195214331150055,0.3626770079135895
1761503576571169000,0.3211689453125,-0.3537045419216156,0.20899023115634918,0.25710371136665344
1761503576581225200,0.33122509765625,-0.41826996207237244,0.10323397815227509,-0.122499018907547
1761503576591281200,0.34128125,-0.364430695772171,-0.001118793967179954,-0.4294573664665222
1761503576601338000,0.351338134765625,-0.18849694728851318,0.040111999958753586,-0.47034114599227905
1761503576611394000,0.36139404296875,-0.034392859786748886,0.1298338919878006,-0.1254013329744339
1761503576621450200,0.3714501953125,0.02563159354031086,0.08315400779247284,0.4945242404937744
1761503576631506200,0.381506103515625,0.03622058779001236,-0.0005209143273532391,1.205793857574463
1761503576641562000,0.39156201171875,0.1266908347606659,0.10582815855741501,1.761328935623169
1761503576651618300,0.401618408203125,0.21079932153224945,0.2290869802236557,1.974045753479004
1761503576661674000,0.411674072265625,0.26333311200141907,0.14288552105426788,1.7343820333480835
1761503576671730000,0.42172998046875,0.3878931403160095,-0.13533225655555725,1.1332242488861084
1761503576681786000,0.4317861328125,0.5128582715988159,-0.3346000909805298,0.40909695625305176
1761503576691842000,0.441842041015625,0.48907700181007385,-0.33920496702194214,-0.22430580854415894
1761503576701898000,0.45189794921875,0.34330517053604126,-0.15797631442546844,-0.5448369383811951
1761503576711954200,0.4619541015625,0.164041668176651,0.0639566108584404,-0.5836405158042908
1761503576722010000,0.472010009765625,0.04886554181575775,0.283402681350708,-0.38726329803466797
1761503576732066000,0.482066162109375,-0.03152250498533249,0.5074078440666199,0.005116997752338648
1761503576742122200,0.492122314453125,-0.1179729774594307,0.7105990052223206,0.39061781764030457
1761503576752178200,0.50217822265625,-0.17069557309150696,0.9705701470375061,0.6417331099510193
1761503576762234000,0.512234130859375,-0.2816961407661438,1.1638269424438477,0.636810839176178
1761503576772290300,0.522290283203125,-0.313552588224411,1.2115731239318848,0.4393342137336731
1761503576782346200,0.53234619140625,-0.16546645760536194,1.2123711109161377,-0.09021324664354324
1761503576792402000,0.54240185546875,-0.014749917201697826,1.0643967390060425,-0.8003115653991699
1761503576802458000,0.5524580078125,0.030894266441464424,0.7917442321777344,-1.379423975944519
1761503576812514000,0.56251416015625,-0.002670884132385254,0.5571966767311096,-1.8267040252685547
1761503576822570000,0.572570068359375,-0.13251464068889618,0.3202882707118988,-2.076458215713501
1761503576832626200,0.582626220703125,-0.23148515820503235,0.07558450847864151,-2.1125261783599854
1761503576842682000,0.59268212890625,-0.21211811900138855,-0.12414751201868057,-2.0228357315063477
1761503576852739000,0.602739013671875,-0.055632900446653366,-0.28255152702331543,-1.7823379039764404
1761503576862795000,0.612794921875,0.10889825224876404,-0.3055042624473572,-1.3802276849746704
1761503576872851200,0.622851318359375,0.21097588539123535,-0.1437808722257614,-0.9212976694107056
1761503576882907100,0.6329072265625,0.12320395559072495,0.11001758277416229,-0.6333316564559937
1761503576892963000,0.642963134765625,-0.1277603656053543,0.2790207266807556,-0.6719163656234741
1761503576903019300,0.653019287109375,-0.3497827649116516,0.4358271062374115,-1.0961954593658447
1761503576913075200,0.6630751953125,-0.4700678884983063,0.4074798822402954,-1.761820912361145
1761503576923131100,0.673131103515625,-0.516819179058075,0.25840917229652405,-2.4550585746765137
1761503576933187300,0.683187255859375,-0.4805269241333008,0.15102893114089966,-3.020481824874878
1761503576943243000,0.693242919921875,-0.303277850151062,0.18797416985034943,-3.310986280441284
1761503576953299000,0.703298828125,-0.017839450389146805,0.21625293791294098,-3.280728340148926
1761503576963355100,0.713355224609375,0.40494534373283386,0.26526257395744324,-2.8559017181396484
1761503576973411000,0.7234111328125,0.7650353908538818,0.24216043949127197,-2.077698230743408
1761503576983467000,0.733467041015625,0.9943034648895264,0.18654191493988037,-1.1604894399642944
1761503576993523200,0.743523193359375,1.0863182544708252,0.0275618527084589,-0.40350404381752014
1761503577003579100,0.7535791015625,0.9778674840927124,-0.09271661937236786,0.11361578106880188
1761503577013635000,0.763635009765625,0.6979711055755615,-0.13509070873260498,0.42740166187286377
1761503577023691300,0.773691162109375,0.3226845860481262,-0.0488455705344677,0.5422952175140381
1761503577033747200,0.783747314453125,0.02695944532752037,0.1621052771806717,0.5086909532546997
1761503577043803100,0.79380322265625,-0.2172929048538208,0.3155611455440521,0.5692035555839539
1761503577053859300,0.803859375,-0.32323238253593445,0.33620384335517883,0.907738983631134
1761503577063915000,0.8139150390625,-0.32699304819107056,0.37713611125946045,1.3935445547103882
1761503577073971000,0.823970947265625,-0.3785121440887451,0.39446714520454407,1.813010573387146
1761503577084027100,0.834027099609375,-0.4052380323410034,0.32716479897499084,2.1886513233184814
1761503577094083300,0.844083251953125,-0.4282964766025543,0.1592109650373459,2.377828359603882
1761503577104140300,0.854140380859375,-0.5074499249458313,-0.1054593175649643,2.1636674404144287
1761503577114196200,0.8641962890625,-0.5825721025466919,-0.207564115524292,1.6198914051055908
1761503577124252400,0.87425244140625,-0.5463911890983582,0.061107028275728226,0.915444552898407
1761503577134308400,0.884308349609375,-0.2668071985244751,0.36054807901382446,0.25324398279190063
1761503577144364300,0.8943642578125,0.18666841089725494,0.36120668053627014,-0.06357551366090775
1761503577154420200,0.904420166015625,0.599456250667572,0.4031147062778473,0.030118754133582115
1761503577164476200,0.91447607421875,0.7953538298606873,0.5274113416671753,0.31142711639404297
1761503577174532000,0.924531982421875,0.6552257537841797,0.5012854933738708,0.6364814043045044
1761503577184588300,0.93458837890625,0.4010358452796936,0.5514501333236694,0.8383817672729492
1761503577194644200,0.944644287109375,0.34094321727752686,0.5964854955673218,0.6754929423332214
1761503577204700200,0.9547001953125,0.5221388339996338,0.41660362482070923,0.308435320854187
1761503577214756400,0.96475634765625,0.7702410221099854,0.13667848706245422,0.028245486319065094
1761503577224812300,0.974812255859375,0.820017397403717,-0.021101024001836777,-0.16327813267707825
1761503577234868200,0.9848681640625,0.8083047866821289,0.006315952632576227,-0.13046985864639282
1761503577244924400,0.99492431640625,0.8065484762191772,0.24879144132137299,0.06821953505277634
1761503577254980400,1.00498046875,0.6886867880821228,0.4780257046222687,0.338844358921051
1761503577265036300,1.015036376953125,0.48435601592063904,0.6586002707481384,0.6595744490623474
1761503577275092500,1.025092529296875,0.2754150629043579,0.865606963634491,1.0136384963989258
1761503577285148200,1.035148193359375,0.0320572704076767,0.9519525170326233,1.2963453531265259
1761503577295204000,1.0452041015625,-0.1265920251607895,0.6992810964584351,1.5457828044891357
1761503577305260300,1.05526025390625,-0.04075329005718231,0.2303445190191269,1.7009193897247314
1761503577315316200,1.065316162109375,0.2308340072631836,0.011423629708588123,1.618896722793579
1761503577325372200,1.0753720703125,0.38650909066200256,0.058099254965782166,1.376965045928955
1761503577335428400,1.085428466796875,0.2661176919937134,0.3170567750930786,1.0933594703674316
1761503577345485300,1.0954853515625,-0.04159271717071533,0.583919882774353,0.8514285683631897
1761503577355541200,1.105541259765625,-0.14148469269275665,0.46406859159469604,0.6342392563819885
1761503577365597200,1.11559716796875,0.09899049252271652,0.12775689363479614,0.6523716449737549
1761503577375653400,1.1256533203125,0.3889818489551544,-0.2220996469259262,0.8506069779396057
1761503577385709300,1.135709228515625,0.5130707621574402,-0.4762922525405884,1.0465168952941895
1761503577395765200,1.14576513671875,0.3871791362762451,-0.5974975228309631,1.0611934661865234
1761503577405821400,1.155821533203125,0.13021446764469147,-0.5502932071685791,0.7541800737380981
1761503577415877400,1.16587744140625,-0.11864116042852402,-0.33449381589889526,0.18871451914310455
1761503577425933300,1.175933349609375,-0.3335353434085846,-0.021561751142144203,-0.39172622561454773
1761503577435989200,1.1859892578125,-0.5003898739814758,0.1985788643360138,-0.7409452199935913
1761503577446045200,1.196045166015625,-0.5705652236938477,0.2547057867050171,-0.7768105268478394
1761503577456101000,1.20610107421875,-0.5174577832221985,0.28489723801612854,-0.553801953792572
1761503577466157300,1.2161572265625,-0.37170350551605225,0.2504407465457916,-0.18008960783481598
1761503577476213200,1.226213134765625,-0.21322466433048248,0.23062469065189362,0.20586660504341125
1761503577486269200,1.236269287109375,-0.0986408218741417,0.2503131628036499,0.3001560866832733
1761503577496325400,1.246325439453125,0.013292369432747364,0.3769374191761017,0.11624245345592499
1761503577506381300,1.25638134765625,0.08230632543563843,0.4870932102203369,-0.1898125410079956
1761503577516437200,1.266437255859375,0.02533172257244587,0.41786569356918335,-0.4604664146900177
1761503577526493200,1.2764931640625,-0.08124132454395294,0.31191980838775635,-0.5385995507240295
1761503577536549400,1.28654931640625,-0.17496834695339203,0.19969473779201508,-0.4261760711669922
1761503577546605300,1.296605224609375,-0.1638997197151184,0.11395639926195145,-0.13499003648757935
1761503577556661200,1.3066611328125,-0.0866725742816925,-0.0202176533639431,0.20850181579589844
1761503577566717200,1.31671728515625,0.01495338324457407,-0.1103331670165062,0.40292829275131226
1761503577576774400,1.3267744140625,0.11624884605407715,-0.033007483929395676,0.31745973229408264
1761503577586830000,1.336830078125,0.17251771688461304,0.09505168348550797,-0.07658478617668152
1761503577596886300,1.34688623046875,0.1790405958890915,0.18023182451725006,-0.6021265983581543
1761503577606942200,1.356942138671875,0.1073208600282669,0.22690638899803162,-1.0574322938919067
1761503577616998100,1.366998046875,-0.054906923323869705,0.25758519768714905,-1.1905592679977417
1761503577627054300,1.377054443359375,-0.21292611956596375,0.40005019307136536,-0.9287055134773254
1761503577637110300,1.3871103515625,-0.23615314066410065,0.5518378615379333,-0.33372762799263
1761503577647166200,1.397166259765625,-0.12255334854125977,0.40998831391334534,0.37497255206108093
1761503577657222100,1.40722216796875,0.06287350505590439,0.2046671211719513,0.8372520208358765
1761503577667278300,1.4172783203125,0.1398116946220398,0.05517670139670372,0.7770049571990967
1761503577677334300,1.427334228515625,0.11193159222602844,-0.03411296382546425,-0.044072918593883514
1761503577687390200,1.43739013671875,0.07054793834686279,-0.09263459593057632,-1.5432353019714355
1761503577697446400,1.4474462890625,0.35596129298210144,-0.2274656444787979,-2.734517812728882
1761503577707502300,1.45750244140625,0.6976129412651062,-0.49286508560180664,-2.760143280029297
1761503577717558300,1.467558349609375,0.6627678275108337,-0.38554689288139343,-1.8038479089736938
1761503577727614200,1.4776142578125,0.39106762409210205,-0.09086998552083969,-0.3442133069038391
1761503577737670100,1.487670166015625,0.2650708258152008,-0.19827713072299957,0.9751806259155273
1761503577747726000,1.49772607421875,0.32339003682136536,-0.4255997836589813,1.6661182641983032
1761503577757782300,1.5077822265625,0.36400672793388367,-0.5756760835647583,1.3348718881607056
1761503577767838200,1.517838134765625,0.2719076871871948,-0.38957706093788147,0.5446273684501648
1761503577777894100,1.52789404296875,0.11121679842472076,0.053705304861068726,-0.39139360189437866
1761503577787950300,1.537950439453125,0.07555680721998215,0.6104095578193665,-1.0920557975769043
1761503577798006300,1.54800634765625,0.02285871095955372,0.9179697632789612,-1.043644905090332
1761503577808062200,1.558062255859375,-0.025435052812099457,1.0147628784179688,-0.33108603954315186
1761503577818118400,1.568118408203125,-0.03122503124177456,0.8804506659507751,0.5424323678016663
1761503577828175400,1.57817529296875,-0.04077645763754845,0.6536300182342529,1.0709116458892822
1761503577838231300,1.588231201171875,0.08748963475227356,0.27099207043647766,1.3003290891647339
1761503577848287200,1.598287353515625,0.20479388535022736,-0.27327442169189453,1.4135960340499878
1761503577858343400,1.608343505859375,0.22086739540100098,-0.7778472900390625,1.3470181226730347
1761503577868399000,1.618399169921875,0.16395671665668488,-1.1310756206512451,1.1017236709594727
1761503577878455000,1.628455078125,0.06789808720350266,-0.98642897605896,0.7731143236160278
1761503577888511200,1.63851123046875,-0.014957377687096596,-0.5805405974388123,0.48002466559410095
1761503577898567200,1.648567138671875,-0.05919328331947327,-0.2682572901248932,0.36132970452308655
1761503577908623000,1.658623046875,-0.11719932407140732,-0.16149941086769104,0.22410713136196136
1761503577918679300,1.66867919921875,-0.13712190091609955,-0.20157626271247864,0.07109042257070541
1761503577928735200,1.6787353515625,-0.12947064638137817,-0.26540476083755493,-0.08519186079502106
1761503577938791200,1.688791259765625,-0.20039807260036469,-0.329166442155838,-0.252319872379303
1761503577948847400,1.698847412109375,-0.2719372510910034,-0.32161346077919006,-0.42909756302833557
1761503577958903300,1.7089033203125,-0.29749053716659546,-0.23515552282333374,-0.5939786434173584
1761503577968959200,1.718959228515625,-0.29289498925209045,-0.06700300425291061,-0.6488988995552063
1761503577979015400,1.729015380859375,-0.3036687970161438,0.06871168315410614,-0.48581385612487793
1761503577989071400,1.7390712890625,-0.29664045572280884,0.15461620688438416,-0.17852500081062317
1761503577999127000,1.749126953125,-0.268047958612442,0.23064279556274414,0.11044581979513168
1761503578009183200,1.759183349609375,-0.22292734682559967,0.2658436596393585,0.3321608901023865
1761503578019239200,1.7692392578125,-0.17522162199020386,0.2899937331676483,0.4179985821247101
1761503578029295000,1.779295166015625,-0.17650100588798523,0.3119525611400604,0.33638522028923035
1761503578039351300,1.789351318359375,-0.22442138195037842,0.28801581263542175,0.12032028287649155
1761503578049408300,1.799408203125,-0.2904214560985565,0.28602349758148193,-0.1330653727054596
1761503578059464200,1.809464111328125,-0.349672794342041,0.23562131822109222,-0.33328741788864136
1761503578069520100,1.81952001953125,-0.3899192810058594,0.09422210603952408,-0.4321242570877075
1761503578079576300,1.829576416015625,-0.42902565002441406,-0.09753880649805069,-0.41178861260414124
1761503578089632300,1.83963232421875,-0.4317508637905121,-0.2930947244167328,-0.36874234676361084
1761503578099688000,1.84968798828125,-0.4018552899360657,-0.3949827253818512,-0.3681141138076782
1761503578109743900,1.859743896484375,-0.4000089168548584,-0.3857343792915344,-0.4010472893714905
1761503578119799800,1.8697998046875,-0.36658066511154175,-0.2661733627319336,-0.47797802090644836
1761503578129855700,1.879855712890625,-0.26016074419021606,-0.09393075853586197,-0.597206175327301
1761503578139912000,1.889911865234375,-0.15742051601409912,0.03175073862075806,-0.6924956440925598
1761503578149968000,1.8999677734375,-0.07545800507068634,0.1056760922074318,-0.7405827641487122
1761503578160023800,1.91002392578125,-0.031496405601501465,0.196302130818367,-0.6277393102645874
1761503578170080000,1.920080078125,-0.059905409812927246,0.3402923345565796,-0.2345248907804489
1761503578180136000,1.930135986328125,-0.23132643103599548,0.46718770265579224,0.4651426374912262
1761503578190191900,1.94019189453125,-0.5443701148033142,0.3809835612773895,1.0001599788665771
1761503578200248000,1.950248046875,-0.68343585729599,-0.04850468412041664,1.048126220703125
1761503578210304000,1.960303955078125,-0.6333369612693787,-0.4813394546508789,0.603034496307373
1761503578220360000,1.97035986328125,-0.42949944734573364,-0.7182265520095825,-0.13604386150836945
1761503578230416000,1.980415771484375,0.12251206487417221,-0.20184576511383057,-0.7924630045890808
1761503578240471800,1.990471923828125,0.9816507697105408,0.4687861204147339,-0.6746623516082764
1761503578250527700,2.00052783203125,1.3511286973953247,0.620750367641449,-0.5861899852752686
1761503578260584000,2.010583984375,1.1076736450195312,0.3628823161125183,-0.18802210688591003
1761503578270639900,2.020639892578125,0.7850162386894226,0.06039836257696152,0.6105254292488098
1761503578280695800,2.03069580078125,0.6257022619247437,-0.02178066223859787,1.2729334831237793
1761503578290752800,2.040752685546875,0.33916395902633667,-0.024233434349298477,1.7997623682022095
1761503578300809000,2.05080908203125,-0.040161002427339554,-0.13961462676525116,1.78299081325531
1761503578310865000,2.060864990234375,-0.13599218428134918,-0.1507173329591751,1.3531444072723389
1761503578320920800,2.0709208984375,0.02647821232676506,-0.20864002406597137,0.8273325562477112
1761503578330977000,2.08097705078125,0.45564794540405273,-0.212890163064003,0.22267195582389832
1761503578341033000,2.091032958984375,0.9907454252243042,-0.038544196635484695,0.07723406702280045
1761503578351089000,2.1010888671875,1.2602107524871826,0.15194426476955414,0.35312849283218384
1761503578361145000,2.11114501953125,1.2604352235794067,0.4616147577762604,0.8556962609291077
1761503578371201000,2.121200927734375,1.0473679304122925,0.6747291684150696,1.3665486574172974
1761503578381256700,2.131256591796875,0.6110982894897461,0.6873408555984497,1.685112476348877
1761503578391313000,2.14131298828125,0.09593558311462402,0.2950761020183563,1.735904335975647
1761503578401368800,2.151368896484375,-0.2859310805797577,-0.4778440594673157,1.531469702720642
1761503578411424800,2.1614248046875,-0.23102203011512756,-1.0153173208236694,1.1327358484268188
1761503578421481000,2.17148095703125,0.10349017381668091,-1.0707886219024658,0.5198293328285217
1761503578431537000,2.181536865234375,0.5564033389091492,-1.0378344058990479,-0.022759640589356422
1761503578441592800,2.1915927734375,0.9371453523635864,-0.7975869178771973,-0.27901673316955566
1761503578451649000,2.20164892578125,0.9714639186859131,-0.3973790407180786,-0.29515016078948975
1761503578461705000,2.211705078125,0.8099093437194824,0.015455389395356178,-0.14305010437965393
1761503578471761000,2.221760986328125,0.49644970893859863,0.3786572813987732,0.010391121730208397
1761503578481817000,2.231817138671875,0.04331418499350548,0.5689423084259033,0.09698087722063065
1761503578491873000,2.241873046875,-0.4370327293872833,0.5097737908363342,0.2536628842353821
1761503578501928700,2.2519287109375,-0.7720066905021667,0.26566097140312195,0.5315645337104797
1761503578511986000,2.26198583984375,-0.9178581833839417,0.00008948221511673182,0.806807279586792
1761503578522042000,2.2720419921875,-0.8333595395088196,-0.2664031982421875,0.8522059321403503
1761503578532097800,2.282097900390625,-0.5105836391448975,-0.4370897114276886,0.5749847292900085
1761503578542153700,2.29215380859375,-0.1556180864572525,-0.4645194709300995,0.40421804785728455
1761503578552210000,2.3022099609375,0.1389016956090927,-0.37574246525764465,0.3604109287261963
1761503578562265900,2.312265869140625,0.35962554812431335,-0.25359657406806946,0.3569064736366272
1761503578572321800,2.32232177734375,0.44071561098098755,-0.0075852153822779655,0.2909703254699707
1761503578582378000,2.3323779296875,0.35847824811935425,0.268832802772522,0.13656076788902283
1761503578592434000,2.342433837890625,0.14806483685970306,0.3284788131713867,-0.006754841655492783
1761503578602489900,2.35248974609375,-0.05145014077425003,0.18589529395103455,-0.1708252727985382
1761503578612546000,2.362546142578125,-0.13714054226875305,0.034384071826934814,-0.444009929895401
1761503578622602000,2.37260205078125,-0.10411015897989273,-0.04615524411201477,-0.676339864730835
1761503578632658000,2.382657958984375,-0.061172809451818466,-0.05223071202635765,-0.8781725764274597
1761503578642714000,2.392714111328125,-0.020178504288196564,0.04062945023179054,-0.9776850342750549
1761503578652769800,2.402769775390625,-0.055450208485126495,0.1824888437986374,-1.0167866945266724
1761503578662825700,2.41282568359375,-0.17727038264274597,0.3602316975593567,-1.1443980932235718
1761503578672882000,2.4228818359375,-0.27816423773765564,0.48006781935691833,-1.4679738283157349
1761503578682937900,2.432937744140625,-0.2935384213924408,0.440045565366745,-1.9344562292099
1761503578692993800,2.442993896484375,-0.2080986052751541,0.32230454683303833,-2.329707622528076
1761503578703050000,2.453050048828125,-0.09221195429563522,0.28362664580345154,-2.3109986782073975
1761503578713106000,2.46310595703125,0.009855293668806553,0.27086105942726135,-1.906485915184021
1761503578723161900,2.473161865234375,-0.0020634171087294817,0.2993110716342926,-1.2544194459915161
1761503578733218800,2.48321875,-0.09842830151319504,0.35138705372810364,-0.5856245756149292
1761503578743275000,2.49327490234375,-0.1620674729347229,0.25566959381103516,-0.01565725728869438
1761503578753331000,2.5033310546875,-0.21693311631679535,0.18136925995349884,0.32185474038124084
1761503578763387000,2.513386962890625,-0.17546343803405762,0.18633951246738434,0.2401103377342224
1761503578773443000,2.523443115234375,-0.183057963848114,0.07647160440683365,-0.08232949674129486
1761503578783499000,2.5334990234375,-0.16014519333839417,0.38202112913131714,-0.5270076394081116
1761503578793555000,2.543554931640625,0.2483389675617218,0.5551252961158752,-0.47868669033050537
1761503578803611100,2.553611083984375,0.6681362390518188,0.6236593127250671,-0.12941418588161469
1761503578813666800,2.563666748046875,0.7519003748893738,0.3920609951019287,-0.08048897981643677
1761503578823722800,2.57372265625,0.5652940273284912,0.21757014095783234,0.15212801098823547
1761503578833779000,2.583779052734375,0.3062789738178253,0.2594832479953766,0.5145911574363708
1761503578843835000,2.5938349609375,0.0568275973200798,0.21561723947525024,0.870379626750946
1761503578853890800,2.603890869140625,-0.2818751037120819,0.06083964928984642,0.9207267165184021
1761503578863947000,2.613947021484375,-0.5321248769760132,0.1570037305355072,0.5135453343391418
1761503578874003000,2.6240029296875,-0.6020302176475525,0.48945730924606323,-0.20991940796375275
1761503578884059000,2.634058837890625,-0.4606536328792572,0.6548342704772949,-0.652434766292572
1761503578894115000,2.644114990234375,-0.10153114795684814,0.5962085127830505,-0.3799465298652649
1761503578904171000,2.6541708984375,0.32164329290390015,0.5104909539222717,0.3600849509239197
1761503578914227000,2.66422705078125,0.5292627811431885,0.2678178548812866,1.0873126983642578
1761503578924283100,2.674283203125,0.674477219581604,-0.1935867816209793,1.3292196989059448
1761503578934338800,2.6843388671875,0.7001879215240479,-0.7050138115882874,1.1828595399856567
1761503578944394800,2.694394775390625,0.5228539109230042,-1.0826867818832397,1.0284278392791748
1761503578954452000,2.704451904296875,0.23894307017326355,-1.1836867332458496,0.9905771613121033
1761503578964508000,2.7145078125,0.039935432374477386,-0.9704306125640869,1.1126114130020142
1761503578974563800,2.724563720703125,-0.12553182244300842,-0.6348533630371094,1.2492561340332031
1761503578984619800,2.734619873046875,-0.24518631398677826,-0.3069703280925751,1.4456194639205933
1761503578994676000,2.744676025390625,-0.30581796169281006,-0.08663395792245865,1.6025137901306152
1761503579004732000,2.75473193359375,-0.27324405312538147,0.02960076928138733,1.5290189981460571
1761503579014787800,2.764787841796875,-0.20899103581905365,0.05952697619795799,1.2390010356903076
1761503579024844000,2.774843994140625,-0.12198875844478607,0.004454403184354305,0.9934943914413452
1761503579034900000,2.78489990234375,0.0043798345141112804,-0.16508269309997559,0.8983233571052551
1761503579044956000,2.794955810546875,0.19115504622459412,-0.32564014196395874,0.7610549926757812
1761503579055012000,2.80501220703125,0.2920888364315033,-0.2569662928581238,0.539455235004425
1761503579065068000,2.815068115234375,0.2741902768611908,-0.03612178564071655,0.27844521403312683
1761503579075124000,2.8251240234375,0.2298811376094818,0.17202875018119812,0.0929427221417427
1761503579085180000,2.835179931640625,0.11332975327968597,0.237620547413826,0.10862128436565399
1761503579095240000,2.845239990234375,-0.0002668487431947142,0.2806473672389984,0.23471291363239288
1761503579105296000,2.8552958984375,-0.0528365820646286,0.23106597363948822,0.31099143624305725
1761503579115351800,2.865351806640625,-0.09519921988248825,0.022421685978770256,0.23023134469985962
1761503579125407700,2.87540771484375,-0.12904852628707886,-0.27258065342903137,0.06088358908891678
1761503579135463700,2.885463623046875,-0.16837729513645172,-0.49323925375938416,-0.035223234444856644
1761503579145519600,2.89551953125,-0.011969044804573059,-0.5457504391670227,-0.1833471953868866
1761503579155575800,2.905575927734375,0.19058991968631744,-0.5465189814567566,-0.5228325724601746
1761503579165632800,2.9156328125,0.31016719341278076,-0.33865633606910706,-0.925595223903656
1761503579175688700,2.925688720703125,0.31693533062934875,-0.10247577726840973,-1.2235944271087646
1761503579185744600,2.93574462890625,0.24176974594593048,-0.1364734172821045,-1.2635639905929565
1761503579195800800,2.94580078125,0.1622925102710724,0.04803703352808952,-0.9923105835914612
1761503579205856800,2.955856689453125,0.04451606795191765,0.1388268619775772,-0.64742511510849
1761503579215912700,2.96591259765625,-0.042749062180519104,0.18411098420619965,-0.18598425388336182
1761503579225969000,2.975968994140625,-0.1775343120098114,0.3313789963722229,0.18269364535808563
1761503579236024800,2.98602490234375,-0.37949326634407043,0.552987277507782,0.3802892863750458
1761503579246080800,2.996080810546875,-0.5971222519874573,0.6050938963890076,0.3051551282405853
1761503579256137000,3.006136962890625,-0.7392791509628296,0.4208409786224365,-0.009750897996127605
1761503579266193000,3.01619287109375,-0.7815946340560913,0.237283393740654,-0.44143491983413696
1761503579276248600,3.02624853515625,-0.599006175994873,0.17881394922733307,-0.8723722100257874
1761503579286304800,3.0363046875,-0.13877412676811218,0.35246405005455017,-1.14369535446167
1761503579296360700,3.046360595703125,0.13127519190311432,0.2934718132019043,-1.072868824005127
1761503579306416600,3.056416748046875,-0.004532699938863516,0.2154659777879715,-0.7005926966667175
1761503579316472800,3.066472900390625,-0.2093188613653183,0.30112043023109436,-0.2794595956802368
1761503579326528800,3.07652880859375,-0.22361817955970764,0.7131189107894897,-0.21891556680202484
1761503579336584700,3.086584716796875,-0.11060640215873718,1.0160492658615112,-0.480655312538147
1761503579346641000,3.096640869140625,0.1640017181634903,1.121650218963623,-0.7400287985801697
1761503579356696800,3.10669677734375,0.36445093154907227,0.8305233120918274,-0.7322374582290649
1761503579366752800,3.116752685546875,0.2587791085243225,0.3108295202255249,-0.7337040901184082
1761503579376809700,3.126809814453125,-0.0455472432076931,-0.2216024249792099,-0.6952378749847412
1761503579386866000,3.136865966796875,-0.2841816544532776,-0.4736751616001129,-0.3678842782974243
1761503579396921900,3.146921875,-0.4845946431159973,-0.22437158226966858,0.20446738600730896
1761503579406977800,3.156977783203125,-0.6801649332046509,0.3848100006580353,0.6514919996261597
1761503579417034000,3.167033935546875,-0.6438980102539062,0.8565266728401184,0.9157007932662964
1761503579427089700,3.177089599609375,-0.4033258855342865,0.7056247591972351,0.8987806439399719
1761503579437145600,3.1871455078125,-0.14916391670703888,0.056533850729465485,0.7080463767051697
1761503579447201800,3.197201904296875,0.06878092885017395,-0.6156094074249268,0.6756628751754761
1761503579457257700,3.2072578125,0.09469135850667953,-1.1432976722717285,0.8215481638908386
1761503579467313700,3.217313720703125,-0.06093951687216759,-1.166056513786316,1.1097618341445923
1761503579477369900,3.227369873046875,-0.34765544533729553,-0.7081001996994019,1.4069373607635498
1761503579487425800,3.23742578125,-0.597659170627594,-0.3240627646446228,1.5851672887802124
1761503579497481700,3.247481689453125,-0.6030004024505615,-0.04586762189865112,1.752256155014038
1761503579507538000,3.257537841796875,-0.5161232948303223,0.1506963074207306,1.923835039138794
1761503579517593900,3.26759375,-0.3051937222480774,0.24027039110660553,1.9920532703399658
1761503579527649800,3.27764990234375,-0.09661868214607239,0.3537101447582245,1.929195761680603
1761503579537706000,3.2877060546875,0.10201957821846008,0.463507741689682,1.8133612871170044
1761503579547762000,3.297761962890625,0.316056489944458,0.46383076906204224,1.4967164993286133
1761503579557817600,3.307817626953125,0.41408053040504456,0.3561969995498657,1.1184149980545044
1761503579567873800,3.317873779296875,0.39805763959884644,0.30132150650024414,0.680306613445282
1761503579577929700,3.3279296875,0.23919793963432312,0.026620158925652504,0.07598238438367844
1761503579587986700,3.337986572265625,-0.05926119163632393,-0.1427326500415802,-0.5128153562545776
1761503579598042600,3.348042724609375,-0.3588758707046509,-0.2303391993045807,-0.7321884632110596
1761503579608098800,3.358098876953125,-0.5949842929840088,-0.4748951494693756,-0.39425355195999146
1761503579618154800,3.36815478515625,-0.5302782654762268,-0.5350311994552612,0.2008500099182129
1761503579628210700,3.378210693359375,-0.30471888184547424,-0.3552294671535492,0.6276820302009583
1761503579638267000,3.388266845703125,-0.11946061998605728,-0.1346006840467453,0.752246618270874
1761503579648322800,3.39832275390625,0.0030064424499869347,-0.03966405615210533,0.5485144853591919
1761503579658378800,3.408378662109375,0.10367313027381897,-0.09977133572101593,0.14464107155799866
1761503579668435000,3.41843505859375,0.17471641302108765,-0.31035998463630676,-0.31137627363204956
1761503579678491000,3.428490966796875,0.1956946700811386,-0.6650866866111755,-0.6742721796035767
1761503579688546800,3.438546875,0.21462547779083252,-1.0500409603118896,-0.880552351474762
1761503579698603000,3.44860302734375,0.24096894264221191,-1.4159600734710693,-0.9328749775886536
1761503579708658700,3.45865869140625,0.19009937345981598,-1.7677061557769775,-0.9451404213905334
1761503579718714600,3.468714599609375,0.0981537327170372,-1.885055661201477,-0.9941228628158569
1761503579728770800,3.478770751953125,0.03182237967848778,-1.6079686880111694,-1.0728949308395386
1761503579738826800,3.48882666015625,0.018013620749115944,-1.0835150480270386,-1.108073115348816
1761503579748882700,3.498882568359375,0.03068787045776844,-0.48468199372291565,-0.9931955337524414
1761503579758939000,3.50893896484375,-0.00663340138271451,-0.06999373435974121,-0.7249193787574768
1761503579768994800,3.518994873046875,-0.09423196315765381,0.17380987107753754,-0.4344902038574219
1761503579779050800,3.52905078125,-0.21316874027252197,0.15166622400283813,-0.3346424400806427
1761503579789107700,3.539107666015625,-0.3068041503429413,-0.046842072159051895,-0.44839322566986084
1761503579799164000,3.549163818359375,-0.30735036730766296,-0.14882595837116241,-0.6590868234634399
1761503579809219800,3.5592197265625,-0.21942582726478577,-0.08205412328243256,-0.8219920992851257
1761503579819275800,3.56927587890625,-0.08398651331663132,0.06912633776664734,-0.7116589546203613
1761503579829332000,3.57933203125,0.017131315544247627,0.2382517158985138,-0.2440749853849411
1761503579839388000,3.589387939453125,-0.0018365158466622233,0.29776909947395325,0.3078978955745697
1761503579849443800,3.59944384765625,-0.03074885718524456,0.30784571170806885,0.6415533423423767
1761503579859499800,3.609499755859375,0.03563602641224861,0.37076741456985474,0.6197870969772339
1761503579869555700,3.6195556640625,0.25398939847946167,0.4500364065170288,0.23970207571983337
1761503579879611600,3.629611572265625,0.5366149544715881,0.44363123178482056,-0.32194581627845764
1761503579889667800,3.639667724609375,0.6658571362495422,0.2928377389907837,-0.6856875419616699
1761503579899723800,3.649723876953125,0.5037412047386169,0.3418915569782257,-0.49589070677757263
1761503579909779700,3.65977978515625,0.15485934913158417,-0.030950991436839104,-0.3182312250137329
1761503579919836000,3.6698359375,-0.40021637082099915,-0.2168462872505188,0.026813505217432976
1761503579929891800,3.679891845703125,-0.8340541124343872,0.26915502548217773,0.35773229598999023
1761503579939947800,3.68994775390625,-0.7238091230392456,0.6912308931350708,0.7097542881965637
1761503579950004000,3.70000390625,-0.24617329239845276,0.8308767080307007,1.0699480772018433
1761503579960060000,3.710059814453125,0.18938058614730835,0.7265012860298157,1.0112112760543823
1761503579970115800,3.72011572265625,0.13343235850334167,0.6403759717941284,1.3261780738830566
1761503579980171800,3.730171875,0.36812663078308105,-0.7450190186500549,0.3515561819076538
1761503579990229000,3.74022900390625,0.3004935085773468,-1.6273139715194702,0.009339173324406147
1761503580000285000,3.750284912109375,0.11445546895265579,-1.9209873676300049,0.12372620403766632
1761503580010340600,3.760340576171875,-0.13834083080291748,-1.3998701572418213,0.5256839990615845
1761503580020396800,3.770396728515625,-0.2065315991640091,-0.5998687744140625,1.2076416015625
1761503580030452700,3.78045263671875,-0.1872713565826416,0.026073412969708443,2.220808267593384
1761503580040508700,3.7905087890625,-0.1762019246816635,0.24679087102413177,3.024669885635376
1761503580050564900,3.80056494140625,-0.02130954898893833,0.39410948753356934,3.2590394020080566
1761503580060620800,3.810620849609375,0.18739067018032074,0.5809558033943176,2.9403750896453857
1761503580070676700,3.8206767578125,0.3097280263900757,0.6905025243759155,2.3379578590393066
1761503580080733000,3.83073291015625,0.315305233001709,0.6204760670661926,1.867995262145996
1761503580090788900,3.840788818359375,0.14905419945716858,0.48378077149391174,1.5662537813186646
1761503580100845300,3.85084521484375,-0.005570001434534788,0.39508819580078125,1.1372143030166626
1761503580110901200,3.8609013671875,-0.16808807849884033,0.03143435716629028,0.6398676037788391
1761503580120957400,3.87095751953125,-0.3730769157409668,-0.31832125782966614,0.2225896716117859
1761503580131013400,3.881013427734375,-0.44260671734809875,-0.34803253412246704,-0.2835531532764435
1761503580141069300,3.8910693359375,-0.4197421371936798,-0.1781044900417328,-0.8809763193130493
1761503580151125500,3.90112548828125,-0.43105340003967285,-0.1389128714799881,-1.3071430921554565
1761503580161181400,3.911181396484375,-0.4618525803089142,-0.23215441405773163,-1.3958748579025269
1761503580171237400,3.9212373046875,-0.4810507893562317,-0.3947097659111023,-1.2365001440048218
1761503580181294300,3.93129443359375,-0.5049590468406677,-0.5470154285430908,-1.0070570707321167
1761503580191350500,3.9413505859375,-0.47268977761268616,-0.6800890564918518,-0.8925621509552002
1761503580201406500,3.951406494140625,-0.34975454211235046,-0.6752138733863831,-0.8974370956420898
1761503580211462400,3.96146240234375,-0.1456645280122757,-0.6226007342338562,-0.8885676860809326
1761503580221518300,3.971518310546875,0.008825182914733887,-0.5575487613677979,-0.8673878312110901
1761503580231574300,3.98157421875,0.0784284919500351,-0.5034341216087341,-0.8670557141304016
1761503580241630200,3.991630126953125,-0.0015414375811815262,-0.3786884546279907,-0.8037154078483582
1761503580251686400,4.001686279296875,-0.19012892246246338,-0.19880470633506775,-0.7697923183441162
1761503580261742300,4.011742431640625,-0.344820499420166,-0.00962812639772892,-0.7380636930465698
1761503580271798300,4.02179833984375,-0.375193327665329,0.12940645217895508,-0.6220576763153076
1761503580281854500,4.0318544921875,-0.30832239985466003,0.24430987238883972,-0.5007475018501282
1761503580291910400,4.041910400390625,-0.1486661732196808,0.31415632367134094,-0.3731487989425659
1761503580301966300,4.05196630859375,0.053094908595085144,0.3368816077709198,-0.30413883924484253
1761503580312022500,4.0620224609375,0.1686984747648239,0.26645299792289734,-0.40825754404067993
1761503580322078500,4.072078369140625,0.15582580864429474,0.14401362836360931,-0.6505287289619446
1761503580332134400,4.082134521484375,0.09353900700807571,0.0589035302400589,-0.8237878680229187
1761503580342190300,4.0921904296875,0.025251559913158417,-0.015127553604543209,-0.8842669725418091
1761503580352246300,4.102246337890625,-0.01636832021176815,0.002507632365450263,-0.8237146735191345
1761503580362303500,4.112303466796875,-0.059960272163152695,0.10719676315784454,-0.5612859725952148
1761503580372359200,4.122359130859375,-0.08786433935165405,0.24536848068237305,-0.22416892647743225
1761503580382415400,4.132415283203125,-0.05001949146389961,0.30146822333335876,0.01570918783545494
1761503580392471300,4.14247119140625,0.019156649708747864,0.20590682327747345,0.037517547607421875
1761503580402527200,4.15252734375,0.09653692692518234,-0.03241439908742905,-0.20609457790851593
1761503580412583400,4.16258349609375,0.07062463462352753,-0.3263935446739197,-0.7025072574615479
1761503580422639400,4.172639404296875,-0.004546815063804388,-0.5185068249702454,-1.2370513677597046
1761503580432695300,4.1826953125,0.06004895642399788,-0.5524303913116455,-1.5111135244369507
1761503580442751500,4.19275146484375,0.29539409279823303,-0.6197522282600403,-1.3555742502212524
1761503580452807400,4.202807373046875,0.47142210602760315,-0.37339940667152405,-0.9625284671783447
1761503580462863400,4.21286328125,0.036848559975624084,-0.0012476909905672073,-0.9564990401268005
1761503580472919600,4.22291943359375,-0.7258778214454651,0.48084303736686707,-0.8368959426879883
1761503580482975500,4.2329755859375,-0.9167801737785339,0.7836505770683289,-0.19907981157302856
1761503580493031200,4.24303125,-0.5049539804458618,0.9674617052078247,0.3862403929233551
1761503580503087400,4.25308740234375,0.15883705019950867,0.7053733468055725,0.6461462378501892
1761503580513143300,4.263143310546875,0.9403022527694702,-0.02275218442082405,0.6150719523429871
1761503580523199200,4.27319921875,1.4219822883605957,-0.8887165784835815,0.5010111927986145
1761503580533255400,4.28325537109375,1.5013136863708496,-1.3427863121032715,0.43056735396385193
1761503580543311400,4.293311279296875,1.210359811782837,-1.3565559387207031,0.6169636249542236
1761503580553368300,4.303368408203125,0.6477580070495605,-0.9424988031387329,1.0175347328186035
1761503580563424300,4.31342431640625,0.1475607007741928,-0.36911144852638245,1.1826579570770264
1761503580573480400,4.32348046875,-0.11624724417924881,0.10168854147195816,1.1886439323425293
1761503580583536400,4.333536376953125,-0.16976666450500488,0.4388791024684906,1.252554178237915
1761503580593592300,4.34359228515625,-0.04345107078552246,0.5695502758026123,1.30031418800354
1761503580603648500,4.3536484375,0.12162390351295471,0.38177159428596497,1.3484793901443481
1761503580613704400,4.363704345703125,0.2656303346157074,-0.10318177938461304,1.4464988708496094
1761503580623760400,4.373760498046875,0.41038379073143005,-0.5926465392112732,1.5071419477462769
1761503580633816600,4.383816650390625,0.40238261222839355,-0.6448737978935242,1.4331202507019043
1761503580643872500,4.39387255859375,0.30735915899276733,-0.18511445820331573,1.417830467224121
1761503580653928200,4.40392822265625,0.2617889940738678,0.34421464800834656,1.4533703327178955
1761503580663984400,4.413984375,0.1683485358953476,0.6960259079933167,1.3912267684936523
1761503580674040300,4.424040283203125,-0.03166338801383972,0.8596388101577759,1.2289230823516846
1761503580684096300,4.43409619140625,-0.18538238108158112,0.8533681631088257,1.1924402713775635
1761503580694152400,4.44415234375,-0.28288736939430237,0.4913947582244873,1.1438993215560913
1761503580704208400,4.45420849609375,-0.3570566773414612,-0.10587184131145477,0.8308548331260681
1761503580714265300,4.464265380859375,-0.28568100929260254,-0.40865832567214966,0.3709503710269928
1761503580724321300,4.4743212890625,-0.1042981743812561,-0.4462651014328003,-0.05547018349170685
1761503580734377500,4.48437744140625,0.14882569015026093,-0.10742126405239105,-0.3968959450721741
1761503580744433400,4.494433349609375,0.33083197474479675,0.3547154664993286,-0.6349508762359619
1761503580754489300,4.5044892578125,0.3876100480556488,0.5736352801322937,-0.7602589726448059
1761503580764545500,4.514545654296875,0.35119929909706116,0.3758721649646759,-0.8473816514015198
1761503580774601500,4.5246015625,0.28065189719200134,-0.09867517650127411,-0.9697703719139099
1761503580784657400,4.534657470703125,0.1423124074935913,-0.5396935939788818,-1.1391352415084839
1761503580794713600,4.544713623046875,-0.08118993043899536,-0.7349488139152527,-1.3055843114852905
1761503580804769300,4.554769287109375,-0.2929498553276062,-0.5660157203674316,-1.3425782918930054
1761503580814825200,4.5648251953125,-0.536628007888794,-0.12550918757915497,-1.1336098909378052
1761503580824881400,4.57488134765625,-0.7060412764549255,0.2681291997432709,-0.8347606658935547
1761503580834937300,4.584937255859375,-0.6717743873596191,0.3392009735107422,-0.60924232006073
1761503580844993300,4.5949931640625,-0.471725195646286,0.19962149858474731,-0.653925359249115
1761503580855049500,4.605049560546875,-0.2463216334581375,-0.04133305698633194,-0.9579118490219116
1761503580865105400,4.61510546875,-0.10825110226869583,-0.22562406957149506,-1.2561757564544678
1761503580875161300,4.625161376953125,-0.15594379603862762,-0.14032834768295288,-1.3710362911224365
1761503580885218300,4.63521826171875,-0.35280653834342957,0.1441398710012436,-1.331833004951477
1761503580895274500,4.6452744140625,-0.48128780722618103,0.44760066270828247,-1.1733366250991821
1761503580905330400,4.655330322265625,-0.4466398060321808,0.6362696886062622,-1.002551794052124
1761503580915386400,4.665386474609375,-0.27083656191825867,0.6657804250717163,-0.9478147625923157
1761503580925442600,4.675442626953125,-0.041728004813194275,0.5200876593589783,-0.9579598307609558
1761503580935498500,4.68549853515625,0.13069888949394226,0.11908431351184845,-0.9286091327667236
1761503580945554400,4.695554443359375,0.18530967831611633,-0.28843793272972107,-0.9017798900604248
1761503580955610400,4.7056103515625,0.03381362184882164,-0.5189893841743469,-0.9263209104537964
1761503580965666300,4.715666259765625,-0.23818247020244598,-0.4036816954612732,-1.2342164516448975
1761503580975722200,4.72572216796875,-0.34666207432746887,-0.004460528492927551,-1.546809434890747
1761503580985778400,4.7357783203125,-0.16560733318328857,0.47132837772369385,-1.2216145992279053
1761503580995834400,4.74583447265625,0.15479063987731934,0.7104600071907043,-0.6560329794883728
1761503581005890300,4.755890380859375,0.23038899898529053,0.5563612580299377,-0.4108509123325348
1761503581015946500,4.765946533203125,0.007405451964586973,0.3832877278327942,-0.2912536859512329
1761503581026002400,4.77600244140625,-0.12691587209701538,0.264504611492157,0.18209123611450195
1761503581036058400,4.786058349609375,0.002043709857389331,0.08909498900175095,0.9124069809913635
1761503581046114600,4.796114501953125,0.2714453637599945,-0.08012039959430695,1.1302084922790527
1761503581056171500,4.806171630859375,0.3828970491886139,-0.08723822981119156,0.6891605854034424
1761503581066227500,4.8162275390625,0.40297621488571167,-0.04080069437623024,0.14228151738643646
1761503581076283400,4.826283447265625,0.40492406487464905,-0.0923919826745987,0.06830316036939621
1761503581086339600,4.836339599609375,0.279634028673172,-0.13336896896362305,0.3041849136352539
1761503581096395000,4.84639501953125,0.14377447962760925,-0.25309163331985474,0.48629480600357056
1761503581106451000,4.856450927734375,0.12149526923894882,-0.3247416019439697,0.5723037123680115
1761503581116507100,4.866507080078125,0.14412522315979004,-0.3033449649810791,0.7085614204406738
1761503581126563000,4.87656298828125,0.16489893198013306,-0.3196978271007538,1.0133631229400635
1761503581136619000,4.886618896484375,0.2029922604560852,-0.3688877522945404,1.4007880687713623
1761503581146675200,4.89667529296875,0.1736612766981125,-0.4814819395542145,1.797770380973816
1761503581156731100,4.906731201171875,-0.0026234800461679697,-0.4303862750530243,2.02812123298645
1761503581166787000,4.916787109375,-0.1691509485244751,-0.38208985328674316,2.062697172164917
1761503581176843300,4.92684326171875,-0.2538847327232361,-0.4114786386489868,1.9071394205093384
1761503581186899000,4.93689892578125,-0.2397388219833374,-0.44631409645080566,1.6698349714279175
1761503581196955000,4.946954833984375,-0.1464751958847046,-0.42353448271751404,1.4314019680023193
1761503581207011000,4.957010986328125,-0.059374112635850906,-0.4717225134372711,1.1104366779327393
1761503581217067000,4.96706689453125,-0.03713458403944969,-0.4492214620113373,0.7214953303337097
1761503581227124000,4.9771240234375,0.009726130403578281,-0.34797582030296326,0.5418084263801575
1761503581237180000,4.987179931640625,-0.023378293961286545,-0.2698887288570404,0.4223179519176483
1761503581247236000,4.997236083984375,-0.11042691022157669,-0.0978996679186821,0.2618531882762909
1761503581257292000,5.0072919921875,-0.2580994665622711,0.15906715393066406,0.13105948269367218
1761503581267348000,5.017347900390625,-0.3685559332370758,0.3210669755935669,0.09179437160491943
1761503581277404200,5.027404052734375,-0.3312258720397949,0.46967774629592896,0.07633046060800552
1761503581287460000,5.037460205078125,-0.201828733086586,0.5474250316619873,0.03181944787502289
1761503581297516000,5.04751611328125,-0.05531332269310951,0.518382728099823,-0.015657790005207062
1761503581307572200,5.057572265625,0.08653968572616577,0.38375911116600037,-0.03314037621021271
1761503581317628200,5.067628173828125,0.17851674556732178,0.14571832120418549,-0.04851560294628143
1761503581327684000,5.07768408203125,0.19827739894390106,-0.08702118694782257,-0.07715576887130737
1761503581337740000,5.087739990234375,0.11088257282972336,-0.2276102602481842,-0.11854927986860275
1761503581347796000,5.0977958984375,-0.11125408858060837,-0.27041685581207275,-0.17638009786605835
1761503581357852000,5.107851806640625,-0.2827019989490509,-0.08453219383955002,-0.286575585603714
1761503581367908000,5.117908203125,-0.3047258257865906,0.19152575731277466,-0.4171612858772278
1761503581377965000,5.127965087890625,-0.14297260344028473,0.35392770171165466,-0.4818960726261139
1761503581388021000,5.13802099609375,0.14521631598472595,0.41584861278533936,-0.5120552778244019
1761503581398077000,5.148076904296875,0.28946349024772644,0.3261490762233734,-0.6006187200546265
1761503581408133000,5.158133056640625,0.22445334494113922,0.22054515779018402,-0.766901433467865
1761503581418189000,5.16818896484375,0.04440661147236824,0.18998432159423828,-1.0392906665802002
1761503581428245000,5.178244873046875,-0.1162957176566124,0.29675817489624023,-1.302689552307129
1761503581438301200,5.18830126953125,-0.18883250653743744,0.4850013256072998,-1.5416109561920166
1761503581448357000,5.198357177734375,-0.13933205604553223,0.703097939491272,-1.7128900289535522
1761503581458413000,5.2084130859375,0.0007257114048115909,0.85125333070755,-1.6826711893081665
1761503581468469200,5.21846923828125,0.10595466196537018,0.969465970993042,-1.3423926830291748
1761503581478525200,5.228525146484375,0.08758816868066788,0.8787389993667603,-0.7340756058692932
1761503581488580900,5.238580810546875,0.09168757498264313,0.4813021719455719,-0.10321906208992004
1761503581498637000,5.248636962890625,0.11846140027046204,0.050936948508024216,0.2259306013584137
1761503581508693000,5.25869287109375,0.08146210014820099,-0.2742914855480194,0.04044622555375099
1761503581518750000,5.26875,-0.08421740680932999,-0.42539843916893005,-0.36794471740722656
1761503581528806000,5.278805908203125,-0.04318875074386597,-0.1682172417640686,-0.4605252742767334
1761503581538862000,5.288862060546875,0.39063459634780884,0.2846620976924896,-0.21169307827949524
1761503581548918000,5.29891796875,0.654600977897644,0.5600558519363403,-0.07446198165416718
1761503581558974000,5.308973876953125,0.45082125067710876,0.3944801986217499,-0.11209750920534134
1761503581569030100,5.319030029296875,0.16079847514629364,-0.03127376735210419,-0.20803628861904144
1761503581579086000,5.329086181640625,0.09558191895484924,0.05505659431219101,-0.21699729561805725
1761503581589142000,5.33914208984375,0.27278760075569153,0.2821808159351349,0.0425565131008625
1761503581599198200,5.3491982421875,0.1942584216594696,0.3158727288246155,0.4127582609653473
1761503581609254100,5.359254150390625,0.06588128209114075,0.19291618466377258,0.793947160243988
1761503581619310000,5.36931005859375,0.07483243197202682,0.09226787835359573,1.0502439737319946
1761503581629366300,5.3793662109375,0.04259087145328522,0.1161431148648262,1.1782101392745972
1761503581639422000,5.389421875,-0.0957033559679985,0.18200495839118958,1.1659291982650757
1761503581649478000,5.399477783203125,-0.265058308839798,0.08319209516048431,1.146155834197998
1761503581659534000,5.4095341796875,-0.35430267453193665,0.011947739869356155,1.2155705690383911
1761503581669590000,5.419590087890625,-0.3981412351131439,-0.2276049256324768,1.1077107191085815
1761503581679646000,5.42964599609375,-0.3607528507709503,-0.4222990572452545,0.8923618793487549
1761503581689703000,5.439702880859375,-0.20763947069644928,-0.29262760281562805,0.8928351402282715
1761503581699759000,5.449759033203125,-0.1171194314956665,-0.053223539143800735,1.2414644956588745
1761503581709812200,5.459812255859375,-0.21876269578933716,-0.05108209326863289,1.6876167058944702
1761503581719868000,5.469867919921875,-0.32506462931632996,-0.279475599527359,1.9533638954162598
1761503581729923800,5.479923828125,-0.22649812698364258,-0.566291093826294,2.04504132270813
1761503581739980000,5.48997998046875,-0.11429595202207565,-0.7234565019607544,1.8413455486297607
1761503581750036000,5.500035888671875,-0.000023169501218944788,-0.5508034825325012,1.4498701095581055
1761503581760092000,5.510091796875,0.10056948661804199,-0.14416463673114777,1.209877848625183
1761503581770148000,5.520148193359375,0.05893229320645332,0.09488123655319214,1.081984519958496
1761503581780204000,5.5302041015625,-0.09227293729782104,-0.09865866601467133,1.0864559412002563
1761503581790260000,5.540260009765625,-0.3077367842197418,-0.6089075207710266,1.209892749786377
1761503581800316200,5.550316162109375,-0.5600252151489258,-0.747327446937561,1.2366523742675781
1761503581810372000,5.5603720703125,-0.5368695855140686,-0.4615846574306488,1.103051781654358
1761503581820428000,5.570427978515625,-0.3078038990497589,-0.18965594470500946,0.8469648361206055
1761503581830484200,5.580484130859375,-0.019569439813494682,0.0639805793762207,0.4895001947879791
1761503581840541200,5.590541259765625,0.2792564034461975,0.3621387779712677,0.1815444976091385
1761503581850597000,5.60059716796875,0.43916991353034973,0.5604177713394165,-0.1362566351890564
1761503581860653000,5.610653076171875,0.4337301254272461,0.5226056575775146,-0.5123381018638611
1761503581870709000,5.620708984375,0.3456774950027466,0.23797394335269928,-0.8739786148071289
1761503581880765000,5.630764892578125,0.204447939991951,-0.14921584725379944,-1.1024965047836304
1761503581890820900,5.64082080078125,0.030661240220069885,-0.4275558590888977,-1.1321300268173218
1761503581900877000,5.650876953125,-0.08599373698234558,-0.4687861204147339,-1.0366194248199463
1761503581910933000,5.66093310546875,-0.09099861234426498,-0.40192878246307373,-0.8896228075027466
1761503581920989000,5.670989013671875,0.00564164062961936,-0.2423497885465622,-0.7940699458122253
1761503581931045000,5.681045166015625,0.1294783651828766,-0.03118029050529003,-0.7539371848106384
1761503581941101000,5.69110107421875,0.1822773963212967,0.1148938313126564,-0.7799309492111206
1761503581951157000,5.701156982421875,0.19161364436149597,0.11814235150814056,-0.8670019507408142
1761503581961213200,5.711213134765625,0.14187777042388916,-0.004448810592293739,-0.9624648094177246
1761503581971269000,5.72126904296875,0.09283273667097092,-0.1907004415988922,-1.034819483757019
1761503581981325000,5.731324951171875,0.08659987151622772,-0.38424035906791687,-1.004267692565918
1761503581991382000,5.741382080078125,0.10639834403991699,-0.4531451165676117,-0.9203490614891052
1761503582001438200,5.751438232421875,0.18918457627296448,-0.34101006388664246,-0.8584648966789246
1761503582011494100,5.761494140625,0.292893648147583,-0.11373774707317352,-0.7660662531852722
1761503582021549800,5.7715498046875,0.29502445459365845,0.12260288000106812,-0.6395037770271301
1761503582031606000,5.78160595703125,0.21022726595401764,0.3284391462802887,-0.5707460641860962
1761503582041662000,5.791661865234375,0.1325223594903946,0.4640675485134125,-0.7088661193847656
1761503582051718000,5.8017177734375,0.1266937553882599,0.4411925673484802,-1.118316411972046
1761503582061774000,5.811774169921875,0.21373306214809418,0.47716015577316284,-1.6158645153045654
1761503582071830000,5.821830078125,0.4449324607849121,0.7476395964622498,-2.02605938911438
1761503582081886000,5.831885986328125,0.5499853491783142,0.9605912566184998,-2.009822130203247
1761503582091942100,5.841942138671875,0.08524325489997864,0.8361161947250366,-1.5241552591323853
1761503582101994200,5.851994140625,-0.48735207319259644,0.15379568934440613,-0.7339067459106445
1761503582112050200,5.86205029296875,-0.7292057275772095,-0.3466583490371704,0.017184313386678696
1761503582122110500,5.8721103515625,-0.6366438269615173,-0.20094002783298492,0.7657362818717957
1761503582132166400,5.88216650390625,-0.442137211561203,0.12252432107925415,1.4353774785995483
1761503582142222300,5.892222412109375,-0.29507479071617126,0.32529208064079285,1.5198031663894653
1761503582152278300,5.9022783203125,-0.06042632460594177,0.3100481331348419,1.0881867408752441
1761503582162334200,5.912334228515625,0.2868160605430603,0.3298673927783966,0.4514545500278473
1761503582172390100,5.92239013671875,0.6164214015007019,0.3051505982875824,-0.0875045508146286
1761503582182446300,5.9324462890625,0.8764836192131042,-0.02118571288883686,-0.2405867725610733
1761503582192502300,5.942502197265625,0.8011161088943481,-0.7699260115623474,-0.2202170491218567
1761503582202558200,5.95255810546875,0.3526243567466736,-1.3231585025787354,-0.18054474890232086
1761503582212614400,5.962614501953125,-0.14996393024921417,-1.6010417938232422,0.08840815722942352
1761503582222670300,5.97267041015625,-0.6731054186820984,-1.1856955289840698,0.7479173541069031
1761503582232726300,5.982726318359375,-0.9495940208435059,-0.3154011070728302,1.606196641921997
1761503582242782500,5.992782470703125,-0.8318426012992859,0.5265375971794128,2.296717643737793
1761503582252838400,6.00283837890625,-0.6552542448043823,1.1417653560638428,2.5301263332366943
1761503582262894300,6.012894287109375,-0.5894773602485657,0.9780198335647583,2.33402943611145
1761503582272951300,6.022951416015625,-0.3956085741519928,0.45731988549232483,1.7707771062850952
1761503582283007500,6.033007568359375,-0.011022024787962437,-0.1572716385126114,1.2467799186706543
1761503582293063400,6.0430634765625,0.2854410707950592,-0.49919143319129944,0.8898007273674011
1761503582303119000,6.053119140625,0.4340941905975342,-0.4837469756603241,0.7527469992637634
1761503582313175300,6.06317529296875,0.39455264806747437,-0.3253519833087921,0.7684918642044067
1761503582323231200,6.073231201171875,0.1973772495985031,-0.11352070420980453,0.7955964803695679
1761503582333287200,6.083287109375,-0.13198839128017426,0.07119321823120117,0.7885569334030151
1761503582343343400,6.09334326171875,-0.456748902797699,0.20827464759349823,0.7033176422119141
1761503582353399300,6.1033994140625,-0.6723504066467285,0.38036465644836426,0.5125943422317505
1761503582363455200,6.113455322265625,-0.750008761882782,0.40862318873405457,0.27493807673454285
1761503582373511400,6.123511474609375,-0.5651528835296631,0.33342164754867554,-0.003905792022123933
1761503582383567400,6.1335673828125,-0.1925441473722458,0.24043896794319153,-0.3481888771057129
1761503582393623300,6.143623291015625,0.19889232516288757,0.16242140531539917,-0.6918527483940125
1761503582403679500,6.153679443359375,0.5030453205108643,0.01684902049601078,-0.901760458946228
1761503582413736400,6.163736328125,0.6494320631027222,-0.14142636954784393,-0.909682035446167
1761503582423792400,6.17379248046875,0.538189709186554,-0.36998364329338074,-0.8024202585220337
1761503582433848300,6.183848388671875,0.22225144505500793,-0.5774332284927368,-0.6442908048629761
1761503582443904500,6.193904541015625,-0.16140992939472198,-0.5836791396141052,-0.5476228594779968
1761503582453960200,6.203960205078125,-0.41018351912498474,-0.39908668398857117,-0.5458787679672241
1761503582464016100,6.21401611328125,-0.41276705265045166,-0.1683962047100067,-0.6304804682731628
1761503582474072300,6.224072265625,-0.19883853197097778,-0.02834082767367363,-0.7720828652381897
1761503582484128300,6.234128173828125,0.000060453756304923445,-0.06652549654245377,-0.8779475092887878
1761503582494184200,6.24418408203125,0.0761384442448616,-0.23159007728099823,-0.9875627160072327
1761503582504240400,6.254240478515625,0.06848584860563278,-0.3465656638145447,-1.1705693006515503
1761503582514296300,6.26429638671875,0.0008442220860160887,-0.3678398132324219,-1.3536789417266846
1761503582524352300,6.274352294921875,-0.08685340732336044,-0.22985637187957764,-1.4789018630981445
1761503582534408400,6.284408447265625,-0.12259755283594131,-0.04219139739871025,-1.441750407218933
1761503582544464400,6.29446435546875,-0.09609350562095642,0.06747651100158691,-1.2738664150238037
1761503582554521300,6.304521240234375,-0.03343838453292847,0.1765231043100357,-1.0250499248504639
1761503582564577300,6.314577392578125,0.002442651428282261,0.2078448086977005,-0.7737489342689514
1761503582574633500,6.324633544921875,-0.01495338324457407,0.2740004062652588,-0.6517820358276367
1761503582584689400,6.334689453125,-0.09172672778367996,0.3891594707965851,-0.6745936274528503
1761503582594745300,6.344745361328125,-0.24548965692520142,0.2459312081336975,-0.8071473836898804
1761503582604801500,6.354801513671875,-0.38376951217651367,0.12133122235536575,-1.143415927886963
1761503582614857200,6.364857177734375,-0.27694985270500183,0.21723298728466034,-1.578873634338379
1761503582624913200,6.3749130859375,0.1340653896331787,0.4290456473827362,-1.72792649269104
1761503582634969300,6.38496923828125,0.5908254981040955,0.4231208860874176,-1.6614964008331299
1761503582645025300,6.395025390625,0.5538464188575745,0.0883311927318573,-1.3365159034729004
1761503582655081200,6.405081298828125,0.12224414944648743,-0.08640573173761368,-0.887787401676178
1761503582665137400,6.415137451171875,-0.18541619181632996,-0.02075348235666752,-0.4896663725376129
1761503582675193300,6.425193359375,-0.20697662234306335,0.10136337578296661,0.12183908373117447
1761503582685249300,6.435249267578125,-0.2376336008310318,0.09633026272058487,0.8343569040298462
1761503582695306200,6.44530615234375,-0.27574822306632996,0.20958837866783142,1.2384867668151855
1761503582705362400,6.455362548828125,-0.16889074444770813,0.44607096910476685,1.1149320602416992
1761503582715418400,6.46541845703125,-0.08419530093669891,0.51726895570755,0.7665975689888
1761503582725474300,6.475474365234375,-0.04930123686790466,0.2539425194263458,0.6168355345726013
1761503582735530500,6.485530517578125,0.01501064095646143,-0.1709882616996765,0.7401651740074158
1761503582745586400,6.49558642578125,0.09560641646385193,-0.3865088224411011,0.854386031627655
1761503582755642400,6.505642333984375,0.16661694645881653,-0.39444610476493835,0.7675296664237976
1761503582765698300,6.5156982421875,0.2106051743030548,-0.32082247734069824,0.8800655603408813
1761503582775754200,6.525754150390625,0.23799605667591095,-0.30924493074417114,1.4312653541564941
1761503582785810200,6.53581005859375,0.23474833369255066,-0.20288227498531342,1.9158703088760376
1761503582795866400,6.545866455078125,0.09500427544116974,0.020843230187892914,2.1702916622161865
1761503582805922300,6.55592236328125,-0.019093001261353493,0.2418925166130066,2.1739485263824463
1761503582815978200,6.565978271484375,-0.06967495381832123,0.2414349913597107,2.091170072555542
1761503582826034400,6.576034423828125,-0.021277591586112976,0.2652292847633362,2.089686155319214
1761503582836091400,6.58609130859375,0.13553279638290405,0.2249862402677536,2.0276269912719727
1761503582846147300,6.596147216796875,0.3795444071292877,0.17686718702316284,1.7376213073730469
1761503582856203300,6.606203369140625,0.5943259596824646,0.06920197606086731,1.369877815246582
1761503582866259500,6.616259521484375,0.5414640307426453,-0.0022679478861391544,0.9830044507980347
1761503582876315400,6.6263154296875,0.346128910779953,0.024402545765042305,0.5828583836555481
1761503582886371300,6.636371337890625,0.07115992903709412,0.11745472252368927,0.19258356094360352
1761503582896427500,6.646427490234375,-0.22562913596630096,0.21350722014904022,-0.07634536921977997
1761503582906483500,6.6564833984375,-0.3288649618625641,0.2532320022583008,-0.1910082995891571
1761503582916539100,6.6665390625,-0.2461852729320526,0.26580026745796204,-0.11216062307357788
1761503582926595300,6.67659521484375,-0.09148704260587692,0.17282716929912567,-0.08511489629745483
1761503582936651300,6.6866513671875,0.11173771321773529,0.06632816046476364,-0.1895345151424408
1761503582946707200,6.696707275390625,0.2535736858844757,-0.0577666275203228,-0.37938806414604187
1761503582956763400,6.706763427734375,0.27613890171051025,-0.16966547071933746,-0.5648029446601868
1761503582966820400,6.7168203125,0.22822624444961548,-0.1960858851671219,-0.7031338810920715
1761503582976876300,6.726876220703125,0.17707331478595734,-0.15206916630268097,-0.6800948977470398
1761503582986932200,6.73693212890625,0.10882208496332169,-0.08816075325012207,-0.47603365778923035
1761503582996988400,6.746988525390625,0.08544565737247467,0.07594536244869232,-0.22780440747737885
1761503583007044400,6.75704443359375,0.06923899054527283,0.2346271574497223,0.010379670187830925
1761503583017100300,6.767100341796875,0.06404662877321243,0.3083687424659729,0.12212643772363663
1761503583027156500,6.777156494140625,0.11610476672649384,0.3163968622684479,0.02448084205389023
1761503583037212400,6.78721240234375,0.15834729373455048,0.2925482392311096,-0.2897215783596039
1761503583047268400,6.797268310546875,0.11704246699810028,0.267452210187912,-0.6736127734184265
1761503583057324300,6.80732421875,0.04213014245033264,0.16639083623886108,-0.8804285526275635
1761503583067380200,6.817380126953125,-0.07548996061086655,0.12469479441642761,-0.9206310510635376
1761503583077436200,6.827436279296875,-0.1771651953458786,0.20179250836372375,-0.9467412233352661
1761503583087492400,6.837492431640625,-0.1419193148612976,0.2617295980453491,-0.9487050771713257
1761503583097553000,6.847552978515625,-0.04814169555902481,0.36875274777412415,-0.969234049320221
1761503583107609000,6.857609130859375,-0.03419392183423042,0.4018470346927643,-0.990073561668396
1761503583117665000,6.8676650390625,-0.0022679478861391544,0.23079246282577515,-1.0184780359268188
1761503583127721000,6.877720947265625,0.10496929287910461,0.06546955555677414,-0.9564700126647949
1761503583137777200,6.887777099609375,0.1633327305316925,0.13925643265247345,-0.8525034189224243
1761503583147833000,6.8978330078125,0.15133625268936157,0.37430596351623535,-0.9472557902336121
1761503583157889000,6.907888916015625,0.08409304171800613,0.46675679087638855,-1.0475181341171265
1761503583167945200,6.9179453125,0.1481953263282776,0.4701211750507355,-0.8007954955101013
1761503583178001200,6.928001220703125,0.4356739819049835,0.1733001470565796,-0.3375293016433716
1761503583188057000,6.93805712890625,0.3783068358898163,-0.21406036615371704,-0.07827696204185486
1761503583198113300,6.94811328125,0.061039119958877563,-0.17902354896068573,-0.11923078447580338
1761503583208169200,6.958169189453125,-0.2908371686935425,-0.03851596638560295,-0.07627400010824203
1761503583218225200,6.96822509765625,-0.5555897355079651,0.26754462718963623,-0.10940904915332794
1761503583228282000,6.9782822265625,-0.5913833975791931,0.6361295580863953,-0.27111512422561646
1761503583238338300,6.98833837890625,-0.5393023490905762,0.9454847574234009,-0.22117632627487183
1761503583248394000,6.99839404296875,-0.41751840710639954,0.7277524471282959,0.1492089182138443
1761503583258450000,7.008449951171875,-0.191594198346138,0.11000053584575653,0.5351805686950684
1761503583268506000,7.018506103515625,0.12330622225999832,-0.2545742392539978,0.8009774088859558
1761503583278562000,7.02856201171875,0.4080711007118225,-0.3863314688205719,0.8540248870849609
1761503583288618000,7.038617919921875,0.4326651394367218,-0.1927574723958969,0.8296540379524231
1761503583298674200,7.048674072265625,0.10842740535736084,-0.02220144309103489,0.9668382406234741
1761503583308730000,7.058730224609375,-0.2841097414493561,-0.07601141184568405,1.253296971321106
1761503583318786000,7.0687861328125,-0.49279239773750305,-0.20379947125911713,1.374488353729248
1761503583328842200,7.07884228515625,-0.5556666851043701,-0.19498732686042786,1.1514376401901245
1761503583338898200,7.088898193359375,-0.49485474824905396,-0.09145428240299225,0.7421060800552368
1761503583348954000,7.0989541015625,-0.29817497730255127,0.16904601454734802,0.34418854117393494
1761503583359011000,7.109010986328125,-0.0013097425689920783,0.43700850009918213,0.16356202960014343
1761503583369067300,7.1190673828125,0.22064316272735596,0.6779571771621704,0.42245805263519287
1761503583379123200,7.129123291015625,0.2558637261390686,0.9287505149841309,0.7727137804031372
1761503583389179100,7.13917919921875,0.10245633125305176,0.9007061123847961,0.7608371376991272
1761503583399235300,7.1492353515625,-0.12952522933483124,0.5906526446342468,0.6741914749145508
1761503583409291000,7.159291015625,-0.2207438349723816,0.24155296385288239,0.45813748240470886
1761503583419347000,7.169346923828125,-0.18642260134220123,-0.06078372150659561,0.08700307458639145
1761503583429403100,7.179403076171875,-0.15554219484329224,-0.3283235430717468,-0.34925758838653564
1761503583439459000,7.189458984375,-0.07916299253702164,-0.16687500476837158,-0.45494380593299866
1761503583449515000,7.199514892578125,-0.10914033651351929,0.09923843294382095,-0.016882842406630516
1761503583459571200,7.2095712890625,-0.24260838329792023,0.44109031558036804,0.4252719283103943
1761503583469627100,7.219627197265625,-0.22859269380569458,0.6241032481193542,0.552753746509552
1761503583479684000,7.22968408203125,-0.11237847059965134,0.49910968542099,0.3948730230331421
1761503583489740000,7.239739990234375,-0.051961734890937805,0.2503216862678528,0.06233661249279976
1761503583499796200,7.249796142578125,-0.03507037088274956,0.09778062254190445,-0.2650873363018036
1761503583509852200,7.25985205078125,-0.051429104059934616,0.01238982379436493,-0.4683386981487274
1761503583519908000,7.269908203125,-0.10873127728700638,-0.04024302586913109,-0.4940624535083771
1761503583529964300,7.27996435546875,-0.13759754598140717,0.008084557950496674,-0.39334437251091003
1761503583540020200,7.290020263671875,-0.07633046060800552,0.17499364912509918,-0.31275177001953125
1761503583550076200,7.300076171875,0.055995624512434006,0.3198704123497009,-0.3939478397369385
1761503583560132000,7.310132080078125,0.10759516805410385,0.34636247158050537,-0.6353551149368286
1761503583570188000,7.32018798828125,0.05217185616493225,0.25708985328674316,-0.9652243852615356
1761503583580244000,7.330243896484375,-0.11109615862369537,0.20110568404197693,-1.2653743028640747
1761503583590300200,7.340300048828125,-0.26697975397109985,0.26224493980407715,-1.5153828859329224
1761503583600357000,7.350357177734375,-0.310677170753479,0.434665709733963,-1.579384446144104
1761503583610413000,7.3604130859375,-0.2404794543981552,0.7255209684371948,-1.3994957208633423
1761503583620469000,7.370468994140625,-0.057379670441150665,0.9681608080863953,-1.0675872564315796
1761503583630525200,7.380525146484375,0.06193447485566139,0.9877216815948486,-0.7101814150810242
1761503583640581000,7.3905810546875,-0.0340152233839035,0.775044322013855,-0.4232471287250519
1761503583650637000,7.400636962890625,-0.18668679893016815,0.3803204298019409,-0.37331926822662354
1761503583660693200,7.410693359375,-0.2817813456058502,-0.0761357769370079,-0.5395969152450562
1761503583670749200,7.420749267578125,-0.37918806076049805,-0.465933620929718,-0.8954985737800598
1761503583680805000,7.43080517578125,-0.3668490946292877,-0.5738976001739502,-1.2302978038787842
1761503583690861300,7.440861328125,-0.2913668751716614,-0.24239613115787506,-1.3959107398986816
1761503583700917200,7.450917236328125,-0.2327301800251007,0.6162682771682739,-1.3522781133651733
1761503583710973000,7.460972900390625,-0.14988350868225098,1.3964077234268188,-0.9688026309013367
1761503583721029000,7.471029052734375,-0.04833024740219116,1.6682568788528442,-0.3949950039386749
1761503583731086000,7.481086181640625,-0.08121070265769958,1.2605375051498413,-0.03176112473011017
1761503583741142000,7.49114208984375,-0.1378481537103653,0.432392418384552,0.09031125158071518
1761503583751198000,7.501197998046875,-0.027116572484374046,-0.1400146335363388,0.3278881311416626
1761503583761254100,7.511254150390625,-0.03888747841119766,-0.10353118181228638,0.46951717138290405
1761503583771310000,7.52131005859375,-0.0020988371688872576,-0.015328622423112392,0.5310588479042053
1761503583781366000,7.531365966796875,0.17429643869400024,-0.22551248967647552,0.5537537336349487
1761503583791422200,7.541422119140625,0.48805463314056396,-0.606029748916626,0.8161062598228455
1761503583801478100,7.55147802734375,0.7894381880760193,-0.7836859822273254,1.4055522680282593
1761503583811534000,7.5615341796875,0.8066387176513672,-0.7047927975654602,2.0170066356658936
1761503583821590300,7.57159033203125,0.3606058657169342,-0.6827431321144104,2.3651957511901855
1761503583831646200,7.581646240234375,-0.10375409573316574,-0.7962270975112915,2.4172754287719727
1761503583841702100,7.5917021484375,-0.3707415759563446,-0.9045461416244507,2.1498239040374756
1761503583851758300,7.60175830078125,-0.4576791524887085,-0.7810732126235962,1.7374001741409302
1761503583861815300,7.611815185546875,-0.22949524223804474,-0.6026062369346619,1.4365119934082031
1761503583871871200,7.621871337890625,0.10156923532485962,-0.4434048533439636,1.3437362909317017
1761503583881927000,7.631927001953125,0.25618889927864075,-0.3961063325405121,1.2766534090042114
1761503583891983000,7.641983154296875,0.3381314277648926,-0.47462964057922363,1.1817615032196045
1761503583902039000,7.6520390625,0.3736819922924042,-0.4833509624004364,1.0230869054794312
1761503583912095000,7.662094970703125,0.3380619287490845,-0.4065680205821991,0.6583126187324524
1761503583922151200,7.672151123046875,0.3481465280056,-0.15739122033119202,0.2830652594566345
1761503583932207000,7.68220703125,0.32319217920303345,-0.002171008847653866,0.12100578099489212
1761503583942263000,7.692262939453125,0.24020062386989594,0.06630951166152954,0.16271167993545532
1761503583952319200,7.7023193359375,0.08016993850469589,0.15973933041095734,0.29112210869789124
1761503583962375200,7.712375244140625,-0.1402156949043274,0.19677218794822693,0.44690611958503723
1761503583972432100,7.72243212890625,-0.2957746684551239,0.15328969061374664,0.7024814486503601
1761503583982488000,7.732488037109375,-0.3193628191947937,0.11702142655849457,0.9207663536071777
1761503583992544300,7.742544189453125,-0.22839215397834778,0.1234377846121788,0.8482953906059265
1761503584002600200,7.75260009765625,-0.08628802001476288,0.15801146626472473,0.4332078993320465
1761503584012656000,7.76265625,0.06337045133113861,0.11704219877719879,-0.10728863626718521
1761503584022712300,7.77271240234375,0.22100615501403809,-0.028387432917952538,-0.49776503443717957
1761503584032768300,7.782768310546875,0.3451342284679413,-0.253437340259552,-0.6432463526725769
1761503584042824000,7.792823974609375,0.39544346928596497,-0.4662787616252899,-0.6426932215690613
1761503584052880100,7.802880126953125,0.37636804580688477,-0.6080899238586426,-0.5974695086479187
1761503584062936000,7.81293603515625,0.28107985854148865,-0.604985237121582,-0.544386088848114
1761503584072992000,7.822991943359375,0.17403145134449005,-0.4782395362854004,-0.4398852288722992
1761503584083048200,7.833048095703125,0.09891592711210251,-0.3036706745624542,-0.3582897186279297
1761503584093105200,7.843105224609375,0.0703660398721695,-0.016414925456047058,-0.38148024678230286
1761503584103157200,7.8531572265625,0.04079563170671463,0.2434515357017517,-0.45772016048431396
1761503584113213200,7.863213134765625,-0.029174929484725,0.35820794105529785,-0.6067980527877808
1761503584123269400,7.873269287109375,-0.09955482184886932,0.29833075404167175,-0.8567205667495728
1761503584133325300,7.8833251953125,-0.10790649056434631,0.06527914106845856,-1.142493486404419
1761503584143381200,7.89338134765625,-0.06837985664606094,-0.18499702215194702,-1.3427215814590454
1761503584153437200,7.903437255859375,-0.008944492787122726,-0.38770511746406555,-1.4871411323547363
1761503584163493000,7.9134931640625,0.07471365481615067,-0.5075241923332214,-1.6344794034957886
1761503584173549000,7.923549072265625,0.13727396726608276,-0.511812686920166,-1.7685163021087646
1761503584183605200,7.933605224609375,0.17109930515289307,-0.396036297082901,-1.7706135511398315
1761503584193661200,7.9436611328125,0.13766039907932281,-0.3018922209739685,-1.793135404586792
1761503584203718100,7.95371826171875,0.06113339588046074,-0.34762296080589294,-2.0189602375030518
1761503584213774000,7.963774169921875,0.07745617628097534,-0.3703301250934601,-2.6179959774017334
1761503584223830300,7.973830322265625,-0.12904134392738342,-0.4643024206161499,-3.9003288745880127
1761503584233886200,7.98388623046875,-0.425699919462204,-0.0319046713411808,-4.709854602813721
1761503584243942100,7.993942138671875,-0.4032555818557739,0.4859520494937897,-5.15632438659668
1761503584253998300,8.003998291015625,-0.2037946730852127,0.27946653962135315,-5.662762641906738
1761503584264054300,8.01405419921875,0.22168152034282684,-0.6767838001251221,-5.169717788696289
1761503584274110200,8.024110107421874,0.6024834513664246,-0.4458445906639099,-3.5523293018341064
1761503584284166400,8.03416650390625,0.880246102809906,-0.3502799868583679,-2.1755428314208984
1761503584294222300,8.044222412109375,0.8907496333122253,-0.4209727942943573,-1.380091905593872
1761503584304278300,8.0542783203125,0.5508964657783508,-0.5663926005363464,-1.3498141765594482
1761503584314334200,8.064334228515625,0.16037370264530182,-0.6519213318824768,-1.7206734418869019
1761503584324391400,8.074391357421876,-0.032289229333400726,-0.762339174747467,-2.2209160327911377
1761503584334447000,8.084447021484374,0.011901666410267353,-0.6508435606956482,-2.8156964778900146
1761503584344503000,8.0945029296875,0.1052907332777977,-0.6446143984794617,-3.272352933883667
1761503584354559200,8.104559326171875,0.1675059050321579,-0.44635725021362305,-3.4867947101593018
1761503584364615200,8.114615234375,0.2661113142967224,-0.15058179199695587,-3.4299111366271973
1761503584374671000,8.124671142578125,0.38036277890205383,-0.04916808009147644,-3.355238437652588
1761503584384727300,8.134727294921875,0.49734851717948914,-0.05168290063738823,-3.3803956508636475
1761503584394783200,8.144783203125,0.622097909450531,-0.11932692676782608,-3.54125714302063
1761503584404839200,8.154839111328124,0.7772675156593323,-0.3032488226890564,-3.7123782634735107
1761503584414895400,8.164895263671875,1.0368067026138306,-0.9401488304138184,-3.9479076862335205
1761503584424951300,8.174951416015626,1.3156183958053589,-1.4218829870224,-4.014987468719482
1761503584435008300,8.18500830078125,1.4954499006271362,-1.3772766590118408,-3.8856325149536133
1761503584445064200,8.195064208984375,1.7392839193344116,-0.98590487241745,-3.5087106227874756
1761503584455120400,8.205120361328126,1.698771595954895,-0.9029261469841003,-2.9222357273101807
1761503584465176300,8.21517626953125,1.2165535688400269,-0.715644121170044,-2.2167811393737793
1761503584475232300,8.225232177734375,0.6453859210014343,0.004295945167541504,-1.4624847173690796
1761503584485288200,8.2352880859375,0.14799878001213074,0.8624002933502197,-0.8865453004837036
1761503584495344000,8.24534423828125,-0.2159986048936844,1.3690533638000488,-0.7758238315582275
1761503584505400000,8.255400146484375,-0.49971821904182434,1.5649453401565552,-0.7584086060523987
1761503584515456300,8.265456298828125,-0.5693867802619934,1.492770791053772,-0.7382498383522034
1761503584525512200,8.27551220703125,-0.6730718612670898,1.5431479215621948,-0.8276278972625732
1761503584535568100,8.285568115234375,-0.7307916283607483,1.5437843799591064,-0.9345415830612183
1761503584545624300,8.295624267578125,-0.672537624835968,1.4119504690170288,-0.9906343817710876
1761503584555681300,8.305681396484376,-0.6119883060455322,1.3303182125091553,-1.0344032049179077
1761503584565737200,8.3157373046875,-0.5303655862808228,1.4448349475860596,-1.0785176753997803
1761503584575793200,8.325793212890625,-0.4656718373298645,1.5344960689544678,-1.1488109827041626
1761503584585849300,8.335849365234376,-0.4924573600292206,1.4564290046691895,-1.2207109928131104
1761503584595905300,8.3459052734375,-0.5516085624694824,1.500854253768921,-1.2938238382339478
1761503584605961200,8.355961181640625,-0.6152080297470093,1.7233152389526367,-1.267037272453308
1761503584616017400,8.366017333984376,-0.5774513483047485,1.5279537439346313,-0.9851741194725037
1761503584626073300,8.3760732421875,-0.48648175597190857,1.435901403427124,-0.5828484892845154
1761503584636129000,8.38612890625,-0.42716971039772034,1.4092316627502441,-0.2373659461736679
1761503584646185200,8.396185302734375,-0.38154444098472595,1.262891173362732,-0.01931723952293396
1761503584656242400,8.406242431640624,-0.2894134223461151,0.6324173808097839,0.0172042865306139
1761503584666298000,8.416298095703125,-0.13575996458530426,-0.0635259822010994,-0.08804117888212204
1761503584676354000,8.42635400390625,0.05567764490842819,-0.4125737249851227,-0.2560757100582123
1761503584686410200,8.43641015625,0.2209712564945221,-0.585929274559021,-0.47665444016456604
1761503584696466200,8.446466064453125,0.3281552493572235,-0.6063035130500793,-0.7034465670585632
1761503584706522000,8.456522216796875,0.39456862211227417,-0.49350506067276,-0.8953076004981995
1761503584716578300,8.466578369140626,0.4174981713294983,-0.28579846024513245,-1.023629069328308
1761503584726634200,8.47663427734375,0.36576521396636963,-0.013234312646090984,-1.0750070810317993
1761503584736690200,8.486690185546875,0.25341761112213135,0.1716945320367813,-1.0400229692459106
1761503584746746400,8.496746337890626,0.12407960742712021,0.3530310392379761,-0.9327135682106018
1761503584756802300,8.50680224609375,0.030790137127041817,0.5368301272392273,-0.7792036533355713
1761503584766859300,8.516859375,-0.014622085727751255,0.6675820350646973,-0.6264119744300842
1761503584776915200,8.526915283203126,-0.009582586586475372,0.7327448129653931,-0.4653346538543701
1761503584786971400,8.536971435546874,0.05638604238629341,0.7034777402877808,-0.32582923769950867
1761503584797027300,8.54702734375,0.16990168392658234,0.6172435283660889,-0.25372761487960815
1761503584807083300,8.557083251953125,0.2542668879032135,0.5418760180473328,-0.24597887694835663
1761503584817139200,8.56713916015625,0.28970131278038025,0.4420466423034668,-0.27868515253067017
1761503584827195100,8.577195068359375,0.30417001247406006,0.2856365442276001,-0.3261544108390808
1761503584837251000,8.5872509765625,0.3011135160923004,0.05294124409556389,-0.34119006991386414
1761503584847307300,8.597307373046876,0.2774752974510193,-0.1181575357913971,-0.18851958215236664
1761503584857363200,8.60736328125,0.2548336088657379,-0.2628667950630188,-0.028622590005397797
1761503584867419100,8.617419189453125,0.22455081343650818,-0.36860784888267517,0.05600228160619736
1761503584877476000,8.62747607421875,0.20982860028743744,-0.39587223529815674,0.03473028168082237
1761503584887532300,8.6375322265625,0.1520896703004837,-0.39304396510124207,-0.15103638172149658
1761503584897588200,8.647588134765625,0.09149609506130219,-0.3619414269924164,-0.4314850866794586
1761503584907644200,8.65764404296875,0.04821626469492912,-0.27316683530807495,-0.6279584765434265
1761503584917700400,8.667700439453125,0.0031103058718144894,-0.12638217210769653,-0.6543562412261963
