time,seconds_elapsed,z,y,x
1761380429693730800,0.081730712890625,-0.000542779453098774,-0.031234178692102432,-0.018476588651537895
1761380429703814000,0.09181396484375,-0.0008898014202713966,0.007011209614574909,0.005033334717154503
1761380429713895700,0.101895751953125,0.0027518058195710182,0.021996283903717995,0.01488010585308075
1761380429723977700,0.111977783203125,0.001577816903591156,-0.01516858022660017,-0.010126636363565922
1761380429734060800,0.122060791015625,-0.0002174200490117073,-0.010165301151573658,-0.008367884904146194
1761380429744142800,0.132142822265625,0.00037693511694669724,0.01546545885503292,0.0097582396119833
1761380429754225000,0.142224853515625,-0.0028777141124010086,0.005510030314326286,0.005067880265414715
1761380429764307700,0.1523076171875,-0.0019354354590177536,-0.016130708158016205,-0.011279461905360222
1761380429774389800,0.1623896484375,-0.0009490000084042549,0.0033327369019389153,0.0023966694716364145
1761380429784471800,0.172471923828125,0.002430977299809456,0.01195761188864708,0.009984483942389488
1761380429794554600,0.1825546875,-0.0016393978148698807,-0.008934620767831802,-0.004151841625571251
1761380429804636700,0.19263671875,-0.0010460056364536285,-0.00990454200655222,-0.004977617412805557
1761380429814718700,0.20271875,-0.001439887098968029,0.013014622963964939,0.004006290342658758
1761380429824801800,0.2128017578125,-0.0015691258013248444,0.003321817610412836,0.0009154891595244408
1761380429834883600,0.222883544921875,-0.0018213270232081413,-0.00765280332416296,-0.006109130568802357
1761380429844965600,0.232965576171875,0.00006860587745904922,0.0016661682166159153,0.0011075669899582863
1761380429855049000,0.243049072265625,0.000007086433470249176,0.009433543309569359,0.004077523946762085
1761380429865130800,0.253130859375,0.00041129719465970993,-0.004769546911120415,-0.0038780085742473602
1761380429875212500,0.263212646484375,0.0005716197192668915,-0.0036025503650307655,-0.0018995460122823715
1761380429885295900,0.2732958984375,-0.0006857980042695999,0.005867570638656616,0.0022002619225531816
1761380429895378000,0.2833779296875,-0.002072240225970745,0.0023953416384756565,0.002358986297622323
1761380429905460000,0.2934599609375,-0.0004612365737557411,-0.003951008431613445,-0.002260596724227071
1761380429915542800,0.303542724609375,0.00001440383493900299,0.0029721446335315704,-0.00038147042505443096
1761380429925624800,0.313624755859375,-0.0009344909340143204,0.003031761385500431,-0.0015579226892441511
1761380429935707000,0.323706787109375,0.00017338432371616364,-0.0026391735300421715,-0.0024567395448684692
1761380429945789700,0.333789794921875,-0.0001650843769311905,-0.0031264564022421837,-0.0011534567456692457
1761380429955871700,0.343871826171875,0.00009670481085777283,0.0021599181927740574,0.003456474980339408
1761380429965953800,0.353953857421875,-0.0009679440408945084,0.00013649184256792068,-0.00042029411997646093
1761380429976036900,0.364036865234375,0.00012182164937257767,-0.003404713235795498,-0.0008320187916979194
1761380429986119000,0.374118896484375,-0.002009679563343525,0.000018965452909469604,0.0002885810099542141
1761380429996200000,0.384199951171875,-0.0009079296141862869,0.0009667845442891121,0.0005751370918005705
1761380430006282800,0.39428271484375,-0.0017091380432248116,-0.001287875697016716,-0.003691057674586773
1761380430016364800,0.40436474609375,-0.0004044556990265846,-0.00004764087498188019,0.002226486336439848
1761380430026446800,0.41444677734375,-0.000812070444226265,0.0024408060126006603,0.0011920575052499771
1761380430036530000,0.424530029296875,-0.0017151487991213799,-0.002203480340540409,-0.0016348881181329489
1761380430046612000,0.434612060546875,-0.0006326520815491676,-0.002099805511534214,-0.0023836407344788313
1761380430056693800,0.44469384765625,-0.00047685764729976654,-0.00010110344737768173,0.0003982973285019398
1761380430066777000,0.454777099609375,-0.0017143404111266136,0.0035159620456397533,0.0011634293477982283
1761380430076859000,0.46485888671875,-0.0021526971831917763,-0.004288963973522186,-0.0012456661788746715
1761380430086941000,0.47494091796875,0.0025967536494135857,-0.0011482173576951027,-0.00017901184037327766
1761380430097024000,0.48502392578125,-0.0007822653278708458,-0.0008454155176877975,-0.0006344122812151909
1761380430107106000,0.49510595703125,0.0014321980997920036,-0.00034025777131319046,0.0004074219614267349
1761380430117188000,0.50518798828125,0.0009983684867620468,-0.0005786102265119553,0.0015232865698635578
1761380430127271000,0.51527099609375,-0.0004268251359462738,0.0005158735439181328,0.0010620951652526855
1761380430137353000,0.52535302734375,-0.0008209729567170143,0.0002402355894446373,0.0026703779585659504
1761380430147435800,0.535435791015625,0.0007283966988325119,0.0006641745567321777,-0.0005295441951602697
1761380430157517800,0.545517822265625,0.0014184219762682915,-0.0007795253768563271,-0.0001955837942659855
1761380430167599900,0.555599853515625,-0.002804492600262165,0.0025353115051984787,0.0005179478321224451
1761380430177683000,0.565682861328125,-0.00008540507405996323,-0.0020141666755080223,0.00041621504351496696
1761380430187765000,0.575764892578125,0.0015337113291025162,-0.0014230217784643173,0.0010865302756428719
1761380430197846800,0.5858466796875,0.0010418249294161797,-0.0013575078919529915,-0.0026714561972767115
1761380430207929900,0.595929931640625,-0.0002830708399415016,0.0009131496772170067,-0.002867455128580332
1761380430218012000,0.606011962890625,-0.0016490062698721886,-0.0006892746314406395,0.0015411416534334421
1761380430228094000,0.616093994140625,0.00020967796444892883,0.0014509111642837524,0.00023285741917788982
1761380430238176800,0.6261767578125,-0.00029312632977962494,0.0007358528673648834,-0.0016334857791662216
1761380430248258800,0.6362587890625,0.00012857560068368912,0.0017574015073478222,0.0008984426967799664
1761380430258340900,0.6463408203125,0.0009392425417900085,-0.0010397164151072502,0.003240160411223769
1761380430268423700,0.656423583984375,-0.0006219847127795219,-0.0018517905846238136,-0.0012408060720190406
1761380430278505700,0.666505615234375,0.0024675484746694565,-0.000021666288375854492,0.0018465963657945395
1761380430288587800,0.676587890625,-0.0009735273197293282,-0.0021876925602555275,0.000931265763938427
1761380430298671000,0.686671142578125,-0.0011602146551012993,0.000939657911658287,0.002647140296176076
1761380430308753000,0.6967529296875,0.0016869353130459785,-0.00035969819873571396,-0.002801420632749796
1761380430318835000,0.7068349609375,-0.00016902200877666473,-0.0022774413228034973,-0.00000989530235528946
1761380430328918000,0.71691796875,0.0007616626098752022,0.002588117029517889,0.0025687795132398605
1761380430339000000,0.727,0.001879657618701458,0.001770260278135538,-0.0006861359579488635
1761380430349082000,0.73708203125,0.0017634136602282524,0.00044647976756095886,-0.0008908049203455448
1761380430359165000,0.7471650390625,0.0002419501543045044,-0.00015246495604515076,-0.002128908410668373
1761380430369247000,0.7572470703125,-0.000700904056429863,0.0006863921880722046,-0.0017792291473597288
1761380430379329000,0.7673291015625,0.00039472058415412903,0.0010011782869696617,0.00004024244844913483
1761380430389411800,0.777411865234375,0.0006267158314585686,-0.001367359422147274,-0.00006010080687701702
1761380430399494000,0.787493896484375,-0.0009919535368680954,-0.003490963950753212,-0.0006087118526920676
1761380430409576000,0.797575927734375,-0.0010346649214625359,0.0018020691350102425,-0.000012962846085429192
1761380430419659000,0.807658935546875,-0.000347835011780262,0.0006949929520487785,0.0015103654004633427
1761380430429740800,0.81774072265625,0.0007956437766551971,0.0016485541127622128,-0.0018550674431025982
1761380430439822800,0.82782275390625,0.0002659410238265991,0.0003641117364168167,-0.0012308224104344845
1761380430449906000,0.837906005859375,-0.0010324185714125633,0.0005794484168291092,0.0011714792344719172
1761380430459988000,0.847988037109375,-0.0017461460083723068,0.0004124687984585762,-0.0005294816801324487
1761380430470069800,0.85806982421875,0.0016015172004699707,0.0005719969049096107,-0.000155195826664567
1761380430480152800,0.86815283203125,-0.000985744409263134,0.0016015749424695969,-0.0007674564840272069
1761380430490235000,0.87823486328125,-0.00006832368671894073,-0.0010422319173812866,-0.0009938100120052695
1761380430500317000,0.88831689453125,0.0003729620948433876,0.0008419542573392391,0.00133112957701087
1761380430510399700,0.898399658203125,0.0009700125083327293,-0.0019258204847574234,0.0031586666591465473
1761380430520481800,0.908481689453125,0.0010674837976694107,0.0017464119009673595,-0.000261631328612566
1761380430530563800,0.918563720703125,-0.0010489122942090034,0.0008701900951564312,0.00035014119930565357
1761380430540647000,0.92864697265625,-0.000329858623445034,0.0013077473267912865,0.0007477512117475271
1761380430550728700,0.938728759765625,0.0006057759746909142,-0.0003810552880167961,-0.0005867603467777371
1761380430560810800,0.948810791015625,0.001003120094537735,0.0009601120837032795,0.002309161238372326
1761380430570894000,0.95889404296875,-0.000018664635717868805,-0.0015486981719732285,-0.001726449467241764
1761380430580976000,0.96897607421875,0.0003541773185133934,0.0017379093915224075,0.00105841807089746
1761380430591058000,0.979057861328125,0.0010868320241570473,-0.000813792459666729,0.0008483231067657471
1761380430601141000,0.98914111328125,-0.0010852422565221786,0.000041614286601543427,0.00127922254614532
1761380430611223000,0.99922314453125,-0.0010441159829497337,-0.00026076845824718475,0.0008451153989881277
1761380430621305900,1.009305908203125,0.00004378519952297211,0.0007557608187198639,0.0005764025263488293
1761380430631388000,1.019387939453125,0.0009670332074165344,-0.001531842164695263,-0.0012968272203579545
1761380430641470000,1.029469970703125,0.0009044492617249489,-0.0008556656539440155,0.000628904439508915
1761380430651552000,1.039552001953125,0.0015855096280574799,-0.001073921099305153,0.003228008048608899
1761380430661634800,1.049634765625,0.003949597477912903,-0.00039028748869895935,0.0005366175901144743
1761380430671716900,1.059716796875,0.00010656844824552536,0.0016779424622654915,-0.0006992577109485865
1761380430681800000,1.069800048828125,0.00015344005078077316,0.0008803256787359715,-0.0002260140608996153
1761380430691882000,1.079882080078125,-0.0007750065997242928,0.0008577718399465084,0.0006125008221715689
1761380430701963800,1.0899638671875,0.00046709179878234863,0.0004654880613088608,0.0010018548928201199
1761380430712046800,1.100046875,0.0013647731393575668,0.0010969978757202625,0.000002246815711259842
1761380430722129000,1.11012890625,0.0011333441361784935,0.001514581497758627,0.00010211532935500145
1761380430732211000,1.1202109375,-0.0003258548676967621,0.0006678476929664612,0.00030111288651824
1761380430742293800,1.130293701171875,-0.0007349159568548203,-0.0004623979330062866,-0.0021479299757629633
1761380430752375800,1.140375732421875,-0.00011022854596376419,0.0017785374075174332,0.0004063118249177933
1761380430762457900,1.150457763671875,0.0021558552980422974,0.0023029139265418053,0.0014449446462094784
1761380430772541000,1.160541015625,0.0006532222032546997,0.0006236769258975983,-0.00222042971290648
1761380430782622700,1.170622802734375,0.0013198116794228554,-0.0020083244889974594,-0.00009496090933680534
1761380430792704800,1.180704833984375,-0.00015197042375802994,0.0008852444589138031,0.001670905388891697
1761380430802788000,1.1907880859375,0.0011093029752373695,-0.0011070659384131432,-0.0005222077015787363
1761380430812870000,1.200869873046875,0.0013514244928956032,0.00034552812576293945,0.0006083135958760977
1761380430822951700,1.21095166015625,-0.0008928207680583,-0.0008201366290450096,0.000051712850108742714
1761380430833035000,1.221034912109375,0.0011028284206986427,0.0010088863782584667,-0.0013260036939755082
1761380430843117000,1.231116943359375,0.001647711731493473,0.0002490868791937828,-0.001453302800655365
1761380430853199000,1.24119921875,0.0006171884015202522,0.0014282441698014736,0.000991306733340025
1761380430863282000,1.251281982421875,0.000003862194716930389,-0.0019268058240413666,0.000991040375083685
1761380430873364000,1.261364013671875,-0.0001627327874302864,0.000071781687438488,0.0015561142936348915
1761380430883446000,1.271446044921875,0.0029459744691848755,-0.0021943021565675735,-0.0016058566980063915
1761380430893528800,1.28152880859375,-0.0016472125425934792,0.003433091100305319,-0.0002548866905272007
1761380430903611000,1.29161083984375,0.000019127503037452698,0.0016242717392742634,0.002154208952561021
1761380430913693000,1.30169287109375,0.0020059775561094284,-0.00007303804159164429,-0.001720070606097579
1761380430923776000,1.31177587890625,0.00038437824696302414,-0.0016285907477140427,0.0008991484064608812
1761380430933857800,1.32185791015625,-0.001815078780055046,0.002577243372797966,0.001134820282459259
1761380430943939800,1.33193994140625,-0.0013575479388237,-0.001141062006354332,0.0006812838837504387
1761380430954023000,1.34202294921875,0.00047203153371810913,0.0005481503903865814,-0.0018530422821640968
1761380430964105000,1.35210498046875,-0.001500837504863739,0.0006938260048627853,0.001945690717548132
1761380430974187000,1.36218701171875,0.00026705116033554077,0.002547299023717642,-0.00046722032129764557
1761380430984269800,1.372269775390625,0.000045209191739559174,-0.0009968355298042297,-0.0009316756622865796
1761380430994351900,1.382351806640625,0.0005725929513573647,-0.0006691785529255867,0.002704428741708398
1761380431004434000,1.392433837890625,0.0012951083481311798,-0.0012854337692260742,0.00030225724913179874
1761380431014516700,1.402516845703125,0.00021508336067199707,-0.0004541417583823204,-0.002663381863385439
1761380431024598800,1.412598876953125,-0.00006907619535923004,0.0014521493576467037,0.0021825057920068502
1761380431034680800,1.422680908203125,-0.0005780737847089767,0.000848530326038599,0.0009756020735949278
1761380431044764000,1.432763916015625,0.0010709557682275772,-0.0000689290463924408,0.0003023548051714897
1761380431054845700,1.442845703125,-0.0010631438344717026,-0.0012840647250413895,-0.0010277281980961561
1761380431064927700,1.452927734375,0.00038321875035762787,-0.0013114949688315392,-0.0010881819762289524
1761380431075011000,1.463010986328125,-0.000874803401529789,0.0014156214892864227,-0.002706249477341771
1761380431085093000,1.473093017578125,0.0011681076139211655,0.0011921823024749756,0.0021252573933452368
1761380431095176000,1.483176025390625,-0.0010699983686208725,-0.0013293949887156487,-0.0024090490769594908
1761380431105258000,1.493258056640625,0.0012421580031514168,0.0008400161750614643,0.001237350981682539
1761380431115340000,1.503340087890625,0.0001240745186805725,0.0010280823335051537,0.0011675003916025162
1761380431125422800,1.5134228515625,-0.0007121581584215164,0.0010752202942967415,0.00013339496217668056
1761380431135505000,1.5235048828125,-0.0005082227289676666,0.002043037675321102,0.0014710335526615381
1761380431145587000,1.5335869140625,-0.0013103671371936798,-0.0012092143297195435,0.00033333105966448784
1761380431155670000,1.543669921875,-0.001308312639594078,-0.0009908825159072876,-0.001872112276032567
1761380431165751800,1.553751708984375,-0.0014124419540166855,0.0013305949978530407,-0.004143788479268551
1761380431175833900,1.563833740234375,-0.0006772521883249283,0.0025616311468183994,0.0020115389488637447
1761380431185917000,1.5739169921875,-0.0010516922920942307,0.00267135351896286,-0.00095495639834553
1761380431195999000,1.5839990234375,0.0010830974206328392,-0.0010631969198584557,-0.0024279507342725992
1761380431206081000,1.5940810546875,0.001303606666624546,-0.0002919454127550125,0.0001808817032724619
1761380431216163800,1.604163818359375,-0.0006935559213161469,0.0008877413347363472,0.0006828880868852139
1761380431226246000,1.614245849609375,0.0013528168201446533,0.00032714568078517914,-0.0013336575357243419
1761380431236328000,1.624327880859375,-0.00047283805906772614,-0.0003530411049723625,0.0017890799790620804
1761380431246410800,1.63441064453125,0.0006403634324669838,0.001625953707844019,0.002726512961089611
1761380431256492800,1.644492919921875,0.000561172142624855,-0.0010067205876111984,0.0027324333786964417
1761380431266574800,1.654574951171875,0.00023733172565698624,0.0010199453681707382,0.0004264020826667547
1761380431276658000,1.664657958984375,0.0003131059929728508,0.0002456093207001686,0.0004550276789814234
1761380431286739700,1.67473974609375,-0.00164724700152874,0.0005175182595849037,-0.0006163619691506028
1761380431296821800,1.68482177734375,0.00048059411346912384,0.0007423553615808487,-0.00023936200886964798
1761380431306904800,1.69490478515625,0.0017008539289236069,0.00028349272906780243,-0.0015773341292515397
1761380431316987000,1.70498681640625,-0.00030814576894044876,0.001711499411612749,0.001193398842588067
1761380431327069000,1.71506884765625,-0.0016067028045654297,0.00039323512464761734,-0.0007943845121189952
1761380431337152000,1.725152099609375,-0.000449194572865963,-0.00007598008960485458,-0.000269479351118207
1761380431347234000,1.735234130859375,-0.0009378846734762192,0.0011613243259489536,-0.0020932122133672237
1761380431357316000,1.745316162109375,0.0008149370551109314,0.0003206999972462654,-0.0023069793824106455
1761380431367399000,1.75539892578125,-0.0021797874942421913,0.0018869047053158283,0.00018041301518678665
1761380431377481000,1.76548095703125,-0.00089273601770401,0.0007164245471358299,-0.0004973600152879953
1761380431387563000,1.77556298828125,0.00033178552985191345,-0.0013744235038757324,-0.0009053562534973025
1761380431397645800,1.785645751953125,0.0010324548929929733,-0.00048271380364894867,-0.0012830088380724192
1761380431407727900,1.795727783203125,0.00080155860632658,0.002746901474893093,0.0009599053300917149
1761380431417810000,1.805809814453125,0.0005842205137014389,0.0005203969776630402,0.00016755261458456516
1761380431427893000,1.81589306640625,0.0002340143546462059,-0.0032157516106963158,-0.0003525626379996538
1761380431437975000,1.82597509765625,0.0007623070850968361,-0.0012269262224435806,-0.0001475780736654997
1761380431448056800,1.836056884765625,-0.0006771311163902283,0.00025645457208156586,-0.001980631845071912
1761380431458140000,1.846139892578125,0.0006815632805228233,-0.001696813851594925,-0.000567874638363719
1761380431468222000,1.856221923828125,0.001927124336361885,0.0012859264388680458,0.00011176406405866146
1761380431478304000,1.866303955078125,0.0001141158863902092,0.0006872890517115593,-0.0004987276624888182
1761380431488386800,1.87638671875,-0.0006350306794047356,-0.0010927673429250717,-0.00035518337972462177
1761380431498468900,1.88646875,-0.0016274238005280495,0.0018458501435816288,0.0003003217279911041
1761380431508551000,1.896551025390625,0.0020141825079917908,-0.00147244893014431,0.0006835507228970528
1761380431518633700,1.9066337890625,-0.0007456764578819275,0.0024828403256833553,0.0009904142934828997
1761380431528715800,1.9167158203125,-0.0004972033202648163,-0.001648787409067154,0.0005150402430444956
1761380431538798800,1.926798828125,0.0014791032299399376,0.002048872411251068,0.00012383447028696537
1761380431548881000,1.936880859375,0.0012239720672369003,-0.00033066142350435257,-0.00143890839535743
1761380431558963000,1.946962890625,0.0013420069590210915,-0.000726175494492054,-0.00018086121417582035
1761380431569046000,1.9570458984375,0.00018486380577087402,0.0004709158092737198,-0.0008093671640381217
1761380431579127800,1.9671279296875,0.0006892960518598557,0.0016698348335921764,0.0027657633181661367
1761380431589209900,1.9772099609375,0.0010605407878756523,-0.0008279439061880112,-0.001023115823045373
1761380431599293000,1.98729296875,-0.0002064034342765808,-0.001693878322839737,0.002483946969732642
1761380431609375000,1.997375,0.0006772326305508614,-0.0007729576900601387,-0.0018261127406731248
1761380431619457000,2.00745703125,-0.001553945243358612,0.000698932446539402,0.0027255837339907885
1761380431629539800,2.017539794921875,-0.0011203819885849953,-0.0018081674352288246,0.0015876151155680418
1761380431639622000,2.027621826171875,0.00043233204632997513,0.0014981646090745926,-0.0016854142304509878
1761380431649704000,2.037703857421875,-0.0006414549425244331,-0.00011144950985908508,0.0015937360003590584
1761380431659787000,2.047787109375,-0.0011140545830130577,0.00004515796899795532,0.00005434034392237663
1761380431669869000,2.057869140625,-0.0010927487164735794,0.0015482460148632526,-0.0008316934108734131
1761380431679950800,2.067950927734375,0.0005021654069423676,0.0013589868322014809,-0.0005331479478627443
1761380431690034000,2.078033935546875,-0.0009180987253785133,0.001099062617868185,0.0006192019209265709
1761380431700116000,2.088115966796875,0.0007135169580578804,-0.0018941368907690048,-0.0021873507648706436
1761380431710198000,2.098197998046875,-0.00020980089902877808,0.0008632997050881386,0.002186358906328678
1761380431720280800,2.10828076171875,0.000053052790462970734,-0.0003890572115778923,-0.0004146480932831764
1761380431730363000,2.11836279296875,0.0008714422583580017,0.001465036068111658,-0.002168872393667698
1761380431740445000,2.12844482421875,0.0004324810579419136,0.0007113134488463402,-0.001295333611778915
1761380431750527700,2.13852783203125,0.0007589850574731827,-0.0013196133077144623,0.0003302600234746933
1761380431760609800,2.14860986328125,-0.001411018893122673,0.0016872300766408443,0.0012453394010663033
1761380431770691800,2.15869189453125,0.000009777955710887909,0.001748216338455677,0.0008381421212106943
1761380431780775000,2.16877490234375,0.000550013966858387,-0.0005180602893233299,-0.00017437105998396873
1761380431790857000,2.17885693359375,0.00010153744369745255,0.0012582684867084026,0.0014562825672328472
1761380431800938800,2.188938720703125,-0.0008298186585307121,-0.003324788063764572,-0.000536505482159555
1761380431811021800,2.199021728515625,0.0008647507056593895,-0.001187867484986782,-0.0025037825107574463
1761380431821103900,2.209103759765625,-0.0008756294846534729,-0.0005698045715689659,-0.00013508484698832035
1761380431831186000,2.21918603515625,-0.0006069168448448181,-0.0011327965185046196,-0.002990526147186756
1761380431841269000,2.22926904296875,0.001723053865134716,0.0010983501560986042,0.0007592993788421154
1761380431851351000,2.23935107421875,0.0008343569934368134,0.0015771863982081413,0.0020344210788607597
1761380431861432800,2.249432861328125,0.0006228629499673843,-0.00018583238124847412,-0.0008400750812143087
1761380431871516000,2.259515869140625,0.001173870638012886,0.0002969987690448761,-0.0006469959625974298
1761380431881598000,2.269597900390625,-0.0001484425738453865,0.0007296139374375343,-0.000781334238126874
1761380431891680000,2.279679931640625,-0.0006310073658823967,0.0020478786900639534,0.0021758400835096836
1761380431901763000,2.28976318359375,0.0002638278529047966,0.0002061799168586731,0.0016030932310968637
1761380431911844900,2.299844970703125,-0.0019820155575871468,0.0036429893225431442,0.00003688829019665718
1761380431921927000,2.309927001953125,0.0008760318160057068,0.00033805426210165024,0.0014216476120054722
1761380431932010000,2.320010009765625,0.002687780186533928,0.0016842824406921864,0.0011018021032214165
1761380431942092000,2.330092041015625,0.0008683372288942337,-0.002687503583729267,0.0010077788028866053
1761380431952174800,2.3401748046875,0.0004946952685713768,0.0012081684544682503,-0.0012218195479363203
1761380431962257000,2.3502568359375,-0.0010181637480854988,-0.0007555615156888962,0.0014433579053729773
1761380431972339000,2.3603388671875,-0.0019537322223186493,0.0010468652471899986,-0.0029465968254953623
1761380431982421000,2.3704208984375,0.0005855467170476913,-0.00037540681660175323,0.0005308703985065222
1761380431992503800,2.38050390625,0.0006926059722900391,0.002429966814815998,0.00024697743356227875
1761380432002585900,2.3905859375,-0.00002770218998193741,0.0015270765870809555,0.0019340405706316233
1761380432012669000,2.4006689453125,0.0007821656763553619,-0.0003650989383459091,0.00013374397531151772
1761380432022751000,2.4107509765625,-0.0005521839484572411,-0.0027284445241093636,-0.0017442605458199978
1761380432032832800,2.420832763671875,-0.002968735992908478,0.0024799001403152943,-0.00005475129000842571
1761380432042915800,2.430915771484375,0.0010253563523292542,0.0008010333403944969,-0.0007743065943941474
1761380432052998000,2.440997802734375,-0.00031155068427324295,0.0024846838787198067,0.0017991058994084597
1761380432063080000,2.451079833984375,-0.0005028434097766876,-0.0002978779375553131,-0.0008153308881446719
1761380432073162800,2.461162841796875,0.0009190188720822334,-0.0019863219931721687,-0.001559151802212
1761380432083244800,2.471244873046875,0.0016876766458153725,0.0010503013618290424,-0.001425907714292407
1761380432093326800,2.481326904296875,-0.0004359278827905655,0.0016516433097422123,0.0010633489582687616
1761380432103409700,2.49140966796875,0.0008198721334338188,0.002640245947986841,-0.0015186150558292866
1761380432113491700,2.50149169921875,0.00020308420062065125,-0.0014588916674256325,-0.0006387066096067429
1761380432123573800,2.51157373046875,0.00047498103231191635,-0.002363624982535839,0.0016395596321672201
1761380432133656800,2.52165673828125,0.00109816063195467,-0.0001737074926495552,0.00021183909848332405
1761380432143738600,2.531738525390625,0.000009148381650447845,0.0035395598970353603,-0.00029769097454845905
1761380432153820700,2.541820556640625,-0.0007663648575544357,-0.000677822157740593,0.001345213269814849
1761380432163903700,2.55190380859375,0.0015140455216169357,0.00018075201660394669,-0.00002280157059431076
1761380432173985800,2.56198583984375,-0.0005267355591058731,-0.001592913642525673,0.0020872207824140787
1761380432184067800,2.57206787109375,-0.0003454592078924179,0.0008734734728932381,0.0004074948374181986
1761380432194150700,2.582150634765625,-0.00027967896312475204,-0.0006027165800333023,0.000022934284061193466
1761380432204232700,2.592232666015625,-0.0017998674884438515,-0.000016821548342704773,-0.001929081161506474
1761380432214314800,2.602314697265625,0.0007170857861638069,-0.0030403081327676773,0.000403581652790308
1761380432224397800,2.612397705078125,-0.000610831193625927,-0.0013437215238809586,-0.002308654598891735
1761380432234479600,2.622479736328125,-0.0003578308969736099,-0.00201457180082798,-0.0011070363689213991
1761380432244561700,2.632561767578125,0.00002202112227678299,0.0013561495579779148,-0.0017871884629130363
1761380432254645000,2.64264501953125,0.0005479957908391953,-0.00250863004475832,0.0012794414069503546
1761380432264726800,2.652726806640625,1.210719347000122e-8,0.0005703158676624298,-0.002255077473819256
1761380432274808800,2.662808837890625,-0.0015970859676599503,-0.0014369087293744087,-0.002714206464588642
1761380432284892000,2.672891845703125,0.000695069320499897,-0.00004692934453487396,0.0013616322539746761
1761380432294974000,2.682973876953125,0.0008199717849493027,0.0005474882200360298,0.0007898514159023762
1761380432305055700,2.6930556640625,0.0003782147541642189,-0.0008001299574971199,-0.003005203790962696
1761380432315138800,2.703138916015625,0.0015382878482341766,-0.0012648515403270721,0.0005162940360605717
1761380432325220900,2.713220947265625,-0.0029488513246178627,-0.00023931171745061874,0.0000392089132219553
1761380432335303000,2.723302978515625,-0.0029099686071276665,0.001510651782155037,-0.00003216369077563286
1761380432345385700,2.7333857421875,-0.0013206610456109047,-0.0008584428578615189,0.0003091373946517706
1761380432355467800,2.7434677734375,-0.00315744336694479,-0.0005508484318852425,-0.002633921802043915
1761380432365549800,2.7535498046875,-0.0018005752936005592,0.00019774120301008224,-0.0007172304904088378
1761380432375632600,2.763632568359375,-0.0008237278088927269,-0.0014502229169011116,0.0017760209739208221
1761380432385714700,2.773714599609375,0.000986422412097454,-0.0013462230563163757,-0.003907183650881052
1761380432395796700,2.783796630859375,0.0008495356887578964,-0.0016615409404039383,-0.000312981428578496
1761380432405879800,2.7938798828125,-0.0007308181375265121,-0.0010992251336574554,-0.0017289705574512482
1761380432415961900,2.8039619140625,0.0007291268557310104,-0.0025839367881417274,0.0005440374370664358
1761380432426043600,2.814043701171875,-0.0012537753209471703,-0.0004804655909538269,0.0020474460907280445
1761380432436126700,2.824126708984375,-0.0008758725598454475,-0.00028419122099876404,0.0010980293154716492
1761380432446208800,2.834208740234375,0.00027579162269830704,-0.0016910787671804428,-0.0008913867641240358
1761380432456290800,2.844290771484375,-0.00021316483616828918,0.0008865953423082829,-0.0030895599629729986
1761380432466373600,2.85437353515625,0.0001892000436782837,-0.001228606328368187,0.0006291298195719719
1761380432476455700,2.86445556640625,0.0004051821306347847,0.00005956459790468216,0.0008139533456414938
1761380432486537700,2.874537841796875,0.000913902185857296,0.000012093223631381989,-0.0017102088313549757
1761380432496620800,2.884620849609375,0.0006196228787302971,0.0012193047441542149,-0.0018907712073996663
1761380432506702600,2.89470263671875,-0.0021108444780111313,-0.001558941788971424,-0.0006611457793042064
1761380432516784600,2.90478466796875,-0.0005073556676506996,-0.00040179863572120667,0.0009218372870236635
1761380432526868000,2.914867919921875,0.0012448029592633247,0.0006478447467088699,-0.00044929340947419405
1761380432536949800,2.92494970703125,-0.0007903845980763435,0.002853741403669119,0.0001786800567060709
1761380432547031800,2.93503173828125,-0.0019185040146112442,-0.004641923122107983,-0.0016930301208049059
1761380432557115000,2.945114990234375,-0.0022085225209593773,0.0004849284887313843,0.002579479245468974
1761380432567197000,2.955197021484375,-0.0008227778598666191,0.001240587793290615,0.0008630601223558187
1761380432577279000,2.965279052734375,0.0016507664695382118,0.0008775987662374973,0.00014453940093517303
1761380432587361800,2.97536181640625,-0.00020851194858551025,-0.000586620531976223,0.00008033472113311291
1761380432597443800,2.98544384765625,-0.0001784181222319603,0.00032178405672311783,0.00010190624743700027
1761380432607526700,2.995526611328125,0.0010620392858982086,-0.00009735766798257828,-0.0006072873948141932
1761380432617608700,3.005608642578125,0.002862602472305298,0.0001284778118133545,-0.00041553983464837074
1761380432627690800,3.015690673828125,-0.0005844868719577789,-0.0011000791564583778,-0.0012265696423128247
1761380432637772800,3.025772705078125,-0.0000598439946770668,0.0034043919295072556,0.0007513600867241621
1761380432647855900,3.03585595703125,0.0013050753623247147,-0.0007161544635891914,-0.0020555388182401657
1761380432657937700,3.045937744140625,-0.0021029720082879066,0.001564843114465475,0.0006795276422053576
1761380432668019700,3.056019775390625,0.0019648605957627296,0.0003186231479048729,-0.003780095838010311
1761380432678102800,3.066102783203125,-0.001565159298479557,0.000020349398255348206,-0.0005435561761260033
1761380432688184800,3.076184814453125,-0.00284721702337265,0.001073742751032114,-0.0012688545975834131
1761380432698267600,3.086267578125,-0.002912730909883976,-0.00039552338421344757,0.002197515917941928
1761380432708349700,3.096349609375,-0.0017357496544718742,0.0020547332242131233,0.0006692642346024513
1761380432718431700,3.106431640625,-0.0020625190809369087,0.000761501956731081,0.0021883314475417137
1761380432728514600,3.1165146484375,-0.0013820165768265724,-0.000537993386387825,-0.00019965879619121552
1761380432738596600,3.1265966796875,0.0009048394858837128,0.00024337787181138992,-0.0018513512331992388
1761380432748678700,3.1366787109375,0.001846075989305973,-0.0008309260010719299,0.0010923370718955994
1761380432758762000,3.146761962890625,0.00098507571965456,0.004730819724500179,-0.00023578153923153877
1761380432768843800,3.15684375,-0.00029880739748477936,0.00008316058665513992,0.00027483911253511906
1761380432778925800,3.16692578125,-0.0016961684450507164,0.000015783123672008514,-0.0009784444700926542
1761380432789009000,3.1770087890625,-0.0017439080402255058,-0.0010511279106140137,0.0010962528176605701
1761380432799091000,3.187091064453125,-0.0013814521953463554,-0.0003152964636683464,-0.0012971300166100264
1761380432809173000,3.197173095703125,-0.000756317749619484,0.0015604984946548939,-0.0004913895390927792
1761380432819255800,3.207255859375,0.0003640735521912575,0.001062754075974226,-0.0015193696599453688
1761380432829337900,3.217337890625,0.0006700176745653152,-0.0017223181203007698,-0.003873309586197138
1761380432839420000,3.227419921875,-0.0010695597156882286,-0.0025689369067549706,-0.0019353274255990982
1761380432849502700,3.237502685546875,0.0012922529131174088,-0.00019932910799980164,0.001388551201671362
1761380432859584800,3.247584716796875,0.002038470469415188,-0.0008776355534791946,0.0016466113738715649
1761380432869666800,3.257666748046875,0.0005468819290399551,0.0003928784281015396,-0.00006326567381620407
1761380432879750000,3.26775,-0.0019327877089381218,-0.0021658865734934807,-0.003994091413915157
1761380432889831700,3.277831787109375,-0.00020714662969112396,-0.0001805247738957405,0.00030698953196406364
1761380432899913700,3.287913818359375,0.0012709079310297966,-0.0014572441577911377,-0.0007939612260088325
1761380432909996800,3.297996826171875,-0.000022355467081069946,0.0007551554590463638,0.0015232544392347336
1761380432920078800,3.308078857421875,-0.0008314242586493492,-0.000898933969438076,0.0011075350921601057
1761380432930160600,3.31816064453125,0.0018655899912118912,0.0024259379133582115,0.0014289692044258118
1761380432940243700,3.32824365234375,-0.0008242027834057808,-0.0012574801221489906,-0.0012877214467152953
1761380432950325800,3.33832568359375,0.0006680432707071304,-0.0011609997600317001,-0.002154424088075757
1761380432960407800,3.34840771484375,-0.002759711816906929,-0.000025694258511066437,0.00007890281267464161
1761380432970490600,3.35849072265625,0.0022557415068149567,0.001940081361681223,-0.003725367598235607
1761380432980572700,3.36857275390625,0.001728702336549759,0.0003272704780101776,0.0010363643523305655
1761380432990654700,3.37865478515625,0.001213272102177143,0.00117543525993824,0.0029901594389230013
1761380433000738600,3.388738525390625,-0.00112098827958107,-0.0006328513845801353,0.00225965422578156
1761380433010820600,3.398820556640625,0.00043010246008634567,0.0010044677183032036,0.0016297830734401941
1761380433020902700,3.408902587890625,-0.0014524860307574272,-0.0005385680124163628,0.0028835993725806475
1761380433030985500,3.4189853515625,-0.00019231531769037247,-0.0006720004603266716,0.00019694003276526928
1761380433041067500,3.429067626953125,0.002721448428928852,-0.0028850873932242393,0.0008779102936387062
1761380433051149600,3.439149658203125,-0.0012495443224906921,0.0035457457415759563,-0.001604321296326816
1761380433061232600,3.449232666015625,-0.0023781917989253998,-0.0016234498471021652,-0.001419231528416276
1761380433071314700,3.459314697265625,-0.0011626007035374641,-0.00045723188668489456,-0.0015321115497499704
1761380433081396500,3.469396484375,0.000021440908312797546,-0.0012412667274475098,-0.0022162776440382004
1761380433091479600,3.4794794921875,0.0011583361774682999,-0.00017309654504060745,0.0009744616691023111
1761380433101561600,3.4895615234375,0.00016657449305057526,-0.0014554085209965706,0.00047059147618710995
1761380433111643600,3.4996435546875,-0.0010032476857304573,0.0014700633473694324,0.00010604364797472954
1761380433121726500,3.5097265625,0.0015422012656927109,-0.0012354422360658646,0.00030125328339636326
1761380433131808500,3.51980859375,0.000961734913289547,-0.0007544048130512238,0.0008725572843104601
1761380433141890600,3.529890625,-0.000441218726336956,0.0000669136643409729,0.0004496471956372261
1761380433151973400,3.539973388671875,-0.00019241590052843094,0.0014111599884927273,-0.0022574891336262226
1761380433162055400,3.550055419921875,-0.0008270470425486565,0.0015829335898160934,-0.000637488323263824
1761380433172137500,3.560137451171875,-0.0022777756676077843,0.00009909365326166153,0.0005046306177973747
1761380433182220500,3.570220458984375,-0.0014687078073620796,0.0013166912831366062,-0.0007366687059402466
1761380433192302600,3.580302490234375,0.00037240609526634216,-0.00002029258757829666,-0.00211579748429358
1761380433202384400,3.59038427734375,-0.00012533832341432571,0.00014961697161197662,0.0005273898132145405
1761380433212467500,3.600467529296875,-0.0011457232758402824,0.0008128168992698193,-0.000025947345420718193
1761380433222549500,3.610549560546875,0.00007959641516208649,0.0037308423779904842,0.001247576205059886
1761380433232631600,3.620631591796875,0.00003219489008188248,-0.0015382152050733566,-0.0014367152471095324
1761380433242714600,3.630714599609375,0.0017243679612874985,0.00009856373071670532,-0.0006774479988962412
1761380433252796400,3.64079638671875,0.0009806305170059204,-0.001200634054839611,0.0003748196177184582
1761380433262878500,3.65087841796875,0.0021116742864251137,0.0010537318885326385,-0.001722952350974083
1761380433272961500,3.66096142578125,-0.0001057526096701622,-0.00002223718911409378,-0.00016579660587012768
1761380433283043600,3.671043701171875,-0.0022456031292676926,0.0009378320537507534,-0.00002784491516649723
1761380433293125600,3.681125732421875,-0.0014218473806977272,-0.0013094758614897728,0.0001307863276451826
1761380433303208700,3.691208740234375,0.0010429080575704575,-0.0012788493186235428,-0.0006122355116531253
1761380433313290500,3.70129052734375,0.002081175334751606,0.0007549081929028034,-0.0028754202648997307
1761380433323372500,3.71137255859375,0.0019125966355204582,0.0011748885735869408,-0.0025867335498332977
1761380433333455600,3.72145556640625,0.0015966249629855156,0.002646204549819231,0.000637540128082037
1761380433343537700,3.73153759765625,-0.0005043428391218185,-0.002122185193002224,0.0029361145570874214
1761380433353619500,3.741619384765625,-0.0006116777658462524,0.00040347781032323837,0.0010184173006564379
1761380433363702500,3.75170263671875,0.002013666555285454,0.001041571144014597,0.00025195954367518425
1761380433373784600,3.76178466796875,0.0005765920504927635,0.00017571263015270233,0.00001759268343448639
1761380433383866600,3.77186669921875,0.00003889948129653931,0.0029920050874352455,0.0021742205135524273
1761380433393949400,3.781949462890625,0.00020230282098054886,-0.0014083515852689743,0.0008232612162828445
1761380433404031500,3.792031494140625,0.0025490811094641685,0.001606878824532032,0.00039529125206172466
1761380433414113500,3.802113525390625,-0.00008336827158927917,0.0003183474764227867,0.0005464877467602491
1761380433424196600,3.812196533203125,-0.00041599757969379425,0.00012100674211978912,0.0006759173702448606
1761380433434278400,3.8222783203125,0.00007026083767414093,-0.0020353859290480614,-0.00019720057025551796
1761380433444360400,3.8323603515625,-0.0011446727439761162,-0.00184576865285635,0.000627047847956419
1761380433454443500,3.842443603515625,-0.002148544415831566,0.0005348892882466316,-0.0011489138705655932
1761380433464525600,3.852525634765625,0.00016494374722242355,-0.0018462426960468292,0.00032221642322838306
1761380433474607400,3.862607421875,-0.0026336461305618286,0.00009922310709953308,-0.0017352108843624592
1761380433484690400,3.8726904296875,-0.0010282928124070168,0.0003721965476870537,-0.00036581349559128284
1761380433494772500,3.8827724609375,-0.0007930463179945946,-0.0006170831620693207,-0.00038883904926478863
1761380433504854500,3.8928544921875,-0.00042606331408023834,-0.000263947993516922,0.003334260080009699
1761380433514937600,3.9029375,0.0008233329281210899,0.00033297017216682434,-0.0004764313343912363
1761380433525019600,3.91301953125,-0.00182358268648386,-0.00012429431080818176,0.0003534096758812666
1761380433535101400,3.923101318359375,0.0007524257525801659,-0.0007109884172677994,-0.0019681700505316257
1761380433545184500,3.9331845703125,-0.000551990233361721,-0.0005975374951958656,0.0017954090144485235
1761380433555266600,3.9432666015625,0.0009587332606315613,0.001339790876954794,-0.0003605943638831377
1761380433565348600,3.9533486328125,-0.000559534877538681,-0.0014344239607453346,-0.0007832379778847098
1761380433575431700,3.963431640625,0.001100427471101284,0.0002604760229587555,-0.0015572961419820786
1761380433585513500,3.973513427734375,-0.0010649887844920158,-0.00014938507229089737,-0.00007897545583546162
1761380433595595500,3.983595458984375,0.00018105749040842056,-0.0012636641040444374,0.0011496571823954582
1761380433605678600,3.9936787109375,-0.0008458569645881653,0.001902302261441946,0.00012833485379815102
1761380433615760600,4.0037607421875,0.000031055882573127747,0.00019227806478738785,0.0008185338228940964
1761380433625842700,4.0138427734375,0.0017975308001041412,0.001209871843457222,0.0015839266125112772
1761380433635925500,4.023925537109375,0.00006053503602743149,0.0016632946208119392,0.0011233671102672815
1761380433646007600,4.034007568359375,0.0011609531939029694,0.00029283203184604645,0.001781700411811471
1761380433656089600,4.044089599609375,0.0020167510956525803,0.002245522104203701,0.00012915092520415783
1761380433666172400,4.05417236328125,-0.0004911478608846664,0.0037565999664366245,0.0016319728456437588
1761380433676254500,4.06425439453125,0.002191624604165554,-0.0004921704530715942,0.0011650377418845892
1761380433686336500,4.07433642578125,0.001188145950436592,-0.0015353308990597725,0.0019061954226344824
1761380433696419600,4.084419677734375,0.0006740977987647057,-0.0035286154597997665,-0.0010382139589637518
1761380433706501400,4.09450146484375,-0.00020181573927402496,-0.0012907609343528748,-0.001773512689396739
1761380433716583400,4.10458349609375,0.00017943605780601501,-0.0003366982564330101,0.0022506839595735073
1761380433726666500,4.11466650390625,0.0009173983708024025,-0.0013843858614563942,0.000004041474312543869
1761380433736748500,4.12474853515625,-0.0019391002133488655,0.0008792085573077202,-0.00024212663993239403
1761380433746830300,4.134830322265625,-0.0035511115565896034,0.0011620363220572472,0.000315006822347641
1761380433756913400,4.144913330078125,-0.0001466311514377594,0.0014853114262223244,-0.0003354439977556467
1761380433766995500,4.154995361328125,0.003081653267145157,0.0008453535847365856,-0.0037568071857094765
1761380433777077500,4.165077392578125,0.000022782012820243835,-0.0012674778699874878,0.0010727036278694868
1761380433787160600,4.17516064453125,0.0034936806187033653,0.0000028507784008979797,0.00024845520965754986
1761380433797242600,4.18524267578125,0.0012425100430846214,-0.0011009657755494118,0.0024561581667512655
1761380433807324700,4.19532470703125,-0.0013274410739541054,-0.0005156025290489197,-0.0007963603129610419
1761380433817407500,4.205407470703125,0.0008365046232938766,0.0013067428953945637,-0.0018287760904058814
1761380433827489500,4.215489501953125,-0.0005704434588551521,-0.000981179066002369,0.0005001581739634275
1761380433837571600,4.225571533203125,-0.0022959941998124123,0.0005981810390949249,0.00009083445183932781
1761380433847654700,4.235654541015625,0.0012942133471369743,0.0003678174689412117,0.0001310482621192932
1761380433857736700,4.24573681640625,0.0012233825400471687,0.0006559062749147415,-0.00044187833555042744
1761380433867818500,4.255818603515625,-0.00007197912782430649,-0.0018895436078310013,0.003832228947430849
1761380433877901600,4.265901611328125,-0.0001803738996386528,0.00005644746124744415,0.000561463413760066
1761380433887983600,4.275983642578125,0.0012047365307807922,-0.0017222771421074867,0.002600113395601511
1761380433898065700,4.286065673828125,0.0018102144822478294,0.0014435360208153725,0.0009982914198189974
1761380433908148500,4.2961484375,0.00034707318991422653,0.0006674909964203835,0.0010757893323898315
1761380433918230500,4.30623046875,0.00010540802031755447,0.0007049399428069592,0.003085122210904956
1761380433928312600,4.3163125,0.00028836727142333984,-0.00006631109863519669,0.0009615174494683743
1761380433938394600,4.32639453125,0.0009028268977999687,0.0012691300362348557,-0.0003003510646522045
1761380433948477400,4.3364775390625,-0.001814396120607853,0.0037490655668079853,-0.001316347043029964
1761380433958559500,4.3465595703125,0.0005739275366067886,0.0006613209843635559,-0.0007563024992123246
1761380433968641500,4.3566416015625,0.00010760780423879623,-0.0005365693941712379,-0.0018913417588919401
1761380433978724400,4.366724365234375,0.0016242051497101784,-0.00289028137922287,-0.0007587969303131104
1761380433988806400,4.376806396484375,0.0010708002373576164,0.0008389432914555073,0.0011783863883465528
1761380433998891500,4.3868916015625,0.000035157427191734314,-0.00011449307203292847,-0.002383219311013818
1761380434008974600,4.396974609375,-0.0004910826683044434,0.0024056565016508102,-0.002181351650506258
1761380434019056600,4.407056640625,-0.001954442821443081,-0.0013552112504839897,0.003284842474386096
1761380434029138700,4.417138671875,-0.0009853187948465347,-0.0012806421145796776,-0.0013980597723275423
1761380434039221500,4.427221435546875,-0.0018155062571167946,-0.0005190055817365646,-0.00009304704144597054
1761380434049303600,4.437303466796875,0.0011081118136644363,0.0020956858061254025,0.0022193759214133024
1761380434059385600,4.447385498046875,-0.000874190591275692,-0.0006665373221039772,-0.000507464399561286
1761380434069468400,4.457468505859375,0.0004014633595943451,0.0011579948477447033,-0.00024620839394629
1761380434079550500,4.467550537109375,-0.00009211525321006775,-0.0009233914315700531,-0.001810596790164709
1761380434089632500,4.477632568359375,-0.0002811998128890991,0.0023059574887156487,0.003334896871820092
1761380434099715600,4.487715576171875,-0.002560315653681755,-0.0004677930846810341,-0.0003437031991779804
1761380434109797400,4.49779736328125,-0.0013877255842089653,0.0018355753272771835,0.002314131474122405
1761380434119879400,4.50787939453125,-0.0000204453244805336,-0.00020663347095251083,0.0000683784019201994
1761380434129962500,4.51796240234375,0.00014893151819705963,0.0008833985775709152,-0.00013242405839264393
1761380434140044500,4.52804443359375,-0.0012752236798405647,-0.0011568842455744743,-0.00018955301493406296
1761380434150126300,4.538126220703125,0.0011948579922318459,-0.00338861346244812,0.0015750573948025703
1761380434160209400,4.54820947265625,0.000013637356460094452,-0.001822768710553646,0.0010655052028596401
1761380434170291500,4.55829150390625,-0.00023270491510629654,-0.0014211637899279594,0.0003475169651210308
1761380434180373500,4.56837353515625,0.00034488923847675323,0.0006254976615309715,-0.002257529878988862
1761380434190456600,4.57845654296875,-0.0012141251936554909,-0.0012512318789958954,-0.00030996021814644337
1761380434200538600,4.58853857421875,-0.0019373521208763123,-0.0014858050271868706,-0.00039172545075416565
1761380434210620700,4.59862060546875,-0.004102502018213272,0.00034325476735830307,0.001136662671342492
1761380434220703500,4.608703369140625,-0.0003887740895152092,-0.00020860787481069565,-0.0015054307878017426
1761380434230785500,4.61878564453125,-0.0009150141850113869,0.001963465940207243,0.0013691852800548077
1761380434240867600,4.62886767578125,0.0005817506462335587,-0.003175009973347187,0.0008478355593979359
1761380434250950700,4.63895068359375,-0.0002973582595586777,0.001651969738304615,0.000979662174358964
1761380434261032700,4.64903271484375,-0.0020312070846557617,0.0017378623597323895,-0.00014907261356711388
1761380434271114500,4.659114501953125,-0.0019771456718444824,0.0001887017861008644,-0.003083343617618084
1761380434281197600,4.669197509765625,-0.00010780524462461472,0.00008929800242185593,0.0003502769395709038
1761380434291279600,4.679279541015625,0.0007289601489901543,-0.0006241630762815475,0.00006212294101715088
1761380434301361700,4.689361572265625,-0.0018539037555456161,0.00005806516855955124,0.004076696000993252
1761380434311444500,4.699444580078125,-0.002426750026643276,-0.0012908261269330978,-0.0024855989031493664
1761380434321526500,4.709526611328125,0.00010755378752946854,0.0008863704279065132,0.0010621384717524052
1761380434331608600,4.719608642578125,0.0011336691677570343,0.00015320256352424622,0.0018688100390136242
1761380434341691400,4.72969140625,-0.0009385142475366592,-0.0004374682903289795,-0.0010601552203297615
1761380434351773400,4.7397734375,-0.002122289501130581,0.00076308473944664,-0.0015499105211347342
1761380434361855500,4.74985546875,0.00032165925949811935,0.0029906067065894604,0.0009429075289517641
1761380434371938600,4.7599384765625,0.002827960066497326,-0.000192936509847641,-0.000007041962817311287
1761380434382020400,4.770020263671875,0.0007147388532757759,0.00012007728219032288,0.0008010515011847019
1761380434392102400,4.780102294921875,0.0039046742022037506,-0.0010519791394472122,0.00026415823958814144
1761380434402185500,4.790185546875,0.0011105043813586235,0.0014453879557549953,-0.001662233378738165
1761380434412267500,4.800267578125,-0.0010037785395979881,-0.0012286920100450516,-0.000841979868710041
1761380434422349600,4.810349609375,0.0010433308780193329,0.0009788339957594872,-0.0025232715997844934
1761380434432432400,4.820432373046875,-0.002399071119725704,-0.00015327613800764084,0.0002085990272462368
1761380434442514400,4.830514404296875,0.0009187906980514526,-0.0013681845739483833,0.001325525576248765
1761380434452596500,4.840596435546875,0.000964597798883915,0.000020920298993587494,0.0010562799870967865
1761380434462679600,4.850679443359375,0.00039179157465696335,0.0001543443650007248,-0.0006371192866936326
1761380434472761600,4.86076171875,0.0007132347673177719,0.0014584939926862717,-0.0016909320838749409
1761380434482843600,4.87084375,0.001438087783753872,0.0010186177678406239,0.0004363048356026411
1761380434492926700,4.8809267578125,-0.0007081534713506699,0.0001637432724237442,0.00015028123743832111
1761380434503008500,4.891008544921875,-0.0008813245221972466,0.000029651448130607605,0.0014048984739929438
1761380434513090600,4.901090576171875,-0.0019513824954628944,0.0006227381527423859,0.0009465683251619339
1761380434523173600,4.911173583984375,-0.0015971194952726364,-0.0001298990100622177,-0.0007339550647884607
1761380434533255700,4.921255615234375,0.0008828165009617805,0.00013455282896757126,-0.000675365561619401
1761380434543337500,4.93133740234375,0.0010048896074295044,0.0013720374554395676,-0.00208276160992682
1761380434553419500,4.94141943359375,0.0001526782289147377,0.0013113170862197876,-0.0019770341459661722
1761380434563502600,4.951502685546875,0.001645367592573166,-0.0016302429139614105,0.0019457163289189339
1761380434573584600,4.961584716796875,0.0009100688621401787,0.0023884670808911324,-0.0016354364342987537
1761380434583666700,4.971666748046875,-0.0005193734541535378,-0.000880969688296318,-0.000896322657354176
1761380434593749500,4.98174951171875,0.002005303278565407,-0.0013331742957234383,0.00009171012789011002
1761380434603831600,4.99183154296875,-0.0005747489631175995,0.0028305742889642715,-0.00039006350561976433
1761380434613913600,5.00191357421875,0.0010535074397921562,0.000028928741812705994,-0.0035600243136286736
1761380434623996400,5.011996337890625,0.001960908994078636,0.0010149446316063404,-0.001962695736438036
1761380434634078500,5.022078369140625,0.0007590241730213165,0.00009881705045700073,0.0007721041329205036
1761380434644160500,5.032160400390625,-0.0018353890627622604,0.0005125338211655617,0.0030835189390927553
1761380434654243600,5.04224365234375,0.0008778395131230354,-0.000044599175453186035,0.0005686958320438862
1761380434664325400,5.052325439453125,-0.0024559153243899345,-0.000891595147550106,-0.0009908487554639578
1761380434674407400,5.062407470703125,-0.0008188700303435326,0.0012581082992255688,-0.0002547509502619505
1761380434684490500,5.072490478515625,-0.0004689367488026619,-0.00016570650041103363,-0.0013225313741713762
1761380434694572500,5.082572509765625,-0.0005621472373604774,-0.0011670542880892754,-0.00024714693427085876
1761380434704654300,5.092654296875,-0.0007053818553686142,-0.002484254539012909,-0.004995640367269516
1761380434714737400,5.1027373046875,0.0013961186632514,0.0004910286515951157,0.0018891640938818455
1761380434724819500,5.1128193359375,0.0006311973556876183,-0.0007229847833514214,0.00069261877797544
1761380434734901500,5.122901611328125,0.00035742390900850296,-0.0015083514153957367,0.00005825399421155453
1761380434744984600,5.132984619140625,0.00011458713561296463,0.0014000022783875465,0.0004384696949273348
1761380434755066600,5.143066650390625,-0.0004992708563804626,0.0004710918292403221,-0.0029980733525007963
1761380434765148700,5.153148681640625,0.0026292111724615097,-0.001603955402970314,-0.0021330569870769978
1761380434775231500,5.1632314453125,0.002889668568968773,-0.003132876008749008,-0.0019959041383117437
1761380434785313500,5.1733134765625,0.00029474496841430664,-0.0006785625591874123,-0.00034484989009797573
1761380434795395600,5.1833955078125,0.003521430306136608,0.001112945843487978,-0.0031110751442611217
1761380434805478700,5.193478759765625,-0.0014384062960743904,0.00038165971636772156,0.0003917817957699299
1761380434815560700,5.203560791015625,-0.0014384062960743904,0.001773160882294178,-0.001139535685069859
1761380434825642500,5.213642578125,-0.0008894503116607666,0.0003326022997498512,-0.001357870176434517
1761380434835725600,5.2237255859375,0.0014844918623566628,0.0018958775326609612,-0.0007027325918897986
1761380434845807600,5.2338076171875,0.00029620062559843063,-0.0013384213671088219,-0.00004957290366292
1761380434855889700,5.2438896484375,0.00009033828973770142,-0.00011922605335712433,-0.001432818709872663
1761380434865972500,5.253972412109375,0.0012965286150574684,-0.001323910430073738,-0.0015365562867373228
1761380434876054500,5.264054443359375,-0.0014550499618053436,0.0025864089839160442,0.0011023699771612883
1761380434886136600,5.274136474609375,-0.0007477058097720146,0.0013757552951574326,-0.00003879074938595295
1761380434896219400,5.284219482421875,-0.001546122133731842,-0.0012442627921700478,-0.0019560004584491253
1761380434906301400,5.294301513671875,0.0006584357470273972,-0.0003415429964661598,0.0010837933514267206
1761380434916383500,5.304383544921875,0.0001242058351635933,-0.0003077201545238495,0.0031035346910357475
1761380434926465500,5.314465576171875,0.0017845584079623222,-0.0022519202902913094,0.0001537124626338482
1761380434936548400,5.32454833984375,0.001161644235253334,-0.0009219376370310783,0.0016496097669005394
1761380434946630400,5.33463037109375,0.001107879914343357,0.0020177937112748623,0.0014971231576055288
1761380434956712400,5.34471240234375,0.00010306853801012039,-0.0007937056943774223,-0.0013252949574962258
1761380434966795500,5.35479541015625,0.00004961155354976654,-0.0015266221016645432,-0.001254732720553875
1761380434976877600,5.364877685546875,0.0014190087094902992,-0.0012477897107601166,-0.0008419427322223783
1761380434986959400,5.37495947265625,0.0008635474368929863,-0.000952625647187233,-0.0015896448167040944
1761380434997042400,5.38504248046875,-0.000629686750471592,-0.0030045919120311737,-0.000499613001011312
1761380435007121000,5.395120849609375,-0.0009723957628011703,0.00002660602331161499,-0.001751933479681611
1761380435017203000,5.405202880859375,-0.0011015590280294418,-0.0025100549682974815,-0.0007053110748529434
1761380435027285800,5.41528564453125,0.0009666690602898598,-0.0014277240261435509,-0.0009755119681358337
1761380435037367800,5.425367919921875,0.0006257845088839531,-0.0015670079737901688,0.002275675069540739
1761380435047449900,5.435449951171875,-0.0026324037462472916,-0.0001239841803908348,0.00010766950435936451
1761380435057532700,5.44553271484375,0.0008435538038611412,-0.00009042862802743912,0.0019814695697277784
1761380435067614700,5.45561474609375,0.0018581468611955643,0.0003050928935408592,0.0007579028606414795
1761380435077696800,5.46569677734375,-0.0008489564061164856,-0.0019242390990257263,0.001282279146835208
1761380435087780000,5.475780029296875,0.0003911452367901802,0.002453325781971216,-0.0017316588200628757
1761380435097862000,5.48586181640625,0.00023801345378160477,-0.0008873436599969864,0.0012500162702053785
1761380435107944000,5.49594384765625,0.00021253805607557297,-0.0002610534429550171,0.0039319065399467945
1761380435118027000,5.506027099609375,-0.0015416862443089485,-0.0010267123579978943,0.0010612851474434137
1761380435128109000,5.516109130859375,0.0002271495759487152,-0.0002875449135899544,0.0013023705687373877
1761380435138191000,5.526191162109375,0.001972053200006485,-0.002590380609035492,-0.002376520074903965
1761380435148274000,5.53627392578125,0.0012867674231529236,0.002536303363740444,-0.0013183250557631254
1761380435158356000,5.54635595703125,0.0015895683318376541,-0.0025841565802693367,-0.00034680403769016266
1761380435168438000,5.55643798828125,0.0003097904846072197,-0.0025357455015182495,-0.0017577529652044177
1761380435178520800,5.566520751953125,0.001348157413303852,-0.0020401310175657272,-0.0037447374779731035
1761380435188603000,5.576602783203125,0.00036899931728839874,-0.0004669409245252609,-0.0011202754685655236
1761380435198685000,5.586684814453125,0.00037219561636447906,0.0010081841610372066,-0.00009442586451768875
1761380435208768000,5.59676806640625,0.0003520967438817024,-0.001307634636759758,-0.00018007401376962662
1761380435218849800,5.606849853515625,0.001289263367652893,-0.0036157965660095215,-0.0009856801480054855
1761380435228931800,5.616931884765625,0.0012685079127550125,0.0022340817376971245,-0.0016268774634227157
1761380435239014000,5.627013916015625,0.002957751043140888,-0.00007461290806531906,0.000638939905911684
1761380435249097000,5.637096923828125,-0.0008602477610111237,0.001199284102767706,-0.0018356575164943933
1761380435259178800,5.6471787109375,0.0008532293140888214,-0.0009621372446417809,-0.0009805165464058518
1761380435269260800,5.6572607421875,-0.00032988283783197403,0.0019169487059116364,0.0002233914565294981
1761380435279343900,5.66734375,-0.003230065107345581,0.0015875156968832016,-0.0005143042653799057
1761380435289426000,5.677426025390625,-0.0005696602165699005,0.002529236488044262,0.001100161811336875
1761380435299508000,5.687508056640625,-0.00021759048104286194,-0.002272442914545536,-0.0009448796045035124
1761380435309590800,5.6975908203125,-0.0003527095541357994,0.0007153386250138283,0.0008028782904148102
1761380435319672800,5.7076728515625,-0.00021742098033428192,0.0015662186779081821,-0.00029034935869276524
1761380435329755000,5.7177548828125,0.0024700043722987175,-0.0010610409080982208,-0.0007343122269958258
1761380435339837700,5.727837646484375,0.001749618910253048,0.000561889261007309,0.00013334560208022594
1761380435349919700,5.737919677734375,0.00008105020970106125,-0.0006350241601467133,-0.0024742810055613518
1761380435360001800,5.748001708984375,-0.0006190948188304901,-0.0022928426042199135,-0.0013554870383813977
1761380435370085000,5.758085205078125,0.00023155566304922104,-0.0009471997618675232,-0.0007359724259003997
1761380435380167000,5.7681669921875,0.00036631152033805847,0.000008609145879745483,0.0015399651601910591
1761380435390249000,5.7782490234375,-0.0009088348597288132,-0.0011394964531064034,-0.005148753523826599
1761380435400332000,5.78833203125,-0.00035889167338609695,0.002004898153245449,0.0030817457009106874
1761380435410414000,5.7984140625,0.0009944140911102295,0.000550433062016964,0.0018034912645816803
1761380435420496000,5.808495849609375,-0.00297689251601696,0.0011025061830878258,0.0016871113330125809
1761380435430579000,5.818578857421875,-0.001971142366528511,0.0018335920758545399,-0.0028637677896767855
1761380435440661000,5.828660888671875,-0.0012819161638617516,0.0012064175680279732,-0.0017894485499709845
1761380435450743000,5.838742919921875,-0.0014363834634423256,-0.0013494109734892845,-0.0007940157083794475
1761380435460825900,5.848825927734375,0.0007348917424678802,0.002210170030593872,-0.0018736612983047962
1761380435470908000,5.858907958984375,0.000636058859527111,0.00033525004982948303,0.0021383643615990877
1761380435480990000,5.868989990234375,-0.0006920592859387398,-0.003185981884598732,-0.0000142690259963274
1761380435491072800,5.87907275390625,-0.0007247235625982285,-0.0007756128907203674,-0.0004033464938402176
1761380435501154800,5.88915478515625,-0.001124463975429535,0.0003884546458721161,-0.0026159007102251053
1761380435511236900,5.89923681640625,0.0025846436619758606,-0.003315117210149765,-0.00022149248979985714
1761380435521320000,5.90931982421875,0.0005614403635263443,0.00270043034106493,0.003056858666241169
1761380435531402000,5.919402099609375,0.0009197378531098366,-0.0010418957099318504,-0.0006883132737129927
1761380435541483800,5.92948388671875,-0.0010797632858157158,-0.0007324367761611938,-0.0004965657135471702
1761380435551565800,5.93956591796875,0.00044125504791736603,-0.001846550963819027,-0.0019830407109111547
1761380435561649000,5.94964892578125,-0.0003276001662015915,0.001691192388534546,-0.0012141860788688064
1761380435571731000,5.95973095703125,-0.0003761081025004387,0.0024721468798816204,0.001966451294720173
1761380435581812700,5.969812744140625,-0.0009771836921572685,-0.0000338871031999588,-0.0016474580625072122
1761380435591895800,5.979895751953125,-0.0009759087115526199,0.0015615569427609444,-0.002841323148459196
1761380435601977900,5.989977783203125,-0.0024244021624326706,0.0013271989300847054,0.0005595334805548191
1761380435612060000,6.000059814453125,0.001360996626317501,-0.003351510502398014,0.0001104490365833044
1761380435622142700,6.010142822265625,0.0037067094817757607,0.00017344951629638672,-0.0007958245696499944
1761380435632224800,6.020224853515625,0.0005067829042673111,0.0016282987780869007,-0.0017273477278649807
1761380435642306800,6.030306884765625,-0.00019762292504310608,-0.00014376826584339142,0.0005352739244699478
1761380435652390000,6.040389892578125,-0.0006700679659843445,-0.002117660827934742,-0.0017237208085134625
1761380435662472000,6.050471923828125,-0.0011619534343481064,0.002405452076345682,0.0002840363886207342
1761380435672554000,6.060553955078125,-0.0009678145870566368,0.002432019915431738,0.001708321738988161
1761380435682637000,6.070636962890625,0.00005883350968360901,0.0010117562487721443,-0.00017906050197780132
1761380435692719000,6.080718994140625,0.0002706628292798996,0.002429446205496788,-0.0008302271598950028
1761380435702801000,6.09080078125,-0.0010569235309958458,-0.0019786180928349495,0.001022267621010542
1761380435712884000,6.100884033203125,0.0005756095051765442,-0.0009040189906954765,0.0008089784532785416
1761380435722966000,6.110966064453125,-0.0018358835950493813,0.00013115163892507553,-0.000015802448615431786
1761380435733048000,6.121048095703125,-0.0005059428513050079,0.0033976761624217033,-0.0018427836475893855
1761380435743131000,6.131130859375,0.0006088558584451675,0.0005100108683109283,-0.0003045417834073305
1761380435753213000,6.141212890625,-0.0004668356850743294,0.00009752810001373291,-0.0011144346790388227
1761380435763295000,6.151294921875,-0.0006900085136294365,0.00017529260367155075,0.00061262515373528
1761380435773377800,6.161377685546875,-0.0009010639041662216,-0.0003535328432917595,0.00028035836294293404
1761380435783459800,6.1714599609375,0.0008014952763915062,0.00015113595873117447,0.00005585397593677044
1761380435793542000,6.1815419921875,0.0006219362840056419,0.000645248219370842,-0.001083160168491304
1761380435803625000,6.191625,-0.0004158979281783104,-0.0025476161390542984,-0.0016264449805021286
1761380435813706800,6.201706787109375,-0.0007172403857111931,-0.0003790883347392082,0.00020415661856532097
1761380435823788800,6.211788818359375,-0.002029379829764366,0.0014912495389580727,-0.0002424553968012333
1761380435833870800,6.221870849609375,-0.00021776650100946426,0.000978240743279457,-0.0011499947868287563
1761380435843954000,6.231953857421875,-0.000571700744330883,0.0014352393336594105,0.00009396788664162159
1761380435854036000,6.242035888671875,0.001479010097682476,0.001698595006018877,0.0010125727858394384
1761380435864117800,6.25211767578125,-0.00005710124969482422,-0.0023576654493808746,0.0017468065489083529
1761380435874200800,6.262200927734375,0.0009051170200109482,0.0003329906612634659,-0.0037397383712232113
1761380435884283000,6.272282958984375,-0.0018512550741434097,-0.0037672119215130806,0.0027783485129475594
1761380435894365000,6.282364990234375,-0.0017657186836004257,0.00047469139099121094,-0.0009763860143721104
1761380435904447700,6.29244775390625,0.0021885428577661514,0.0009487341158092022,0.00003108778037130833
1761380435914529800,6.30252978515625,-0.0018947441130876541,0.002632714807987213,-0.0004495495231822133
1761380435924611800,6.31261181640625,-0.00004491303116083145,-0.0022874753922224045,0.00023328489623963833
1761380435934695000,6.32269482421875,-0.0017046062275767326,0.0013685370795428753,-0.0007624974241480231
1761380435944777000,6.33277685546875,0.00028504151850938797,0.0005232496187090874,-0.000684999511577189
1761380435954859000,6.34285888671875,-0.00029530469328165054,-0.003148965537548065,0.002986747305840254
1761380435964942000,6.352942138671875,-0.0024492694064974785,-0.001479961909353733,0.00188073655590415
1761380435975023900,6.36302392578125,0.00019137654453516006,0.003075039479881525,-0.0006542934570461512
1761380435985106000,6.37310595703125,0.0007647555321455002,-0.0005386034026741982,0.0003105697687715292
1761380435995189000,6.38318896484375,-0.002385503612458706,-0.001369444653391838,-0.0008180635049939156
1761380436005270800,6.393270751953125,-0.001464049331843853,-0.00002721138298511505,-0.002009828109294176
1761380436015352800,6.403352783203125,0.0009894352406263351,0.002353463787585497,-0.00118667830247432
1761380436025435600,6.413435546875,-0.0007253745570778847,-0.0021334299817681313,0.000049294671043753624
1761380436035517700,6.423517578125,0.000194561667740345,0.001344885677099228,0.0008780742064118385
1761380436045599700,6.433599853515625,-0.00015937257558107376,-0.0011768611147999763,0.0010367988143116236
1761380436055682600,6.4436826171875,-0.0005025239661335945,-0.004410620778799057,-0.0017919325036928058
1761380436065764600,6.4537646484375,-0.0012937486171722412,0.0066031478345394135,0.0044664959423244
1761380436075846700,6.4638466796875,-0.0001605609431862831,0.003510143142193556,0.002258868422359228
1761380436085928700,6.4739287109375,0.0006133532151579857,-0.00020896084606647491,-0.0029249745421111584
1761380436096011500,6.484011474609375,-0.0014339303597807884,0.005471454467624426,0.003293800400570035
1761380436106093600,6.494093505859375,0.0017243120819330215,0.012055587023496628,0.004858408123254776
1761380436116175600,6.504175537109375,-0.0010268688201904297,0.01041819155216217,0.006286391522735357
1761380436126258700,6.5142587890625,0.0016405526548624039,0.024943605065345764,0.01552196778357029
1761380436136340700,6.5243408203125,0.0002714274451136589,0.033408112823963165,0.019525226205587387
1761380436146422500,6.534422607421875,-0.00041034165769815445,0.042010657489299774,0.02568618580698967
1761380436156505600,6.544505615234375,0.001085708849132061,0.038815129548311234,0.027722705155611038
1761380436166587600,6.554587646484375,-0.0012022126466035843,0.015063727274537086,0.01070111058652401
1761380436176669700,6.564669677734375,-0.0005335928872227669,-0.057223983108997345,-0.039374642074108124
1761380436186752500,6.57475244140625,-0.0035999566316604614,-0.12162081152200699,-0.07702241837978363
1761380436196834600,6.58483447265625,0.0005064057186245918,-0.0596374087035656,-0.03936871513724327
1761380436206916600,6.59491650390625,0.0019722096621990204,0.06265627592802048,0.037329256534576416
1761380436216999700,6.604999755859375,0.0009120907634496689,0.02880474179983139,0.01967703551054001
