time,seconds_elapsed,z,y,x
1761379806617595600,0.058595703125,0.10587583482265472,-0.15008430182933807,0.08359822630882263
1761379806627678700,0.0686787109375,0.11923851072788239,0.031184550374746323,0.07324305176734924
1761379806637761500,0.078761474609375,0.12817980349063873,0.17922835052013397,0.048883918672800064
1761379806647844600,0.0888447265625,0.135649174451828,0.23250408470630646,0.00797456968575716
1761379806657927400,0.098927490234375,0.1351543515920639,0.200351744890213,-0.0506432019174099
1761379806668010800,0.1090107421875,0.1268777847290039,0.11362297087907791,-0.11275956779718399
1761379806678093600,0.119093505859375,0.11386558413505554,0.016413593664765358,-0.18088456988334656
1761379806688176600,0.1291767578125,0.11171188205480576,-0.0647161453962326,-0.2353864163160324
1761379806698259700,0.139259765625,0.1165042445063591,-0.1015508621931076,-0.25510552525520325
1761379806708342500,0.149342529296875,0.12272458523511887,-0.0996088832616806,-0.23174402117729187
1761379806718425600,0.159425537109375,0.13344886898994446,-0.07622339576482773,-0.17712178826332092
1761379806728508700,0.1695087890625,0.15279273688793182,-0.05843641236424446,-0.10571231693029404
1761379806738591700,0.179591796875,0.1807897537946701,-0.03712766245007515,-0.03693857789039612
1761379806748674600,0.189674560546875,0.20007556676864624,-0.031866852194070816,0.020724453032016754
1761379806758757600,0.199757568359375,0.209749236702919,-0.0552387535572052,0.0603613443672657
1761379806768840400,0.20984033203125,0.20614758133888245,-0.0804748684167862,0.07027176767587662
1761379806778923500,0.219923583984375,0.19268955290317535,-0.10828252881765366,0.06462293863296509
1761379806789006600,0.230006591796875,0.18640156090259552,-0.1351381093263626,0.041974879801273346
1761379806799089700,0.240089599609375,0.18558397889137268,-0.14399658143520355,0.024934910237789154
1761379806809172700,0.2501728515625,0.1831517070531845,-0.12241779267787933,0.027714451774954796
1761379806819255600,0.260255615234375,0.18916326761245728,-0.11101440340280533,0.03657958284020424
1761379806829338600,0.270338623046875,0.19975093007087708,-0.11824434995651245,0.04097513109445572
1761379806839421400,0.28042138671875,0.2014731913805008,-0.15046806633472443,0.029921414330601692
1761379806849504800,0.2905048828125,0.18881864845752716,-0.17912954092025757,0.0043899547308683395
1761379806859587600,0.300587646484375,0.17788584530353546,-0.1938038170337677,-0.037146568298339844
1761379806869670700,0.310670654296875,0.17449404299259186,-0.19040216505527496,-0.07945088297128677
1761379806879753500,0.32075341796875,0.17746347188949585,-0.16787394881248474,-0.12071096897125244
1761379806889836500,0.33083642578125,0.1778818517923355,-0.15071281790733337,-0.15690359473228455
1761379806899919600,0.340919677734375,0.17543120682239532,-0.14277392625808716,-0.185484379529953
1761379806910002700,0.351002685546875,0.16441556811332703,-0.15126462280750275,-0.21083740890026093
1761379806920085800,0.361085693359375,0.14547064900398254,-0.14916472136974335,-0.22849468886852264
1761379806930168600,0.37116845703125,0.14318566024303436,-0.13429735600948334,-0.21238256990909576
1761379806940251600,0.381251708984375,0.14519473910331726,-0.11287941038608551,-0.17394410073757172
1761379806950334500,0.39133447265625,0.13862977921962738,-0.09820140153169632,-0.13085654377937317
1761379806960417500,0.40141748046875,0.12831643223762512,-0.08458758890628815,-0.10707798600196838
1761379806970500600,0.41150048828125,0.11778762191534042,-0.07390138506889343,-0.11028336733579636
1761379806980583700,0.421583740234375,0.11357156932353973,-0.06833751499652863,-0.14414279162883759
1761379806990666800,0.431666748046875,0.10381641238927841,-0.050148919224739075,-0.18231920897960663
1761379807000749600,0.44174951171875,0.0922393798828125,-0.023147663101553917,-0.21471762657165527
1761379807010832600,0.45183251953125,0.0750121921300888,0.012060390785336494,-0.22422298789024353
1761379807020915500,0.46191552734375,0.06288016587495804,0.04496081545948982,-0.2231033891439438
1761379807030998800,0.471998779296875,0.07900001108646393,0.02190609835088253,-0.23686234652996063
1761379807041081600,0.48208154296875,0.08449810743331909,0.03639529272913933,-0.22189004719257355
1761379807051164700,0.49216455078125,0.06941316276788712,0.09499122947454453,-0.18506811559200287
1761379807061247500,0.50224755859375,0.029740318655967712,0.11763662099838257,-0.1616102010011673
1761379807071330600,0.51233056640625,0.007260309532284737,0.059305667877197266,-0.15762265026569366
1761379807081413600,0.52241357421875,-0.0019177423091605306,0.0417165532708168,-0.151341050863266
1761379807091496700,0.53249658203125,0.002030926523730159,0.03190040960907936,-0.14895938336849213
1761379807101579800,0.542579833984375,0.0005382248782552779,0.028593560680747032,-0.13403263688087463
1761379807111662600,0.55266259765625,0.006960703991353512,0.0075817531906068325,-0.12807807326316833
1761379807121745700,0.56274560546875,0.008343683555722237,-0.014813301153481007,-0.11752104014158249
1761379807131828500,0.572828369140625,0.0043308325111866,-0.02280970849096775,-0.10126456618309021
1761379807141911600,0.58291162109375,-0.004854409955441952,-0.025403359904885292,-0.07908283174037933
1761379807151994600,0.59299462890625,-0.007462976034730673,-0.04114503785967827,-0.06379921734333038
1761379807162077700,0.60307763671875,-0.02370958961546421,-0.08607389777898788,-0.06304687261581421
1761379807172160500,0.613160400390625,-0.015187474898993969,-0.11223013699054718,-0.08704009652137756
1761379807182243600,0.62324365234375,-0.016926519572734833,-0.039686426520347595,-0.09624424576759338
1761379807192326700,0.63332666015625,-0.017960358411073685,0.037827540189027786,-0.1108492836356163
1761379807202409500,0.643409423828125,0.002767557045444846,0.06011873111128807,-0.1265222579240799
1761379807212492800,0.653492919921875,0.03316594287753105,0.130997434258461,-0.10567556321620941
1761379807222575600,0.66357568359375,0.06685706228017807,0.15829110145568848,-0.0835697278380394
1761379807232658700,0.67365869140625,0.08788485080003738,0.13331277668476105,-0.07114022225141525
1761379807242741500,0.683741455078125,0.097768634557724,0.0791131928563118,-0.06603467464447021
1761379807252824600,0.693824462890625,0.09571108222007751,0.029462818056344986,-0.06011926382780075
1761379807262907400,0.703907470703125,0.08871309459209442,-0.004652276169508696,-0.04258740693330765
1761379807272990700,0.71399072265625,0.07924022525548935,-0.03185460343956947,-0.024043284356594086
1761379807283073500,0.724073486328125,0.05324617773294449,-0.04512566700577736,-0.013896108604967594
1761379807293156600,0.734156494140625,0.040047816932201385,-0.029737655073404312,-0.012582371011376381
1761379807303239700,0.74423974609375,0.05219103395938873,-0.01793931983411312,-0.03614522144198418
1761379807313322500,0.754322509765625,0.0627794936299324,0.010393252596259117,-0.06185644492506981
1761379807323405600,0.764405517578125,0.06616730242967606,0.030777087435126305,-0.08755754679441452
1761379807333488600,0.774488525390625,0.0648927167057991,0.03623443841934204,-0.12440744042396545
1761379807343572000,0.784572021484375,0.0683353841304779,0.06312890350818634,-0.15443165600299835
1761379807353654800,0.79465478515625,0.07962585240602493,0.08797299861907959,-0.19250206649303436
1761379807363737900,0.80473779296875,0.10258310288190842,0.09652041643857956,-0.22134090960025787
1761379807373820700,0.814820556640625,0.12967143952846527,0.06418856978416443,-0.24835841357707977
1761379807383904000,0.824904052734375,0.1372673064470291,0.029688652604818344,-0.2647664248943329
1761379807393986800,0.83498681640625,0.14037735760211945,0.04391739144921303,-0.2750648558139801
1761379807404070000,0.84506982421875,0.1551048904657364,0.05457109957933426,-0.2553630471229553
1761379807414153000,0.855153076171875,0.1550670862197876,0.058882225304841995,-0.21737706661224365
1761379807424234800,0.86523486328125,0.14814525842666626,0.05987079069018364,-0.17406420409679413
1761379807434318800,0.87531884765625,0.14991971850395203,0.04658002033829689,-0.12538401782512665
1761379807444401000,0.88540087890625,0.1605856865644455,0.01715901307761669,-0.08807340264320374
1761379807454484000,0.89548388671875,0.16770590841770172,-0.01179514080286026,-0.05789792165160179
1761379807464567000,0.905567138671875,0.15932387113571167,-0.04079456627368927,-0.04000813513994217
1761379807474649900,0.91564990234375,0.1410154402256012,-0.05567258223891258,-0.036981720477342606
1761379807484733000,0.92573291015625,0.11402563750743866,-0.05110233277082443,-0.0399109311401844
1761379807494815700,0.935815673828125,0.09042789787054062,-0.042203113436698914,-0.06233341619372368
1761379807504898800,0.94589892578125,0.0791424885392189,-0.025194035843014717,-0.08862707018852234
1761379807514982000,0.95598193359375,0.08500064164400101,0.0024458470288664103,-0.10610326379537582
1761379807525065000,0.96606494140625,0.11055634170770645,0.03524294123053551,-0.12473074346780777
1761379807535148000,0.97614794921875,0.1446613073348999,0.06917614489793777,-0.12663011252880096
1761379807545230800,0.98623095703125,0.18595574796199799,0.09927678853273392,-0.1343735158443451
1761379807555314000,0.99631396484375,0.21746814250946045,0.12009125202894211,-0.1310669332742691
1761379807565396700,1.006396728515625,0.22536946833133698,0.11818629503250122,-0.1305268555879593
1761379807575480000,1.01647998046875,0.21923354268074036,0.07728147506713867,-0.1043463796377182
1761379807585563000,1.02656298828125,0.20468230545520782,0.008711466565728188,-0.0543372742831707
1761379807595646000,1.03664599609375,0.19130951166152954,-0.08365149050951004,-0.009819340892136097
1761379807605728800,1.046728759765625,0.2703862190246582,-0.19217902421951294,0.025374865159392357
1761379807615811800,1.056811767578125,0.3292529881000519,-0.26901814341545105,0.04712623357772827
1761379807625895000,1.06689501953125,0.3521077036857605,-0.32120439410209656,0.04568306729197502
1761379807635978000,1.07697802734375,0.3481009900569916,-0.3400707542896271,0.03280907869338989
1761379807646061000,1.08706103515625,0.345755010843277,-0.33058059215545654,0.010030529461801052
1761379807656144000,1.097143798828125,0.32791608572006226,-0.3005973696708679,-0.022937273606657982
1761379807666227000,1.10722705078125,0.28750288486480713,-0.261773020029068,-0.06897587329149246
1761379807676309800,1.117309814453125,0.2302616983652115,-0.22282774746418,-0.11509329825639725
1761379807686392800,1.127392822265625,0.14172570407390594,-0.16226321458816528,-0.14103993773460388
1761379807696476000,1.137475830078125,0.05149142071604729,-0.1305937021970749,-0.13256336748600006
1761379807706559000,1.14755908203125,0.0036549223586916924,-0.15472859144210815,-0.11766404658555984
1761379807716641800,1.157641845703125,-0.007405984681099653,-0.18182626366615295,-0.09921073913574219
1761379807726724900,1.167724853515625,0.022730346769094467,-0.1879456639289856,-0.07565560936927795
1761379807736808000,1.177807861328125,0.048211470246315,-0.1573704481124878,-0.04638480767607689
1761379807746890800,1.187890869140625,0.04391659051179886,-0.12229795008897781,-0.011116833426058292
1761379807756974000,1.19797412109375,0.02063683420419693,-0.10593894869089127,0.031688153743743896
1761379807767057000,1.208056884765625,0.011923771351575851,-0.10462813824415207,0.07816723734140396
1761379807777140000,1.218139892578125,0.019706860184669495,-0.09485647082328796,0.12380929291248322
1761379807787222800,1.228222900390625,0.022962573915719986,-0.0809561014175415,0.15649373829364777
1761379807797305900,1.238305908203125,0.018609903752803802,-0.075006864964962,0.1780051589012146
1761379807807388700,1.248388671875,0.017912687733769417,-0.07897017896175385,0.18697254359722137
1761379807817472000,1.258471923828125,0.016985109075903893,-0.0707564577460289,0.18155860900878906
1761379807827554800,1.268554931640625,0.02316337637603283,-0.028965605422854424,0.18153490126132965
1761379807837638000,1.278637939453125,0.036254145205020905,0.05666700750589371,0.18626175820827484
1761379807847721000,1.288720947265625,0.04747883602976799,0.10057613998651505,0.18600262701511383
1761379807857803800,1.2988037109375,0.043244410306215286,0.007787082809954882,0.11875967681407928
1761379807867886800,1.308886962890625,0.021803032606840134,-0.20192086696624756,-0.036496490240097046
1761379807877970000,1.318969970703125,-0.02093351073563099,-0.4098682105541229,-0.24561162292957306
1761379807888053000,1.329052978515625,-0.0825611874461174,-0.46862155199050903,-0.43626654148101807
1761379807898135800,1.3391357421875,-0.14909148216247559,-0.31042206287384033,-0.5378568172454834
1761379807908219000,1.349218994140625,-0.20600669085979462,0.030712638050317764,-0.5228639841079712
1761379807918301700,1.3593017578125,-0.22222214937210083,0.42070621252059937,-0.4130901098251343
1761379807928384800,1.369384765625,-0.1784757375717163,0.7331626415252686,-0.27058541774749756
1761379807938468000,1.379468017578125,-0.08085650205612183,0.8666890263557434,-0.15045927464962006
1761379807948551000,1.389551025390625,0.05224296450614929,0.8211979866027832,-0.07766550034284592
1761379807958634000,1.399634033203125,0.17917348444461823,0.6262151598930359,-0.05080272629857063
1761379807968716800,1.409716796875,0.27414581179618835,0.3774445056915283,-0.0435195155441761
1761379807978799900,1.4197998046875,0.33364853262901306,0.12685541808605194,-0.013057212345302105
1761379807988882700,1.429882568359375,0.3735184669494629,-0.062188006937503815,0.04542074352502823
1761379807998966000,1.439966064453125,0.3845069408416748,-0.19394975900650024,0.11916819959878922
1761379808009048800,1.450048828125,0.37129685282707214,-0.2969898581504822,0.1812582015991211
1761379808019132000,1.4601318359375,0.3392654061317444,-0.3696211874485016,0.2028854638338089
1761379808029215000,1.470215087890625,0.2856602370738983,-0.39458486437797546,0.17948533594608307
1761379808039297800,1.4802978515625,0.20272354781627655,-0.3367899954319,0.12744717299938202
1761379808049380900,1.490380859375,0.10428352653980255,-0.20712043344974518,0.0590934120118618
1761379808059464000,1.5004638671875,0.014307566918432713,-0.010604973882436752,0.004928978625684977
1761379808069547000,1.510547119140625,-0.04172081500291824,0.1970749795436859,-0.042565036565065384
1761379808079629800,1.5206298828125,-0.0580609068274498,0.3701857924461365,-0.07597758620977402
1761379808089713000,1.530712890625,-0.029259352013468742,0.5086206197738647,-0.08468879014253616
1761379808099795700,1.540795654296875,0.03412308171391487,0.556045413017273,-0.06723789125680923
1761379808109878800,1.550878662109375,0.10047121345996857,0.49910274147987366,-0.0076238312758505344
1761379808119961900,1.5609619140625,0.16623824834823608,0.37091121077537537,0.06799236685037613
1761379808130045000,1.571044921875,0.21292798221111298,0.1983964443206787,0.16037076711654663
1761379808140128000,1.5811279296875,0.22920122742652893,0.04208194091916084,0.2772286832332611
1761379808150210800,1.5912109375,0.20231501758098602,-0.07228884100914001,0.39691993594169617
1761379808160294000,1.6012939453125,0.1502736508846283,-0.13407178223133087,0.5048258900642395
1761379808170376700,1.611376708984375,0.09172885119915009,-0.1464855819940567,0.573462724685669
1761379808180460000,1.6214599609375,0.044200219213962555,-0.10561191290616989,0.6009595990180969
1761379808190542800,1.63154296875,0.02279852330684662,-0.029137112200260162,0.6018373966217041
1761379808200626000,1.6416259765625,0.017187243327498436,0.08156409859657288,0.5802056193351746
1761379808210708700,1.651708740234375,0.02827504649758339,0.21115857362747192,0.550596296787262
1761379808220791800,1.661791748046875,0.04874490201473236,0.30910325050354004,0.49745264649391174
1761379808230875000,1.671875,0.07346808910369873,0.36074674129486084,0.4234130382537842
1761379808240958000,1.6819580078125,0.09507644921541214,0.3900950253009796,0.34548550844192505
1761379808251041000,1.692041015625,0.12144254148006439,0.39422693848609924,0.26106807589530945
1761379808261123800,1.702123779296875,0.13356071710586548,0.37402471899986267,0.1888098567724228
1761379808271207000,1.71220703125,0.13272422552108765,0.35135483741760254,0.14598357677459717
1761379808281289700,1.722289794921875,0.1324634999036789,0.32415971159935,0.1368904709815979
1761379808291372800,1.732372802734375,0.15152135491371155,0.31133684515953064,0.16056065261363983
1761379808301456000,1.742455810546875,0.19704754650592804,0.3141251802444458,0.190960094332695
1761379808311539000,1.7525390625,0.25507357716560364,0.32151225209236145,0.22522352635860443
1761379808321622000,1.7626220703125,0.32760024070739746,0.3466338515281677,0.2661866843700409
1761379808331704800,1.772704833984375,0.39257338643074036,0.39211371541023254,0.2996586263179779
1761379808341788400,1.782788330078125,0.42991727590560913,0.43544334173202515,0.3371295630931854
1761379808351871200,1.792871337890625,0.45549800992012024,0.4585569202899933,0.3694393038749695
1761379808361954600,1.80295458984375,0.4789671301841736,0.45093122124671936,0.3772077262401581
1761379808372037400,1.813037353515625,0.5000002384185791,0.43840718269348145,0.3780013620853424
1761379808382120400,1.823120361328125,0.5291869044303894,0.4269593060016632,0.3732721209526062
1761379808392203300,1.833203369140625,0.5494740605354309,0.4091757833957672,0.36941906809806824
1761379808402286300,1.843286376953125,0.5122076272964478,0.3946618139743805,0.36085647344589233
1761379808412369200,1.853369140625,0.43663352727890015,0.3600764274597168,0.32868441939353943
1761379808422452500,1.863452392578125,0.3739546835422516,0.3051774799823761,0.2765357196331024
1761379808432535300,1.873535400390625,0.31959983706474304,0.24757224321365356,0.2180497795343399
1761379808442618400,1.883618408203125,0.27091139554977417,0.22810879349708557,0.16956080496311188
1761379808452701400,1.893701416015625,0.2288651317358017,0.2513275742530823,0.13026826083660126
1761379808462784300,1.9037841796875,0.19166423380374908,0.2808316648006439,0.0878550186753273
1761379808472867300,1.913867431640625,0.15558692812919617,0.291547954082489,0.04460741579532623
1761379808482950400,1.923950439453125,0.11436385661363602,0.27199822664260864,-0.006873618811368942
1761379808493033500,1.934033447265625,0.07595042139291763,0.23372620344161987,-0.03602484613656998
1761379808503116300,1.9441162109375,0.028477713465690613,0.1401485800743103,-0.05914108455181122
1761379808513199400,1.954199462890625,-0.017198162153363228,0.05029299855232239,-0.06214752793312073
1761379808523282200,1.9642822265625,-0.05198383703827858,-0.016684703528881073,-0.036425650119781494
1761379808533365200,1.974365234375,-0.07432322949171066,-0.05036357045173645,0.01101350225508213
1761379808543448600,1.984448486328125,-0.08557748794555664,-0.043290749192237854,0.07048641890287399
1761379808553531400,1.994531494140625,-0.08354602754116058,0.02190769650042057,0.1427784562110901
1761379808563614500,2.004614501953125,-0.0669364258646965,0.2055627405643463,0.24125203490257263
1761379808573697300,2.014697265625,-0.03155126795172691,0.3364565670490265,0.2995624840259552
1761379808583780400,2.0247802734375,0.018898855894804,0.33396944403648376,0.2788185775279999
1761379808593863200,2.03486328125,0.06523066759109497,0.1682417392730713,0.13685451447963715
1761379808603946500,2.044946533203125,0.05600947141647339,-0.08874344825744629,-0.09716356545686722
1761379808614029300,2.055029296875,-0.019823772832751274,-0.311385840177536,-0.345005065202713
1761379808624112400,2.0651123046875,-0.1320429891347885,-0.41534659266471863,-0.5117013454437256
1761379808634195200,2.0751953125,-0.26363617181777954,-0.4198649227619171,-0.5413188934326172
1761379808644278300,2.0852783203125,-0.36364585161209106,-0.3143424987792969,-0.4242633879184723
1761379808654361300,2.095361328125,-0.3894995450973511,-0.117194265127182,-0.20071126520633698
1761379808664444400,2.1054443359375,-0.318298876285553,0.060558419674634933,0.029774140566587448
1761379808674527500,2.115527587890625,-0.17480190098285675,0.18583644926548004,0.2155946046113968
1761379808684610300,2.1256103515625,0.010463560000061989,0.2806287407875061,0.36371269822120667
1761379808694693400,2.135693359375,0.1836896687746048,0.3595168888568878,0.5002591013908386
1761379808704776200,2.145776123046875,0.31354594230651855,0.4123974144458771,0.6364092230796814
1761379808714859300,2.155859375,0.39445731043815613,0.43291759490966797,0.7452914714813232
1761379808724942300,2.1659423828125,0.43701648712158203,0.38490933179855347,0.7903963923454285
1761379808735025400,2.176025390625,0.4469069242477417,0.2485528290271759,0.7490763664245605
1761379808745108500,2.1861083984375,0.40430620312690735,0.0431852862238884,0.6426545977592468
1761379808755191300,2.19619140625,0.3126910626888275,-0.18420898914337158,0.5261961817741394
1761379808765274400,2.2062744140625,0.17889171838760376,-0.3859511613845825,0.43545904755592346
1761379808775357200,2.216357177734375,0.04500342905521393,-0.4913782477378845,0.3891426920890808
1761379808785440500,2.2264404296875,-0.052800629287958145,-0.4937308728694916,0.36043354868888855
1761379808795523300,2.2365234375,-0.13070209324359894,-0.4328707456588745,0.3552664816379547
1761379808805606400,2.2466064453125,-0.17799130082130432,-0.3581717312335968,0.34230515360832214
1761379808815689200,2.256689208984375,-0.21245020627975464,-0.3040733337402344,0.31254804134368896
1761379808825772300,2.266772216796875,-0.2638252377510071,-0.2798018157482147,0.2744145095348358
1761379808835855400,2.27685546875,-0.3458154499530792,-0.2796633243560791,0.22801291942596436
1761379808845938400,2.2869384765625,-0.45961499214172363,-0.2937797009944916,0.17479631304740906
1761379808856021500,2.297021484375,-0.5750460028648376,-0.29565802216529846,0.12679123878479004
1761379808866104300,2.307104248046875,-0.6729270219802856,-0.2592344880104065,0.0959497019648552
1761379808876187400,2.3171875,-0.7428653240203857,-0.19864651560783386,0.08825742453336716
1761379808886270200,2.327270263671875,-0.776313304901123,-0.13614611327648163,0.10189573466777802
1761379808896353300,2.337353271484375,-0.7820788025856018,-0.07292986661195755,0.1465388387441635
1761379808906436400,2.347436279296875,-0.7733249664306641,-0.04000573977828026,0.21140173077583313
1761379808916519400,2.35751953125,-0.7657357454299927,-0.051776111125946045,0.29467904567718506
1761379808926602200,2.367602294921875,-0.7649943232536316,-0.09376803785562515,0.39042767882347107
1761379808936685300,2.377685302734375,-0.7568493485450745,-0.15610837936401367,0.493173748254776
1761379808946768400,2.387768310546875,-0.7421414852142334,-0.24674001336097717,0.5751197338104248
1761379808956851200,2.397851318359375,-0.7257761359214783,-0.3555234670639038,0.6460908651351929
1761379808966934500,2.4079345703125,-0.722512423992157,-0.4669554531574249,0.7036910653114319
1761379808977017300,2.418017333984375,-0.7417297959327698,-0.5713359117507935,0.7268152832984924
1761379808987100400,2.428100341796875,-0.776162326335907,-0.664906919002533,0.7116272449493408
1761379808997183200,2.438183349609375,-0.8153563141822815,-0.7338966131210327,0.6549703478813171
1761379809007266300,2.448266357421875,-0.865902304649353,-0.7633117437362671,0.5771788954734802
1761379809017349000,2.45834912109375,-0.9295289516448975,-0.7769855260848999,0.4865933358669281
1761379809027432400,2.468432373046875,-1.0028079748153687,-0.7831581830978394,0.40136900544166565
1761379809037515500,2.478515625,-1.0698679685592651,-0.7944558262825012,0.32717999815940857
1761379809047598300,2.488598388671875,-1.1378926038742065,-0.8191143274307251,0.2499922662973404
1761379809057681400,2.498681396484375,-1.2056125402450562,-0.8386864066123962,0.18283213675022125
1761379809067764200,2.50876416015625,-1.2758439779281616,-0.8485401272773743,0.12298823893070221
1761379809077847300,2.518847412109375,-1.3552196025848389,-0.8431909084320068,0.08129512518644333
1761379809087930400,2.528930419921875,-1.4437127113342285,-0.8216480612754822,0.04730173572897911
1761379809098013400,2.539013427734375,-1.5385910272598267,-0.7867361307144165,0.012415656819939613
1761379809108096300,2.54909619140625,-1.620038390159607,-0.7457934617996216,-0.03190626576542854
1761379809118179300,2.559179443359375,-1.6797316074371338,-0.7081987261772156,-0.08228714764118195
1761379809128262400,2.569262451171875,-1.7201311588287354,-0.6683607697486877,-0.12077728658914566
1761379809138345200,2.57934521484375,-1.7409666776657104,-0.6266732215881348,-0.1376073956489563
1761379809148428500,2.589428466796875,-1.7408348321914673,-0.558879017829895,-0.11239685118198395
1761379809158511400,2.599511474609375,-1.7200912237167358,-0.4941263794898987,-0.06259440630674362
1761379809168594400,2.609594482421875,-1.6920878887176514,-0.4589841067790985,-0.00948271807283163
1761379809178677200,2.61967724609375,-1.6748542785644531,-0.4663216471672058,0.03696174547076225
1761379809188760300,2.62976025390625,-1.6726059913635254,-0.5099897384643555,0.07298419624567032
1761379809198843100,2.639843017578125,-1.6897211074829102,-0.5542136430740356,0.09812496602535248
1761379809208926500,2.649926513671875,-1.7160634994506836,-0.5853918194770813,0.11877857893705368
1761379809219009300,2.66000927734375,-1.749292254447937,-0.6034520864486694,0.1412372887134552
1761379809229092400,2.67009228515625,-1.7923351526260376,-0.6135448813438416,0.15226995944976807
1761379809239175400,2.680175537109375,-1.8356000185012817,-0.6095882654190063,0.15197941660881042
1761379809249258200,2.69025830078125,-1.8721271753311157,-0.5975795388221741,0.14662033319473267
1761379809259341300,2.70034130859375,-1.8964234590530396,-0.5679433345794678,0.15447185933589935
1761379809269424400,2.71042431640625,-1.89698326587677,-0.490110844373703,0.19862201809883118
1761379809279507500,2.720507568359375,-1.900369644165039,-0.3552297353744507,0.2880634665489197
1761379809289590300,2.73059033203125,-1.903589129447937,-0.33507704734802246,0.34544289112091064
1761379809299673300,2.74067333984375,-1.9193819761276245,-0.4439718425273895,0.33592554926872253
1761379809309756200,2.750756103515625,-1.9496346712112427,-0.6602940559387207,0.2531214654445648
1761379809319839200,2.760839111328125,-2.0263688564300537,-0.9655447602272034,0.09759046882390976
1761379809329922600,2.770922607421875,-2.158966541290283,-1.270475149154663,-0.12650761008262634
1761379809340008200,2.78100830078125,-2.2816321849823,-1.4842294454574585,-0.3782671391963959
1761379809350091500,2.791091552734375,-2.3495118618011475,-1.5182851552963257,-0.560376763343811
1761379809360174300,2.80117431640625,-2.3279500007629395,-1.339983582496643,-0.5578457117080688
1761379809370257400,2.81125732421875,-2.214247465133667,-1.0268105268478394,-0.32621726393699646
1761379809380340200,2.82134033203125,-2.0251803398132324,-0.6341628432273865,0.11751624196767807
1761379809390423300,2.83142333984375,-1.8051172494888306,-0.32105737924575806,0.6342621445655823
1761379809400506400,2.84150634765625,-1.6686253547668457,-0.21703697741031647,1.026995062828064
1761379809410589400,2.85158935546875,-1.65058434009552,-0.2608709931373596,1.1893576383590698
1761379809420672500,2.861672607421875,-1.7235864400863647,-0.3672563135623932,1.1558367013931274
1761379809430755300,2.87175537109375,-1.836405873298645,-0.5016005039215088,0.9772618412971497
1761379809440838400,2.88183837890625,-1.9453184604644775,-0.640481173992157,0.728348970413208
1761379809450921200,2.891921142578125,-2.023855686187744,-0.7717121839523315,0.467176228761673
1761379809461004300,2.90200439453125,-2.109649181365967,-0.874935507774353,0.2368125468492508
1761379809471087400,2.91208740234375,-2.225015640258789,-0.9474576115608215,0.05311354994773865
1761379809481170400,2.92217041015625,-2.3762784004211426,-0.9596775770187378,-0.08167329430580139
1761379809491253500,2.93225341796875,-2.5409414768218994,-0.9028158783912659,-0.1554684191942215
1761379809501336300,2.94233642578125,-2.6904778480529785,-0.8141312599182129,-0.17954924702644348
1761379809511419400,2.95241943359375,-2.8004212379455566,-0.7057275772094727,-0.17637184262275696
1761379809521502200,2.962502197265625,-2.854450225830078,-0.5944929122924805,-0.14877855777740479
1761379809531585500,2.97258544921875,-2.8469960689544678,-0.507032036781311,-0.10196151584386826
1761379809541668400,2.98266845703125,-2.8070249557495117,-0.47881585359573364,-0.05595008283853531
1761379809551751400,2.99275146484375,-2.7424323558807373,-0.5122694373130798,-0.009277387522161007
1761379809561834200,3.002834228515625,-2.6709227561950684,-0.6129472851753235,0.029561620205640793
1761379809571917300,3.012917236328125,-2.6054418087005615,-0.7345400452613831,0.06263887882232666
1761379809582000000,3.023000244140625,-2.552701234817505,-0.8599107265472412,0.09886825829744339
1761379809592083500,3.03308349609375,-2.494826078414917,-0.9544801115989685,0.1309894472360611
1761379809602166500,3.04316650390625,-2.4262189865112305,-1.01703941822052,0.15676644444465637
1761379809612249300,3.053249267578125,-2.3559529781341553,-1.0289666652679443,0.18310217559337616
1761379809622332400,3.06333251953125,-2.2912039756774902,-1.0098166465759277,0.21782714128494263
1761379809632415200,3.073415283203125,-2.2437658309936523,-0.9585667252540588,0.25395798683166504
1761379809642498300,3.083498291015625,-2.226400375366211,-0.8918399214744568,0.2801043689250946
1761379809652581400,3.093581298828125,-2.239531993865967,-0.8234001398086548,0.3058467507362366
1761379809662664400,3.10366455078125,-2.2621753215789795,-0.7404208183288574,0.3292250335216522
1761379809672747300,3.113747314453125,-2.267195701599121,-0.6458895206451416,0.3412209749221802
1761379809682830300,3.123830322265625,-2.249647617340088,-0.5468705296516418,0.34766316413879395
1761379809692913400,3.133913330078125,-2.2227907180786133,-0.4527115523815155,0.36226367950439453
1761379809702996200,3.143996337890625,-2.202810049057007,-0.3213426172733307,0.4123052656650543
1761379809713079600,3.15407958984375,-2.169438362121582,-0.1879723072052002,0.4851211607456207
1761379809723162400,3.164162353515625,-2.114795446395874,-0.06341572105884552,0.5653424859046936
1761379809733245400,3.174245361328125,-2.0374300479888916,0.03370123729109764,0.640329122543335
1761379809743328300,3.184328369140625,-1.9415783882141113,0.07244011014699936,0.7081337571144104
1761379809753411300,3.194411376953125,-1.8454089164733887,0.04945170506834984,0.7518684267997742
1761379809763494100,3.204494140625,-1.7735015153884888,-0.004287423100322485,0.7649189829826355
1761379809773577500,3.214577392578125,-1.7334624528884888,-0.08736632764339447,0.7567127346992493
1761379809783660300,3.224660400390625,-1.7190680503845215,-0.19038406014442444,0.7291148900985718
1761379809793743400,3.234743408203125,-1.7177069187164307,-0.2987819015979767,0.6899259686470032
1761379809803826400,3.244826416015625,-1.6977540254592896,-0.38901540637016296,0.6367021799087524
1761379809813909200,3.2549091796875,-1.648871660232544,-0.4441377818584442,0.5711170434951782
1761379809823992300,3.264992431640625,-1.5749484300613403,-0.45520293712615967,0.508227527141571
1761379809834075400,3.275075439453125,-1.4812331199645996,-0.43091171979904175,0.44559717178344727
1761379809844158500,3.285158447265625,-1.384788155555725,-0.3970456123352051,0.39861902594566345
1761379809854241300,3.2952412109375,-1.2850606441497803,-0.36002981662750244,0.35781434178352356
1761379809864324400,3.305324462890625,-1.1825505495071411,-0.3393557071685791,0.31881633400917053
1761379809874407200,3.3154072265625,-1.079285979270935,-0.32754644751548767,0.2777426540851593
1761379809884490200,3.325490234375,-0.9807732701301575,-0.3215181231498718,0.25357234477996826
1761379809894573600,3.335573486328125,-0.8979513049125671,-0.33265119791030884,0.23614275455474854
1761379809904656400,3.345656494140625,-0.832947850227356,-0.36371910572052,0.23033946752548218
1761379809914739500,3.355739501953125,-0.7775862812995911,-0.40393149852752686,0.2122747153043747
1761379809924822300,3.365822265625,-0.724914014339447,-0.42360052466392517,0.16338306665420532
1761379809934905300,3.3759052734375,-0.6652536392211914,-0.4298131465911865,0.10306646674871445
1761379809944988200,3.38598828125,-0.6141275763511658,-0.40439942479133606,0.045520346611738205
1761379809955071500,3.396071533203125,-0.5538837313652039,-0.3381330370903015,0.027896612882614136
1761379809965154300,3.406154296875,-0.4829157888889313,-0.2114480584859848,0.07001716643571854
1761379809975237400,3.4162373046875,-0.4008989632129669,-0.0015877765836194158,0.17942781746387482
1761379809985320400,3.426320556640625,-0.3352014422416687,0.08574233204126358,0.24640019237995148
1761379809995403300,3.4364033203125,-0.31135255098342896,-0.027467310428619385,0.19518467783927917
1761379810005486300,3.446486328125,-0.3477180302143097,-0.3402009904384613,0.007929029874503613
1761379810015569400,3.4565693359375,-0.47531992197036743,-0.7217081189155579,-0.2751018702983856
1761379810025652500,3.466652587890625,-0.6791926026344299,-0.9503557085990906,-0.5575284957885742
1761379810035735300,3.4767353515625,-0.9088433980941772,-0.9600985646247864,-0.7516793608665466
1761379810045818400,3.486818359375,-1.1222577095031738,-0.7606041431427002,-0.8041905164718628
1761379810055901200,3.496901123046875,-1.252030611038208,-0.39591965079307556,-0.7240937948226929
1761379810065984300,3.506984375,-1.2200052738189697,0.05819672718644142,-0.5668416023254395
1761379810076067300,3.5170673828125,-1.0273370742797852,0.4879145324230194,-0.3721437454223633
1761379810086150400,3.527150390625,-0.7480396032333374,0.7337341904640198,-0.1863802671432495
1761379810096233500,3.5372333984375,-0.47797322273254395,0.6950666904449463,-0.025620941072702408
1761379810106316300,3.54731640625,-0.26720160245895386,0.3472501039505005,0.050641607493162155
1761379810116399400,3.5573994140625,-0.14321601390838623,-0.1644137054681778,0.07225395739078522
1761379810126482200,3.567482177734375,-0.14404399693012238,-0.6815990805625916,0.1046968474984169
1761379810136565500,3.5775654296875,-0.2466617077589035,-1.033709168434143,0.19839617609977722
1761379810146648300,3.5876484375,-0.38733920454978943,-1.1105592250823975,0.3833106458187103
1761379810156731400,3.5977314453125,-0.543870210647583,-1.0015853643417358,0.612837016582489
1761379810166814200,3.607814208984375,-0.6728106141090393,-0.8562337160110474,0.7840439677238464
1761379810176897300,3.617897216796875,-0.7372484803199768,-0.79850172996521,0.7989371418952942
1761379810186980400,3.62798046875,-0.7501448392868042,-0.7881937026977539,0.6509114503860474
1761379810197063400,3.6380634765625,-0.7263550758361816,-0.7784715294837952,0.38672295212745667
1761379810207146500,3.648146484375,-0.6784448027610779,-0.748073935508728,0.08927395194768906
1761379810217229300,3.658229248046875,-0.6389360427856445,-0.7106900811195374,-0.16879300773143768
1761379810227312400,3.6683125,-0.628219723701477,-0.6782256364822388,-0.32971346378326416
1761379810237395200,3.678395263671875,-0.6386933922767639,-0.6704180240631104,-0.3954964578151703
1761379810247478300,3.688478271484375,-0.6519796252250671,-0.6676989793777466,-0.3610559403896332
1761379810257561300,3.698561279296875,-0.6591659188270569,-0.6300743222236633,-0.2551422715187073
1761379810267644400,3.70864453125,-0.656392514705658,-0.561876654624939,-0.11538464576005936
1761379810277727500,3.7187275390625,-0.6461142897605896,-0.5067167282104492,-0.0012948289513587952
1761379810287810300,3.728810302734375,-0.6462796926498413,-0.4630206525325775,0.05626779794692993
1761379810297893400,3.738893310546875,-0.6584785580635071,-0.4179607629776001,0.06666477769613266
1761379810307976200,3.74897607421875,-0.6542683839797974,-0.33587121963500977,0.06822006404399872
1761379810318059500,3.7590595703125,-0.6434729695320129,-0.2005714476108551,0.06645891815423965
1761379810328142300,3.769142333984375,-0.6076417565345764,-0.08838073164224625,0.0482543483376503
1761379810338225400,3.779225341796875,-0.5527361631393433,-0.02882818505167961,0.00987340323626995
1761379810348309000,3.78930908203125,-0.49923086166381836,-0.03922276943922043,-0.045278530567884445
1761379810358392000,3.79939208984375,-0.4717864394187927,-0.10118333995342255,-0.10510671138763428
1761379810368475000,3.809474853515625,-0.46243101358413696,-0.16298864781856537,-0.1662406325340271
1761379810378558000,3.819557861328125,-0.45431023836135864,-0.2090482860803604,-0.21089226007461548
1761379810388640800,3.829640869140625,-0.4461439251899719,-0.24758529663085938,-0.23973429203033447
1761379810398724000,3.83972412109375,-0.4388172924518585,-0.28308576345443726,-0.26166781783103943
1761379810408807000,3.849806884765625,-0.4249004125595093,-0.3251644968986511,-0.267673522233963
1761379810418890000,3.859889892578125,-0.39812740683555603,-0.3600311577320099,-0.27261847257614136
1761379810428973000,3.86997314453125,-0.37098953127861023,-0.36184102296829224,-0.2548823654651642
1761379810439056000,3.880055908203125,-0.35149386525154114,-0.3643800914287567,-0.22297023236751556
1761379810449139000,3.890138916015625,-0.33916980028152466,-0.3265852928161621,-0.1657002866268158
1761379810459222000,3.900221923828125,-0.30830883979797363,-0.25510072708129883,-0.09090593457221985
1761379810469305000,3.91030517578125,-0.26512354612350464,-0.19852827489376068,-0.012687299400568008
1761379810479388000,3.920387939453125,-0.2185022383928299,-0.15102200210094452,0.061961106956005096
1761379810489471000,3.930470947265625,-0.1841709017753601,-0.11962546408176422,0.12770895659923553
1761379810499553800,3.9405537109375,-0.14661607146263123,-0.07723673433065414,0.2083987444639206
1761379810509636900,3.950636962890625,-0.11368422210216522,-0.058522965759038925,0.2952859699726105
1761379810519720200,3.96072021484375,-0.09111100435256958,-0.06429802626371384,0.37617868185043335
1761379810529803000,3.970802978515625,-0.08713357150554657,-0.10392453521490097,0.4352465271949768
1761379810539886000,3.980885986328125,-0.10361108183860779,-0.16821590065956116,0.46975845098495483
1761379810549969000,3.990968994140625,-0.13402517139911652,-0.20593824982643127,0.4920315146446228
1761379810560052000,4.001052001953125,-0.1503511518239975,-0.23906691372394562,0.49439162015914917
1761379810570134800,4.011134765625,-0.1655474156141281,-0.22798709571361542,0.49075907468795776
1761379810580218000,4.021218017578125,-0.16955813765525818,-0.19927635788917542,0.47318166494369507
1761379810590301000,4.031301025390625,-0.15576057136058807,-0.17157068848609924,0.4413747489452362
1761379810600384000,4.041384033203125,-0.13472558557987213,-0.1471036970615387,0.39811834692955017
1761379810610467000,4.051467041015625,-0.12731188535690308,-0.13220331072807312,0.3591158092021942
1761379810620550000,4.0615498046875,-0.12483593821525574,-0.12389078736305237,0.3232816457748413
1761379810630633000,4.071633056640625,-0.13589179515838623,-0.11196088790893555,0.3038618862628937
1761379810640716000,4.081716064453125,-0.1433774083852768,-0.11106660217046738,0.2977062463760376
1761379810650799000,4.091799072265625,-0.15587614476680756,-0.09681496024131775,0.3087543845176697
1761379810660882000,4.1018818359375,-0.15994492173194885,0.016917996108531952,0.37672916054725647
1761379810670965000,4.111965087890625,-0.15821146965026855,0.10573628544807434,0.45668765902519226
1761379810681047800,4.1220478515625,-0.17093339562416077,-0.019359316676855087,0.4338582456111908
1761379810691131000,4.132130859375,-0.16637805104255676,-0.27267545461654663,0.28329429030418396
1761379810701214000,4.1422138671875,-0.16021470725536346,-0.5465900897979736,0.02148718200623989
1761379810711297000,4.152297119140625,-0.18157458305358887,-0.6548891663551331,-0.27664756774902344
1761379810721380000,4.162380126953125,-0.2352077215909958,-0.6033204793930054,-0.5250773429870605
1761379810731463000,4.172462890625,-0.30703049898147583,-0.40427982807159424,-0.6623526811599731
1761379810741546000,4.1825458984375,-0.35626065731048584,-0.11525867879390717,-0.6730502843856812
1761379810751628800,4.19262890625,-0.3027305603027344,0.19449810683727264,-0.577265202999115
1761379810761712000,4.202712158203125,-0.14023859798908234,0.4778536558151245,-0.38164883852005005
1761379810771795000,4.212794921875,0.07419832795858383,0.6692830324172974,-0.1166459247469902
1761379810781878000,4.2228779296875,0.25900813937187195,0.7684865593910217,0.1624743938446045
1761379810791960800,4.2329609375,0.36748960614204407,0.7403457164764404,0.40656402707099915
1761379810802044000,4.2430439453125,0.40719494223594666,0.6069762110710144,0.5930827856063843
1761379810812127000,4.253126953125,0.40643540024757385,0.401752233505249,0.7077078819274902
1761379810822210000,4.2632099609375,0.3714366555213928,0.16664011776447296,0.7513954639434814
1761379810832293000,4.273293212890625,0.29927167296409607,-0.06849703192710876,0.7158294916152954
1761379810842376000,4.2833759765625,0.19306319952011108,-0.2712402939796448,0.6180421710014343
1761379810852459000,4.293458984375,0.06893432885408401,-0.4071544408798218,0.4685664176940918
1761379810862541800,4.303541748046875,-0.0668642520904541,-0.4769183397293091,0.28532227873802185
1761379810872625000,4.313625,-0.23159301280975342,-0.49614930152893066,0.07761196792125702
1761379810882708000,4.3237080078125,-0.41114041209220886,-0.47344398498535156,-0.15219326317310333
1761379810892791000,4.333791015625,-0.563064694404602,-0.39830344915390015,-0.39010488986968994
1761379810902874000,4.3438740234375,-0.6725105047225952,-0.25086310505867004,-0.6050928235054016
1761379810912957000,4.35395703125,-0.7231289148330688,-0.03416382893919945,-0.7478830218315125
1761379810923040000,4.3640400390625,-0.7226942777633667,0.22171881794929504,-0.7729241847991943
1761379810933122800,4.374122802734375,-0.6701743602752686,0.47848376631736755,-0.6743776202201843
1761379810943206100,4.3842060546875,-0.5738494396209717,0.6782423853874207,-0.4943833649158478
1761379810953289000,4.3942890625,-0.4483775198459625,0.7499226927757263,-0.2891082465648651
1761379810963372000,4.4043720703125,-0.32208484411239624,0.7300049662590027,-0.09467457979917526
1761379810973454800,4.414454833984375,-0.22393855452537537,0.6097109913825989,0.06333263218402863
1761379810983538000,4.424537841796875,-0.16558390855789185,0.44090017676353455,0.19561398029327393
1761379810993621000,4.43462109375,-0.15537600219249725,0.2795618772506714,0.31271716952323914
1761379811003704000,4.4447041015625,-0.1736101359128952,0.14651460945606232,0.4070380628108978
1761379811013787100,4.454787109375,-0.194357767701149,0.02799008972942829,0.44660013914108276
1761379811023870000,4.464869873046875,-0.2261039763689041,-0.037269074469804764,0.4248700737953186
1761379811033953000,4.474953125,-0.2460944652557373,-0.04971509054303169,0.3598436713218689
1761379811044035800,4.485035888671875,-0.2587902843952179,-0.03592098131775856,0.2606813907623291
1761379811054119000,4.495118896484375,-0.283368855714798,-0.007703992538154125,0.14700329303741455
1761379811064202000,4.505201904296875,-0.3113003671169281,0.0459645614027977,0.04186196252703667
1761379811074285000,4.51528515625,-0.3239471912384033,0.09962539374828339,-0.03491430729627609
1761379811084368000,4.525367919921875,-0.3176730275154114,0.15269607305526733,-0.08117501437664032
1761379811094451000,4.535450927734375,-0.292438268661499,0.1762634515762329,-0.08794104307889938
1761379811104534000,4.545533935546875,-0.2545803487300873,0.1588386446237564,-0.0742071196436882
1761379811114616800,4.555616943359375,-0.21354210376739502,0.1059381514787674,-0.042930424213409424
1761379811124700200,4.5657001953125,-0.17264901101589203,0.04180896654725075,-0.0027774106711149216
1761379811134783000,4.575782958984375,-0.13889557123184204,-0.017117468640208244,0.050458379089832306
1761379811144866000,4.585865966796875,-0.11684112995862961,-0.06521495431661606,0.1146557405591011
1761379811154948900,4.595948974609375,-0.09933377802371979,-0.08245892077684402,0.175512433052063
1761379811165032000,4.606031982421875,-0.0819888785481453,-0.07300709933042526,0.22673727571964264
1761379811175114800,4.61611474609375,-0.06656331568956375,-0.04214079678058624,0.25844433903694153
1761379811185198000,4.626197998046875,-0.05446590483188629,-0.02106933295726776,0.2659541964530945
1761379811195281200,4.63628125,-0.04849190264940262,-0.003050118451938033,0.2507094442844391
1761379811205364000,4.646364013671875,-0.039393745362758636,0.01805463433265686,0.2259356677532196
1761379811215447000,4.656447021484375,-0.041550640016794205,0.032579779624938965,0.1969066709280014
1761379811225529900,4.66652978515625,-0.0406118743121624,0.04452858492732048,0.1714170277118683
1761379811235613000,4.676613037109375,-0.042443063110113144,0.05751149728894234,0.15755712985992432
1761379811245696000,4.686696044921875,-0.03867335990071297,0.06655479222536087,0.1635175496339798
1761379811255779000,4.696779052734375,-0.03699183836579323,0.06059543788433075,0.1782618761062622
1761379811265862000,4.70686181640625,-0.03181332349777222,0.04567161574959755,0.19563235342502594
1761379811275945000,4.716945068359375,-0.021034711971879005,0.029385585337877274,0.20792096853256226
1761379811286028000,4.727028076171875,-0.005053082015365362,0.0160687156021595,0.21514852344989777
1761379811296110800,4.73711083984375,0.005850432440638542,0.006452040281146765,0.21858720481395721
1761379811306194200,4.747194091796875,0.020059995353221893,0.01606898196041584,0.2213883101940155
1761379811316277000,4.757277099609375,0.04388010501861572,0.11607201397418976,0.2442539483308792
1761379811326360000,4.767360107421875,0.06689275056123734,0.2607373297214508,0.2803219258785248
1761379811336443000,4.77744287109375,0.06947361677885056,0.2268643081188202,0.23862962424755096
1761379811346521600,4.787521484375,0.07627346366643906,0.055808670818805695,0.11511753499507904
1761379811356605000,4.79760498046875,0.09028276056051254,-0.21916404366493225,-0.11745978146791458
1761379811366687700,4.807687744140625,0.05753359943628311,-0.4234210252761841,-0.4369887709617615
1761379811376770800,4.817770751953125,-0.02046372927725315,-0.49463051557540894,-0.7381616830825806
1761379811386853600,4.827853515625,-0.14627705514431,-0.44439077377319336,-0.929706871509552
1761379811396936700,4.837936767578125,-0.32996779680252075,-0.26760348677635193,-0.9449188709259033
1761379811407019500,4.84801953125,-0.448608934879303,-0.03321760892868042,-0.7941178679466248
1761379811417102800,4.858102783203125,-0.43220680952072144,0.26804688572883606,-0.5395119786262512
1761379811427185700,4.868185546875,-0.3013835549354553,0.4984968900680542,-0.2605043053627014
1761379811437268700,4.878268798828125,-0.1595688909292221,0.5746278762817383,-0.06021886691451073
1761379811447351800,4.888351806640625,-0.07231307774782181,0.5578590035438538,0.04007072001695633
1761379811457434600,4.8984345703125,-0.028141090646386147,0.4816494584083557,0.05985188111662865
1761379811467517700,4.908517578125,-0.0008820389630272985,0.41144639253616333,0.07195009291172028
1761379811477600800,4.918600830078125,0.0044173854403197765,0.37001585960388184,0.11732742190361023
1761379811487683800,4.928683837890625,0.0026961842086166143,0.31888291239738464,0.18662473559379578
1761379811497766700,4.9387666015625,0.016176041215658188,0.21659861505031586,0.24118731915950775
1761379811507849700,4.948849609375,0.04749001935124397,0.03250707685947418,0.25060132145881653
1761379811517932500,4.9589326171875,0.07072237133979797,-0.1906929910182953,0.21780049800872803
1761379811528015600,4.969015625,0.07151226699352264,-0.36218592524528503,0.17959453165531158
1761379811538098700,4.9790986328125,0.02719673328101635,-0.464893102645874,0.1549283266067505
1761379811548181800,4.989181640625,-0.05252446234226227,-0.48203587532043457,0.15160684287548065
1761379811558264800,4.999264892578125,-0.13803988695144653,-0.42622533440589905,0.17283515632152557
1761379811568347600,5.00934765625,-0.2170598804950714,-0.3490560054779053,0.20230090618133545
1761379811578430700,5.0194306640625,-0.27889394760131836,-0.2546365559101105,0.21359883248806
1761379811588513500,5.029513427734375,-0.30701079964637756,-0.1944642812013626,0.1991562396287918
1761379811598596900,5.039596923828125,-0.3110601305961609,-0.17553241550922394,0.1463167369365692
1761379811608679700,5.0496796875,-0.3046658933162689,-0.1747765988111496,0.06372145563364029
1761379811618762800,5.0597626953125,-0.3029566705226898,-0.18014021217823029,-0.014480671845376492
1761379811628845600,5.069845458984375,-0.3116074204444885,-0.18319059908390045,-0.0656551793217659
1761379811638928600,5.0799287109375,-0.3299558162689209,-0.18055459856987,-0.07161559909582138
1761379811649011700,5.09001171875,-0.34573104977607727,-0.15792597830295563,-0.026429209858179092
1761379811659094800,5.1000947265625,-0.35221609473228455,-0.1130775511264801,0.04234106466174126
1761379811669177900,5.110177734375,-0.323487788438797,-0.11646722257137299,0.09445406496524811
1761379811679260700,5.1202607421875,-0.2775985896587372,-0.12852415442466736,0.13458311557769775
1761379811689343700,5.13034375,-0.2576560378074646,-0.13542360067367554,0.1536332368850708
1761379811699426600,5.140426513671875,-0.2595426142215729,-0.16072683036327362,0.151097372174263
1761379811709509600,5.150509521484375,-0.26583728194236755,-0.19450663030147552,0.13994964957237244
1761379811719592700,5.1605927734375,-0.27395379543304443,-0.21717067062854767,0.12844452261924744
1761379811729675800,5.17067578125,-0.2968654930591583,-0.22595776617527008,0.12702372670173645
1761379811739758800,5.1807587890625,-0.32031622529029846,-0.22682009637355804,0.12479093670845032
1761379811749841700,5.190841552734375,-0.3344205915927887,-0.22625604271888733,0.12787248194217682
1761379811759924700,5.2009248046875,-0.34270673990249634,-0.22228127717971802,0.1333330273628235
1761379811770007600,5.211007568359375,-0.34095919132232666,-0.2070131003856659,0.15162122249603271
1761379811780091000,5.2210908203125,-0.33212682604789734,-0.17405036091804504,0.17374595999717712
1761379811790173700,5.231173583984375,-0.319044291973114,-0.1487218290567398,0.1952187567949295
1761379811800256800,5.2412568359375,-0.31877559423446655,-0.1446959376335144,0.2208612710237503
1761379811810339600,5.251339599609375,-0.3307315707206726,-0.13622282445430756,0.2518679201602936
1761379811820422700,5.261422607421875,-0.3566305637359619,-0.12767460942268372,0.2815922796726227
1761379811830505700,5.271505615234375,-0.3905448615550995,-0.12089286744594574,0.2970689535140991
1761379811840588800,5.2815888671875,-0.4230886697769165,-0.12289050221443176,0.2995252013206482
1761379811850671900,5.291671875,-0.4532407224178314,-0.1463276445865631,0.2979491353034973
1761379811860754700,5.301754638671875,-0.474042683839798,-0.1772136688232422,0.2923485040664673
1761379811870837800,5.311837646484375,-0.4828193783760071,-0.2008521407842636,0.30373165011405945
1761379811880920600,5.321920654296875,-0.4928746819496155,-0.2223992496728897,0.3273957073688507
1761379811891003600,5.332003662109375,-0.5110790133476257,-0.2366173267364502,0.35382863879203796
1761379811901086700,5.342086669921875,-0.5229979753494263,-0.24390454590320587,0.35592028498649597
1761379811911169800,5.352169677734375,-0.5328801274299622,-0.23617339134216309,0.3256444036960602
1761379811921252600,5.362252685546875,-0.5406382083892822,-0.21149998903274536,0.2745479345321655
1761379811931335700,5.372335693359375,-0.5426645874977112,-0.16483183205127716,0.22670291364192963
1761379811941418800,5.382418701171875,-0.5405716300010681,-0.10185525566339493,0.19308583438396454
1761379811951501600,5.39250146484375,-0.5347046852111816,-0.02786545269191265,0.1973748505115509
1761379811961585000,5.4025849609375,-0.5315943956375122,0.04440395161509514,0.2387167066335678
1761379811971667700,5.412667724609375,-0.5335485935211182,0.12272405624389648,0.31435632705688477
1761379811981750800,5.422750732421875,-0.5378592014312744,0.2651216685771942,0.41899245977401733
1761379811991833600,5.43283349609375,-0.5240560173988342,0.5288665294647217,0.5811025500297546
1761379812001916700,5.442916748046875,-0.4987962245941162,0.6641015410423279,0.7169602513313293
1761379812011999500,5.45299951171875,-0.46893951296806335,0.5678634643554688,0.7590946555137634
1761379812022082800,5.463082763671875,-0.4452568292617798,0.2923269271850586,0.6924586296081543
1761379812032166000,5.473165771484375,-0.47683659195899963,-0.01357306633144617,0.5391100645065308
1761379812042248700,5.483248779296875,-0.6115999817848206,-0.2582049071788788,0.32119905948638916
1761379812052331800,5.493331787109375,-0.8658892512321472,-0.48648789525032043,0.04188593104481697
1761379812062414600,5.50341455078125,-1.1669175624847412,-0.5810285210609436,-0.2478332370519638
1761379812072497700,5.51349755859375,-1.4351361989974976,-0.4944446086883545,-0.4486587643623352
1761379812082580700,5.523580810546875,-1.6081455945968628,-0.22740866243839264,-0.5263319611549377
1761379812092663800,5.533663818359375,-1.6466540098190308,0.12564846873283386,-0.4506550431251526
1761379812102746600,5.54374658203125,-1.5581915378570557,0.4451146125793457,-0.2297586351633072
1761379812112829700,5.55382958984375,-1.4117374420166016,0.6387434601783752,0.05897330492734909
1761379812122912800,5.563912841796875,-1.2764462232589722,0.6086825132369995,0.34608525037765503
1761379812132995600,5.57399560546875,-1.1381500959396362,0.3431437909603119,0.5859684348106384
1761379812143079000,5.584078857421875,-1.0442923307418823,-0.04013463482260704,0.7624294757843018
1761379812153161700,5.59416162109375,-1.0706669092178345,-0.4562319815158844,0.8722502589225769
1761379812163244800,5.604244873046875,-1.200629711151123,-0.926260232925415,0.9116567373275757
1761379812173327600,5.61432763671875,-1.3956888914108276,-1.3905482292175293,0.8974120616912842
1761379812183410700,5.62441064453125,-1.6270233392715454,-1.6907517910003662,0.8521993160247803
1761379812193493500,5.634493408203125,-1.8592007160186768,-1.8071476221084595,0.8181742429733276
1761379812203576800,5.644576904296875,-2.0251736640930176,-1.786543846130371,0.7897066473960876
1761379812213659600,5.65465966796875,-2.1205568313598633,-1.6297261714935303,0.7450949549674988
1761379812223742700,5.66474267578125,-2.1608011722564697,-1.4034110307693481,0.6781822443008423
1761379812233825800,5.67482568359375,-2.1759753227233887,-1.1654025316238403,0.5529622435569763
1761379812243908600,5.68490869140625,-2.1742680072784424,-0.9482020139694214,0.3978709280490875
1761379812253991700,5.69499169921875,-2.178215503692627,-0.786025881767273,0.2702628970146179
1761379812264074800,5.70507470703125,-2.2161169052124023,-0.6969135403633118,0.1852681189775467
1761379812274157800,5.71515771484375,-2.287648916244507,-0.7065153121948242,0.14079652726650238
1761379812284240600,5.72524072265625,-2.37736177444458,-0.7986636161804199,0.114457868039608
1761379812294323700,5.73532373046875,-2.489793062210083,-0.9351370334625244,0.12718644738197327
1761379812304406500,5.745406494140625,-2.601522922515869,-1.074052095413208,0.17405009269714355
1761379812314489600,5.755489501953125,-2.701922655105591,-1.1703077554702759,0.2262728214263916
1761379812324573000,5.765572998046875,-2.7669196128845215,-1.2091853618621826,0.26265639066696167
1761379812334655700,5.77565576171875,-2.8100244998931885,-1.1814028024673462,0.2934017777442932
1761379812344739000,5.785739013671875,-2.855290412902832,-1.1358722448349,0.3164735436439514
1761379812354822100,5.795822265625,-2.849714517593384,-1.1064409017562866,0.33007165789604187
1761379812364905200,5.8059052734375,-2.8157806396484375,-1.049251914024353,0.3503934442996979
1761379812374988300,5.81598828125,-2.7769181728363037,-0.9711483120918274,0.39847999811172485
1761379812385071400,5.8260712890625,-2.733095407485962,-0.9271577000617981,0.4501439929008484
1761379812395154200,5.836154296875,-2.6798346042633057,-0.940837562084198,0.47614896297454834
1761379812405237200,5.8462373046875,-2.6360700130462646,-0.9864867925643921,0.4768355190753937
1761379812415320000,5.856320068359375,-2.599879741668701,-1.0505558252334595,0.45422154664993286
1761379812425403100,5.866403076171875,-2.5660994052886963,-1.0597450733184814,0.46239373087882996
1761379812435486200,5.876486328125,-2.5534822940826416,-1.0450425148010254,0.49495407938957214
1761379812445569300,5.8865693359375,-2.544686794281006,-1.0466209650039673,0.5194775462150574
1761379812455652400,5.89665234375,-2.548030376434326,-1.0559263229370117,0.5471552014350891
1761379812465735200,5.906735107421875,-2.5576157569885254,-1.0348609685897827,0.5702142119407654
1761379812475818200,5.916818359375,-2.565088987350464,-0.9964291453361511,0.580622136592865
1761379812485901000,5.926901123046875,-2.5627286434173584,-0.9525455832481384,0.5880004167556763
1761379812495984400,5.936984375,-2.552072525024414,-0.9124066829681396,0.5846956968307495
1761379812506067200,5.947067138671875,-2.5438218116760254,-0.8660325407981873,0.5735902786254883
1761379812516150300,5.957150390625,-2.520660161972046,-0.8239319920539856,0.5437464118003845
1761379812526233000,5.967233154296875,-2.498729944229126,-0.7882109880447388,0.49741509556770325
1761379812536316200,5.977316162109375,-2.467643976211548,-0.766974925994873,0.4450134038925171
1761379812546399200,5.987399169921875,-2.4468472003936768,-0.7689049243927002,0.3956812918186188
1761379812556482300,5.997482421875,-2.44317889213562,-0.7535523176193237,0.38378414511680603
1761379812566565400,6.0075654296875,-2.422471284866333,-0.7403241395950317,0.37849509716033936
1761379812576648200,6.017648193359375,-2.383399486541748,-0.6740849614143372,0.39930665493011475
1761379812586731300,6.027731201171875,-2.3202309608459473,-0.6082907319068909,0.41815704107284546
1761379812596814000,6.03781396484375,-2.234717845916748,-0.594668447971344,0.40807750821113586
1761379812606897200,6.047897216796875,-2.1408133506774902,-0.5874733328819275,0.39608821272850037
1761379812616980200,6.057980224609375,-2.051996946334839,-0.5506817698478699,0.3926159739494324
1761379812627063300,6.068063232421875,-1.9712872505187988,-0.5782705545425415,0.38105493783950806
1761379812637146000,6.07814599609375,-1.891324758529663,-0.6662334203720093,0.371827632188797
1761379812647229200,6.088229248046875,-1.829835057258606,-0.762337327003479,0.3370983898639679
1761379812657312300,6.098312255859375,-1.8045220375061035,-0.8418497443199158,0.2790609300136566
1761379812667395000,6.10839501953125,-1.8444201946258545,-0.8667694330215454,0.2389420121908188
1761379812677478400,6.118478515625,-1.8700144290924072,-0.728647768497467,0.24051673710346222
1761379812687561200,6.128561279296875,-1.8174042701721191,-0.38446885347366333,0.2832849621772766
1761379812697644300,6.138644287109375,-1.6721748113632202,-0.12226865440607071,0.2969648241996765
1761379812707727000,6.14872705078125,-1.5408892631530762,-0.09002256393432617,0.21463027596473694
1761379812717810200,6.15881005859375,-1.4146684408187866,-0.42842406034469604,0.03139973431825638
1761379812727893000,6.16889306640625,-1.339607834815979,-0.8750476241111755,-0.16643984615802765
1761379812737976300,6.178976318359375,-1.3684091567993164,-1.225206732749939,-0.28033870458602905
1761379812748059400,6.189059326171875,-1.4825143814086914,-1.3036713600158691,-0.25953009724617004
1761379812758142200,6.19914208984375,-1.6666059494018555,-1.1027436256408691,-0.1036480963230133
1761379812768225300,6.209225341796875,-1.72992742061615,-0.8003280758857727,0.083253875374794
1761379812778308000,6.21930810546875,-1.7245731353759766,-0.39850956201553345,0.2719961106777191
1761379812788391200,6.22939111328125,-1.6502560377120972,-0.20122897624969482,0.410837322473526
1761379812798474200,6.23947412109375,-1.4911912679672241,-0.18312162160873413,0.4811623692512512
1761379812808557300,6.249557373046875,-1.3677308559417725,-0.2390618473291397,0.5412403345108032
1761379812818640100,6.25964013671875,-1.3009275197982788,-0.4627934694290161,0.5510026812553406
1761379812828723200,6.26972314453125,-1.2779591083526611,-0.7034226059913635,0.5448614358901978
1761379812838806300,6.27980615234375,-1.3006916046142578,-0.8218557834625244,0.5826717019081116
1761379812848889000,6.28988916015625,-1.347097396850586,-0.815020740032196,0.6489732265472412
1761379812858972400,6.299972412109375,-1.4030382633209229,-0.7189650535583496,0.6632378697395325
1761379812869055200,6.31005517578125,-1.4569376707077026,-0.615453839302063,0.5767927765846252
1761379812879138300,6.32013818359375,-1.4995123147964478,-0.5352572798728943,0.40416958928108215
1761379812889221000,6.33022119140625,-1.5492595434188843,-0.4709251821041107,0.2015027552843094
1761379812899304200,6.34030419921875,-1.6144497394561768,-0.43151384592056274,0.0211204644292593
1761379812909387000,6.350386962890625,-1.6768497228622437,-0.4293646812438965,-0.12314590066671371
1761379812919470300,6.36047021484375,-1.7268396615982056,-0.44489970803260803,-0.2347821444272995
1761379812929553200,6.37055322265625,-1.772670030593872,-0.481330931186676,-0.32191306352615356
1761379812939636200,6.38063623046875,-1.8113170862197876,-0.5366573333740234,-0.3668464422225952
1761379812949719300,6.39071923828125,-1.8367544412612915,-0.5925541520118713,-0.3749070465564728
1761379812959802000,6.400802001953125,-1.8282904624938965,-0.5762377381324768,-0.3213924169540405
1761379812969885200,6.41088525390625,-1.805322527885437,-0.5254520773887634,-0.22196196019649506
1761379812979968300,6.42096826171875,-1.7459430694580078,-0.49850672483444214,-0.12782374024391174
1761379812990051300,6.43105126953125,-1.6934764385223389,-0.45337653160095215,-0.02243686653673649
1761379813000134100,6.441134033203125,-1.6405980587005615,-0.44380301237106323,0.06280799210071564
1761379813010217200,6.45121728515625,-1.5885363817214966,-0.47020238637924194,0.10305394977331161
1761379813020300000,6.461300048828125,-1.5494787693023682,-0.5252594947814941,0.1219959482550621
1761379813030383000,6.471383056640625,-1.5157322883605957,-0.5920217633247375,0.13575969636440277
1761379813040466400,6.481466552734375,-1.494936466217041,-0.678138256072998,0.16851338744163513
1761379813050549200,6.49154931640625,-1.4866607189178467,-0.7529933452606201,0.2072644978761673
1761379813060632300,6.50163232421875,-1.5112149715423584,-0.7727875709533691,0.23779632151126862
1761379813070715100,6.511715087890625,-1.526336431503296,-0.7228732705116272,0.24620498716831207
1761379813080798200,6.521798095703125,-1.5215984582901,-0.6076452136039734,0.2254144847393036
1761379813090881000,6.531881103515625,-1.5313647985458374,-0.4481889605522156,0.1662483662366867
1761379813100964400,6.54196435546875,-1.516310453414917,-0.30610373616218567,0.052324987947940826
1761379813111047200,6.552047119140625,-1.4889360666275024,-0.2163890302181244,-0.06912234425544739
1761379813121130200,6.562130126953125,-1.4806392192840576,-0.2080077975988388,-0.14942091703414917
1761379813131213300,6.57221337890625,-1.4723011255264282,-0.25464507937431335,-0.1786549687385559
1761379813141296000,6.582296142578125,-1.4567341804504395,-0.29833370447158813,-0.1443300098180771
1761379813151379200,6.592379150390625,-1.4494869709014893,-0.36929309368133545,-0.069365493953228
1761379813161462300,6.602462158203125,-1.4153982400894165,-0.40618452429771423,0.02581215649843216
1761379813171545300,6.61254541015625,-1.3648293018341064,-0.37898966670036316,0.10858506709337234
1761379813181628200,6.622628173828125,-1.2992340326309204,-0.33744940161705017,0.17667411267757416
1761379813191711200,6.632711181640625,-1.219150424003601,-0.33061254024505615,0.22185330092906952
1761379813201794000,6.6427939453125,-1.1202589273452759,-0.3403802216053009,0.25637105107307434
1761379813211877000,6.652877197265625,-1.0398805141448975,-0.3698481023311615,0.2839867174625397
1761379813221960200,6.662960205078125,-0.9771326780319214,-0.4187365472316742,0.3084081709384918
1761379813232043300,6.673043212890625,-0.9297260642051697,-0.4683581590652466,0.31959158182144165
1761379813242126300,6.683126220703125,-0.9097163677215576,-0.5067620277404785,0.3003385365009308
1761379813252209200,6.693209228515625,-0.9163575172424316,-0.5355638265609741,0.2564629316329956
1761379813262292200,6.703292236328125,-0.9517751336097717,-0.5394120812416077,0.21237830817699432
1761379813272375000,6.713375,-0.9858827590942383,-0.48829084634780884,0.18335038423538208
1761379813282458400,6.723458251953125,-0.9787130355834961,-0.3755970597267151,0.17630338668823242
1761379813292541200,6.733541259765625,-0.9366779327392578,-0.23836436867713928,0.18532271683216095
1761379813302624300,6.743624267578125,-0.8630492687225342,-0.1281883269548416,0.19469144940376282
1761379813312707000,6.75370703125,-0.7737191319465637,-0.04384894669055939,0.1897246539592743
1761379813322790100,6.7637900390625,-0.6987625956535339,-0.009210542775690556,0.1851797103881836
1761379813332873200,6.773873291015625,-0.6538161635398865,-0.038352448493242264,0.19354017078876495
1761379813342956300,6.783956298828125,-0.6360286474227905,-0.06795481592416763,0.22476999461650848
1761379813353043200,6.794043212890625,-0.6354243755340576,-0.10003099590539932,0.25320297479629517
1761379813363126000,6.8041259765625,-0.6350584626197815,-0.15535150468349457,0.26255252957344055
1761379813373209000,6.814208984375,-0.6496691107749939,-0.17510177195072174,0.2722935676574707
1761379813383292200,6.824292236328125,-0.6559498906135559,-0.09133017808198929,0.2846575677394867
1761379813393375200,6.834375244140625,-0.6281036138534546,0.028502214699983597,0.28943419456481934
1761379813403458000,6.8444580078125,-0.5728568434715271,0.16023308038711548,0.3285890817642212
1761379813413541000,6.854541015625,-0.5331336855888367,0.2721782624721527,0.5510554313659668
1761379813423624000,6.8646240234375,-0.4796597957611084,-0.0849284753203392,0.7015847563743591
1761379813433707000,6.87470703125,-0.43307632207870483,-0.490522563457489,0.7338686585426331
1761379813443790000,6.8847900390625,-0.4457934498786926,-0.8991218209266663,0.5731724500656128
1761379813453873200,6.894873046875,-0.4878444969654083,-1.1660104990005493,0.24958106875419617
1761379813463956200,6.904956298828125,-0.5421109199523926,-1.1948062181472778,-0.18233998119831085
1761379813474039000,6.9150390625,-0.5904278755187988,-0.9469151496887207,-0.5861990451812744
1761379813484122000,6.9251220703125,-0.5689910054206848,-0.4721611440181732,-0.8625139594078064
1761379813494205000,6.935204833984375,-0.4679131507873535,0.1378880888223648,-0.9568026661872864
1761379813504288300,6.945288330078125,-0.29388540983200073,0.6430263519287109,-0.889735758304596
