time,seconds_elapsed,z,y,x
1761379806627678700,0.0686787109375,0.1057949811220169,0.04003634676337242,0.07113076746463776
1761379806637761500,0.078761474609375,0.11473627388477325,0.18808014690876007,0.04677163437008858
1761379806647844600,0.0888447265625,0.12220608443021774,0.24135752022266388,0.0058625005185604095
1761379806657927400,0.098927490234375,0.12171126157045364,0.20920518040657043,-0.05275527015328407
1761379806668010800,0.1090107421875,0.11343327164649963,0.12247107177972794,-0.11487233638763428
1761379806678093600,0.119093505859375,0.10042107105255127,0.025261692702770233,-0.18299733102321625
1761379806688176600,0.1291767578125,0.09826923161745071,-0.055861059576272964,-0.23749826848506927
1761379806698259700,0.139259765625,0.10306159406900406,-0.09269578009843826,-0.2572173774242401
1761379806708342500,0.149342529296875,0.10928324609994888,-0.0907488614320755,-0.2338552325963974
1761379806718425600,0.159425537109375,0.12000752985477448,-0.06736338138580322,-0.17923299968242645
1761379806728508700,0.1695087890625,0.1393483281135559,-0.049587901681661606,-0.10782503336668015
1761379806738591700,0.179591796875,0.1673453450202942,-0.028279151767492294,-0.03905129060149193
1761379806748674600,0.189674560546875,0.18663357198238373,-0.023009300231933594,0.018612919375300407
1761379806758757600,0.199757568359375,0.1963072419166565,-0.04638120159506798,0.058249812573194504
1761379806768840400,0.20984033203125,0.19270339608192444,-0.07162553817033768,0.06815916299819946
1761379806778923500,0.219923583984375,0.17924536764621735,-0.09943319857120514,0.06251033395528793
1761379806789006600,0.230006591796875,0.17295639216899872,-0.12629248201847076,0.03986179083585739
1761379806799089700,0.240089599609375,0.17213881015777588,-0.1351509541273117,0.0228218212723732
1761379806809172700,0.2501728515625,0.16970719397068024,-0.11356969177722931,0.025601685047149658
1761379806819255600,0.260255615234375,0.175718754529953,-0.1021663025021553,0.03446681424975395
1761379806829338600,0.270338623046875,0.1863066405057907,-0.10939542949199677,0.03886247053742409
1761379806839421400,0.28042138671875,0.18802890181541443,-0.14161914587020874,0.02780875563621521
1761379806849504800,0.2905048828125,0.17537403106689453,-0.17028185725212097,0.002277133986353874
1761379806859587600,0.300587646484375,0.16444122791290283,-0.1849561333656311,-0.03925938904285431
1761379806869670700,0.310670654296875,0.16104865074157715,-0.18155735731124878,-0.08156407624483109
1761379806879753500,0.32075341796875,0.16401807963848114,-0.15902914106845856,-0.12282416224479675
1761379806889836500,0.33083642578125,0.16443635523319244,-0.14186841249465942,-0.15901684761047363
1761379806899919600,0.340919677734375,0.16198571026325226,-0.1339295208454132,-0.1875976324081421
1761379806910002700,0.351002685546875,0.15097105503082275,-0.14241652190685272,-0.21295017004013062
1761379806920085800,0.361085693359375,0.13202613592147827,-0.14031662046909332,-0.23060745000839233
1761379806930168600,0.37116845703125,0.1297379732131958,-0.1254611611366272,-0.2144968956708908
1761379806940251600,0.381251708984375,0.1317470520734787,-0.10404322296380997,-0.17605842649936676
1761379806950334500,0.39133447265625,0.12518537044525146,-0.08935289084911346,-0.13296926021575928
1761379806960417500,0.40141748046875,0.1148720309138298,-0.07573907822370529,-0.10919070243835449
1761379806970500600,0.41150048828125,0.1043432205915451,-0.06505287438631058,-0.11239608377218246
1761379806980583700,0.421583740234375,0.10012716799974442,-0.05948900431394577,-0.1462555080652237
1761379806990666800,0.431666748046875,0.09037036448717117,-0.041306570172309875,-0.1844327300786972
1761379807000749600,0.44174951171875,0.07879333198070526,-0.014305314980447292,-0.21683114767074585
1761379807010832600,0.45183251953125,0.06156964972615242,0.020915888249874115,-0.22633479535579681
1761379807020915500,0.46191552734375,0.04943762347102165,0.053816311061382294,-0.22521519660949707
1761379807030998800,0.471998779296875,0.06555527448654175,0.030753375962376595,-0.23897522687911987
1761379807041081600,0.48208154296875,0.07105337083339691,0.04524257034063339,-0.2240029275417328
1761379807051164700,0.49216455078125,0.05596963316202164,0.10384302586317062,-0.18718039989471436
1761379807061247500,0.50224755859375,0.016296790912747383,0.12648841738700867,-0.16372248530387878
1761379807071330600,0.51233056640625,-0.006185518577694893,0.06814883649349213,-0.15973606705665588
1761379807081413600,0.52241357421875,-0.015363570302724838,0.050559721887111664,-0.1534544676542282
1761379807091496700,0.53249658203125,-0.011412600986659527,0.04075220599770546,-0.1510716676712036
1761379807101579800,0.542579833984375,-0.012905302457511425,0.03744535893201828,-0.13614492118358612
1761379807111662600,0.55266259765625,-0.006486658938229084,0.016419174149632454,-0.13019223511219025
1761379807121745700,0.56274560546875,-0.005103679373860359,-0.005975879728794098,-0.1196352019906044
1761379807131828500,0.572828369140625,-0.0091148866340518,-0.01396612823009491,-0.10337792336940765
1761379807141911600,0.58291162109375,-0.01830012910068035,-0.01655977964401245,-0.08119618892669678
1761379807151994600,0.59299462890625,-0.02090694010257721,-0.03229488432407379,-0.06591171771287918
1761379807162077700,0.60307763671875,-0.03715355321764946,-0.07722374051809311,-0.065159372985363
1761379807172160500,0.613160400390625,-0.02863297425210476,-0.10338573157787323,-0.08915334939956665
1761379807182243600,0.62324365234375,-0.030372019857168198,-0.030842024832963943,-0.09835749864578247
1761379807192326700,0.63332666015625,-0.031403448432683945,0.04668097943067551,-0.11296135187149048
1761379807202409500,0.643409423828125,-0.010675531812012196,0.06897217035293579,-0.12863433361053467
1761379807212492800,0.653492919921875,0.019720114767551422,0.13984060287475586,-0.10778897255659103
1761379807222575600,0.66357568359375,0.05341123417019844,0.16713427007198334,-0.08568313717842102
1761379807232658700,0.67365869140625,0.07444000989198685,0.14215964078903198,-0.07325314730405807
1761379807242741500,0.683741455078125,0.08432379364967346,0.08796005696058273,-0.06814759969711304
1761379807252824600,0.693824462890625,0.08226612955331802,0.03830927237868309,-0.06223224475979805
1761379807262907400,0.703907470703125,0.07526814192533493,0.004194179084151983,-0.04470038786530495
1761379807272990700,0.71399072265625,0.06579538434743881,-0.02300773561000824,-0.026156213134527206
1761379807283073500,0.724073486328125,0.03980133682489395,-0.036278799176216125,-0.01600903645157814
1761379807293156600,0.734156494140625,0.026600562036037445,-0.020899822935461998,-0.014696482568979263
1761379807303239700,0.74423974609375,0.03874377906322479,-0.009101487696170807,-0.03825933486223221
1761379807313322500,0.754322509765625,0.04933542013168335,0.019242994487285614,-0.06396899372339249
1761379807323405600,0.764405517578125,0.052723228931427,0.0396268293261528,-0.0896700993180275
1761379807333488600,0.774488525390625,0.05144710838794708,0.04507843032479286,-0.12652073800563812
1761379807343572000,0.784572021484375,0.054889775812625885,0.07197289168834686,-0.15654495358467102
1761379807353654800,0.79465478515625,0.0661798045039177,0.09681534767150879,-0.19461558759212494
1761379807363737900,0.80473779296875,0.08913705497980118,0.10536276549100876,-0.22345443069934845
1761379807373820700,0.814820556640625,0.11622703820466995,0.07303708046674728,-0.2504711151123047
1761379807383904000,0.824904052734375,0.1238229051232338,0.0385371632874012,-0.266879141330719
1761379807393986800,0.83498681640625,0.1269313097000122,0.05275974050164223,-0.2771783769130707
1761379807404070000,0.84506982421875,0.14165884256362915,0.06341344863176346,-0.2574765682220459
1761379807414153000,0.855153076171875,0.14162202179431915,0.06772826611995697,-0.21949009597301483
1761379807424234800,0.86523486328125,0.13470019400119781,0.06871683895587921,-0.1761772334575653
1761379807434318800,0.87531884765625,0.1364736706018448,0.05542236939072609,-0.12749753892421722
1761379807444401000,0.88540087890625,0.14713963866233826,0.02600136026740074,-0.09018692374229431
1761379807454484000,0.89548388671875,0.1542581021785736,-0.0029593612998723984,-0.06001230329275131
1761379807464567000,0.905567138671875,0.14587606489658356,-0.03195878863334656,-0.04212251678109169
1761379807474649900,0.91564990234375,0.12757115066051483,-0.046823661774396896,-0.03909438103437424
1761379807484733000,0.92573291015625,0.1005813404917717,-0.042253412306308746,-0.042023591697216034
1761379807494815700,0.935815673828125,0.07698338478803635,-0.03335501253604889,-0.06444618105888367
1761379807504898800,0.94589892578125,0.06569797545671463,-0.016345936805009842,-0.09073983877897263
1761379807514982000,0.95598193359375,0.071556456387043,0.011295178905129433,-0.10821586847305298
1761379807525065000,0.96606494140625,0.09711215645074844,0.04409227520227432,-0.12684334814548492
1761379807535148000,0.97614794921875,0.13121525943279266,0.07801849395036697,-0.12874363362789154
1761379807545230800,0.98623095703125,0.17250970005989075,0.10811913758516312,-0.13648703694343567
1761379807555314000,0.99631396484375,0.20402440428733826,0.12894222140312195,-0.13317932188510895
1761379807565396700,1.006396728515625,0.2119257152080536,0.12703727185726166,-0.13263924419879913
1761379807575480000,1.01647998046875,0.20578759908676147,0.0861242339015007,-0.1064598485827446
1761379807585563000,1.02656298828125,0.19123636186122894,0.017554225400090218,-0.0564507395029068
1761379807595646000,1.03664599609375,0.1778661012649536,-0.07479928433895111,-0.011931571178138256
1761379807605728800,1.046728759765625,0.2569428086280823,-0.1833268105983734,0.023262634873390198
1761379807615811800,1.056811767578125,0.31580716371536255,-0.260174959897995,0.04501282051205635
1761379807625895000,1.06689501953125,0.33866187930107117,-0.3123612105846405,0.0435696542263031
1761379807635978000,1.07697802734375,0.33465614914894104,-0.33122387528419495,0.030696149915456772
1761379807646061000,1.08706103515625,0.33231016993522644,-0.3217337131500244,0.007917601615190506
1761379807656144000,1.097143798828125,0.3144712448120117,-0.2917504906654358,-0.025050202384591103
1761379807666227000,1.10722705078125,0.2740580439567566,-0.25292614102363586,-0.07108879834413528
1761379807676309800,1.117309814453125,0.21681620180606842,-0.21398334205150604,-0.11720655113458633
1761379807686392800,1.127392822265625,0.12828020751476288,-0.15341880917549133,-0.14315319061279297
1761379807696476000,1.137475830078125,0.03804405778646469,-0.12175627797842026,-0.13467752933502197
1761379807706559000,1.14755908203125,-0.009792440570890903,-0.14589117467403412,-0.11977820843458176
1761379807716641800,1.157641845703125,-0.020851923152804375,-0.17298349738121033,-0.10132420808076859
1761379807726724900,1.167724853515625,0.009284407831728458,-0.17910289764404297,-0.07776907831430435
1761379807736808000,1.177807861328125,0.034766409546136856,-0.14852440357208252,-0.048497844487428665
1761379807746890800,1.187890869140625,0.030471529811620712,-0.11345190554857254,-0.013229869306087494
1761379807756974000,1.19797412109375,0.007191992364823818,-0.09709208458662033,0.029575224965810776
1761379807767057000,1.208056884765625,-0.0015210704877972603,-0.09578127413988113,0.07605431228876114
1761379807777140000,1.218139892578125,0.006261360831558704,-0.08601206541061401,0.12169604003429413
1761379807787222800,1.228222900390625,0.009517074562609196,-0.07211169600486755,0.15438048541545868
1761379807797305900,1.238305908203125,0.0051648421213030815,-0.06616082042455673,0.17589212954044342
1761379807807388700,1.248388671875,0.004467626102268696,-0.07012413442134857,0.1848595142364502
1761379807817472000,1.258471923828125,0.003541252575814724,-0.06190589442849159,0.17944616079330444
1761379807827554800,1.268554931640625,0.00971951987594366,-0.020115040242671967,0.17942245304584503
1761379807837638000,1.278637939453125,0.022809192538261414,0.06551346182823181,0.18414877355098724
1761379807847721000,1.288720947265625,0.0340338833630085,0.10942259430885315,0.18388964235782623
1761379807857803800,1.2988037109375,0.02979956939816475,0.016633950173854828,0.11664675176143646
1761379807867886800,1.308886962890625,0.008358190767467022,-0.19307400286197662,-0.03860941901803017
1761379807877970000,1.318969970703125,-0.034378133714199066,-0.40102052688598633,-0.24772444367408752
1761379807888053000,1.329052978515625,-0.09600581228733063,-0.45977386832237244,-0.43837934732437134
1761379807898135800,1.3391357421875,-0.16253402829170227,-0.30156657099723816,-0.5399686098098755
1761379807908219000,1.349218994140625,-0.2194492369890213,0.039568133652210236,-0.5249757766723633
1761379807918301700,1.3593017578125,-0.23566623032093048,0.4295559525489807,-0.41520264744758606
1761379807928384800,1.369384765625,-0.19191981852054596,0.7420123815536499,-0.27269795536994934
1761379807938468000,1.379468017578125,-0.09430419653654099,0.8755252361297607,-0.1525736004114151
1761379807948551000,1.389551025390625,0.03879527002573013,0.8300341963768005,-0.07977982610464096
1761379807958634000,1.399634033203125,0.165727436542511,0.6350575089454651,-0.05291624739766121
1761379807968716800,1.409716796875,0.2606997489929199,0.3862868547439575,-0.04563303664326668
1761379807978799900,1.4197998046875,0.32020291686058044,0.13569940626621246,-0.015170516446232796
1761379807988882700,1.429882568359375,0.3600728511810303,-0.053344015032052994,0.04330743849277496
1761379807998966000,1.439966064453125,0.37106090784072876,-0.18510740995407104,0.11705467849969864
1761379808009048800,1.450048828125,0.3578507900238037,-0.288147509098053,0.17914468050003052
1761379808019132000,1.4601318359375,0.3258223235607147,-0.36076775193214417,0.20077338814735413
1761379808029215000,1.470215087890625,0.27221715450286865,-0.38573142886161804,0.1773732602596283
1761379808039297800,1.4802978515625,0.18927793204784393,-0.3279460072517395,0.12533387541770935
1761379808049380900,1.490380859375,0.09083791822195053,-0.19827644526958466,0.056980106979608536
1761379808059464000,1.5004638671875,0.0008620675653219223,-0.0017605721950531006,0.002815728075802326
1761379808069547000,1.510547119140625,-0.05516631528735161,0.20591938495635986,-0.04467828571796417
1761379808079629800,1.5206298828125,-0.07150684297084808,0.3790285587310791,-0.07809105515480042
1761379808089713000,1.530712890625,-0.042705290019512177,0.5174633860588074,-0.08680225908756256
1761379808099795700,1.540795654296875,0.020677801221609116,0.5648906230926514,-0.06935103237628937
1761379808109878800,1.550878662109375,0.08702593296766281,0.5079479813575745,-0.009736974723637104
1761379808119961900,1.5609619140625,0.1527920961380005,0.37975314259529114,0.06587879359722137
1761379808130045000,1.571044921875,0.19948183000087738,0.20723837614059448,0.15825718641281128
1761379808140128000,1.5811279296875,0.21575550734996796,0.05092552304267883,0.27511531114578247
1761379808150210800,1.5912109375,0.18886929750442505,-0.06344526261091232,0.39480656385421753
1761379808160294000,1.6012939453125,0.13683024048805237,-0.12521956861019135,0.502713680267334
1761379808170376700,1.611376708984375,0.07828543335199356,-0.13763336837291718,0.5713505148887634
1761379808180460000,1.6214599609375,0.03075471892952919,-0.09676751494407654,0.5988463759422302
1761379808190542800,1.63154296875,0.009353023953735828,-0.02029271051287651,0.5997241735458374
1761379808200626000,1.6416259765625,0.00374448299407959,0.09041877090930939,0.5780937075614929
1761379808210708700,1.651708740234375,0.014832286164164543,0.22001324594020844,0.5484843850135803
1761379808220791800,1.661791748046875,0.03529830649495125,0.3179435431957245,0.4953388571739197
1761379808230875000,1.671875,0.06002149358391762,0.3695870339870453,0.4212992489337921
1761379808240958000,1.6819580078125,0.08163116872310638,0.39894023537635803,0.3433723747730255
1761379808251041000,1.692041015625,0.10799726098775864,0.40307214856147766,0.2589549422264099
1761379808261123800,1.702123779296875,0.12011664360761642,0.382874459028244,0.18669730424880981
1761379808271207000,1.71220703125,0.11928015202283859,0.3602045774459839,0.1438710242509842
1761379808281289700,1.722289794921875,0.11901931464672089,0.3330090343952179,0.13477785885334015
1761379808291372800,1.732372802734375,0.13807716965675354,0.32018616795539856,0.15844804048538208
1761379808301456000,1.742455810546875,0.18360412120819092,0.3229773938655853,0.1888478696346283
1761379808311539000,1.7525390625,0.2416301667690277,0.330364465713501,0.22311130166053772
1761379808321622000,1.7626220703125,0.314156174659729,0.3554835915565491,0.2640741467475891
1761379808331704800,1.772704833984375,0.3791293203830719,0.4009634554386139,0.2975460886955261
1761379808341788400,1.782788330078125,0.4164719879627228,0.44428855180740356,0.3350164294242859
1761379808351871200,1.792871337890625,0.4420527219772339,0.4674021303653717,0.36732617020606995
1761379808361954600,1.80295458984375,0.4655226171016693,0.4597793221473694,0.3750949501991272
1761379808372037400,1.813037353515625,0.48655572533607483,0.44725528359413147,0.3758885860443115
1761379808382120400,1.823120361328125,0.5157403349876404,0.43579959869384766,0.37115833163261414
1761379808392203300,1.833203369140625,0.5360274910926819,0.41801607608795166,0.36730527877807617
1761379808402286300,1.843286376953125,0.49876245856285095,0.40350744128227234,0.3587433695793152
1761379808412369200,1.853369140625,0.42318835854530334,0.36892205476760864,0.3265713155269623
1761379808422452500,1.863452392578125,0.3605095148086548,0.31402310729026794,0.27442261576652527
1761379808432535300,1.873535400390625,0.30615466833114624,0.2564178705215454,0.21593669056892395
1761379808442618400,1.883618408203125,0.2574668824672699,0.2369568943977356,0.1674480438232422
1761379808452701400,1.893701416015625,0.21542061865329742,0.2601756751537323,0.12815549969673157
1761379808462784300,1.9037841796875,0.1782192885875702,0.2896781265735626,0.0857420340180397
1761379808472867300,1.913867431640625,0.14214198291301727,0.3003944158554077,0.042494434863328934
1761379808482950400,1.923950439453125,0.10091638565063477,0.28083524107933044,-0.00898783840239048
1761379808493033500,1.934033447265625,0.06250295042991638,0.24256321787834167,-0.038139063864946365
1761379808503116300,1.9441162109375,0.01503320038318634,0.14899668097496033,-0.061253853142261505
1761379808513199400,1.954199462890625,-0.0306426752358675,0.05914109945297241,-0.06426029652357101
1761379808523282200,1.9642822265625,-0.06542856991291046,-0.007837425917387009,-0.03853852301836014
1761379808533365200,1.974365234375,-0.08776795864105225,-0.041516292840242386,0.008900627493858337
1761379808543448600,1.984448486328125,-0.09902386367321014,-0.034449633210897446,0.06837274134159088
1761379808553531400,1.994531494140625,-0.09699240326881409,0.030748814344406128,0.14066477119922638
1761379808563614500,2.004614501953125,-0.08038017153739929,0.21441371738910675,0.2391396462917328
1761379808573697300,2.014697265625,-0.0449950136244297,0.34530752897262573,0.29745009541511536
1761379808583780400,2.0247802734375,0.005454232916235924,0.34281712770462036,0.2767057418823242
1761379808593863200,2.03486328125,0.051786042749881744,0.17708942294120789,0.13474169373512268
1761379808603946500,2.044946533203125,0.04256594181060791,-0.07989165186882019,-0.0992758497595787
1761379808614029300,2.055029296875,-0.0332673005759716,-0.3025340437889099,-0.3471173346042633
1761379808624112400,2.0651123046875,-0.1454879343509674,-0.4065001308917999,-0.5138143301010132
1761379808634195200,2.0751953125,-0.27708113193511963,-0.4110184609889984,-0.5434318780899048
1761379808644278300,2.0852783203125,-0.37708982825279236,-0.3054923415184021,-0.4263758957386017
1761379808654361300,2.095361328125,-0.40294352173805237,-0.10834410786628723,-0.20282375812530518
1761379808664444400,2.1054443359375,-0.33174559473991394,0.06939830631017685,0.027660299092531204
1761379808674527500,2.115527587890625,-0.18824860453605652,0.19467633962631226,0.21348075568675995
1761379808684610300,2.1256103515625,-0.0029822681099176407,0.28947192430496216,0.36159929633140564
1761379808694693400,2.135693359375,0.17024384438991547,0.36836007237434387,0.4981456995010376
1761379808704776200,2.145776123046875,0.30010131001472473,0.42124509811401367,0.6342964172363281
1761379808714859300,2.155859375,0.3810126781463623,0.44176527857780457,0.74317866563797
1761379808724942300,2.1659423828125,0.4235732853412628,0.39376235008239746,0.7882842421531677
1761379808735025400,2.176025390625,0.4334637224674225,0.2574058473110199,0.7469642162322998
1761379808745108500,2.1861083984375,0.3908618986606598,0.05203420668840408,0.6405419111251831
1761379808755191300,2.19619140625,0.29924675822257996,-0.1753600686788559,0.5240834951400757
1761379808765274400,2.2062744140625,0.1654474288225174,-0.37710222601890564,0.43334639072418213
1761379808775357200,2.216357177734375,0.031559135764837265,-0.48252931237220764,0.3870300352573395
1761379808785440500,2.2264404296875,-0.06624481081962585,-0.48488155007362366,0.358320951461792
1761379808795523300,2.2365234375,-0.14414627850055695,-0.4240214228630066,0.35315388441085815
1761379808805606400,2.2466064453125,-0.19143646955490112,-0.34932610392570496,0.340192049741745
1761379808815689200,2.256689208984375,-0.22589537501335144,-0.29522770643234253,0.3104349374771118
1761379808825772300,2.266772216796875,-0.27727028727531433,-0.27095577120780945,0.27230146527290344
1761379808835855400,2.27685546875,-0.3592604994773865,-0.27081727981567383,0.22589989006519318
1761379808845938400,2.2869384765625,-0.47305917739868164,-0.28493037819862366,0.1726837009191513
1761379808856021500,2.297021484375,-0.5884901881217957,-0.28680869936943054,0.12467863410711288
1761379808866104300,2.307104248046875,-0.6863730549812317,-0.2503921389579773,0.09383618086576462
1761379808876187400,2.3171875,-0.7563113570213318,-0.18980416655540466,0.08614390343427658
1761379808886270200,2.327270263671875,-0.7897599935531616,-0.12730622291564941,0.09978189319372177
1761379808896353300,2.337353271484375,-0.7955254912376404,-0.06408998370170593,0.14442498981952667
1761379808906436400,2.347436279296875,-0.7867705821990967,-0.031161747872829437,0.20928843319416046
1761379808916519400,2.35751953125,-0.7791813611984253,-0.042932119220495224,0.2925657331943512
1761379808926602200,2.367602294921875,-0.7784383893013,-0.0849182978272438,0.3883151412010193
1761379808936685300,2.377685302734375,-0.7702934145927429,-0.14725863933563232,0.4910612106323242
1761379808946768400,2.387768310546875,-0.7555862069129944,-0.2378927320241928,0.5730068683624268
1761379808956851200,2.397851318359375,-0.7392208576202393,-0.34667620062828064,0.6439779996871948
1761379808966934500,2.4079345703125,-0.735957682132721,-0.4581102430820465,0.70157790184021
1761379808977017300,2.418017333984375,-0.7551750540733337,-0.562490701675415,0.7247021198272705
1761379808987100400,2.428100341796875,-0.7896066308021545,-0.6560580134391785,0.7095145583152771
1761379808997183200,2.438183349609375,-0.828800618648529,-0.7250477075576782,0.6528576612472534
1761379809007266300,2.448266357421875,-0.8793478012084961,-0.7544673681259155,0.5750656723976135
1761379809017349000,2.45834912109375,-0.9429744482040405,-0.7681411504745483,0.484480082988739
1761379809027432400,2.468432373046875,-1.016251564025879,-0.7743067741394043,0.3992566764354706
1761379809037515500,2.478515625,-1.0833115577697754,-0.7856044173240662,0.3250676691532135
1761379809047598300,2.488598388671875,-1.1513354778289795,-0.8102600574493408,0.24788030982017517
1761379809057681400,2.498681396484375,-1.219055414199829,-0.829832136631012,0.18072018027305603
1761379809067764200,2.50876416015625,-1.289288878440857,-0.8396936655044556,0.12087525427341461
1761379809077847300,2.518847412109375,-1.3686645030975342,-0.8343444466590881,0.07918214052915573
1761379809087930400,2.528930419921875,-1.4571564197540283,-0.8127970695495605,0.04518934339284897
1761379809098013400,2.539013427734375,-1.5520347356796265,-0.7778851389884949,0.010303265415132046
1761379809108096300,2.54909619140625,-1.6334820985794067,-0.7369424700737,-0.034018658101558685
1761379809118179300,2.559179443359375,-1.6931753158569336,-0.699347734451294,-0.08439953625202179
1761379809128262400,2.569262451171875,-1.7335772514343262,-0.6595184206962585,-0.12289080768823624
1761379809138345200,2.57934521484375,-1.7544127702713013,-0.6178308725357056,-0.13972091674804688
1761379809148428500,2.589428466796875,-1.7542805671691895,-0.5500354170799255,-0.11451020836830139
1761379809158511400,2.599511474609375,-1.733536958694458,-0.4852828085422516,-0.06470776349306107
1761379809168594400,2.609594482421875,-1.7055344581604004,-0.45014381408691406,-0.011596506461501122
1761379809178677200,2.61967724609375,-1.6883008480072021,-0.45748135447502136,0.03484795615077019
1761379809188760300,2.62976025390625,-1.686050534248352,-0.5011416673660278,0.07087142765522003
1761379809198843100,2.639843017578125,-1.7031656503677368,-0.545365571975708,0.09601219743490219
1761379809208926500,2.649926513671875,-1.7295089960098267,-0.5765474438667297,0.1166653260588646
1761379809219009300,2.66000927734375,-1.76273775100708,-0.5946077108383179,0.1391240358352661
1761379809229092400,2.67009228515625,-1.8057812452316284,-0.6047025322914124,0.1501564383506775
1761379809239175400,2.680175537109375,-1.8490461111068726,-0.6007459163665771,0.14986589550971985
1761379809249258200,2.69025830078125,-1.8855725526809692,-0.5887347459793091,0.14450713992118835
1761379809259341300,2.70034130859375,-1.909868836402893,-0.5590985417366028,0.15235866606235504
1761379809269424400,2.71042431640625,-1.9104270935058594,-0.4812602698802948,0.19650956988334656
1761379809279507500,2.720507568359375,-1.9138134717941284,-0.3463791608810425,0.28595101833343506
1761379809289590300,2.73059033203125,-1.9170334339141846,-0.3262281119823456,0.3433302342891693
1761379809299673300,2.74067333984375,-1.932826280593872,-0.43512290716171265,0.3338128924369812
1761379809309756200,2.750756103515625,-1.9630786180496216,-0.6514438986778259,0.2510089576244354
1761379809319839200,2.760839111328125,-2.0398128032684326,-0.9566946029663086,0.09547796845436096
1761379809329922600,2.770922607421875,-2.1724116802215576,-1.2616291046142578,-0.12862063944339752
1761379809340008200,2.78100830078125,-2.295077323913574,-1.4753834009170532,-0.38038018345832825
1761379809350091500,2.791091552734375,-2.362957715988159,-1.5094419717788696,-0.5624901652336121
1761379809360174300,2.80117431640625,-2.341395854949951,-1.331140398979187,-0.5599591135978699
1761379809370257400,2.81125732421875,-2.2276930809020996,-1.0179661512374878,-0.32833051681518555
1761379809380340200,2.82134033203125,-2.038625955581665,-0.6253184676170349,0.11540298908948898
1761379809390423300,2.83142333984375,-1.81856107711792,-0.31220680475234985,0.6321496963500977
1761379809400506400,2.84150634765625,-1.682069182395935,-0.20818641781806946,1.0248826742172241
1761379809410589400,2.85158935546875,-1.6640286445617676,-0.25202205777168274,1.1872450113296509
1761379809420672500,2.861672607421875,-1.7370307445526123,-0.3584073781967163,1.1537240743637085
1761379809430755300,2.87175537109375,-1.8498497009277344,-0.4927499294281006,0.975149393081665
1761379809440838400,2.88183837890625,-1.958762288093567,-0.6316305994987488,0.7262365221977234
1761379809450921200,2.891921142578125,-2.037299633026123,-0.7628616094589233,0.46506378054618835
1761379809461004300,2.90200439453125,-2.1230931282043457,-0.8660849332809448,0.23470009863376617
1761379809471087400,2.91208740234375,-2.238459825515747,-0.938608705997467,0.051000889390707016
1761379809481170400,2.92217041015625,-2.3897225856781006,-0.9508286714553833,-0.08378595113754272
1761379809491253500,2.93225341796875,-2.5543863773345947,-0.8939689993858337,-0.15758134424686432
1761379809501336300,2.94233642578125,-2.703922748565674,-0.8052843809127808,-0.1816621720790863
1761379809511419400,2.95241943359375,-2.8138675689697266,-0.6968860626220703,-0.1784854680299759
1761379809521502200,2.962502197265625,-2.867896556854248,-0.5856513977050781,-0.15089218318462372
1761379809531585500,2.97258544921875,-2.860440969467163,-0.4981851577758789,-0.10407444089651108
1761379809541668400,2.98266845703125,-2.820469856262207,-0.4699689745903015,-0.05806301161646843
1761379809551751400,2.99275146484375,-2.7558770179748535,-0.5034221410751343,-0.0113902622833848
1761379809561834200,3.002834228515625,-2.6843674182891846,-0.6040999889373779,0.027448745444417
1761379809571917300,3.012917236328125,-2.618887424468994,-0.7256956696510315,0.06052562966942787
1761379809582000000,3.023000244140625,-2.5661468505859375,-0.8510663509368896,0.0967550054192543
1761379809592083500,3.03308349609375,-2.508272171020508,-0.9456377625465393,0.12887592613697052
1761379809602166500,3.04316650390625,-2.4396650791168213,-1.0081970691680908,0.1546529233455658
1761379809612249300,3.053249267578125,-2.3693971633911133,-1.0201177597045898,0.18098951876163483
1761379809622332400,3.06333251953125,-2.3046481609344482,-1.0009677410125732,0.2157144844532013
1761379809632415200,3.073415283203125,-2.2572100162506104,-0.9497178196907043,0.2518453299999237
1761379809642498300,3.083498291015625,-2.239844560623169,-0.8829910159111023,0.27799171209335327
1761379809652581400,3.093581298828125,-2.252976179122925,-0.8145508170127869,0.30373415350914
1761379809662664400,3.10366455078125,-2.2756195068359375,-0.7315714955329895,0.32711243629455566
1761379809672747300,3.113747314453125,-2.280642032623291,-0.6370480060577393,0.33910733461380005
1761379809682830300,3.123830322265625,-2.263093948364258,-0.5380290150642395,0.3455495238304138
1761379809692913400,3.133913330078125,-2.236234664916992,-0.4438609778881073,0.3601512312889099
1761379809702996200,3.143996337890625,-2.2162539958953857,-0.3124920427799225,0.4101928174495697
1761379809713079600,3.15407958984375,-2.1828818321228027,-0.17912009358406067,0.4830089211463928
1761379809723162400,3.164162353515625,-2.1282389163970947,-0.05456351116299629,0.5632302761077881
1761379809733245400,3.174245361328125,-2.050875186920166,0.042546872049570084,0.6382160186767578
1761379809743328300,3.184328369140625,-1.9550235271453857,0.0812857449054718,0.7060206532478333
1761379809753411300,3.194411376953125,-1.858852744102478,0.058302268385887146,0.7497559785842896
1761379809763494100,3.204494140625,-1.7869453430175781,0.004563141148537397,0.7628065347671509
1761379809773577500,3.214577392578125,-1.7469074726104736,-0.0785202831029892,0.7545996904373169
1761379809783660300,3.224660400390625,-1.7325130701065063,-0.18153801560401917,0.7270018458366394
1761379809793743400,3.234743408203125,-1.731152057647705,-0.28993627429008484,0.687812864780426
1761379809803826400,3.244826416015625,-1.711199164390564,-0.3801697790622711,0.6345890760421753
1761379809813909200,3.2549091796875,-1.6623162031173706,-0.4352896809577942,0.5690042972564697
1761379809823992300,3.264992431640625,-1.588392972946167,-0.44635483622550964,0.5061147809028625
1761379809834075400,3.275075439453125,-1.4946773052215576,-0.42206239700317383,0.4434845745563507
1761379809844158500,3.285158447265625,-1.398232340812683,-0.38819628953933716,0.3965064287185669
1761379809854241300,3.2952412109375,-1.298506498336792,-0.3511866331100464,0.35570093989372253
1761379809864324400,3.305324462890625,-1.1959964036941528,-0.33051252365112305,0.3167029321193695
1761379809874407200,3.3154072265625,-1.092728853225708,-0.3186921775341034,0.2756306827068329
1761379809884490200,3.325490234375,-0.9942161440849304,-0.31266385316848755,0.25146037340164185
1761379809894573600,3.335573486328125,-0.9113949537277222,-0.32379981875419617,0.23403041064739227
1761379809904656400,3.345656494140625,-0.846391499042511,-0.35486772656440735,0.22822712361812592
1761379809914739500,3.355739501953125,-0.79103022813797,-0.3950813412666321,0.2101622223854065
1761379809924822300,3.365822265625,-0.7383579611778259,-0.4147503674030304,0.16127057373523712
1761379809934905300,3.3759052734375,-0.6786983609199524,-0.42096588015556335,0.1009535938501358
1761379809944988200,3.38598828125,-0.6275722980499268,-0.3955521583557129,0.04340747371315956
1761379809955071500,3.396071533203125,-0.5673277974128723,-0.32928329706192017,0.02578406035900116
1761379809965154300,3.406154296875,-0.49635985493659973,-0.20259831845760345,0.06790461391210556
1761379809975237400,3.4162373046875,-0.4143420457839966,0.007265664637088776,0.17731574177742004
1761379809985320400,3.426320556640625,-0.34864452481269836,0.0945957750082016,0.2442881166934967
1761379809995403300,3.4364033203125,-0.3247964084148407,-0.018616747111082077,0.19307222962379456
1761379810005486300,3.446486328125,-0.36116188764572144,-0.3313504159450531,0.005816585384309292
1761379810015569400,3.4565693359375,-0.4887624680995941,-0.7128525972366333,-0.2772136628627777
1761379810025652500,3.466652587890625,-0.6926351189613342,-0.941500186920166,-0.5596402883529663
1761379810035735300,3.4767353515625,-0.9222868084907532,-0.9512463808059692,-0.7537915706634521
1761379810045818400,3.486818359375,-1.1357011795043945,-0.7517519593238831,-0.8063027262687683
1761379810055901200,3.496901123046875,-1.2654749155044556,-0.3870707154273987,-0.7262064814567566
1761379810065984300,3.506984375,-1.2334495782852173,0.0670456513762474,-0.5689542889595032
1761379810076067300,3.5170673828125,-1.0407804250717163,0.49676716327667236,-0.3742559254169464
1761379810086150400,3.527150390625,-0.7614828944206238,0.7425867915153503,-0.18849244713783264
1761379810096233500,3.5372333984375,-0.4914170801639557,0.7039172649383545,-0.02773338556289673
1761379810106316300,3.54731640625,-0.2806454598903656,0.3561006784439087,0.048529163002967834
1761379810116399400,3.5573994140625,-0.15666019916534424,-0.15556436777114868,0.07014135271310806
1761379810126482200,3.567482177734375,-0.15748818218708038,-0.6727497577667236,0.10258424282073975
1761379810136565500,3.5775654296875,-0.2601062059402466,-1.0248610973358154,0.19628341495990753
1761379810146648300,3.5876484375,-0.4007837176322937,-1.1017111539840698,0.38119786977767944
1761379810156731400,3.5977314453125,-0.5573137402534485,-0.9927335381507874,0.6107247471809387
1761379810166814200,3.607814208984375,-0.6862541437149048,-0.8473818898200989,0.7819316983222961
1761379810176897300,3.617897216796875,-0.7506935596466064,-0.7896556854248047,0.7968240976333618
1761379810186980400,3.62798046875,-0.7635899186134338,-0.7793476581573486,0.648798406124115
1761379810197063400,3.6380634765625,-0.7397992610931396,-0.7696222066879272,0.3846103549003601
1761379810207146500,3.648146484375,-0.6918889880180359,-0.7392246127128601,0.0871613472700119
1761379810217229300,3.658229248046875,-0.6523779034614563,-0.701832115650177,-0.1709044873714447
1761379810227312400,3.6683125,-0.6416615843772888,-0.6693676710128784,-0.3318249583244324
1761379810237395200,3.678395263671875,-0.652137041091919,-0.6615666151046753,-0.39760878682136536
1761379810247478300,3.688478271484375,-0.6654232740402222,-0.6588475704193115,-0.36316826939582825
1761379810257561300,3.698561279296875,-0.6726098656654358,-0.6212241649627686,-0.25725477933883667
1761379810267644400,3.70864453125,-0.6698364615440369,-0.5530264973640442,-0.11749714612960815
1761379810277727500,3.7187275390625,-0.6595590114593506,-0.49786946177482605,-0.0034077034797519445
1761379810287810300,3.728810302734375,-0.6597244143486023,-0.45417338609695435,0.05415492504835129
1761379810297893400,3.738893310546875,-0.6719223260879517,-0.40910980105400085,0.06455238908529282
1761379810307976200,3.74897607421875,-0.6677121520042419,-0.3270202577114105,0.06610767543315887
1761379810318059500,3.7590595703125,-0.6569174528121948,-0.19172334671020508,0.06434614956378937
1761379810328142300,3.769142333984375,-0.6210862398147583,-0.07953263074159622,0.04614157974720001
1761379810338225400,3.779225341796875,-0.5661810040473938,-0.019981317222118378,0.0077604749239981174
1761379810348309000,3.78930908203125,-0.5126757025718689,-0.030375901609659195,-0.047391459345817566
1761379810358392000,3.79939208984375,-0.4852299690246582,-0.09233154356479645,-0.10721899569034576
1761379810368475000,3.809474853515625,-0.47587454319000244,-0.15413685142993927,-0.1683529168367386
1761379810378558000,3.819557861328125,-0.4677557349205017,-0.20020388066768646,-0.21300551295280457
1761379810388640800,3.829640869140625,-0.459589421749115,-0.23874089121818542,-0.24184754490852356
1761379810398724000,3.83972412109375,-0.45226070284843445,-0.27423354983329773,-0.26378005743026733
1761379810408807000,3.849806884765625,-0.4383438229560852,-0.3163122832775116,-0.2697857618331909
1761379810418890000,3.859889892578125,-0.4115717113018036,-0.351182222366333,-0.2747311294078827
1761379810428973000,3.86997314453125,-0.3844338357448578,-0.35299208760261536,-0.2569950222969055
1761379810439056000,3.880055908203125,-0.36493903398513794,-0.35553446412086487,-0.22508332133293152
1761379810449139000,3.890138916015625,-0.35261496901512146,-0.31773966550827026,-0.16781337559223175
1761379810459222000,3.900221923828125,-0.3217529058456421,-0.24625098705291748,-0.09301848709583282
1761379810469305000,3.91030517578125,-0.2785676121711731,-0.18967853486537933,-0.014799851924180984
1761379810479388000,3.920387939453125,-0.23194773495197296,-0.14217759668827057,0.05984785780310631
1761379810489471000,3.930470947265625,-0.19761639833450317,-0.11078105866909027,0.12559570372104645
1761379810499553800,3.9405537109375,-0.16005980968475342,-0.06838575750589371,0.20628635585308075
1761379810509636900,3.950636962890625,-0.1271279752254486,-0.04967199265956879,0.29317358136177063
1761379810519720200,3.96072021484375,-0.10455650091171265,-0.055453624576330185,0.37406542897224426
1761379810529803000,3.970802978515625,-0.10057906806468964,-0.09508013725280762,0.4331332743167877
1761379810539886000,3.980885986328125,-0.11705537885427475,-0.15936698019504547,0.4676457941532135
1761379810549969000,3.990968994140625,-0.14746946096420288,-0.1970893293619156,0.48991885781288147
1761379810560052000,4.001052001953125,-0.16379478573799133,-0.23021551966667175,0.4922792911529541
1761379810570134800,4.011134765625,-0.17899104952812195,-0.21913570165634155,0.4886467456817627
1761379810580218000,4.021218017578125,-0.1830023229122162,-0.1904270201921463,0.4710690677165985
1761379810590301000,4.031301025390625,-0.16920475661754608,-0.16272135078907013,0.43926215171813965
1761379810600384000,4.041384033203125,-0.14816735684871674,-0.1382453292608261,0.39600691199302673
1761379810610467000,4.051467041015625,-0.14075365662574768,-0.12334493547677994,0.3570043742656708
1761379810620550000,4.0615498046875,-0.13828055560588837,-0.11504309624433517,0.32116883993148804
1761379810630633000,4.071633056640625,-0.14933641254901886,-0.10311319679021835,0.301749050617218
1761379810640716000,4.081716064453125,-0.15682104229927063,-0.10221521556377411,0.29559391736984253
1761379810650799000,4.091799072265625,-0.1693197786808014,-0.08796357363462448,0.3066420555114746
1761379810660882000,4.1018818359375,-0.17338888347148895,0.02576814964413643,0.3746166527271271
1761379810670965000,4.111965087890625,-0.17165543138980865,0.11458644270896912,0.45457515120506287
1761379810681047800,4.1220478515625,-0.1843772530555725,-0.010508752427995205,0.4317457973957062
1761379810691131000,4.132130859375,-0.1798219084739685,-0.2638248801231384,0.28118184208869934
1761379810701214000,4.1422138671875,-0.17365790903568268,-0.5377370715141296,0.019375059753656387
1761379810711297000,4.152297119140625,-0.19501778483390808,-0.6460361480712891,-0.2787596881389618
1761379810721380000,4.162380126953125,-0.24865223467350006,-0.5944724082946777,-0.527190089225769
1761379810731463000,4.172462890625,-0.3204750120639801,-0.3954317271709442,-0.6644654273986816
1761379810741546000,4.1825458984375,-0.36970341205596924,-0.10640400648117065,-0.6751621961593628
1761379810751628800,4.19262890625,-0.3161733150482178,0.20335277915000916,-0.5793771147727966
1761379810761712000,4.202712158203125,-0.15368464589118958,0.4866960048675537,-0.3837623596191406
1761379810771795000,4.212794921875,0.06075228005647659,0.6781253814697266,-0.11875944584608078
1761379810781878000,4.2228779296875,0.24556231498718262,0.7773297429084778,0.16036097705364227
1761379810791960800,4.2329609375,0.35404378175735474,0.7491888999938965,0.4044506251811981
1761379810802044000,4.2430439453125,0.39375370740890503,0.6158366203308105,0.5909716486930847
1761379810812127000,4.253126953125,0.3929941654205322,0.41061267256736755,0.7055967450141907
1761379810822210000,4.2632099609375,0.3579908311367035,0.17548328638076782,0.7492820620536804
1761379810832293000,4.273293212890625,0.28582584857940674,-0.059653863310813904,0.7137160897254944
1761379810842376000,4.2833759765625,0.17962077260017395,-0.2623843848705292,0.615930438041687
1761379810852459000,4.293458984375,0.055491894483566284,-0.3982985317707062,0.4664546847343445
1761379810862541800,4.303541748046875,-0.08030898869037628,-0.4680710732936859,0.2832094132900238
1761379810872625000,4.313625,-0.2450377494096756,-0.4873020350933075,0.07549909502267838
1761379810882708000,4.3237080078125,-0.4245862364768982,-0.4646008014678955,-0.15430667996406555
1761379810892791000,4.333791015625,-0.5765105485916138,-0.3894602656364441,-0.39221829175949097
1761379810902874000,4.3438740234375,-0.6859539151191711,-0.24201089143753052,-0.6072050333023071
1761379810912957000,4.35395703125,-0.7365723252296448,-0.02531161904335022,-0.749995231628418
1761379810923040000,4.3640400390625,-0.7361374497413635,0.23057185113430023,-0.7750363349914551
1761379810933122800,4.374122802734375,-0.6836175322532654,0.48733678460121155,-0.6764897704124451
1761379810943206100,4.3842060546875,-0.5872945189476013,0.6870884299278259,-0.49649640917778015
1761379810953289000,4.3942890625,-0.4618225693702698,0.7587687373161316,-0.2912212908267975
1761379810963372000,4.4043720703125,-0.3355279266834259,0.7388584017753601,-0.09678664803504944
1761379810973454800,4.414454833984375,-0.23738163709640503,0.6185644268989563,0.06122056394815445
1761379810983538000,4.424537841796875,-0.17902874946594238,0.4497470557689667,0.1935010552406311
1761379810993621000,4.43462109375,-0.1688208431005478,0.2884087562561035,0.3106042444705963
1761379811003704000,4.4447041015625,-0.1870528906583786,0.15536928176879883,0.4049261510372162
1761379811013787100,4.454787109375,-0.20780052244663239,0.03684476390480995,0.4444882273674011
1761379811023870000,4.464869873046875,-0.23954619467258453,-0.0284123457968235,0.42275843024253845
1761379811033953000,4.474953125,-0.2595366835594177,-0.04085836187005043,0.35773202776908875
1761379811044035800,4.485035888671875,-0.27223458886146545,-0.027072060853242874,0.25856873393058777
1761379811054119000,4.495118896484375,-0.29681316018104553,0.0011449288576841354,0.14489063620567322
1761379811064202000,4.505201904296875,-0.3247445523738861,0.054813891649246216,0.03974935784935951
1761379811074285000,4.51528515625,-0.33739137649536133,0.1084747239947319,-0.03702691197395325
1761379811084368000,4.525367919921875,-0.33111754059791565,0.16154417395591736,-0.0832877829670906
1761379811094451000,4.535450927734375,-0.3058827817440033,0.18511155247688293,-0.09005381166934967
1761379811104534000,4.545533935546875,-0.2680239975452423,0.16769003868103027,-0.07631945610046387
1761379811114616800,4.555616943359375,-0.22698573768138885,0.11478953808546066,-0.04504276067018509
1761379811124700200,4.5657001953125,-0.18609286844730377,0.050659529864788055,-0.004889855161309242
1761379811134783000,4.575782958984375,-0.15233942866325378,-0.008266904391348362,0.048345934599637985
1761379811144866000,4.585865966796875,-0.13028618693351746,-0.056368909776210785,0.11254270374774933
1761379811154948900,4.595948974609375,-0.11277884244918823,-0.07361287623643875,0.1733994036912918
1761379811165032000,4.606031982421875,-0.09543240815401077,-0.06415530294179916,0.22462499141693115
1761379811175114800,4.61611474609375,-0.08000684529542923,-0.033289000391960144,0.25633206963539124
1761379811185198000,4.626197998046875,-0.06790986657142639,-0.01221917849034071,0.2638416886329651
1761379811195281200,4.63628125,-0.06193586811423302,0.005800035782158375,0.2485969513654709
1761379811205364000,4.646364013671875,-0.052839137613773346,0.026899445801973343,0.2238224744796753
1761379811215447000,4.656447021484375,-0.054996028542518616,0.04142459109425545,0.1947934776544571
1761379811225529900,4.66652978515625,-0.05405638739466667,0.053376685827970505,0.1693042665719986
1761379811235613000,4.676613037109375,-0.055887576192617416,0.06635959446430206,0.15544436872005463
1761379811245696000,4.686696044921875,-0.05211765319108963,0.07540371268987656,0.16140489280223846
1761379811255779000,4.696779052734375,-0.05043613165616989,0.06944435834884644,0.17614921927452087
1761379811265862000,4.70686181640625,-0.04525783658027649,0.054519716650247574,0.19351959228515625
1761379811275945000,4.716945068359375,-0.03447922319173813,0.0382336862385273,0.20580820739269257
1761379811286028000,4.727028076171875,-0.018496938049793243,0.024919278919696808,0.21303607523441315
1761379811296110800,4.73711083984375,-0.007593424059450626,0.01530260406434536,0.2164747565984726
1761379811306194200,4.747194091796875,0.0066157011315226555,0.024917904287576675,0.21927565336227417
1761379811316277000,4.757277099609375,0.03043581172823906,0.12492093443870544,0.24214129149913788
1761379811326360000,4.767360107421875,0.05345042794942856,0.26959365606307983,0.27821022272109985
1761379811336443000,4.77744287109375,0.05603129416704178,0.23572063446044922,0.23651793599128723
1761379811346521600,4.787521484375,0.06282862275838852,0.06465553492307663,0.11300460994243622
1761379811356605000,4.79760498046875,0.076837919652462,-0.21031717956066132,-0.1195727065205574
1761379811366687700,4.807687744140625,0.044088758528232574,-0.41457414627075195,-0.4391016960144043
1761379811376770800,4.817770751953125,-0.03390857204794884,-0.4857836365699768,-0.7402746081352234
1761379811386853600,4.827853515625,-0.15972189605236053,-0.43554389476776123,-0.9318197965621948
1761379811396936700,4.837936767578125,-0.34341341257095337,-0.2587594985961914,-0.9470321536064148
1761379811407019500,4.84801953125,-0.462054967880249,-0.02437525987625122,-0.7962313890457153
1761379811417102800,4.858102783203125,-0.4456528425216675,0.27688923478126526,-0.5416254997253418
1761379811427185700,4.868185546875,-0.31482818722724915,0.5073446035385132,-0.2626171112060547
1761379811437268700,4.878268798828125,-0.17301350831985474,0.5834755897521973,-0.06233168765902519
1761379811447351800,4.888351806640625,-0.08575496077537537,0.5667169690132141,0.03795924037694931
1761379811457434600,4.8984345703125,-0.041582975536584854,0.49050742387771606,0.05774040147662163
1761379811467517700,4.908517578125,-0.014327757991850376,0.4202899634838104,0.06983673572540283
1761379811477600800,4.918600830078125,-0.00902833417057991,0.37885943055152893,0.11521406471729279
1761379811487683800,4.928683837890625,-0.010748767293989658,0.32772937417030334,0.18451175093650818
1761379811497766700,4.9387666015625,0.0027310894802212715,0.22544507682323456,0.23907433450222015
1761379811507849700,4.948849609375,0.03404572606086731,0.04135599732398987,0.2484886646270752
1761379811517932500,4.9589326171875,0.05727807804942131,-0.1818440705537796,0.2156878411769867
1761379811528015600,4.969015625,0.05806884914636612,-0.3533337116241455,0.17748230695724487
1761379811538098700,4.9790986328125,0.013753315433859825,-0.4560408890247345,0.15281610190868378
1761379811548181800,4.989181640625,-0.06596799194812775,-0.47318407893180847,0.14949455857276917
1761379811558264800,4.999264892578125,-0.151483416557312,-0.41737353801727295,0.1707228720188141
1761379811568347600,5.00934765625,-0.23050396144390106,-0.3402062654495239,0.20018835365772247
1761379811578430700,5.0194306640625,-0.2923380136489868,-0.24578681588172913,0.21148627996444702
1761379811588513500,5.029513427734375,-0.3204544484615326,-0.18561288714408875,0.19704389572143555
1761379811598596900,5.039596923828125,-0.3245037794113159,-0.16668102145195007,0.14420439302921295
1761379811608679700,5.0496796875,-0.31811150908470154,-0.16593261063098907,0.061608150601387024
1761379811618762800,5.0597626953125,-0.31640228629112244,-0.17129622399806976,-0.016593975946307182
1761379811628845600,5.069845458984375,-0.3250523805618286,-0.17434413731098175,-0.0677681639790535
1761379811638928600,5.0799287109375,-0.343400776386261,-0.1717081367969513,-0.07372858375310898
1761379811649011700,5.09001171875,-0.35917720198631287,-0.14908404648303986,-0.028542783111333847
1761379811659094800,5.1000947265625,-0.36566224694252014,-0.10423561185598373,0.0402274914085865
1761379811669177900,5.110177734375,-0.3369321823120117,-0.10761871188879013,0.092341348528862
1761379811679260700,5.1202607421875,-0.2910429835319519,-0.1196756437420845,0.13247039914131165
1761379811689343700,5.13034375,-0.2711009979248047,-0.12657713890075684,0.1515202522277832
1761379811699426600,5.140426513671875,-0.27298757433891296,-0.15188036859035492,0.1489843875169754
1761379811709509600,5.150509521484375,-0.27928322553634644,-0.1856638789176941,0.13783618807792664
1761379811719592700,5.1605927734375,-0.2873997390270233,-0.20832791924476624,0.12633106112480164
1761379811729675800,5.17067578125,-0.31030988693237305,-0.21710926294326782,0.12491101026535034
1761379811739758800,5.1807587890625,-0.3337606191635132,-0.2179715931415558,0.12267822027206421
1761379811749841700,5.190841552734375,-0.3478659689426422,-0.21741123497486115,0.1257592886686325
1761379811759924700,5.2009248046875,-0.35615211725234985,-0.21343646943569183,0.13121983408927917
1761379811770007600,5.211007568359375,-0.3544022738933563,-0.19815966486930847,0.14950914680957794
1761379811780091000,5.2210908203125,-0.345569908618927,-0.16519692540168762,0.17163388431072235
1761379811790173700,5.231173583984375,-0.3324880301952362,-0.13987085223197937,0.19310636818408966
1761379811800256800,5.2412568359375,-0.33221933245658875,-0.13584496080875397,0.21874888241291046
1761379811810339600,5.251339599609375,-0.3441765308380127,-0.12737636268138885,0.24975493550300598
1761379811820422700,5.261422607421875,-0.370075523853302,-0.11882815510034561,0.2794792950153351
1761379811830505700,5.271505615234375,-0.40398970246315,-0.1120460033416748,0.2949560284614563
1761379811840588800,5.2815888671875,-0.43653351068496704,-0.11404363811016083,0.29741227626800537
1761379811850671900,5.291671875,-0.46668392419815063,-0.13747461140155792,0.29583701491355896
1761379811860754700,5.301754638671875,-0.4874858856201172,-0.168360635638237,0.29023638367652893
1761379811870837800,5.311837646484375,-0.49626246094703674,-0.1919987052679062,0.30161958932876587
1761379811880920600,5.321920654296875,-0.5063177943229675,-0.2135458141565323,0.32528364658355713
1761379811891003600,5.332003662109375,-0.5245242118835449,-0.22777169942855835,0.3517155349254608
1761379811901086700,5.342086669921875,-0.5364431738853455,-0.23505891859531403,0.3538071811199188
1761379811911169800,5.352169677734375,-0.5463249683380127,-0.22732652723789215,0.32353147864341736
1761379811921252600,5.362252685546875,-0.5540830492973328,-0.20265312492847443,0.2724350094795227
1761379811931335700,5.372335693359375,-0.5561095476150513,-0.15598537027835846,0.22458992898464203
1761379811941418800,5.382418701171875,-0.5540165901184082,-0.09300880134105682,0.19097284972667694
1761379811951501600,5.39250146484375,-0.5481488704681396,-0.019016120582818985,0.19526223838329315
1761379811961585000,5.4025849609375,-0.5450385808944702,0.053253285586833954,0.23660409450531006
1761379811971667700,5.412667724609375,-0.5469927787780762,0.1315733939409256,0.3122437298297882
1761379811981750800,5.422750732421875,-0.5513033866882324,0.27397099137306213,0.4168798625469208
1761379811991833600,5.43283349609375,-0.5374999642372131,0.5377166867256165,0.5789900422096252
1761379812001916700,5.442916748046875,-0.5122401714324951,0.6729516983032227,0.7148477435112
1761379812011999500,5.45299951171875,-0.4823840260505676,0.5767115354537964,0.7569819092750549
1761379812022082800,5.463082763671875,-0.45870134234428406,0.3011750280857086,0.6903458833694458
1761379812032166000,5.473165771484375,-0.4902796745300293,-0.004719625227153301,0.5369979739189148
1761379812042248700,5.483248779296875,-0.6250430941581726,-0.24935147166252136,0.3190869987010956
1761379812052331800,5.493331787109375,-0.8793347477912903,-0.4776434898376465,0.03977268189191818
1761379812062414600,5.50341455078125,-1.1803630590438843,-0.572184145450592,-0.2499464899301529
1761379812072497700,5.51349755859375,-1.4485806226730347,-0.48559609055519104,-0.4507714807987213
1761379812082580700,5.523580810546875,-1.6215900182724,-0.21856015920639038,-0.5284446477890015
1761379812092663800,5.533663818359375,-1.6600981950759888,0.13449780642986298,-0.45276764035224915
1761379812102746600,5.54374658203125,-1.5716357231140137,0.4539639353752136,-0.23187124729156494
1761379812112829700,5.55382958984375,-1.4251817464828491,0.6475923657417297,0.05686064437031746
1761379812122912800,5.563912841796875,-1.2898905277252197,0.617531418800354,0.3439725935459137
1761379812132995600,5.57399560546875,-1.1515949964523315,0.351990669965744,0.5838555097579956
1761379812143079000,5.584078857421875,-1.0577372312545776,-0.03128776699304581,0.7603165507316589
1761379812153161700,5.59416162109375,-1.0841108560562134,-0.4473818242549896,0.8701377511024475
1761379812163244800,5.604244873046875,-1.214073657989502,-0.9174100756645203,0.9095442295074463
1761379812173327600,5.61432763671875,-1.4091354608535767,-1.3817079067230225,0.8952983021736145
1761379812183410700,5.62441064453125,-1.6404699087142944,-1.6819114685058594,0.8500855565071106
1761379812193493500,5.634493408203125,-1.8726450204849243,-1.798298716545105,0.8160615563392639
1761379812203576800,5.644576904296875,-2.0386178493499756,-1.7776949405670166,0.7875939607620239
1761379812213659600,5.65465966796875,-2.1340014934539795,-1.6208784580230713,0.7429821491241455
1761379812223742700,5.66474267578125,-2.174245834350586,-1.3945633172988892,0.676069438457489
1761379812233825800,5.67482568359375,-2.1894195079803467,-1.1565536260604858,0.5508495569229126
1761379812243908600,5.68490869140625,-2.1877121925354004,-0.9393531084060669,0.3957582712173462
1761379812253991700,5.69499169921875,-2.1916584968566895,-0.7771724462509155,0.26815083622932434
1761379812264074800,5.70507470703125,-2.229559898376465,-0.6880601048469543,0.18315604329109192
1761379812274157800,5.71515771484375,-2.3010926246643066,-0.6976639032363892,0.13868418335914612
1761379812284240600,5.72524072265625,-2.39080548286438,-0.7898122072219849,0.11234553158283234
1761379812294323700,5.73532373046875,-2.50323748588562,-0.9262889623641968,0.12507368624210358
1761379812304406500,5.745406494140625,-2.6149673461914062,-1.0652040243148804,0.17193733155727386
1761379812314489600,5.755489501953125,-2.715369462966919,-1.1614679098129272,0.22415897250175476
1761379812324573000,5.765572998046875,-2.7803664207458496,-1.200345516204834,0.26054254174232483
1761379812334655700,5.77565576171875,-2.823470115661621,-1.1725584268569946,0.2912885248661041
1761379812344739000,5.785739013671875,-2.8687360286712646,-1.1270278692245483,0.31436029076576233
1761379812354822100,5.795822265625,-2.8631584644317627,-1.0975903272628784,0.32795920968055725
1761379812364905200,5.8059052734375,-2.8292245864868164,-1.0404013395309448,0.34828099608421326
1761379812374988300,5.81598828125,-2.7903621196746826,-0.9622981548309326,0.39636749029159546
1761379812385071400,5.8260712890625,-2.746539354324341,-0.9183075428009033,0.448031485080719
1761379812395154200,5.836154296875,-2.693279504776001,-0.9319911003112793,0.47403597831726074
1761379812405237200,5.8462373046875,-2.64951491355896,-0.9776403307914734,0.4747225344181061
1761379812415320000,5.856320068359375,-2.613323926925659,-1.0417060852050781,0.4521090090274811
1761379812425403100,5.866403076171875,-2.5795435905456543,-1.0508953332901,0.4602811932563782
1761379812435486200,5.876486328125,-2.5669264793395996,-1.036193609237671,0.4928414225578308
1761379812445569300,5.8865693359375,-2.558130979537964,-1.0377720594406128,0.5173648595809937
1761379812455652400,5.89665234375,-2.561476230621338,-1.0470831394195557,0.5450417995452881
1761379812465735200,5.906735107421875,-2.571061611175537,-1.0260177850723267,0.5681008100509644
1761379812475818200,5.916818359375,-2.578535318374634,-0.9875876307487488,0.5785084962844849
1761379812485901000,5.926901123046875,-2.5761749744415283,-0.9437040686607361,0.5858867764472961
1761379812495984400,5.936984375,-2.5655174255371094,-0.9035598039627075,0.5825827717781067
1761379812506067200,5.947067138671875,-2.5572667121887207,-0.8571856617927551,0.5714773535728455
1761379812516150300,5.957150390625,-2.5341029167175293,-0.8150777220726013,0.5416344404220581
1761379812526233000,5.967233154296875,-2.5121726989746094,-0.7793567180633545,0.49530312418937683
1761379812536316200,5.977316162109375,-2.481090784072876,-0.7581350207328796,0.44289955496788025
1761379812546399200,5.987399169921875,-2.460294008255005,-0.7600650191307068,0.39356744289398193
1761379812556482300,5.997482421875,-2.4566218852996826,-0.7446988821029663,0.38167208433151245
1761379812566565400,6.0075654296875,-2.4359142780303955,-0.7314707040786743,0.3763830363750458
1761379812576648200,6.017648193359375,-2.3968441486358643,-0.6652372479438782,0.3971938490867615
1761379812586731300,6.027731201171875,-2.3336756229400635,-0.5994430184364319,0.4160442352294922
1761379812596814000,6.03781396484375,-2.248162031173706,-0.5858195424079895,0.40596485137939453
1761379812606897200,6.047897216796875,-2.1542575359344482,-0.578624427318573,0.39397555589675903
1761379812616980200,6.057980224609375,-2.0654401779174805,-0.5418291687965393,0.39050379395484924
1761379812627063300,6.068063232421875,-1.98473060131073,-0.5694179534912109,0.3789427578449249
1761379812637146000,6.07814599609375,-1.9047702550888062,-0.6573890447616577,0.3697143793106079
1761379812647229200,6.088229248046875,-1.843280553817749,-0.7534929513931274,0.3349851369857788
1761379812657312300,6.098312255859375,-1.817966103553772,-0.8330000042915344,0.27694839239120483
1761379812667395000,6.10839501953125,-1.857864260673523,-0.8579196929931641,0.2368294596672058
1761379812677478400,6.118478515625,-1.8834595680236816,-0.7198021411895752,0.23840364813804626
1761379812687561200,6.128561279296875,-1.8308494091033936,-0.3756232261657715,0.28117185831069946
1761379812697644300,6.138644287109375,-1.6856191158294678,-0.11341973394155502,0.2948521673679352
1761379812707727000,6.14872705078125,-1.5543335676193237,-0.08117364346981049,0.2125176191329956
1761379812717810200,6.15881005859375,-1.4281107187271118,-0.419567734003067,0.029288040474057198
1761379812727893000,6.16889306640625,-1.3530501127243042,-0.8661913275718689,-0.16855153441429138
1761379812737976300,6.178976318359375,-1.381854772567749,-1.216362714767456,-0.2824520170688629
1761379812748059400,6.189059326171875,-1.495959997177124,-1.2948273420333862,-0.2616434097290039
1761379812758142200,6.19914208984375,-1.6800535917282104,-1.0939074754714966,-0.10576242208480835
1761379812768225300,6.209225341796875,-1.7433750629425049,-0.7914918661117554,0.08113954961299896
1761379812778308000,6.21930810546875,-1.7380192279815674,-0.38966721296310425,0.26988258957862854
1761379812788391200,6.22939111328125,-1.663702130317688,-0.19238662719726562,0.4087238013744354
1761379812798474200,6.23947412109375,-1.5046358108520508,-0.1742735207080841,0.47904959321022034
1761379812808557300,6.249557373046875,-1.3811753988265991,-0.23021374642848969,0.5391275882720947
1761379812818640100,6.25964013671875,-1.3143714666366577,-0.45394331216812134,0.5488901734352112
1761379812828723200,6.26972314453125,-1.29140305519104,-0.6945724487304688,0.5427489280700684
1761379812838806300,6.27980615234375,-1.3141368627548218,-0.813010573387146,0.5805585384368896
1761379812848889000,6.28988916015625,-1.36054265499115,-0.8061755299568176,0.6468600630760193
1761379812858972400,6.299972412109375,-1.4164844751358032,-0.7101231217384338,0.6611242890357971
1761379812869055200,6.31005517578125,-1.470383882522583,-0.6066119074821472,0.5746791958808899
1761379812879138300,6.32013818359375,-1.5129566192626953,-0.5264083743095398,0.4020569324493408
1761379812889221000,6.33022119140625,-1.5627038478851318,-0.46207624673843384,0.19939009845256805
1761379812899304200,6.34030419921875,-1.6278939247131348,-0.4226645231246948,0.019007857888936996
1761379812909387000,6.350386962890625,-1.6902939081192017,-0.42051535844802856,-0.12525850534439087
1761379812919470300,6.36047021484375,-1.7402877807617188,-0.4360651671886444,-0.23689669370651245
1761379812929553200,6.37055322265625,-1.7861181497573853,-0.4724963903427124,-0.3240275979042053
1761379812939636200,6.38063623046875,-1.824761986732483,-0.5278108716011047,-0.3689594268798828
1761379812949719300,6.39071923828125,-1.8501993417739868,-0.5837076902389526,-0.3770200312137604
1761379812959802000,6.400802001953125,-1.8417335748672485,-0.5673843026161194,-0.3235044777393341
1761379812969885200,6.41088525390625,-1.818765640258789,-0.516598641872406,-0.22407403588294983
1761379812979968300,6.42096826171875,-1.7593865394592285,-0.48965492844581604,-0.12993602454662323
1761379812990051300,6.43105126953125,-1.7069199085235596,-0.44452473521232605,-0.024549150839447975
1761379813000134100,6.441134033203125,-1.6540418863296509,-0.43495243787765503,0.060695547610521317
1761379813010217200,6.45121728515625,-1.601980209350586,-0.46135181188583374,0.100941501557827
1761379813020300000,6.461300048828125,-1.5629229545593262,-0.5164101719856262,0.11988334357738495
1761379813030383000,6.471383056640625,-1.5291764736175537,-0.5831724405288696,0.13364708423614502
1761379813040466400,6.481466552734375,-1.5083813667297363,-0.6692913770675659,0.1664004623889923
1761379813050549200,6.49154931640625,-1.500105619430542,-0.744146466255188,0.20515157282352448
1761379813060632300,6.50163232421875,-1.524660348892212,-0.7639427781105042,0.2356831282377243
1761379813070715100,6.511715087890625,-1.5397818088531494,-0.7140284776687622,0.24409179389476776
1761379813080798200,6.521798095703125,-1.5350399017333984,-0.5987855792045593,0.22330321371555328
1761379813090881000,6.531881103515625,-1.5448062419891357,-0.4393293559551239,0.1641370952129364
1761379813100964400,6.54196435546875,-1.5297549962997437,-0.29725563526153564,0.05021221935749054
1761379813111047200,6.552047119140625,-1.502380609512329,-0.20754092931747437,-0.07123511284589767
1761379813121130200,6.562130126953125,-1.494084358215332,-0.19916217029094696,-0.15153400599956512
1761379813131213300,6.57221337890625,-1.4857462644577026,-0.2457994520664215,-0.18076805770397186
1761379813141296000,6.582296142578125,-1.470178484916687,-0.28948476910591125,-0.14644266664981842
1761379813151379200,6.592379150390625,-1.4629312753677368,-0.36044415831565857,-0.07147815078496933
1761379813161462300,6.602462158203125,-1.4288437366485596,-0.3973401188850403,0.023698905482888222
1761379813171545300,6.61254541015625,-1.3782747983932495,-0.3701452612876892,0.10647181421518326
1761379813181628200,6.622628173828125,-1.3126790523529053,-0.3286033570766449,0.17456108331680298
1761379813191711200,6.632711181640625,-1.232595443725586,-0.3217664957046509,0.21974027156829834
1761379813201794000,6.6427939453125,-1.1337052583694458,-0.3315390944480896,0.2542573809623718
1761379813211877000,6.652877197265625,-1.0533268451690674,-0.3610069751739502,0.28187304735183716
1761379813221960200,6.662960205078125,-0.9905766248703003,-0.4098863899707794,0.3062956631183624
1761379813232043300,6.673043212890625,-0.9431700110435486,-0.4595080018043518,0.31747907400131226
1761379813242126300,6.683126220703125,-0.923160970211029,-0.4979143440723419,0.2982257008552551
1761379813252209200,6.693209228515625,-0.9298021197319031,-0.5267161130905151,0.25435012578964233
1761379813262292200,6.703292236328125,-0.9652184247970581,-0.5305594801902771,0.2102661281824112
1761379813272375000,6.713375,-0.9993260502815247,-0.4794382154941559,0.18123820424079895
1761379813282458400,6.723458251953125,-0.9921590685844421,-0.3667547106742859,0.17418986558914185
1761379813292541200,6.733541259765625,-0.9501239657402039,-0.22952201962471008,0.18320919573307037
1761379813302624300,6.743624267578125,-0.8764956593513489,-0.11934720724821091,0.1925777643918991
1761379813312707000,6.75370703125,-0.7871655225753784,-0.03500783070921898,0.18761096894741058
1761379813322790100,6.7637900390625,-0.7122084498405457,-0.0003673732280731201,0.18306629359722137
1761379813332873200,6.773873291015625,-0.6672620177268982,-0.029509279876947403,0.19142675399780273
1761379813342956300,6.783956298828125,-0.649474024772644,-0.05911000445485115,0.22265680134296417
1761379813353043200,6.794043212890625,-0.6488697528839111,-0.09118618071079254,0.25108978152275085
1761379813363126000,6.8041259765625,-0.648505687713623,-0.1465136706829071,0.2604384124279022
1761379813373209000,6.814208984375,-0.6631163358688354,-0.16626393795013428,0.2701794505119324
1761379813383292200,6.824292236328125,-0.6693933010101318,-0.08247797191143036,0.2825453281402588
1761379813393375200,6.834375244140625,-0.6415470242500305,0.037354424595832825,0.28732195496559143
1761379813403458000,6.8444580078125,-0.5863024592399597,0.169077068567276,0.32647576928138733
1761379813413541000,6.854541015625,-0.5465793013572693,0.28102225065231323,0.5489421486854553
1761379813423624000,6.8646240234375,-0.4931049644947052,-0.07608284056186676,0.699471652507782
1761379813433707000,6.87470703125,-0.44652149081230164,-0.48167693614959717,0.7317555546760559
1761379813443790000,6.8847900390625,-0.45923763513565063,-0.8902724981307983,0.5710598230361938
1761379813453873200,6.894873046875,-0.501288652420044,-1.1571611166000366,0.24746845662593842
1761379813463956200,6.904956298828125,-0.5555561184883118,-1.1859605312347412,-0.1844530701637268
1761379813474039000,6.9150390625,-0.603873074054718,-0.9380695223808289,-0.5883121490478516
1761379813484122000,6.9251220703125,-0.5824362635612488,-0.4633159339427948,-0.8646271228790283
1761379813494205000,6.935204833984375,-0.48135843873023987,0.14673331379890442,-0.9589158296585083
1761379813504288300,6.945288330078125,-0.3073303699493408,0.6518728137016296,-0.8918487429618835
