time,seconds_elapsed,z,y,x
1761379457317753000,0.066753173828125,0.023798007518053055,-0.03586399182677269,-0.00005885586142539978
1761379457327835100,0.076835205078125,0.012489426881074905,-0.008021974004805088,-0.031143538653850555
1761379457337918000,0.08691796875,0.006494651082903147,0.012447881512343884,-0.04214026406407356
1761379457348000000,0.097,0.001398159540258348,0.017372598871588707,-0.026885943487286568
1761379457358082000,0.10708203125,-0.008310128003358841,0.012132029980421066,0.0008796420879662037
1761379457368164000,0.1171640625,-0.033354226499795914,-0.000978978001512587,0.018619490787386894
1761379457378247000,0.127246826171875,-0.059759471565485,-0.03152516856789589,0.017049822956323624
1761379457388329000,0.137328857421875,-0.0833396315574646,-0.027538416907191277,0.004825914278626442
1761379457398411000,0.147410888671875,-0.09203511476516724,-0.029978938400745392,0.002767290687188506
1761379457408493000,0.1574931640625,-0.08367279171943665,-0.05531119182705879,0.02636636048555374
1761379457418576100,0.167576171875,-0.0752529427409172,-0.06451773643493652,0.04638640582561493
1761379457428658000,0.177657958984375,-0.07788441330194473,-0.07644151151180267,0.05760497227311134
1761379457438740000,0.187739990234375,-0.0819353461265564,-0.08159898966550827,0.06022552400827408
1761379457448822000,0.197822021484375,-0.07529475539922714,-0.08100350946187973,0.04898272082209587
1761379457458905000,0.207905029296875,-0.06352198123931885,-0.07709265500307083,0.02153272181749344
1761379457468987000,0.21798681640625,-0.04318635165691376,-0.06882540136575699,-0.0034852789249271154
1761379457479069000,0.22806884765625,-0.029934994876384735,-0.04820401594042778,-0.014402640983462334
1761379457489151000,0.23815087890625,-0.015870841220021248,-0.0190152358263731,-0.014403440058231354
1761379457499234000,0.248234130859375,0.007730357814580202,-0.00866326317191124,-0.0026165556628257036
1761379457509315800,0.25831591796875,0.03542723134160042,-0.01678031124174595,0.022478943690657616
1761379457519398000,0.26839794921875,0.05186665803194046,-0.030368559062480927,0.05221233889460564
1761379457529480000,0.27847998046875,0.06579738855361938,-0.03695668652653694,0.06910903006792068
1761379457539563300,0.288563232421875,0.07048162072896957,-0.04132533445954323,0.05815012380480766
1761379457549645000,0.29864501953125,0.07879867404699326,-0.04470888152718544,0.02526327781379223
1761379457559726800,0.308726806640625,0.08353777229785919,-0.027226028963923454,-0.01204015128314495
1761379457569809000,0.318808837890625,0.07571526616811752,0.015725966542959213,-0.04098391905426979
1761379457579892200,0.328892333984375,0.06910210847854614,0.02213406376540661,-0.034029606729745865
1761379457589974300,0.338974365234375,0.058457449078559875,0.008993761613965034,0.00009640643111197278
1761379457600056000,0.34905615234375,0.039930906146764755,0.001773132593370974,0.028384502977132797
1761379457610138000,0.35913818359375,0.013892912305891514,-0.010793259367346764,0.03388819098472595
1761379457620221200,0.36922119140625,-0.011331750079989433,-0.03074885718524456,0.03370336815714836
1761379457630303200,0.37930322265625,-0.04309846833348274,-0.047811463475227356,0.019246399402618408
1761379457640385000,0.389385009765625,-0.06931702047586441,-0.04856620356440544,0.0013598100049421191
1761379457650467000,0.399467041015625,-0.09041884541511536,-0.02315991371870041,-0.013761351816356182
1761379457660550100,0.409550048828125,-0.1063738465309143,-0.0006980145117267966,-0.004704474005848169
1761379457670632200,0.419632080078125,-0.1018451377749443,-0.0021286646369844675,0.02238120511174202
1761379457680714200,0.42971435546875,-0.08979220688343048,-0.011888617649674416,0.05162005126476288
1761379457690796000,0.439796142578125,-0.07731369882822037,-0.020793695002794266,0.06114165112376213
1761379457700879000,0.449879150390625,-0.06401520222425461,-0.015179218724370003,0.05112896487116814
1761379457710961200,0.459961181640625,-0.05084746703505516,0.0027957865968346596,0.026321617886424065
1761379457721043200,0.470043212890625,-0.04122546687722206,0.023992683738470078,0.0060267336666584015
1761379457731125000,0.480125,-0.026514431461691856,0.028180239722132683,0.0023254721891134977
1761379457741208000,0.4902080078125,-0.018850652500987053,0.036604881286621094,0.007259244564920664
1761379457751290000,0.5002900390625,-0.005401156842708588,0.027588751167058945,0.002412291243672371
1761379457761372200,0.5103720703125,0.014252705499529839,0.01882455311715603,-0.011837484315037727
1761379457771454200,0.5204541015625,0.03683577850461006,0.011238805949687958,-0.018273279070854187
1761379457781537000,0.530537109375,0.0558861680328846,-0.0013784521725028753,-0.019467175006866455
1761379457791619000,0.540619140625,0.06569059938192368,-0.0023675502743571997,-0.022645125165581703
1761379457801701000,0.550701171875,0.06526102870702744,0.003489273600280285,-0.033191241323947906
1761379457811783200,0.560783203125,0.04673874378204346,0.013580789789557457,-0.044704619795084
1761379457821866000,0.570865966796875,0.027354925870895386,0.04182281345129013,-0.05771203339099884
1761379457831948000,0.580947998046875,0.00589570589363575,0.0779627114534378,-0.054615043103694916
1761379457842030000,0.591030029296875,-0.005914880894124508,0.07619223743677139,-0.023024626076221466
1761379457852112100,0.601112060546875,0.00017976337403524667,0.060324858874082565,0.02299666218459606
1761379457862195000,0.61119482421875,-0.001088700257241726,0.037147101014852524,0.04767244681715965
1761379457872277000,0.621277099609375,-0.0044352286495268345,0.017914019525051117,0.04544737562537193
1761379457882359000,0.631359130859375,-0.01176531333476305,0.005815544631332159,0.01275520958006382
1761379457892441000,0.641441162109375,-0.01679975353181362,0.01392913144081831,-0.04339274764060974
1761379457902524000,0.65152392578125,-0.02556501515209675,0.04355946183204651,-0.0648391842842102
1761379457912606000,0.66160595703125,-0.016881246119737625,0.03453773632645607,-0.002338788006454706
1761379457922688000,0.67168798828125,-0.011551194824278355,0.017678329721093178,0.07643058896064758
1761379457932770000,0.68177001953125,-0.007506119552999735,0.011314439587295055,0.11751837283372879
1761379457942852900,0.691852783203125,0.0017800568602979183,-0.006925550289452076,0.12179674208164215
1761379457952935000,0.701934814453125,0.009399360977113247,-0.02100887894630432,0.10609474778175354
1761379457963017000,0.712016845703125,0.00768801337108016,-0.02094682678580284,0.056116532534360886
1761379457973099000,0.72209912109375,0.00020719393796753138,-0.01883360929787159,-0.014005830511450768
1761379457983182000,0.73218212890625,-0.003918308764696121,-0.023735156282782555,-0.07352694869041443
1761379457993263900,0.742263916015625,-0.014120079576969147,-0.01341620646417141,-0.11660464107990265
1761379458003350800,0.752350830078125,-0.025014806538820267,-0.0032495891209691763,-0.11588265746831894
1761379458013432800,0.762432861328125,-0.04024888575077057,-0.009120794013142586,-0.07964742183685303
1761379458023515600,0.772515625,-0.04838510975241661,-0.02069569006562233,-0.045582663267850876
1761379458033597700,0.78259765625,-0.05477376654744148,-0.02364807203412056,-0.03213663026690483
1761379458043679700,0.7926796875,-0.05056304112076759,-0.020320184528827667,-0.03485438600182533
1761379458053761800,0.80276171875,-0.04441273957490921,-0.018571820110082626,-0.03511883690953255
1761379458063844600,0.8128447265625,-0.03139627352356911,-0.0010546117555350065,0.0035396073944866657
1761379458073926700,0.8229267578125,-0.028671326115727425,0.015483085997402668,0.06299707293510437
1761379458084008700,0.8330087890625,-0.03609967976808548,0.025856630876660347,0.12190459668636322
1761379458094090800,0.8430908203125,-0.03843687102198601,0.030107568949460983,0.15307050943374634
1761379458104173600,0.853173583984375,-0.039922647178173065,0.03947017714381218,0.1584881842136383
1761379458114255600,0.863255615234375,-0.0362970195710659,0.041363418102264404,0.13992515206336975
1761379458124337700,0.873337646484375,-0.03874952718615532,0.039752207696437836,0.10782473534345627
1761379458134419700,0.883419677734375,-0.04917873069643974,0.04313149303197861,0.07975874096155167
1761379458144501800,0.893501708984375,-0.05594129487872124,0.040885914117097855,0.04502126947045326
1761379458154584600,0.90358447265625,-0.05055185779929161,0.03130039945244789,0.02287122793495655
1761379458164666600,0.91366650390625,-0.03838786855340004,0.009272061288356781,0.016921458765864372
1761379458174748700,0.923748779296875,-0.027630295604467392,-0.007157245185226202,0.014855378307402134
1761379458184831700,0.933831787109375,-0.020371317863464355,-0.009518403559923172,0.003964115399867296
1761379458194913500,0.94391357421875,-0.017731858417391777,-0.013041766360402107,-0.001422128058038652
1761379458204995600,0.95399560546875,-0.010510165244340897,-0.01660933718085289,-0.0068150293081998825
1761379458215077600,0.96407763671875,-0.0018527611391618848,-0.006899451371282339,-0.007860053330659866
1761379458225159700,0.97415966796875,0.00547386147081852,0.004856540355831385,-0.012266519479453564
1761379458235242500,0.984242431640625,0.0010181264951825142,0.01726553961634636,-0.00971574429422617
1761379458245324500,0.994324462890625,-0.007544735446572304,0.028744297102093697,-0.0009416937828063965
1761379458255406600,1.004406494140625,-0.02040780335664749,0.04007205367088318,0.01961577869951725
1761379458265488600,1.014488525390625,-0.035890623927116394,0.03134886920452118,0.04971562325954437
1761379458275571700,1.02457177734375,-0.05091297999024391,0.024708010256290436,0.056828662753105164
1761379458285653500,1.034653564453125,-0.07599729299545288,0.022915435954928398,0.050271425396203995
1761379458295735600,1.044735595703125,-0.08413910865783691,0.02153618447482586,0.03894047439098358
1761379458305817600,1.054817626953125,-0.07953663915395737,0.004098871257156134,0.029980536550283432
1761379458315901000,1.06490087890625,-0.06543652713298798,0.0026929883752018213,0.016997892409563065
1761379458325982500,1.074982421875,-0.04911188408732414,0.00851519126445055,0.008066448383033276
1761379458336064500,1.085064453125,-0.02491040900349617,0.0027350664604455233,0.0035111114848405123
1761379458346146600,1.095146484375,-0.007576959673315287,-0.0025861957110464573,-0.012620453722774982
1761379458356230000,1.10522998046875,0.016208797693252563,-0.015873238444328308,-0.03533695265650749
1761379458366311700,1.115311767578125,0.04200071468949318,-0.025072064250707626,-0.05422542244195938
1761379458376393700,1.125393798828125,0.054965246468782425,-0.0345502533018589,-0.06803018599748611
1761379458386475800,1.135475830078125,0.05326535180211067,-0.03801955282688141,-0.06488925218582153
1761379458396558800,1.145558837890625,0.053528737276792526,-0.0371692068874836,-0.052559349685907364
1761379458406641000,1.155640869140625,0.0505923368036747,-0.0267767533659935,-0.03616386279463768
1761379458416722700,1.16572265625,0.04376479238271713,-0.017885522916913033,-0.014418087899684906
1761379458426804700,1.1758046875,0.02906760387122631,-0.01031708624213934,-0.0017696705181151628
1761379458436887800,1.1858876953125,0.017954498529434204,0.004337756894528866,-0.009737315587699413
1761379458446969900,1.195969970703125,0.008624114096164703,0.008169246837496758,-0.01164706889539957
1761379458457051600,1.2060517578125,-0.00025779398856684566,0.0126968864351511,-0.009680590592324734
1761379458467133700,1.2161337890625,-0.006608367897570133,0.02666010707616806,-0.002772616920992732
1761379458477216800,1.226216796875,-0.010898454114794731,0.01895078830420971,0.013618340715765953
1761379458487298800,1.236298828125,-0.006142580881714821,0.005281847435981035,0.03247884660959244
1761379458497380600,1.246380615234375,0.0005640574963763356,-0.012193016707897186,0.03790876641869545
1761379458507462700,1.256462646484375,0.01257997378706932,-0.02954031527042389,0.025682726874947548
1761379458517545700,1.266545654296875,0.028123512864112854,-0.037214480340480804,0.008866461925208569
1761379458527627800,1.276627685546875,0.03255501389503479,-0.027633491903543472,-0.003808320267125964
1761379458537709800,1.286709716796875,0.04084383696317673,-0.014524081721901894,-0.019181683659553528
1761379458547791600,1.29679150390625,0.04728389158844948,0.004816326778382063,-0.0292953047901392
1761379458557874700,1.306874755859375,0.05712081119418144,0.0146857351064682,-0.03580513596534729
1761379458567956700,1.316956787109375,0.059170112013816833,0.02251010201871395,-0.03140692412853241
1761379458578038800,1.327038818359375,0.05481398105621338,0.02911953628063202,-0.01829937845468521
1761379458588120600,1.33712060546875,0.050040263682603836,0.037994254380464554,0.0013699301052838564
1761379458598203600,1.34720361328125,0.05121844634413719,0.030913174152374268,0.025044899433851242
1761379458608285700,1.35728564453125,0.04934784024953842,0.014992265030741692,0.04637895151972771
1761379458618367700,1.36736767578125,0.052978795021772385,0.005626726895570755,0.045515019446611404
1761379458628449800,1.37744970703125,0.05122483894228935,0.00965715479105711,0.030524352565407753
1761379458638532600,1.38753271484375,0.046541936695575714,0.015027685090899467,0.0023238742724061012
1761379458648614700,1.39761474609375,0.040580715984106064,0.02925162762403488,-0.024277642369270325
1761379458658696700,1.40769677734375,0.03363758698105812,0.032164592295885086,-0.026762371882796288
1761379458668778800,1.41777880859375,0.02846359834074974,0.027349332347512245,-0.01960965432226658
1761379458678861600,1.427861572265625,0.0237018670886755,0.018100174143910408,-0.016096411272883415
1761379458688943600,1.437943603515625,0.014551245607435703,0.009680856950581074,-0.02118438109755516
1761379458699025700,1.448025634765625,0.011809787712991238,0.015986157581210136,-0.030239395797252655
1761379458709107700,1.458107666015625,0.00805952399969101,0.019931629300117493,-0.03845444694161415
1761379458719190500,1.4681904296875,0.006740194279700518,0.02299000509083271,-0.03302505984902382
1761379458729272600,1.4782724609375,0.002814428647980094,0.011713913641870022,-0.018377408385276794
1761379458739354600,1.488354736328125,0.0038107172586023808,-0.007516239304095507,-0.005869606975466013
1761379458749436700,1.498436767578125,0.007648864760994911,-0.030254840850830078,-0.0004697816038969904
1761379458759519500,1.50851953125,0.007835285738110542,-0.0444638691842556,-0.02159557305276394
1761379458769601500,1.5186015625,0.005849633365869522,-0.041854240000247955,-0.042389534413814545
1761379458779683600,1.52868359375,0.0035420041531324387,-0.03845924139022827,-0.05271727219223976
1761379458789765600,1.538765625,0.01877768151462078,-0.0435141883790493,-0.04280179366469383
1761379458799848700,1.5488486328125,0.020473582670092583,-0.04282922297716141,-0.020437363535165787
1761379458809930800,1.5589306640625,0.019530292600393295,-0.03567890077829361,-0.0029979203827679157
1761379458820012800,1.5690126953125,0.020836573094129562,-0.03754790872335434,0.0017052220646291971
1761379458830094600,1.579094482421875,0.027783960103988647,-0.0394723080098629,0.0024493092205375433
1761379458840177700,1.589177734375,0.039086680859327316,-0.03548209369182587,-0.0023470439482480288
1761379458850259700,1.599259765625,0.04471500590443611,-0.02388189733028412,-0.0026820695493370295
1761379458860341800,1.609341796875,0.05685795471072197,-0.019225092604756355,0.004200870171189308
1761379458870423800,1.619423828125,0.061951253563165665,-0.021619275212287903,0.00896766223013401
1761379458880507000,1.6295068359375,0.06442666053771973,-0.023607857525348663,0.015322763472795486
1761379458890588700,1.639588623046875,0.06653082370758057,-0.027160780504345894,0.012436429969966412
1761379458900670700,1.649670654296875,0.06570471078157425,-0.0225034449249506,0.006443518213927746
1761379458910752800,1.659752685546875,0.05967345088720322,-0.026499250903725624,0.00038775624125264585
1761379458920835800,1.6698359375,0.052014999091625214,-0.01787007786333561,-0.006878145970404148
1761379458930917600,1.679917724609375,0.03891224414110184,-0.0003304982965346426,-0.006171077024191618
1761379458940999700,1.689999755859375,0.026158632710576057,0.01792413927614689,0.005021656397730112
1761379458951081700,1.700081787109375,0.009153816848993301,0.02568911761045456,0.022064289078116417
1761379458961164800,1.710164794921875,-0.0035089810844510794,0.027830565348267555,0.035169705748558044
1761379458971246600,1.72024658203125,-0.012053467333316803,0.018457837402820587,0.037829671055078506
1761379458981328600,1.73032861328125,-0.0182314682751894,-0.0004010720585938543,0.03801875561475754
1761379458991410700,1.74041064453125,-0.014960307627916336,-0.01841762289404869,0.02647794596850872
1761379459001493800,1.75049365234375,-0.011885154992341995,-0.028748290613293648,0.026076341047883034
1761379459011571700,1.76057177734375,-0.013346165418624878,-0.030602650716900826,0.027655595913529396
1761379459021653800,1.77065380859375,-0.017895909026265144,-0.026402845978736877,0.024828916415572166
1761379459031735600,1.780735595703125,-0.021618476137518883,-0.019114572554826736,0.011728827841579914
1761379459041818600,1.790818603515625,-0.014537663199007511,-0.015046860091388226,-0.0021963089238852262
1761379459051900700,1.800900634765625,-0.008678176440298557,-0.014995194971561432,-0.0049590724520385265
1761379459061982700,1.810982666015625,0.0016327840276062489,-0.016938237473368645,-0.002814428647980094
1761379459072064500,1.821064453125,0.013806626200675964,-0.026087259873747826,0.005193963181227446
1761379459082147600,1.831147705078125,0.02189784124493599,-0.026142654940485954,0.007890946231782436
1761379459092229600,1.841229736328125,0.030116623267531395,-0.020267987623810768,0.005507150664925575
1761379459102311700,1.851311767578125,0.031268972903490067,-0.01149606704711914,0.005741775035858154
1761379459112393700,1.861393798828125,0.026942668482661247,-0.004450940992683172,0.015956595540046692
1761379459122476500,1.8714765625,0.015869777649641037,0.01569720357656479,0.02688887156546116
1761379459132558600,1.88155859375,0.010476609691977501,0.038180142641067505,0.03433613479137421
1761379459142640600,1.891640625,0.008132494986057281,0.055984970182180405,0.04505695775151253
1761379459152722700,1.90172265625,0.013020993210375309,0.0561588779091835,0.061706773936748505
1761379459162805800,1.9118056640625,0.018211761489510536,0.04194531962275505,0.07040519267320633
1761379459172887800,1.9218876953125,0.02249891683459282,0.02924763411283493,0.07688172906637192
1761379459182969600,1.931969482421875,0.02287096157670021,0.026457706466317177,0.06524824351072311
1761379459193051600,1.9420517578125,0.022399049252271652,0.02737037092447281,0.04633713886141777
1761379459203134700,1.952134765625,0.02516341023147106,0.028022047132253647,0.023627564311027527
1761379459213216800,1.962216796875,0.03644562512636185,0.0246086735278368,0.0031822111923247576
1761379459223298800,1.972298828125,0.05326428636908531,0.01865304633975029,-0.0006072007236070931
1761379459233380900,1.982380859375,0.07275782525539398,0.0038725025951862335,-0.002700977958738804
1761379459243463700,1.992463623046875,0.08196384459733963,-0.013997307978570461,0.004262921866029501
1761379459253545700,2.002545654296875,0.08561316877603531,-0.02292955107986927,0.006263222079724073
1761379459263627800,2.012627685546875,0.08751226961612701,-0.02821272984147072,0.0021576930303126574
1761379459273709800,2.022709716796875,0.08972322940826416,-0.023147396743297577,-0.0013646037550643086
1761379459283792600,2.032792724609375,0.09531214088201523,-0.04175703227519989,0.0032650355715304613
1761379459293874700,2.042874755859375,0.09915481507778168,-0.06496195495128632,0.00884915143251419
1761379459303956700,2.052956787109375,0.09492704272270203,-0.07426464557647705,0.007754325866699219
1761379459314038800,2.063038818359375,0.08557615429162979,-0.07487450540065765,-0.009225189685821533
1761379459324121600,2.07312158203125,0.07549688965082169,-0.06512094289064407,-0.020228305831551552
1761379459334203600,2.08320361328125,0.05697353556752205,-0.041794318705797195,-0.013018596917390823
1761379459344285700,2.09328564453125,0.039088547229766846,-0.015093198977410793,0.003614175831899047
1761379459354367700,2.10336767578125,0.03178216516971588,-0.001255680457688868,0.02773495763540268
1761379459364449800,2.11344970703125,0.03131291642785072,0.0004082625964656472,0.04661890119314194
1761379459374532600,2.12353271484375,0.026008963584899902,0.0012950951931998134,0.06568606942892075
1761379459384614700,2.13361474609375,0.018813634291291237,-0.0003424825263209641,0.06686584651470184
1761379459394696700,2.14369677734375,0.016822123900055885,-0.00464588450267911,0.06022658944129944
1761379459404778800,2.15377880859375,0.015675365924835205,-0.0023092268966138363,0.04036233574151993
1761379459414861600,2.163861572265625,0.02394687756896019,-0.0025648903101682663,0.02900475263595581
1761379459424943600,2.173943603515625,0.028506742790341377,-0.01537442859262228,0.019749736413359642
1761379459435025700,2.184025634765625,0.02743215672671795,-0.016504408791661263,0.01594354584813118
1761379459445107700,2.194107666015625,0.02323688007891178,-0.014170946553349495,0.004742557182908058
1761379459455190800,2.204190673828125,0.014062555506825447,-0.007463242392987013,-0.015152321197092533
1761379459465272600,2.2142724609375,0.012742160819470882,-0.00817856751382351,-0.012405803427100182
1761379459475354600,2.224354736328125,0.018281536176800728,-0.017595771700143814,0.010884072631597519
1761379459485437700,2.234437744140625,0.020261861383914948,-0.022334866225719452,0.017766745761036873
1761379459495519700,2.244519775390625,0.024326378479599953,-0.02088024839758873,0.015721704810857773
1761379459505601500,2.2546015625,0.024396685883402824,-0.010333064943552017,0.01661253161728382
1761379459515683600,2.26468359375,0.02353382110595703,-0.016166185960173607,0.019090337678790092
1761379459525765600,2.274765625,0.013440441340208054,-0.014786136336624622,0.006880809087306261
1761379459535848700,2.2848486328125,0.0071164988912642,-0.007306116167455912,-0.011260909959673882
1761379459545930800,2.2949306640625,-0.0024650217965245247,-0.01056103128939867,-0.0016791230300441384
1761379459556012500,2.305012451171875,-0.004846953321248293,-0.028303276747465134,0.028629247099161148
1761379459566094600,2.315094482421875,-0.018217885866761208,-0.02677355706691742,0.04101960361003876
1761379459576177700,2.325177734375,-0.02695545181632042,-0.03495798259973526,0.039809998124837875
1761379459586259700,2.335259765625,-0.02623080462217331,-0.046539273113012314,0.02948332391679287
1761379459596341500,2.345341552734375,-0.025056617334485054,-0.05540892854332924,0.016229836270213127
1761379459606423600,2.355423583984375,-0.02431812323629856,-0.047748081386089325,0.0027302727103233337
1761379459616506600,2.365506591796875,-0.027943750843405724,-0.02845347858965397,-0.022705845534801483
1761379459626588700,2.375588623046875,-0.028738969936966896,-0.024656610563397408,-0.03503361716866493
1761379459636670500,2.38567041015625,-0.028146682307124138,-0.029735524207353592,-0.013974404893815517
1761379459646752500,2.39575244140625,-0.026266224682331085,-0.03633616864681244,0.019989686086773872
1761379459656835800,2.4058359375,-0.025238510221242905,-0.034631215035915375,0.035298336297273636
1761379459666918000,2.41591796875,-0.024385767057538033,-0.028898494318127632,0.05525153875350952
1761379459676999700,2.425999755859375,-0.023837953805923462,-0.03635561093688011,0.08857940137386322
1761379459687081500,2.43608154296875,-0.01575605943799019,-0.04410594329237938,0.10994114726781845
1761379459697164800,2.446164794921875,-0.016620256006717682,-0.04183106869459152,0.10353997349739075
1761379459707246800,2.456246826171875,-0.01278716791421175,-0.04229392856359482,0.06622456014156342
1761379459717329000,2.466328857421875,-0.010412427596747875,-0.04615684226155281,0.03297818824648857
1761379459727410700,2.47641064453125,-0.010862501338124275,-0.0459805428981781,-0.0019371833186596632
1761379459737493800,2.48649365234375,-0.016817063093185425,-0.03836895897984505,-0.02905402146279812
1761379459747575800,2.496575927734375,-0.020431239157915115,-0.02008662559092045,-0.04928392544388771
1761379459757657900,2.506657958984375,-0.01890045404434204,-0.015352058224380016,-0.045339785516262054
1761379459767739600,2.51673974609375,-0.01483487244695425,-0.018739067018032074,-0.02894829399883747
1761379459777822700,2.52682275390625,-0.011724832467734814,-0.011653194203972816,-0.018216554075479507
1761379459787904800,2.53690478515625,-0.01107528805732727,-0.015441540628671646,-0.006619020365178585
1761379459797986800,2.54698681640625,-0.012136558070778847,-0.02672215737402439,0.007405185606330633
1761379459808068900,2.55706884765625,-0.01685141772031784,-0.025287512689828873,0.008727977983653545
1761379459818151700,2.567151611328125,-0.021646972745656967,-0.016583237797021866,0.010075537487864494
1761379459828233700,2.577233642578125,-0.026018017902970314,-0.011913384310901165,0.014992265030741692
1761379459838315800,2.587315673828125,-0.03375982865691185,-0.006359628401696682,0.022938871756196022
1761379459848397800,2.597397705078125,-0.041078727692365646,-0.005075718741863966,0.017061008140444756
1761379459858480600,2.607480712890625,-0.039629168808460236,-0.0013707289472222328,0.0018194715958088636
1761379459868562700,2.617562744140625,-0.03009611740708351,0.00033582461765035987,-0.006940464023500681
1761379459878644700,2.627644775390625,-0.013932593166828156,-0.005544168874621391,-0.015231417492032051
1761379459888726800,2.637726806640625,0.000496945867780596,-0.0059449742548167706,-0.01164387259632349
1761379459898808800,2.647808837890625,0.01290434692054987,0.008822253905236721,-0.008187622763216496
1761379459908891600,2.6578916015625,0.024389229714870453,0.009394301101565361,0.007712248247116804
1761379459918973700,2.6679736328125,0.031990423798561096,0.006410761270672083,0.027243072167038918
1761379459929055700,2.6780556640625,0.036489035934209824,0.012961071915924549,0.03442109003663063
1761379459939137800,2.6881376953125,0.041973281651735306,0.011847338639199734,0.03250148519873619
1761379459949220600,2.698220703125,0.04989485442638397,0.003296727081760764,0.022061891853809357
1761379459959302700,2.708302734375,0.049557700753211975,0.003736681304872036,0.0023286680225282907
1761379459969384700,2.718384765625,0.04393656551837921,0.0013366405619308352,-0.02045653946697712
1761379459979466800,2.728466796875,0.03403812646865845,-0.0046384274028241634,-0.026973294094204903
1761379459989549600,2.738549560546875,0.025140773504972458,0.0002798982313834131,-0.02839355729520321
1761379459999631600,2.748631591796875,0.018702847883105278,-0.004731638357043266,-0.012780776247382164
1761379460009714700,2.758714599609375,0.009184443391859531,-0.0043862261809408665,0.007475226651877165
1761379460019796700,2.768796630859375,0.0067689563147723675,-0.005097024142742157,0.019531888887286186
1761379460029879800,2.7788798828125,0.0037739656399935484,-0.0006157228490337729,0.02148132398724556
1761379460039961600,2.788961669921875,0.012924054637551308,-0.002257561543956399,0.01793692260980606
1761379460050043600,2.799043701171875,0.01792520470917225,-0.0032320122700184584,0.004349474795162678
1761379460060125700,2.809125732421875,0.02136867120862007,0.004116448108106852,-0.009696302935481071
1761379460070208800,2.819208740234375,0.027339212596416473,0.004292216617614031,-0.012381302192807198
1761379460080290800,2.829290771484375,0.03115871734917164,0.011620703153312206,0.001430916483514011
1761379460090372900,2.839372802734375,0.03170040622353554,0.0226826760917902,0.013610617257654667
1761379460100455000,2.849454833984375,0.03128867968916893,0.03286074474453926,0.02948438934981823
1761379460110537700,2.859537841796875,0.030107568949460983,0.03630581125617027,0.03557131066918373
1761379460120619800,2.869619873046875,0.028965605422854424,0.03339923545718193,0.03675668314099312
1761379460130701800,2.879701904296875,0.0174423735588789,0.03430604189634323,0.02485927753150463
1761379460140783900,2.889783935546875,0.0034751589410007,0.022359633818268776,0.017491376027464867
1761379460150866700,2.89986669921875,-0.002953711897134781,0.013336045667529106,0.010184193961322308
1761379460160948700,2.90994873046875,-0.007453122641891241,0.004010720644146204,0.001996305538341403
1761379460171030800,2.92003076171875,-0.013623400591313839,0.0003073287953156978,0.011176754720509052
1761379460181112800,2.93011279296875,-0.01770149916410446,-0.005374525208026171,0.01338664535433054
1761379460191195000,2.94019482421875,-0.022117553278803825,-0.00615110294893384,0.010732006281614304
1761379460201277700,2.950277587890625,-0.02154071256518364,-0.017432253807783127,0.008565524592995644
1761379460211359700,2.96035986328125,-0.02304326742887497,-0.020867997780442238,0.0017686053179204464
1761379460221441800,2.97044189453125,-0.02334287390112877,-0.022723954170942307,-0.009454487822949886
1761379460231523800,2.98052392578125,-0.020387830212712288,-0.02021791972219944,-0.019093267619609833
1761379460241606700,2.990606689453125,-0.02009914256632328,-0.015271364711225033,-0.01990739442408085
1761379460251688700,3.000688720703125,-0.022715432569384575,-0.012589561752974987,-0.011151720769703388
1761379460261770800,3.010770751953125,-0.02646702714264393,-0.011560515500605106,0.005416603293269873
1761379460271852800,3.020852783203125,-0.02592374198138714,-0.012767992913722992,0.018212825059890747
1761379460281935600,3.030935546875,-0.024896562099456787,-0.013463877141475677,0.020594757050275803
1761379460292017700,3.041017578125,-0.022601183503866196,-0.012951218523085117,0.014394119381904602
1761379460302099700,3.051099609375,-0.023150326684117317,-0.014792528003454208,0.010470484383404255
1761379460312181800,3.061181640625,-0.022050173953175545,-0.020239224657416344,0.00404667342081666
1761379460322264600,3.0712646484375,-0.023634489625692368,-0.027048928663134575,0.00027563716867007315
1761379460332346600,3.0813466796875,-0.023379623889923096,-0.028783444315195084,-0.006639793049544096
1761379460342428700,3.0914287109375,-0.023447802290320396,-0.031605064868927,-0.00890827365219593
1761379460352510700,3.1015107421875,-0.02245018072426319,-0.030912108719348907,-0.003638677066192031
1761379460362593500,3.111593505859375,-0.02423955872654915,-0.030108900740742683,0.0008492820779792964
1761379460372675600,3.121675537109375,-0.025594841688871384,-0.02110927924513817,0.009483782574534416
1761379460382757600,3.131757568359375,-0.028129639104008675,-0.009734652936458588,0.023637153208255768
1761379460392839700,3.141839599609375,-0.03148309141397476,-0.00005699164830730297,0.03500432148575783
1761379460402922800,3.1519228515625,-0.03675268962979317,0.013000220991671085,0.03381069377064705
1761379460413004500,3.162004638671875,-0.040396690368652344,0.01823200099170208,0.0342479832470417
1761379460423086600,3.172086669921875,-0.03995700180530548,0.013519004918634892,0.030714236199855804
1761379460433168600,3.182168701171875,-0.04247741773724556,0.012389292009174824,0.039811063557863235
1761379460443250700,3.192250732421875,-0.03923182561993599,0.007026750594377518,0.048348624259233475
1761379460453333500,3.20233349609375,-0.02881487086415291,-0.004845355171710253,0.04289207234978676
1761379460463415600,3.21241552734375,-0.02033456601202488,-0.0027262780349701643,0.030964041128754616
1761379460473497600,3.22249755859375,-0.01872069016098976,0.008014250546693802,0.008081096224486828
1761379460483579600,3.23257958984375,-0.01709855906665325,0.014760570600628853,-0.0014029532903805375
1761379460493662700,3.242662841796875,-0.016594689339399338,0.019828032702207565,0.008251272141933441
1761379460503744500,3.25274462890625,-0.012809538282454014,0.015963254496455193,0.021684255450963974
1761379460513826600,3.26282666015625,-0.008589759469032288,0.003754524514079094,0.034443195909261703
1761379460523908600,3.27290869140625,-0.003043993143364787,-0.018322547897696495,0.032770462334156036
1761379460533991700,3.28299169921875,0.005886651109904051,-0.040643833577632904,0.018203238025307655
1761379460544073500,3.293073486328125,0.011982893571257591,-0.05320862680673599,-0.005909021943807602
1761379460554155500,3.303155517578125,0.020834442228078842,-0.056881390511989594,-0.029039375483989716
1761379460564237600,3.313237548828125,0.025477662682533264,-0.05651893466711044,-0.03843820095062256
1761379460574321000,3.32332080078125,0.022940203547477722,-0.047869522124528885,-0.03397820517420769
1761379460584402700,3.333402587890625,0.018744392320513725,-0.03209082409739494,-0.02075774222612381
1761379460594484700,3.343484619140625,0.008099738508462906,-0.023680295795202255,-0.00301762786693871
1761379460604566500,3.35356640625,-0.0029489181470125914,-0.03453560546040535,0.013910755515098572
1761379460614649900,3.36364990234375,-0.007281881291419268,-0.04923572391271591,0.020746557042002678
1761379460624732000,3.37373193359375,-0.012281966395676136,-0.058882758021354675,0.006445914972573519
1761379460634813700,3.383813720703125,-0.019184879958629608,-0.05403047800064087,-0.012397813610732555
1761379460644895700,3.393895751953125,-0.026610305532813072,-0.04590277746319771,-0.026635605841875076
1761379460654977800,3.403977783203125,-0.031145403161644936,-0.028858546167612076,-0.033059149980545044
1761379460665060900,3.414060791015625,-0.03515958413481712,-0.016595488414168358,-0.029462818056344986
1761379460675142700,3.424142578125,-0.03639236092567444,-0.008827580139040947,-0.015502792783081532
1761379460685224700,3.434224609375,-0.03242318704724312,-0.004175836686044931,0.002587793627753854
1761379460695306800,3.444306640625,-0.030163228511810303,-0.012308331206440926,0.011032144539058208
1761379460705389800,3.454389892578125,-0.019245600327849388,-0.023244069889187813,0.009681656025350094
1761379460715472000,3.464471923828125,-0.01028459519147873,-0.030954454094171524,0.00923557672649622
1761379460725553700,3.4745537109375,-0.005705023650079966,-0.02395406924188137,0.010408964939415455
1761379460735635700,3.4846357421875,0.0008343683439306915,-0.012001534923911095,0.016644224524497986
1761379460745718800,3.49471875,0.006864031311124563,-0.005286907311528921,0.017401626333594322
1761379460755800800,3.50480078125,0.015171496197581291,-0.009909888729453087,0.007607852108776569
1761379460765882600,3.514882568359375,0.01732306368649006,-0.023035012185573578,-0.00039468047907575965
1761379460775964700,3.524964599609375,0.01919899508357048,-0.036551088094711304,-0.014283864758908749
1761379460786047700,3.5350478515625,0.018024008721113205,-0.04144304618239403,-0.02190157026052475
1761379460796129800,3.5451298828125,0.015273494645953178,-0.04073038697242737,-0.025741849094629288
1761379460806211600,3.555211669921875,0.021041102707386017,-0.04652995243668556,-0.022725285962224007
1761379460816293600,3.565293701171875,0.022165756672620773,-0.043788228183984756,-0.008934106677770615
1761379460826376700,3.575376708984375,0.015511848032474518,-0.04163319617509842,-0.0034112429711967707
1761379460836458800,3.585458740234375,0.004280498716980219,-0.03856709972023964,-0.0013339773286134005
1761379460846540800,3.595540771484375,-0.006602242588996887,-0.03454625979065895,-0.008023837581276894
1761379460856622600,3.60562255859375,-0.01613076590001583,-0.028084898367524147,-0.01215946115553379
1761379460866704600,3.61570458984375,-0.016625048592686653,-0.021886389702558517,-0.009633186273276806
1761379460876787700,3.62578759765625,-0.015442073345184326,-0.01495071966201067,-0.000734766130335629
1761379460886869800,3.635869873046875,-0.007122357841581106,-0.012677446007728577,0.008741294033825397
1761379460896951600,3.64595166015625,0.002223206916823983,-0.012241220101714134,0.020424582064151764
1761379460907033600,3.65603369140625,0.010824152268469334,-0.0014325142838060856,0.017830129712820053
1761379460917116700,3.66611669921875,0.013280917890369892,-0.00009986854274757206,0.007193997036665678
1761379460927198700,3.67619873046875,0.013801832683384418,0.012791428714990616,-0.00022796659322921187
1761379460937280800,3.68628076171875,0.016597352921962738,0.024047812446951866,-0.005139101762324572
1761379460947362600,3.696362548828125,0.020258134230971336,0.030301179736852646,-0.011187673546373844
1761379460957445600,3.706445556640625,0.02165442891418934,0.02959517575800419,-0.0073173013515770435
1761379460967527700,3.716527587890625,0.02401399053633213,0.027400732040405273,0.0020575581584125757
1761379460977609700,3.726609619140625,0.022837670519948006,0.025740783661603928,0.01739203929901123
1761379460987691500,3.73669140625,0.027455059811472893,0.016202138736844063,0.02424541860818863
1761379460997773600,3.746773681640625,0.032284967601299286,0.0035308189690113068,0.018980348482728004
1761379461007855900,3.75685595703125,0.02900155819952488,0.006187588442116976,0.007989749312400818
1761379461017938000,3.76693798828125,0.022953519597649574,0.02185176871716976,-0.006329535041004419
1761379461028020000,3.77702001953125,0.01733025349676609,0.02941887453198433,-0.00407543545588851
1761379461038102000,3.78710205078125,0.012449745088815689,0.04851853474974632,0.0022365227341651917
1761379461048184800,3.797184814453125,0.0034911378752440214,0.05512131005525589,0.015481221489608288
1761379461058267000,3.807266845703125,0.004559065215289593,0.04350167140364647,0.028388764709234238
1761379461068349000,3.817348876953125,0.0027084348257631063,0.0328357107937336,0.032522257417440414
1761379461078431000,3.827430908203125,0.010370882228016853,0.02635836973786354,0.026325613260269165
1761379461088513800,3.837513671875,0.021737253293395042,0.017560617998242378,0.02388722263276577
1761379461098595800,3.847595947265625,0.03376888111233711,0.004737763665616512,0.01853080652654171
1761379461108678000,3.857677978515625,0.03531964123249054,0.012314190156757832,0.0059654805809259415
1761379461118760000,3.867760009765625,0.03394811227917671,0.019293004646897316,-0.008011587895452976
1761379461128842800,3.8778427734375,0.031250063329935074,0.0176389142870903,-0.012577843852341175
1761379461138924800,3.8879248046875,0.03131025284528732,0.013187707401812077,0.002712429501116276
1761379461149006800,3.8980068359375,0.03338831663131714,0.011317902244627476,0.01677951216697693
1761379461159089000,3.9080888671875,0.03623070940375328,0.007851798087358475,0.020748155191540718
1761379461169172000,3.918171875,0.039438486099243164,0.000027164242055732757,0.014623417519032955
1761379461179254000,3.92825390625,0.044206343591213226,-0.0036610474344342947,0.002490588231012225
1761379461189335800,3.938335693359375,0.04386812075972557,-0.0057249972596764565,-0.0043806335888803005
1761379461199417900,3.94841796875,0.043843355029821396,-0.006596916355192661,-0.0008293083519674838
1761379461209500000,3.9585,0.0410880483686924,-0.00854208879172802,-0.0005360943032428622
1761379461219583000,3.9685830078125,0.03304370492696762,0.0027486486360430717,-0.008971923030912876
1761379461229665000,3.9786650390625,0.029527265578508377,0.007437143474817276,-0.013861753046512604
1761379461239747000,3.9887470703125,0.02400520071387291,0.004195543937385082,-0.009042763151228428
1761379461249829000,3.9988291015625,0.013002350926399231,0.005885053426027298,0.007986021228134632
1761379461259912000,4.008911865234375,0.0027598338201642036,0.004176635295152664,0.01842321641743183
1761379461269994000,4.018993896484375,-0.0016445019282400608,-0.004025101661682129,0.01691506803035736
1761379461280076000,4.029075927734375,-0.005515406373888254,-0.010122675448656082,0.014724884182214737
1761379461290158000,4.039157958984375,-0.001811748486943543,-0.009701096452772617,0.0018868496408686042
1761379461300240100,4.049240234375,-0.0007566040731035173,-0.006542587652802467,-0.012501676566898823
1761379461310323000,4.059322998046875,0.011217501014471054,0.0009645969257690012,-0.017502561211586
1761379461320405000,4.069405029296875,0.014623950235545635,0.0017185378819704056,-0.009314139373600483
1761379461330487000,4.079487060546875,0.016932643949985504,0.007384146563708782,0.0002516687090974301
1761379461340569000,4.089569091796875,0.01739337109029293,0.014128868468105793,0.00942306313663721
1761379461350652000,4.09965185546875,0.02244272455573082,0.006231264211237431,0.009807090274989605
1761379461360734000,4.10973388671875,0.026311498135328293,0.0038956720381975174,0.0049585397355258465
1761379461370816000,4.11981591796875,0.026695527136325836,0.00564137427136302,-0.01864665560424328
1761379461380898000,4.12989794921875,0.02978825569152832,0.009986854158341885,-0.02912299707531929
1761379461390980900,4.13998095703125,0.038294658064842224,0.0037910097744315863,-0.024766067042946815
1761379461401063000,4.15006298828125,0.041010282933712006,0.002252501668408513,-0.013422065414488316
1761379461411145000,4.16014501953125,0.04252215847373009,-0.003306048223748803,0.0054490938782691956
1761379461421227000,4.17022705078125,0.04789082705974579,0.0015472965314984322,0.013518205843865871
1761379461431309800,4.180309814453125,0.054434746503829956,0.0054339137859642506,0.005078648217022419
1761379461441391900,4.190391845703125,0.05976293236017227,0.0018516959389671683,0.00013635384675581008
1761379461451474000,4.200473876953125,0.06290359795093536,-0.007667773403227329,-0.008889365009963512
1761379461461556000,4.210555908203125,0.06335394084453583,-0.011565576307475567,-0.01582050882279873
1761379461471638000,4.220637939453125,0.05765850096940994,-0.009547964669764042,-0.016283897683024406
1761379461481720800,4.230720947265625,0.055453404784202576,-0.003226952161639929,-0.01979500986635685
1761379461491803000,4.240802978515625,0.056173257529735565,0.00011531487689353526,-0.01050590444356203
1761379461501885000,4.250885009765625,0.06118772178888321,-0.006166549399495125,-0.003290601773187518
1761379461511967000,4.260967041015625,0.061219148337841034,-0.006359362509101629,-0.00427171029150486
1761379461522049800,4.2710498046875,0.051846686750650406,-0.0070919981226325035,-0.016279371455311775
1761379461532131800,4.2811318359375,0.036075178533792496,0.0029116340447217226,-0.021627264097332954
1761379461542214000,4.2912138671875,0.019883427768945694,0.0029377329628914595,-0.011408182792365551
1761379461552296000,4.3012958984375,0.0029843382071703672,0.0036477316170930862,0.010244115255773067
1761379461562379000,4.31137890625,-0.0028509139083325863,-0.005666674114763737,0.025405224412679672
1761379461572460800,4.321460693359375,-0.008957009762525558,-0.014523282647132874,0.02261796034872532
1761379461582542800,4.33154296875,-0.01005290076136589,-0.019117236137390137,0.002433596644550562
1761379461592625000,4.341625,-0.010335195809602737,-0.018066352233290672,-0.022407304495573044
1761379461602707000,4.35170703125,-0.0029225528705865145,-0.01894226484000683,-0.02515355683863163
1761379461612789800,4.361789794921875,0.0072957295924425125,-0.01414458081126213,-0.020315125584602356
1761379461622871800,4.371871826171875,0.014957910403609276,-0.007466438226401806,-0.008106928318738937
1761379461632953900,4.381953857421875,0.020107930526137352,-0.0013283847365528345,-0.005095692351460457
1761379461643036000,4.392035888671875,0.022472020238637924,-0.0054637412540614605,-0.0028908613603562117
1761379461653119000,4.402118896484375,0.019159046933054924,-0.005209143273532391,-0.009552226401865482
1761379461663200800,4.41220068359375,0.01127768773585558,-0.006960970349609852,-0.014844992198050022
1761379461673282800,4.42228271484375,0.003329750383272767,-0.013277988880872726,-0.017291905358433723
1761379461683364900,4.43236474609375,-0.0038064562249928713,-0.014937936328351498,-0.014129401184618473
1761379461693447000,4.442447021484375,-0.007879761047661304,-0.005170261021703482,-0.013225523754954338
1761379461703529700,4.45252978515625,-0.007445399183779955,0.005625661462545395,-0.002767557045444846
1761379461713611800,4.46261181640625,-0.004539357963949442,0.009786584414541721,0.014474812895059586
1761379461723693800,4.47269384765625,0.0025121597573161125,0.002412823960185051,0.029524335637688637
1761379461733776000,4.48277587890625,0.01293337531387806,-0.00580782163888216,0.026263294741511345
1761379461743859000,4.49285888671875,0.017311878502368927,-0.01137036643922329,0.001148088718764484
1761379461753940700,4.502940673828125,0.014451377093791962,-0.02106933295726776,-0.018610702827572823
1761379461764022800,4.513022705078125,0.014014085754752159,-0.030477747321128845,-0.0350184366106987
1761379461774104800,4.523104736328125,0.02112632431089878,-0.034389130771160126,-0.03466556966304779
1761379461784188200,4.533188232421875,0.021391041576862335,-0.03193023428320885,-0.030278809368610382
1761379461794270000,4.54327001953125,0.017602428793907166,-0.02203499525785446,-0.01780882477760315
1761379461804352000,4.55335205078125,0.010459299199283123,-0.020369719713926315,-0.0075484635308384895
1761379461814434000,4.56343408203125,0.003955593332648277,-0.019152922555804253,-0.004579572007060051
1761379461824516000,4.57351611328125,-0.0018333201296627522,-0.017953699454665184,-0.004914064891636372
1761379461834599000,4.583598876953125,-0.00407623453065753,-0.026852918788790703,-0.008227037265896797
1761379461844681000,4.593680908203125,-0.003940679598599672,-0.037410490214824677,-0.014630341902375221
1761379461854763000,4.603762939453125,-0.000218645524000749,-0.03785097599029541,-0.027293406426906586
1761379461864845000,4.613844970703125,0.00595509447157383,-0.04214292764663696,-0.05031536892056465
1761379461874927900,4.623927978515625,0.01119220070540905,-0.0446404367685318,-0.06091262027621269
1761379461885010000,4.634010009765625,0.007961786352097988,-0.05030045285820961,-0.058222025632858276
1761379461895092000,4.644092041015625,0.003980893176048994,-0.04944238439202309,-0.03473001718521118
1761379461905174000,4.654174072265625,0.0019619506783783436,-0.054665643721818924,-0.026794062927365303
1761379461915256000,4.664256103515625,0.010172209702432156,-0.05288185551762581,-0.027630828320980072
1761379461925339000,4.6743388671875,0.007194796111434698,-0.053279466927051544,-0.024512000381946564
1761379461935421000,4.6844208984375,0.018155034631490707,-0.051782239228487015,-0.03074246644973755
1761379461945503000,4.6945029296875,0.013760020956397057,-0.04439649358391762,-0.0342559739947319
1761379461955585000,4.7045849609375,0.0026322684716433287,-0.022043516859412193,-0.03490019217133522
1761379461965667800,4.714667724609375,-0.0016255935188382864,-0.0015102786710485816,-0.025836924090981483
1761379461975750000,4.72475,0.0008641957538202405,0.008057660423219204,-0.002816825406625867
1761379461985832000,4.73483203125,-0.0002561961009632796,0.02479030191898346,0.014615694060921669
1761379461995914000,4.7449140625,0.0016351809026673436,0.03897536173462868,0.020800620317459106
1761379462005997000,4.7549970703125,0.0054608117789030075,0.0362996831536293,0.022596921771764755
1761379462016078600,4.76507861328125,0.016573384404182434,0.03208469972014427,0.017108678817749023
1761379462026160600,4.77516064453125,0.018518025055527687,0.02762363851070404,-0.0017158746486529708
1761379462036242700,4.78524267578125,0.022233666852116585,0.0304575078189373,-0.024041952565312386
1761379462046324700,4.79532470703125,0.027066238224506378,0.027818314731121063,-0.03536012023687363
1761379462056407800,4.80540771484375,0.03133688494563103,0.01053519919514656,-0.03213929384946823
1761379462066489600,4.815489501953125,0.03130865469574928,0.012467055581510067,-0.025239042937755585
1761379462076571600,4.825571533203125,0.02424195595085621,0.014334198087453842,-0.029645510017871857
1761379462086653700,4.83565380859375,0.019809391349554062,0.015270032919943333,-0.030582142993807793
1761379462096736800,4.84573681640625,0.023925039917230606,0.015303055755794048,-0.022782010957598686
1761379462106818600,4.855818603515625,0.02599751204252243,0.022967100143432617,-0.007484015077352524
1761379462116900600,4.865900634765625,0.027417242527008057,0.01822427660226822,0.006819290108978748
1761379462126982700,4.875982666015625,0.02683054842054844,0.009125321172177792,0.010012419894337654
1761379462137064700,4.886064697265625,0.022651515901088715,0.004219246096909046,0.001743038883432746
1761379462147147800,4.896147705078125,0.026207901537418365,-0.0062339273281395435,-0.010274209082126617
1761379462157229600,4.9062294921875,0.025399100035429,-0.008373244665563107,-0.025791117921471596
1761379462167311600,4.9163115234375,0.028052406385540962,-0.0152575159445405,-0.029397303238511086
1761379462177393700,4.9263935546875,0.03646000847220421,-0.02015586756169796,-0.034689005464315414
1761379462187476700,4.936476806640625,0.03951065614819527,-0.034742798656225204,-0.04256743565201759
1761379462197558500,4.94655859375,0.04334401339292526,-0.040341299027204514,-0.04252215847373009
1761379462207640600,4.956640625,0.043954674154520035,-0.03894047439098358,-0.04187953844666481
1761379462217722600,4.96672265625,0.04596243053674698,-0.027952006086707115,-0.0316346250474453
1761379462227804700,4.9768046875,0.050271693617105484,-0.02016226015985012,-0.012242551892995834
1761379462237887700,4.9868876953125,0.05499747022986412,-0.005346295889467001,-0.006558034103363752
1761379462247969500,4.996969482421875,0.04866047948598862,0.0003510046226438135,-0.01110138650983572
1761379462258051600,5.007051513671875,0.03910798951983452,0.0039116512052714825,-0.012821522541344166
1761379462268133600,5.017133544921875,0.036016058176755905,0.004548679105937481,-0.019828831776976585
1761379462278216700,5.027216796875,0.0337129570543766,0.013620204292237759,-0.020980915054678917
1761379462288298500,5.037298583984375,0.03111051581799984,0.01823173463344574,-0.01031495537608862
1761379462298380500,5.047380615234375,0.026609772816300392,0.01799551211297512,-0.0031433289404958487
1761379462308462600,5.057462646484375,0.02744094468653202,0.009374327026307583,0.001919073867611587
1761379462318544600,5.067544677734375,0.03358139470219612,0.0018101505702361465,-0.007576426956802607
1761379462328627700,5.077627685546875,0.03229748457670212,-0.0006844323943369091,-0.02135455794632435
1761379462338709500,5.08770947265625,0.026988208293914795,-0.0037894118577241898,-0.03892635926604271
1761379462348791600,5.09779150390625,0.023128755390644073,0.002630936913192272,-0.046602655202150345
1761379462358873600,5.10787353515625,0.016925986856222153,0.002240251051262021,-0.04658374562859535
1761379462368956700,5.117956787109375,0.011345598846673965,0.0002569950302131474,-0.027750138193368912
1761379462379038500,5.12803857421875,0.010070743970572948,0.013424462638795376,-0.006991330534219742
1761379462389120500,5.13812060546875,0.007864048704504967,0.019097261130809784,0.00768801337108016
1761379462399202600,5.14820263671875,0.007151652593165636,0.018155034631490707,0.014477742835879326
1761379462409285600,5.15828564453125,0.006849916651844978,0.007901598699390888,0.012477708980441093
1761379462419367400,5.168367431640625,0.013639912009239197,0.0068054418079555035,0.0026370619889348745
1761379462429449500,5.178449462890625,0.016170714050531387,0.011712316423654556,-0.01034664735198021
1761379462439531500,5.188531494140625,0.021375596523284912,0.013618873432278633,-0.01920485310256481
1761379462449613600,5.198613525390625,0.029524868354201317,0.005376123357564211,-0.010765562765300274
1761379462459696600,5.208696533203125,0.035344406962394714,0.012415390461683273,-0.010789796710014343
1761379462469778400,5.2187783203125,0.03917243704199791,0.013006346300244331,-0.0184642281383276
1761379462479860500,5.228860595703125,0.04146754741668701,0.011855860240757465,-0.02690937928855419
1761379462489942500,5.238942626953125,0.045278798788785934,0.010703244246542454,-0.027107251808047295
1761379462500024600,5.249024658203125,0.03892849013209343,0.019159313291311264,-0.022435801103711128
1761379462510107600,5.259107666015625,0.030911043286323547,0.03027401678264141,-0.021763352677226067
1761379462520189700,5.269189697265625,0.022471221163868904,0.026003902778029442,-0.014872157014906406
1761379462530271500,5.279271484375,0.02364407666027546,0.014849785715341568,-0.011243865825235844
1761379462540353500,5.289353515625,0.01696513406932354,0.007509315386414528,-0.014415957033634186
1761379462550436600,5.2994365234375,0.02076013945043087,-0.011207913048565388,-0.023446736857295036
1761379462560518700,5.3095185546875,0.029227128252387047,-0.02430986613035202,-0.028568528592586517
1761379462570600700,5.3196005859375,0.043113648891448975,-0.027347467839717865,-0.03357873111963272
1761379462580682800,5.329682861328125,0.04661836847662926,-0.026975424960255623,-0.025708826258778572
1761379462590764800,5.339764892578125,0.05224829167127609,-0.026197781786322594,-0.011438276618719101
1761379462600847600,5.34984765625,0.0622258223593235,-0.0219724103808403,-0.01133707631379366
1761379462610929700,5.3599296875,0.06293688714504242,-0.013205017894506454,-0.03172197565436363
1761379462621011700,5.37001171875,0.06185484677553177,-0.00012090751260984689,-0.04838724061846733
1761379462631093800,5.38009375,0.050395794212818146,0.004012318328022957,-0.054116230458021164
1761379462641176600,5.390176513671875,0.038130342960357666,0.01230220589786768,-0.047631967812776566
1761379462651258600,5.400258544921875,0.02575596421957016,0.010206298902630806,-0.02767929807305336
1761379462661340700,5.410340576171875,0.01655660569667816,-0.0035145736765116453,-0.0031758195254951715
1761379462671422700,5.420422607421875,0.010734669864177704,-0.01745808683335781,0.012683837674558163
1761379462681504800,5.4305048828125,0.009404420852661133,-0.013014867901802063,0.014915832318365574
1761379462691587600,5.440587646484375,0.007661914452910423,-0.00791571382433176,0.011649997904896736
1761379462701669600,5.450669677734375,-0.002089516259729862,-0.004018709994852543,0.011261442676186562
1761379462711751700,5.460751708984375,-0.010105631314218044,0.004296477884054184,0.006953247357159853
1761379462721833700,5.470833740234375,-0.02124137245118618,0.004625644534826279,-0.0003062635369133204
1761379462731916500,5.48091650390625,-0.0389908067882061,0.006271744146943092,0.004311657976359129
1761379462741998600,5.49099853515625,-0.04773876070976257,0.003981425892561674,0.00774660287424922
1761379462752080600,5.50108056640625,-0.04734807461500168,-0.002841326640918851,0.014052702113986015
1761379462762162700,5.51116259765625,-0.03212304785847664,-0.012834838591516018,0.019480224698781967
1761379462772244700,5.52124462890625,-0.015083345584571362,-0.01272911112755537,0.018791796639561653
1761379462782327600,5.53132763671875,-0.003961984533816576,-0.014330736361443996,0.006470948923379183
1761379462792409600,5.54140966796875,0.010341321118175983,-0.010819890536367893,-0.002703907433897257
1761379462802491600,5.55149169921875,0.014731807634234428,0.0033846113365143538,-0.006380667444318533
1761379462812573700,5.56157373046875,0.012015383690595627,0.01998276263475418,0.01685141772031784
1761379462822656500,5.571656494140625,0.01194161456078291,0.022793995216488838,0.054300256073474884
1761379462832738600,5.581738525390625,0.0015662050573155284,0.004223773255944252,0.08562462031841278
1761379462842820600,5.591820556640625,-0.0070701600052416325,-0.00797563511878252,0.09240663051605225
1761379462852902700,5.601902587890625,-0.013094496913254261,-0.00866086594760418,0.06730766594409943
1761379462862984700,5.611984619140625,-0.004596083424985409,0.002912432886660099,0.030045250430703163
1761379462873067500,5.622067626953125,0.004867193289101124,0.010748517699539661,-0.0026194851379841566
1761379462883149600,5.632149658203125,0.013790380209684372,0.0028716865926980972,-0.012148275971412659
1761379462893231600,5.642231689453125,0.012292618863284588,-0.016635701060295105,-0.0013395700370892882
1761379462903313700,5.652313720703125,0.01950099691748619,-0.025705896317958832,-0.006262423470616341
1761379462913396500,5.662396484375,0.026492327451705933,-0.023549268022179604,-0.011213771998882294
1761379462923478500,5.672478515625,0.033068738877773285,-0.016475113108754158,-0.007231014780700207
1761379462933560600,5.682560546875,0.03983636200428009,-0.02322729118168354,0.004464523401111364
1761379462943642600,5.692642578125,0.05507603660225868,-0.028235366567969322,0.007713845930993557
1761379462953724700,5.702724609375,0.06440215557813644,-0.026667030528187752,0.012713397853076458
1761379462963807500,5.712807373046875,0.06519924104213715,-0.03204901143908501,0.031198931857943535
1761379462973889500,5.7228896484375,0.061466824263334274,-0.011241735890507698,0.03579714521765709
1761379462983971600,5.7329716796875,0.05414685979485512,-0.013277988880872726,0.04566016420722008
1761379462994053600,5.7430537109375,0.04568679630756378,-0.01780696026980877,0.05698658525943756
1761379463004135700,5.7531357421875,0.031029287725687027,-0.013459616340696812,0.053160954266786575
1761379463014218800,5.76321875,0.023134347051382065,0.010269681923091412,0.0409381128847599
1761379463024300800,5.77330078125,0.024396419525146484,0.006878412328660488,0.041308291256427765
1761379463034382800,5.7833828125,0.02370532974600792,-0.002189651131629944,0.04012718051671982
1761379463044465000,5.79346484375,0.014072409830987453,-0.004482100252062082,0.03419472277164459
1761379463054547700,5.803547607421875,0.006480003707110882,-0.000600809114985168,0.02088051475584507
1761379463064629800,5.813629638671875,-0.0055215316824615,0.007932757958769798,0.004583033733069897
1761379463074711800,5.8237119140625,-0.01258103922009468,0.005483448505401611,0.01593981869518757
1761379463084793900,5.8337939453125,-0.033060215413570404,-0.0014237258583307266,0.05330130457878113
1761379463094876000,5.8438759765625,-0.039201732724905014,-0.0005656554130837321,0.09279598295688629
1761379463104959000,5.853958984375,-0.028734708204865456,-0.0029409287963062525,0.11054515093564987
1761379463115040800,5.864040771484375,-0.03634069859981537,-0.009786584414541721,0.10699462890625
1761379463125122800,5.874122802734375,-0.04775846749544144,0.00041758365114219487,0.08965744823217392
1761379463135204900,5.884204833984375,-0.057790063321590424,0.01649428717792034,0.0920439064502716
1761379463145287000,5.894286865234375,-0.07106885313987732,0.023909593001008034,0.1337689757347107
1761379463155370000,5.904369873046875,-0.07814273983240128,0.01503940299153328,0.2126116007566452
1761379463165452000,5.9144521484375,-0.0678568109869957,-0.004531634971499443,0.2601165473461151
1761379463175534000,5.9245341796875,-0.04974545165896416,-0.00592500064522028,0.23364897072315216
1761379463185616100,5.9346162109375,-0.03500352427363396,-0.0032730249222368,0.15430274605751038
1761379463195699000,5.944698974609375,-0.02106933295726776,0.0027204190846532583,0.06273182481527328
1761379463205781000,5.954781005859375,-0.00800279900431633,0.01703570783138275,-0.02033989317715168
1761379463215863000,5.964863037109375,0.0019315907265990973,0.042092591524124146,-0.06835668534040451
1761379463225945000,5.974945068359375,0.01709722727537155,0.03605813533067703,-0.06288548558950424
1761379463236027000,5.98502685546875,0.0323006808757782,0.019836820662021637,-0.028370920568704605
1761379463246110000,5.99510986328125,0.03840411454439163,0.004851214122027159,0.008757006376981735
1761379463256192000,6.00519189453125,0.03652951493859291,-0.012776515446603298,0.029284652322530746
1761379463266274000,6.015274169921875,0.034742001444101334,-0.02256682887673378,0.027885427698493004
1761379463276356000,6.025356201171875,0.028015920892357826,-0.01629961095750332,0.00009906959166983142
1761379463286439000,6.03543896484375,0.022755645215511322,-0.01655767112970352,-0.021090105175971985
1761379463296521000,6.04552099609375,0.016874054446816444,-0.015967248007655144,-0.01942775957286358
1761379463306603000,6.05560302734375,0.014583203941583633,-0.04272322729229927,0.0014535533264279366
1761379463316685000,6.06568505859375,0.014157097786664963,-0.04830921068787575,0.002945189829915762
1761379463326766800,6.075766845703125,0.014972025528550148,-0.043599143624305725,-0.02521773800253868
1761379463336850000,6.085849853515625,0.02087811753153801,-0.041610825806856155,-0.06346739083528519
1761379463346932000,6.095931884765625,0.025776203721761703,-0.03653137758374214,-0.08349276334047318
1761379463357014000,6.106013916015625,0.027961060404777527,-0.02894642949104309,-0.0884276032447815
1761379463367096000,6.116095947265625,0.03712286800146103,-0.02401718497276306,-0.07980694621801376
1761379463377177900,6.126177734375,0.038057371973991394,-0.02129197306931019,-0.06070542335510254
1761379463387261000,6.136260986328125,0.032115060836076736,-0.026698987931013107,-0.022593991830945015
1761379463397343000,6.146343017578125,0.03315875306725502,-0.03790716826915741,0.018642926588654518
1761379463407425000,6.156425048828125,0.03381122648715973,-0.04055088758468628,0.03345649316906929
1761379463417506800,6.1665068359375,0.032643429934978485,-0.03513215482234955,0.02960529550909996
1761379463427588900,6.1765888671875,0.02918132022023201,-0.022594790905714035,0.0142316659912467
1761379463437672000,6.186671875,0.025596439838409424,-0.011960522271692753,-0.0025007082149386406
1761379463447754000,6.19675390625,0.024222515523433685,-0.008295480161905289,-0.017108412459492683
1761379463457836000,6.2068359375,0.03079945780336857,-0.01824238710105419,-0.02875628136098385
1761379463467917800,6.216917724609375,0.03435024991631508,-0.02797437645494938,-0.04565776512026787
1761379463478001000,6.2270009765625,0.03045085072517395,-0.022820360958576202,-0.06954552233219147
1761379463488083000,6.2370830078125,0.02376951090991497,-0.02556874230504036,-0.08158087730407715
1761379463498165000,6.2471650390625,0.01966691203415394,-0.03402028605341911,-0.09897132217884064
1761379463508246800,6.257246826171875,0.016047408804297447,-0.03687892109155655,-0.12057488411664963
1761379463518328800,6.267328857421875,0.006897853687405586,-0.03478887304663658,-0.13945536315441132
1761379463528412000,6.277411865234375,0.009001750499010086,-0.03762593865394592,-0.12528522312641144
1761379463538494000,6.287493896484375,0.011736816726624966,-0.034991271793842316,-0.09605702757835388
1761379463548576000,6.297575927734375,0.006937800906598568,-0.0343630351126194,-0.058340802788734436
1761379463558657800,6.30765771484375,-0.007029946427792311,-0.01273070927709341,-0.03417741134762764
1761379463568739800,6.31773974609375,-0.020147079601883888,0.010246246121823788,-0.03092595748603344
1761379463578823000,6.327822998046875,-0.028002073988318443,0.025724537670612335,-0.04110269621014595
1761379463588905000,6.337905029296875,-0.02502918615937233,0.024877119809389114,-0.050877295434474945
1761379463598986800,6.34798681640625,-0.023124760016798973,0.012620187364518642,-0.05505792424082756
1761379463609068800,6.35806884765625,-0.023124227300286293,-0.00022849922243040055,-0.043238818645477295
1761379463619152000,6.36815185546875,-0.02136574313044548,-0.0032618397381156683,-0.02171594835817814
1761379463629234000,6.37823388671875,-0.020300477743148804,-0.009769007563591003,-0.0033486587926745415
1761379463639316000,6.38831591796875,-0.005646434146910906,-0.030610106885433197,0.006146842148154974
1761379463649397800,6.398397705078125,0.01008192915469408,-0.0466788224875927,-0.005255482159554958
1761379463659479800,6.408479736328125,0.027240941300988197,-0.055027034133672714,-0.03304796293377876
1761379463669563000,6.41856298828125,0.0450175404548645,-0.05312713235616684,-0.06084870174527168
1761379463679645000,6.42864501953125,0.06037279590964317,-0.05793973058462143,-0.07371629774570465
1761379463689726700,6.438726806640625,0.06990344822406769,-0.061883606016635895,-0.06561895459890366
1761379463699808800,6.448808837890625,0.06437366455793381,-0.05266853794455528,-0.0490461066365242
1761379463709890800,6.458890869140625,0.05716821551322937,-0.04374135658144951,-0.03995806723833084
1761379463719974000,6.468973876953125,0.05738872289657593,-0.03640327975153923,-0.04476480931043625
1761379463730056000,6.479055908203125,0.046003710478544235,-0.03724776953458786,-0.059590358287096024
1761379463740137700,6.4891376953125,0.03641180321574211,-0.03334170952439308,-0.07474401593208313
1761379463750219800,6.4992197265625,0.02653307281434536,-0.022414760664105415,-0.08564060181379318
1761379463760302800,6.509302734375,0.010074205696582794,-0.0012479572324082255,-0.07606919854879379
1761379463770385000,6.519385009765625,-0.0001496696495451033,-0.002177134156227112,-0.0323835052549839
1761379463780466700,6.529466796875,0.0014583469601348042,-0.004593153949826956,0.00953997578471899
1761379463790548700,6.539548828125,-0.007154049351811409,0.0024082965683192015,0.033486854285001755
1761379463800630800,6.549630859375,-0.014768293127417564,0.017798438668251038,0.02050820365548134
1761379463810714000,6.559714111328125,-0.0089391665533185,0.005864280741661787,0.012628443539142609
1761379463820796000,6.5697958984375,-0.014141918160021305,0.011610849760472775,0.0006767092272639275
1761379463830877700,6.579877685546875,-0.02008795738220215,0.01630839891731739,-0.015355519950389862
1761379463840959700,6.589959716796875,-0.02135961689054966,-0.003038400551304221,-0.02197081223130226
1761379463851041800,6.600041748046875,-0.017405355349183083,-0.021988656371831894,-0.024595890194177628
1761379463861125000,6.610125,-0.014876684173941612,-0.03826349973678589,-0.033852506428956985
1761379463871207000,6.62020703125,-0.01512941811233759,-0.04643834009766579,-0.04555017501115799
1761379463881289000,6.6302890625,-0.01327053178101778,-0.06022126227617264,-0.06543386727571487
1761379463891371000,6.64037109375,-0.006768157705664635,-0.056725598871707916,-0.08436708152294159
1761379463901452800,6.650452880859375,-0.00446931691840291,-0.05393407121300697,-0.07817602902650833
1761379463911535900,6.660535888671875,-0.007947404868900776,-0.044564004987478256,-0.04642954841256142
1761379463921618000,6.670617919921875,-0.012778112664818764,-0.03687013313174248,-0.010510697960853577
1761379463931700000,6.680699951171875,-0.019815515726804733,-0.03151265159249306,0.003653058083727956
1761379463941782000,6.690781982421875,-0.029038576409220695,-0.02942073903977871,-0.008287491276860237
1761379463951864000,6.700864013671875,-0.025913888588547707,-0.014183463528752327,-0.030879352241754532
1761379463961947000,6.71094677734375,-0.018924955278635025,-0.018311895430088043,-0.04399408772587776
1761379463972029000,6.72102880859375,-0.012043346650898457,-0.019305255264043808,-0.026455575600266457
1761379463982111000,6.731111083984375,-0.014858840964734554,-0.020713267847895622,-0.010523481294512749
1761379463992193000,6.741193115234375,-0.016939302906394005,-0.03394784778356552,-0.005922337528318167
1761379464002275800,6.75127587890625,-0.01787380501627922,-0.05765131115913391,-0.018024539574980736
1761379464012360700,6.761360595703125,-0.01919659785926342,-0.0752532109618187,-0.039015308022499084
1761379464022442800,6.77144287109375,-0.014254570007324219,-0.07897017896175385,-0.044739242643117905
1761379464032524800,6.78152490234375,-0.002915628720074892,-0.1031186655163765,-0.02930222824215889
1761379464042606800,6.79160693359375,0.00481366366147995,-0.11684219539165497,-0.020836839452385902
1761379464052689700,6.801689697265625,0.004291151650249958,-0.12346947193145752,-0.01944480463862419
1761379464062771700,6.811771728515625,0.004752144683152437,-0.1214452013373375,0.003019491909071803
1761379464072853800,6.821853759765625,0.007170028518885374,-0.10334236919879913,0.048700425773859024
1761379464082935800,6.831935791015625,-0.0014149374328553677,-0.050565704703330994,0.037876542657613754
1761379464093017900,6.842017822265625,0.0012937636347487569,0.03159627690911293,0.04494670033454895
1761379464103101000,6.852100830078125,-0.005869340617209673,0.04418050870299339,0.08544858545064926
1761379464113182700,6.8621826171875,-0.003038400551304221,0.032648488879203796,0.11605177074670792
1761379464123264800,6.8722646484375,0.00012729909212794155,0.02690298669040203,0.11182799935340881
1761379464133346800,6.882346923828125,0.011562113650143147,0.012437494471669197,0.08258143067359924
1761379464143428900,6.892428955078125,0.027059581130743027,0.009044627659022808,0.03363066539168358
1761379464153512000,6.902511962890625,0.05645288899540901,-0.008852081373333931,-0.010764230974018574
1761379464163594000,6.912593994140625,0.10096842795610428,-0.054966580122709274,-0.04046060889959335
1761379464173676000,6.922676025390625,0.1356542408466339,-0.09630949050188065,-0.07105740159749985
1761379464183757800,6.9327578125,0.1529408097267151,-0.11851466447114944,-0.1146610677242279
1761379464193841000,6.9428408203125,0.15582048892974854,-0.11998020112514496,-0.16367627680301666
1761379464203923000,6.9529228515625,0.16079899668693542,-0.12144120782613754,-0.2298363894224167
