time,seconds_elapsed,z,y,x
1761379457334136000,0.083135986328125,-0.005283840000629425,0.01558326929807663,-0.04359789565205574
1761379457344219000,0.093218994140625,-0.009590158239006996,0.02641943469643593,-0.036928899586200714
1761379457354301000,0.103301025390625,-0.018747704103589058,0.0240313783288002,-0.01313142478466034
1761379457364383000,0.113383056640625,-0.03616577759385109,0.013642959296703339,0.009360610507428646
1761379457374465000,0.123465087890625,-0.061107609421014786,-0.010841344483196735,0.018163688480854034
1761379457384547800,0.1335478515625,-0.08797746896743774,-0.025955986231565475,0.009186003357172012
1761379457394630000,0.1436298828125,-0.10434392094612122,-0.016102822497487068,0.0005328604020178318
1761379457404712000,0.1537119140625,-0.1038886159658432,-0.03824843093752861,0.015143899247050285
1761379457414794000,0.1637939453125,-0.09033791720867157,-0.05161643400788307,0.037654269486665726
1761379457424877000,0.173876953125,-0.089316226541996,-0.06072884798049927,0.050386346876621246
1761379457434959000,0.183958984375,-0.09096578508615494,-0.0720539391040802,0.055960606783628464
1761379457445041200,0.194041259765625,-0.09282458573579788,-0.07019763439893723,0.052237577736377716
1761379457455123000,0.204123046875,-0.08370006084442139,-0.07122720777988434,0.03439679741859436
1761379457465206300,0.214206298828125,-0.06439445167779922,-0.06125996261835098,-0.0007357642753049731
1761379457475288000,0.2242880859375,-0.04733717069029808,-0.05228511244058609,-0.01469738595187664
1761379457485370000,0.2343701171875,-0.03539680317044258,-0.019032012671232224,-0.020484689623117447
1761379457495452200,0.2444521484375,-0.01462947390973568,-0.0013795150443911552,-0.012067236937582493
1761379457505535200,0.25453515625,0.012477955780923367,-0.004358877427875996,0.0069777569733560085
1761379457515617000,0.264616943359375,0.032908663153648376,-0.018993480131030083,0.0393064022064209
1761379457525699000,0.274698974609375,0.047463517636060715,-0.02472582831978798,0.06549698859453201
1761379457535781000,0.284781005859375,0.056698027998209,-0.032828494906425476,0.06236884370446205
1761379457545864200,0.2948642578125,0.06143360584974289,-0.037844303995370865,0.0357927568256855
1761379457555946000,0.304946044921875,0.06927022337913513,-0.029088094830513,-0.0012377004604786634
1761379457566028000,0.315028076171875,0.06733250617980957,0.009256630204617977,-0.03469099849462509
1761379457576111000,0.325111083984375,0.05920267105102539,0.03329991549253464,-0.044705815613269806
1761379457586193200,0.335193115234375,0.04942157864570618,0.02461841329932213,-0.01811019517481327
1761379457596275200,0.345275146484375,0.038517799228429794,0.012241638265550137,0.014082629233598709
1761379457606357000,0.35535693359375,0.013372066430747509,0.0033113774843513966,0.029531605541706085
1761379457616439000,0.36543896484375,-0.016344016417860985,-0.013895838521420956,0.03529015928506851
1761379457626522000,0.375522216796875,-0.042634911835193634,-0.03624417632818222,0.023958859965205193
1761379457636604200,0.385604248046875,-0.0721331536769867,-0.0423249714076519,0.008186820894479752
1761379457646686000,0.39568603515625,-0.09957461804151535,-0.02942647412419319,-0.01682979054749012
1761379457656769000,0.40576904296875,-0.11553574353456497,0.005192223004996777,-0.013959169387817383
1761379457666851000,0.41585107421875,-0.11691760271787643,0.005609559360891581,0.012384539470076561
1761379457676933000,0.42593310546875,-0.10577333718538284,0.0015911157242953777,0.03867526352405548
1761379457687015200,0.43601513671875,-0.09392064809799194,-0.007986345328390598,0.05731534585356712
1761379457697097000,0.446096923828125,-0.07982346415519714,-0.00998637918382883,0.05171365290880203
1761379457707180000,0.456179931640625,-0.07275653630495071,0.002783403731882572,0.03222556412220001
1761379457717262000,0.466261962890625,-0.058671608567237854,0.027336418628692627,0.008036605082452297
1761379457727344000,0.47634423828125,-0.04643411934375763,0.03637650981545448,0.0008377546910196543
1761379457737426000,0.486426025390625,-0.0357481874525547,0.0417073555290699,0.004257253371179104
1761379457747509000,0.496509033203125,-0.020450888201594353,0.04303719848394394,0.002142474753782153
1761379457757591000,0.506591064453125,-0.00827651284635067,0.03124232403934002,-0.007511484436690807
1761379457767673000,0.516673095703125,0.015774760395288467,0.02347521483898163,-0.020723160356283188
1761379457777755100,0.526755126953125,0.03743663802742958,0.011729056015610695,-0.02434384450316429
1761379457787838000,0.536837890625,0.04829985648393631,0.005655374843627214,-0.024089522659778595
1761379457797920000,0.546919921875,0.05178087204694748,0.009871957823634148,-0.029102925211191177
1761379457808002000,0.557001953125,0.04457491636276245,0.019932638853788376,-0.044239774346351624
1761379457818084000,0.567083984375,0.023065097630023956,0.03566792607307434,-0.05130034685134888
1761379457828167000,0.5771669921875,-0.000005358830094337463,0.07603926211595535,-0.0636286735534668
1761379457838249000,0.5872490234375,-0.0142213124781847,0.0887444019317627,-0.03909163922071457
1761379457848331000,0.5973310546875,-0.015890656039118767,0.07575558125972748,0.005903368815779686
1761379457858413000,0.6074130859375,-0.012128141708672047,0.053349073976278305,0.03747247904539108
1761379457868496100,0.61749609375,-0.01389876939356327,0.032413300126791,0.05035422369837761
1761379457878578000,0.627577880859375,-0.019477825611829758,0.01851825788617134,0.02845345437526703
1761379457888660000,0.637659912109375,-0.027417900040745735,0.014473005197942257,-0.0219655130058527
1761379457898742000,0.647741943359375,-0.039205051958560944,0.045846372842788696,-0.07237862050533295
1761379457908825000,0.6578251953125,-0.036852918565273285,0.046426210552453995,-0.0369395837187767
1761379457918907100,0.6679072265625,-0.024799983948469162,0.0334843173623085,0.047590479254722595
1761379457928989200,0.6779892578125,-0.02402731403708458,0.020872734487056732,0.10484158992767334
1761379457939071200,0.6880712890625,-0.01548122987151146,0.008711941540241241,0.12154972553253174
1761379457949154000,0.698154052734375,-0.0056181312538683414,-0.006310345605015755,0.10869785398244858
1761379457959236000,0.708236083984375,-0.0035989228636026382,-0.013055600225925446,0.07386051118373871
1761379457969318100,0.718318115234375,-0.012202356941998005,-0.012553157284855843,0.01164121925830841
1761379457979400200,0.728400146484375,-0.015262329019606113,-0.012639977037906647,-0.0547226257622242
1761379457989483000,0.73848291015625,-0.023716893047094345,-0.013123170472681522,-0.11038574576377869
1761379457999565000,0.74856494140625,-0.033393219113349915,0.0061234948225319386,-0.1271311640739441
1761379458009651700,0.758651611328125,-0.04539491981267929,0.0026127700693905354,-0.09871926158666611
1761379458019733800,0.768733642578125,-0.05702068284153938,-0.012286816723644733,-0.058459192514419556
1761379458029816600,0.778816650390625,-0.06599519401788712,-0.011780223809182644,-0.03571557253599167
1761379458039898600,0.788898681640625,-0.0693126916885376,-0.01660320907831192,-0.03260846436023712
1761379458049980700,0.798980712890625,-0.06030181795358658,-0.013965834863483906,-0.03907052055001259
1761379458060062700,0.809062744140625,-0.04976795241236687,-0.0009150141850113869,-0.019457940012216568
1761379458070145500,0.8191455078125,-0.039620138704776764,0.018627921119332314,0.03851751610636711
1761379458080227600,0.8292275390625,-0.044495850801467896,0.031328268349170685,0.09851694107055664
1761379458090309600,0.8393095703125,-0.0498259961605072,0.03899994120001793,0.1426699012517929
1761379458100391700,0.8493916015625,-0.050315484404563904,0.04807679355144501,0.1582946628332138
1761379458110474500,0.859474609375,-0.049010634422302246,0.049180034548044205,0.14362046122550964
1761379458120556500,0.869556640625,-0.05066685378551483,0.05217396095395088,0.11511398106813431
1761379458130638600,0.879638671875,-0.05799280107021332,0.04914482310414314,0.08684756606817245
1761379458140720600,0.889720703125,-0.06593913584947586,0.050974149256944656,0.05127093195915222
1761379458150803700,0.8998037109375,-0.06732232868671417,0.045698441565036774,0.02760666236281395
1761379458160885500,0.909885498046875,-0.05570269003510475,0.02546347677707672,0.014421616680920124
1761379458170967600,0.919967529296875,-0.04567994922399521,0.006859137210994959,0.013926430605351925
1761379458181049600,0.930049560546875,-0.03923776000738144,-0.0010294122621417046,0.0058192359283566475
1761379458191132700,0.940132568359375,-0.033034294843673706,-0.0019395267590880394,-0.0027312939055263996
1761379458201214700,0.950214599609375,-0.026384912431240082,-0.007227765396237373,-0.0080762580037117
1761379458211296800,0.960296875,-0.016874702647328377,-0.0030476441606879234,-0.010271189734339714
1761379458221378800,0.97037890625,-0.011701513081789017,0.00777597539126873,-0.011678404174745083
1761379458231462000,0.9804619140625,-0.011543858796358109,0.02230697125196457,-0.01487638708204031
1761379458241543700,0.990543701171875,-0.017102941870689392,0.03386535495519638,-0.0074227312579751015
1761379458251625700,1.000625732421875,-0.029585782438516617,0.045623425394296646,0.010336664505302906
1761379458261707800,1.010707763671875,-0.04338175803422928,0.04222150519490242,0.034668635576963425
1761379458271790800,1.020790771484375,-0.05951324850320816,0.03339051455259323,0.05417431890964508
1761379458281872600,1.03087255859375,-0.07965260744094849,0.03146851062774658,0.05310932174324989
1761379458291954700,1.04095458984375,-0.09631562978029251,0.030135981738567352,0.040314674377441406
1761379458302036700,1.05103662109375,-0.09788662940263748,0.01731286197900772,0.031702011823654175
1761379458312119800,1.061119873046875,-0.0852644145488739,0.01078641228377819,0.025882553309202194
1761379458322201900,1.071201904296875,-0.06540362536907196,0.014001114293932915,0.009195452556014061
1761379458332283600,1.08128369140625,-0.04711376875638962,0.01243094727396965,0.004332502838224173
1761379458342365700,1.09136572265625,-0.02804739773273468,0.0075738742016255856,-0.009373188950121403
1761379458352448800,1.10144873046875,-0.0078669972717762,-0.00018943287432193756,-0.02927505597472191
1761379458362530800,1.11153076171875,0.0182490237057209,-0.012681255117058754,-0.0484255813062191
1761379458372612600,1.121612548828125,0.03742096573114395,-0.021563827991485596,-0.06670841574668884
1761379458382694700,1.131694580078125,0.04048333317041397,-0.02472659759223461,-0.06963735818862915
1761379458392777700,1.14177783203125,0.04146050661802292,-0.03160712867975235,-0.058681391179561615
1761379458402859800,1.15185986328125,0.04212149977684021,-0.02390686236321926,-0.04306008666753769
1761379458412941600,1.161941650390625,0.034253351390361786,-0.015543868765234947,-0.027642346918582916
1761379458423023600,1.172023681640625,0.018710343167185783,-0.006183922290802002,-0.009539508260786533
1761379458433106700,1.182106689453125,0.008147471584379673,0.008877640590071678,-0.009268313646316528
1761379458443188700,1.192188720703125,-0.001463610678911209,0.018000829964876175,-0.013526707887649536
1761379458453270800,1.202270751953125,-0.009048989042639732,0.017392151057720184,-0.011368237435817719
1761379458463352600,1.2123525390625,-0.01883530803024769,0.03012099862098694,-0.007908791303634644
1761379458473435600,1.222435546875,-0.024695873260498047,0.03467603400349617,0.005922427400946617
1761379458483517700,1.232517578125,-0.021151473745703697,0.020328253507614136,0.024507295340299606
1761379458493599700,1.242599853515625,-0.01659192517399788,0.004232377279549837,0.03715844824910164
1761379458503681500,1.252681640625,-0.004801844246685505,-0.016842812299728394,0.02824724279344082
1761379458513764600,1.2627646484375,0.009472998790442944,-0.026645418256521225,0.015624887309968472
1761379458523846700,1.2728466796875,0.017813485115766525,-0.02209807187318802,-0.0020529094617813826
1761379458533928700,1.2829287109375,0.024259053170681,-0.011947776190936565,-0.011140690185129642
1761379458544010800,1.2930107421875,0.030734527856111526,0.007343363016843796,-0.02758144959807396
1761379458554093600,1.303093505859375,0.04174252972006798,0.019142592325806618,-0.0359998382627964
1761379458564175600,1.313175537109375,0.046469639986753464,0.032303933054208755,-0.03709280118346214
1761379458574257700,1.323257568359375,0.0439387708902359,0.03456864506006241,-0.02493317611515522
1761379458584339700,1.333339599609375,0.03837702423334122,0.04419650509953499,-0.006100632715970278
1761379458594422500,1.343422607421875,0.036897361278533936,0.04330965131521225,0.013388529419898987
1761379458604504600,1.353504638671875,0.036350879818201065,0.031118763610720634,0.0393703319132328
1761379458614586600,1.363586669921875,0.038261961191892624,0.015882009640336037,0.04839012771844864
1761379458624668700,1.373668701171875,0.03991818055510521,0.01649400405585766,0.03807410970330238
1761379458634751700,1.383751708984375,0.03617710620164871,0.021351009607315063,0.01000178698450327
1761379458644833800,1.393833740234375,0.02859482169151306,0.031343720853328705,-0.015341918915510178
1761379458654915600,1.40391552734375,0.023826584219932556,0.044723037630319595,-0.03377155959606171
1761379458664997600,1.41399755859375,0.017158564180135727,0.03698309138417244,-0.02308456040918827
1761379458675080700,1.424080810546875,0.012694559060037136,0.03252279385924339,-0.01844737119972706
1761379458685162800,1.434162841796875,0.006304836831986904,0.019593678414821625,-0.019731814041733742
1761379458695244800,1.444244873046875,-0.00034572184085845947,0.022854574024677277,-0.02924850769340992
1761379458705326800,1.454326904296875,-0.003033651039004326,0.026099104434251785,-0.03639376908540726
1761379458715409700,1.46440966796875,-0.006015223450958729,0.02654717117547989,-0.03855941817164421
1761379458725491700,1.47449169921875,-0.006757712922990322,0.026228124275803566,-0.02729317732155323
1761379458735573800,1.48457373046875,-0.012416093610227108,0.009846839122474194,-0.010625111870467663
1761379458745655800,1.49465576171875,-0.007777665741741657,-0.0135208023712039,-0.00296000181697309
1761379458755738600,1.504738525390625,-0.0035771075636148453,-0.03666483983397484,-0.014263247139751911
1761379458765820700,1.514820556640625,-0.006902330555021763,-0.03307516500353813,-0.03624364733695984
1761379458775902700,1.52490283203125,-0.0092252092435956,-0.02915104292333126,-0.05577377602458
1761379458785984800,1.53498486328125,0.0025440985336899757,-0.03209170699119568,-0.05136384814977646
1761379458796067800,1.54506787109375,0.00706595741212368,-0.036831535398960114,-0.026651622727513313
1761379458806149600,1.555149658203125,0.005217989906668663,-0.029269490391016006,-0.007964488118886948
1761379458816231700,1.565231689453125,0.005640638060867786,-0.027384229004383087,-0.0022716561798006296
1761379458826313700,1.575313720703125,0.010728874243795872,-0.030450858175754547,0.0014682209584861994
1761379458836396800,1.585396728515625,0.020147137343883514,-0.032095637172460556,-0.004269618075340986
1761379458846478600,1.595478515625,0.028683103621006012,-0.018867982551455498,-0.008635338395833969
1761379458856560600,1.605560546875,0.03997889906167984,-0.01003827154636383,-0.0010578457731753588
1761379458866642700,1.615642578125,0.04557020589709282,-0.013219684362411499,0.005720964632928371
1761379458876724700,1.625724853515625,0.0497608482837677,-0.014625697396695614,0.009681787341833115
1761379458886807800,1.635807861328125,0.05385839194059372,-0.017114419490098953,0.011198457330465317
1761379458896889600,1.6458896484375,0.05328823998570442,-0.018818233162164688,0.004124770872294903
1761379458906971600,1.6559716796875,0.0495571531355381,-0.018448852002620697,-0.002104096347466111
1761379458917054700,1.6660546875,0.0421065092086792,-0.01289875153452158,-0.008673304691910744
1761379458927136800,1.67613671875,0.03086157888174057,0.0010823113843798637,-0.013306139968335629
1761379458937218600,1.686218505859375,0.016832292079925537,0.020077267661690712,-0.007423982955515385
1761379458947300600,1.696300537109375,0.0018344353884458542,0.03235550597310066,0.013001130893826485
1761379458957382700,1.706382568359375,-0.008858203887939453,0.03608766570687294,0.02556232549250126
1761379458967465700,1.7164658203125,-0.021944178268313408,0.03194405138492584,0.03550630062818527
1761379458977547500,1.726547607421875,-0.030960258096456528,0.018443159759044647,0.03445987403392792
1761379458987629600,1.736629638671875,-0.02911442145705223,-0.003895699977874756,0.02996845543384552
1761379458997711600,1.746711669921875,-0.02632981538772583,-0.016340108588337898,0.024289589375257492
1761379459007790800,1.756790771484375,-0.028042761608958244,-0.021458173170685768,0.028096843510866165
1761379459017872600,1.76687255859375,-0.032392747700214386,-0.02260461635887623,0.02503337524831295
1761379459027954700,1.77695458984375,-0.03435150533914566,-0.009044867008924484,0.0131162628531456
1761379459038036500,1.787036376953125,-0.03041093610227108,-0.006682517938315868,-0.001281679142266512
1761379459048119800,1.797119873046875,-0.023502163589000702,-0.0073616234585642815,-0.004222075454890728
1761379459058201900,1.807201904296875,-0.013123282231390476,-0.006405793130397797,-0.007002565078437328
1761379459068284000,1.817283935546875,-0.004804898984730244,-0.014265314675867558,0.002815977204591036
1761379459078365700,1.82736572265625,0.005468669347465038,-0.016833800822496414,0.007282269187271595
1761379459088448800,1.83744873046875,0.01216039340943098,-0.013403650373220444,0.005782110616564751
1761379459098530800,1.84753076171875,0.01878662034869194,-0.004592543467879295,0.005311764311045408
1761379459108612900,1.85761279296875,0.015996161848306656,-0.00040978286415338516,0.012012011371552944
1761379459118694700,1.867694580078125,0.006536714732646942,0.015474227257072926,0.02026672288775444
1761379459128777700,1.87777783203125,-0.0005203960463404655,0.03647724539041519,0.029729731380939484
1761379459138859800,1.88785986328125,-0.005145594477653503,0.05983441695570946,0.039269108325242996
1761379459148941800,1.89794189453125,-0.0027088019996881485,0.0653008222579956,0.0512101911008358
1761379459159023900,1.90802392578125,0.004821102134883404,0.056619785726070404,0.06629301607608795
1761379459169106700,1.918106689453125,0.007235257886350155,0.0403718426823616,0.07348994165658951
1761379459179188700,1.928188720703125,0.009680131450295448,0.03614896535873413,0.07506000250577927
1761379459189270800,1.938270751953125,0.009219670668244362,0.036841653287410736,0.04972721263766289
1761379459199352800,1.948352783203125,0.009386030957102776,0.03742426633834839,0.031970251351594925
1761379459209435600,1.958435546875,0.014748837798833847,0.032834041863679886,0.008780242875218391
1761379459219517700,1.968517578125,0.03483899310231209,0.027182582765817642,-0.00039909675251692533
1761379459229599700,1.978599853515625,0.05242304503917694,0.020077800378203392,-0.007162726949900389
1761379459239681800,1.988681884765625,0.0683218389749527,0.0033382102847099304,-0.003530884627252817
1761379459249764600,1.9987646484375,0.07279408723115921,-0.011678822338581085,0.0019733367953449488
1761379459259846700,2.0088466796875,0.07583127915859222,-0.01442836131900549,0.0024690143764019012
1761379459269928700,2.0189287109375,0.07586084306240082,-0.013918100856244564,-0.002488726284354925
1761379459280010800,2.0290107421875,0.07915791869163513,-0.026746463030576706,-0.0016673379577696323
1761379459290093600,2.039093505859375,0.08320964872837067,-0.049728211015462875,0.0036216997541487217
1761379459300175600,2.049175537109375,0.08346398174762726,-0.06731253117322922,0.004296544939279556
1761379459310257700,2.059257568359375,0.07547903060913086,-0.0685650184750557,-0.0021264669485390186
1761379459320339700,2.069339599609375,0.06528053432703018,-0.05963722988963127,-0.019156571477651596
1761379459330422500,2.079422607421875,0.04908612370491028,-0.044784512370824814,-0.021839972585439682
1761379459340504600,2.089504638671875,0.03409115970134735,-0.01715189218521118,-0.0045008668676018715
1761379459350586600,2.099586669921875,0.019932199269533157,0.006173138041049242,0.018197255209088326
1761379459360668700,2.109668701171875,0.01718924567103386,0.011937134899199009,0.038084715604782104
1761379459370751700,2.119751708984375,0.017214279621839523,0.010847369208931923,0.060302138328552246
1761379459380833500,2.12983349609375,0.0077026281505823135,0.011207533068954945,0.06826037913560867
1761379459390915600,2.13991552734375,0.003745969384908676,0.0072266398929059505,0.06122484430670738
1761379459400997600,2.14999755859375,0.0005224933847784996,0.006060739979147911,0.045493192970752716
1761379459411080700,2.160080810546875,0.005897817201912403,0.010362277738749981,0.031570982187986374
1761379459421162500,2.17016259765625,0.01413015928119421,-0.0023482413962483406,0.018706824630498886
1761379459431244500,2.18024462890625,0.01589503511786461,-0.0031415969133377075,0.01656670868396759
1761379459441326600,2.19032666015625,0.011430718936026096,-0.010494339279830456,0.010192714631557465
1761379459451409700,2.20040966796875,0.002634030766785145,-0.00002199225127696991,-0.011846276000142097
1761379459461491700,2.21049169921875,-0.00031437352299690247,-0.0004113912582397461,-0.018498286604881287
1761379459471573500,2.220573486328125,0.002865707501769066,-0.004969657398760319,-0.001727295108139515
1761379459481655600,2.230655517578125,0.009756302461028099,-0.01467292383313179,0.014551440253853798
1761379459491739000,2.24073876953125,0.014290867373347282,-0.013794614002108574,0.014787130057811737
1761379459501821000,2.250821044921875,0.010938801802694798,-0.004427998326718807,0.015267224051058292
1761379459511902500,2.26090234375,0.010242651216685772,-0.0072458889335393906,0.017549820244312286
1761379459521984500,2.270984619140625,0.005574730224907398,-0.007934692315757275,0.011305728927254677
1761379459532067800,2.28106787109375,-0.0005827639251947403,-0.005274727940559387,-0.007312430534511805
1761379459542150000,2.29114990234375,-0.012971901334822178,0.003236060496419668,-0.012506959959864616
1761379459552231700,2.301231689453125,-0.016948534175753593,-0.01135726273059845,0.01370973140001297
1761379459562313700,2.311313720703125,-0.024494539946317673,-0.024984102696180344,0.03676502779126167
1761379459572396800,2.321396728515625,-0.03893366456031799,-0.02098190411925316,0.038937367498874664
1761379459582478800,2.331478759765625,-0.03931698948144913,-0.0356682687997818,0.03262101858854294
1761379459592561000,2.341560791015625,-0.037963300943374634,-0.04429211467504501,0.019489508122205734
1761379459602642700,2.351642578125,-0.03672534599900246,-0.04086686670780182,0.008049251511693
1761379459612725800,2.361725830078125,-0.039363209158182144,-0.02981102280318737,-0.016913622617721558
1761379459622807800,2.371807861328125,-0.04247301071882248,-0.01722286082804203,-0.03837185725569725
1761379459632889900,2.381889892578125,-0.043119095265865326,-0.014048906043171883,-0.02616206370294094
1761379459642971600,2.3919716796875,-0.04198358952999115,-0.02568722702562809,0.006950512528419495
1761379459653053700,2.4020537109375,-0.040095411241054535,-0.02947237528860569,0.02811598591506481
1761379459663136800,2.41213671875,-0.04017287492752075,-0.020849257707595825,0.042814258486032486
1761379459673218800,2.42221875,-0.038802146911621094,-0.02346394956111908,0.07095428556203842
1761379459683300600,2.432300537109375,-0.03135029599070549,-0.03647825866937637,0.10075622797012329
1761379459693382700,2.442382568359375,-0.030452542006969452,-0.029641922563314438,0.10528386384248734
1761379459703465700,2.4524658203125,-0.02836507186293602,-0.031953465193510056,0.07955674082040787
1761379459713547800,2.4625478515625,-0.025325072929263115,-0.0388806127011776,0.044085294008255005
1761379459723629800,2.4726298828125,-0.022529372945427895,-0.037933941930532455,0.01358350832015276
1761379459733711600,2.482711669921875,-0.027059143409132957,-0.03217139467597008,-0.020294563844799995
1761379459743794700,2.492794677734375,-0.033238641917705536,-0.012529139406979084,-0.047871410846710205
1761379459753876700,2.502876708984375,-0.035767849534749985,-0.008069143630564213,-0.0548800528049469
1761379459763958800,2.512958740234375,-0.03040170483291149,-0.009018471464514732,-0.03725152462720871
1761379459774040600,2.52304052734375,-0.02564902789890766,-0.005733995698392391,-0.023882189765572548
1761379459784123600,2.53312353515625,-0.024957822635769844,-0.006550634279847145,-0.0181684922426939
1761379459794205700,2.543205810546875,-0.02319161407649517,-0.017242692410945892,0.004471305757761002
1761379459804287700,2.553287841796875,-0.030080679804086685,-0.01727971062064171,0.010669014416635036
1761379459814369800,2.563369873046875,-0.03279337286949158,-0.006301096640527248,0.004141340963542461
1761379459824452600,2.57345263671875,-0.037156447768211365,-0.0054254839196801186,0.011802547611296177
1761379459834534700,2.58353466796875,-0.04294615983963013,0.0016766339540481567,0.018084412440657616
1761379459844616700,2.59361669921875,-0.04941973835229874,0.0017701867036521435,0.017084477469325066
1761379459854698800,2.60369873046875,-0.051695674657821655,0.006712480913847685,0.007218529470264912
1761379459864781600,2.613781494140625,-0.046756498515605927,0.008056914433836937,-0.008548170328140259
1761379459874863600,2.623863525390625,-0.03433551266789436,0.0069176144897937775,-0.01751130446791649
1761379459884945700,2.633945556640625,-0.01722940430045128,0.0059326086193323135,-0.015202484093606472
1761379459895027700,2.64402783203125,-0.004867808893322945,0.01033055316656828,-0.014988099224865437
1761379459905110500,2.654110595703125,0.006529820151627064,0.016924386844038963,-0.0019101959187537432
1761379459915192600,2.664192626953125,0.01547351386398077,0.014715827070176601,0.019806552678346634
1761379459925274600,2.674274658203125,0.026466310024261475,0.017933500930666924,0.03177842125296593
1761379459935356700,2.684356689453125,0.024838585406541824,0.020702388137578964,0.029899828135967255
1761379459945439500,2.694439453125,0.03665968030691147,0.014713095501065254,0.02679653838276863
1761379459955521500,2.704521484375,0.03762108087539673,0.013314402662217617,0.006705650128424168
1761379459965603600,2.714603515625,0.031139373779296875,0.01303970254957676,-0.014649149030447006
1761379459975685600,2.724685546875,0.025186944752931595,0.004873119294643402,-0.03073703870177269
1761379459985768700,2.734768798828125,0.020130708813667297,0.006341842003166676,-0.03069269098341465
1761379459995850800,2.744850830078125,0.005855634808540344,0.008913390338420868,-0.024239586666226387
1761379460005933800,2.754933837890625,-0.0019501643255352974,0.0059550972655415535,-0.0011589290807023644
1761379460016016000,2.765015869140625,-0.007254382129758596,0.0032802182249724865,0.011253532022237778
1761379460026097700,2.77509765625,-0.010080534033477306,0.005795829929411411,0.020827803760766983
1761379460036180700,2.7851806640625,-0.0031997254118323326,0.006644845940172672,0.019711939617991447
1761379460046262800,2.7952626953125,0.0011401576921343803,0.005780106410384178,0.005957453511655331
1761379460056344800,2.8053447265625,0.008897678926587105,0.009445414878427982,-0.007405756041407585
1761379460066427000,2.815427001953125,0.012681519612669945,0.01402370072901249,-0.01374624390155077
1761379460076509700,2.825509765625,0.014326021075248718,0.01991834118962288,-0.0060867262072861195
1761379460086591700,2.835591796875,0.01834104023873806,0.02566845715045929,0.006939140148460865
1761379460096673800,2.845673828125,0.018612680956721306,0.03896695002913475,0.024039030075073242
1761379460106755800,2.855755859375,0.01774812676012516,0.0435890331864357,0.035354942083358765
1761379460116838700,2.865838623046875,0.015423187986016273,0.046513717621564865,0.0349634550511837
1761379460126920700,2.875920654296875,0.009893326088786125,0.04099905863404274,0.02803288958966732
1761379460137002800,2.886002685546875,-0.0013534687459468842,0.0376269668340683,0.015863575041294098
1761379460147084800,2.896084716796875,-0.013910040259361267,0.022200262174010277,0.007153155282139778
1761379460157167600,2.906167724609375,-0.021598853170871735,0.01711096055805683,0.002999689197167754
1761379460167249700,2.916249755859375,-0.028276044875383377,0.01074718963354826,0.0029569861944764853
1761379460177331700,2.926331787109375,-0.030497651547193527,0.008710670284926891,0.008325652219355106
1761379460187413800,2.936413818359375,-0.03335048258304596,0.004114315379410982,0.008325130678713322
1761379460197496600,2.94649658203125,-0.03283169865608215,-0.0017470354214310646,0.0064643798395991325
1761379460207578600,2.95657861328125,-0.0369434654712677,-0.010809380561113358,0.002187043661251664
1761379460217660700,2.96666064453125,-0.0354936420917511,-0.013417679816484451,-0.005778737366199493
1761379460227742700,2.97674267578125,-0.03411015495657921,-0.011270583607256413,-0.019606489688158035
1761379460237825500,2.986825439453125,-0.03328057751059532,-0.005849986337125301,-0.023322664201259613
1761379460247907600,2.996907470703125,-0.03499545902013779,-0.0049476055428385735,-0.016046473756432533
1761379460257989600,3.00698974609375,-0.0400346964597702,-0.006486646831035614,-0.0026308000087738037
1761379460268071700,3.01707177734375,-0.037421420216560364,-0.005958360619843006,0.011610384099185467
1761379460278154500,3.027154541015625,-0.03734738379716873,-0.004937570542097092,0.018195848912000656
1761379460288236500,3.037236572265625,-0.03627555072307587,-0.0036841044202446938,0.014347776770591736
1761379460298318600,3.047318603515625,-0.03431253507733345,-0.005238858051598072,0.008584164083003998
1761379460308400600,3.057400634765625,-0.03592442721128464,-0.008418786339461803,-0.0003053750842809677
1761379460318483700,3.067483642578125,-0.032848212867975235,-0.015115038491785526,0.0012903911992907524
1761379460328565500,3.0775654296875,-0.035452261567115784,-0.022663265466690063,-0.005733012221753597
1761379460338647600,3.0876474609375,-0.038061629980802536,-0.022736236453056335,-0.014168042689561844
1761379460348729600,3.0977294921875,-0.03634975105524063,-0.02294955775141716,-0.010385554283857346
1761379460358811600,3.107811767578125,-0.03639449551701546,-0.024950934574007988,-0.004274723120033741
1761379460368894500,3.11789453125,-0.03908659517765045,-0.013976482674479485,0.003087713150307536
1761379460378976500,3.1279765625,-0.04202912002801895,-0.00341704860329628,0.014699362218379974
1761379460389058600,3.13805859375,-0.04330400004982948,0.005938042886555195,0.025716301053762436
1761379460399140600,3.148140625,-0.051691360771656036,0.01737844944000244,0.0319070890545845
1761379460409223700,3.1582236328125,-0.058582451194524765,0.024304121732711792,0.028417790308594704
1761379460419305700,3.1683056640625,-0.054794639348983765,0.024540875107049942,0.03285328671336174
1761379460429387800,3.1783876953125,-0.056431740522384644,0.023904897272586823,0.03479921072721481
1761379460439469600,3.188469482421875,-0.05701497569680214,0.016891729086637497,0.04579753428697586
1761379460449553000,3.198552978515625,-0.046083610504865646,0.008306087926030159,0.04381344094872475
1761379460459634700,3.208634765625,-0.03804672136902809,0.0030964124016463757,0.03221883624792099
1761379460469716700,3.218716796875,-0.034131862223148346,0.011520817875862122,0.013367769308388233
1761379460479798800,3.228798828125,-0.02885507419705391,0.024058448150753975,-0.002084424253553152
1761379460489881900,3.2388818359375,-0.028728846460580826,0.02850111946463585,0.0012892107479274273
1761379460499963600,3.248963623046875,-0.03146497905254364,0.02929846942424774,0.016168026253581047
1761379460510045700,3.259045654296875,-0.02503672055900097,0.01719619706273079,0.028207099065184593
1761379460520127700,3.269127685546875,-0.017240051180124283,-0.004124271683394909,0.036165423691272736
1761379460530210800,3.2792109375,-0.010338740423321724,-0.023524615913629532,0.022942237555980682
1761379460540292900,3.28929296875,-0.0022664330899715424,-0.03892061859369278,0.00124493264593184
1761379460550374700,3.299374755859375,0.006792883388698101,-0.04840909689664841,-0.026182886213064194
1761379460560456700,3.309456787109375,0.011467264033854008,-0.05089595913887024,-0.040275268256664276
1761379460570538800,3.319538818359375,0.012331069447100163,-0.0429505817592144,-0.03966336324810982
1761379460580621800,3.329621826171875,0.0042638229206204414,-0.027090393006801605,-0.027188317850232124
1761379460590703600,3.33970361328125,-0.0018323184922337532,-0.015173430554568768,-0.011269887909293175
1761379460600785700,3.34978564453125,-0.011732620187103748,-0.020963676273822784,0.006004706025123596
1761379460610867700,3.35986767578125,-0.016880709677934647,-0.0347239226102829,0.014090493321418762
1761379460620950800,3.36995068359375,-0.025471534579992294,-0.04388653114438057,0.010858215391635895
1761379460631032800,3.38003271484375,-0.03055279701948166,-0.046530138701200485,-0.008670611307024956
1761379460641114600,3.390114501953125,-0.034675903618335724,-0.0414927713572979,-0.02324768900871277
1761379460651196700,3.40019677734375,-0.043003179132938385,-0.027382396161556244,-0.03599163144826889
1761379460661279700,3.41027978515625,-0.04683440178632736,-0.011968284845352173,-0.035898953676223755
1761379460671361800,3.42036181640625,-0.048539817333221436,-0.004176356829702854,-0.028324969112873077
1761379460681443600,3.430443603515625,-0.04983650892972946,0.006202515214681625,-0.00408700667321682
1761379460691525600,3.440525634765625,-0.04335499554872513,-0.007217503152787685,0.0035383529029786587
1761379460701608700,3.450608642578125,-0.03829925134778023,-0.010101973079144955,0.009009817615151405
1761379460711690800,3.460690673828125,-0.028615716844797134,-0.022938910871744156,0.008863989263772964
1761379460721772500,3.4707724609375,-0.021280836313962936,-0.019322870299220085,0.007761974353343248
1761379460731854600,3.4808544921875,-0.016443852335214615,-0.007614162750542164,0.013418762013316154
1761379460741936600,3.4909365234375,-0.009337207302451134,0.0013428479433059692,0.01923883520066738
1761379460752019700,3.501019775390625,-0.001743203029036522,0.001657367218285799,0.010855736210942268
1761379460762101800,3.511101806640625,0.0005220817402005196,-0.010634985752403736,-0.0014403446111828089
1761379460772183600,3.52118359375,0.004928755573928356,-0.021764356642961502,-0.013913366943597794
1761379460782265600,3.531265625,0.00555300060659647,-0.029011083766818047,-0.021686069667339325
1761379460792348700,3.5413486328125,0.0022600889205932617,-0.02942458726465702,-0.02889251336455345
1761379460802430700,3.5514306640625,0.009758485481142998,-0.03271572291851044,-0.027583835646510124
1761379460812512500,3.561512451171875,0.00792555883526802,-0.036880310624837875,-0.02026945911347866
1761379460822594600,3.571594482421875,0.005008066073060036,-0.033986788243055344,-0.008329443633556366
1761379460832677600,3.581677734375,-0.001629810780286789,-0.028110137209296227,-0.0021794792264699936
1761379460842759700,3.591759765625,-0.01618984527885914,-0.027475504204630852,-0.010564441792666912
1761379460852841700,3.601841796875,-0.026799330487847328,-0.02316993847489357,-0.017138874158263206
1761379460862923500,3.611923583984375,-0.031228166073560715,-0.014663534238934517,-0.01403203047811985
1761379460873006600,3.622006591796875,-0.029332924634218216,-0.010631424374878407,-0.009663526900112629
1761379460883088600,3.632088623046875,-0.021276064217090607,-0.0040374379605054855,0.00305093708448112
1761379460893170700,3.642170654296875,-0.01412608940154314,-0.006830098107457161,0.011899543926119804
1761379460903252500,3.65225244140625,-0.007057261187583208,0.0011535263620316982,0.015875376760959625
1761379460913334500,3.66233447265625,-0.0017812727019190788,0.0075096930377185345,0.010508308187127113
1761379460923417900,3.67241796875,0.0023080110549926758,0.018902696669101715,0.001296167727559805
1761379460933499600,3.682499755859375,0.0031289998441934586,0.029226142913103104,-0.005718497559428215
1761379460943581700,3.692581787109375,0.007358899340033531,0.037292324006557465,-0.010457858443260193
1761379460953663500,3.70266357421875,0.009052260778844357,0.04036620259284973,-0.010884758085012436
1761379460963746800,3.712746826171875,0.009242677129805088,0.03855125606060028,-0.0020124372094869614
1761379460973828900,3.722828857421875,0.010545607656240463,0.0336218886077404,0.01315243449062109
1761379460983911000,3.732910888671875,0.0132985170930624,0.029472682625055313,0.021512629464268684
1761379460993992700,3.74299267578125,0.01847931370139122,0.014219540171325207,0.024164246395230293
1761379461004075800,3.75307568359375,0.016529612243175507,0.013079707510769367,0.0119326151907444
1761379461014157000,3.763156982421875,0.012900256551802158,0.02413448877632618,-0.0044503528624773026
1761379461024238800,3.77323876953125,0.009633357636630535,0.03314928710460663,-0.009521011263132095
1761379461034321000,3.78332080078125,-0.0008028037846088409,0.04692372679710388,-0.006301926448941231
1761379461044404000,3.793404052734375,-0.00781277660280466,0.0643535852432251,0.004939276725053787
1761379461054486000,3.803486083984375,-0.008253918960690498,0.05686674267053604,0.019284039735794067
1761379461064568000,3.813568115234375,-0.008961254730820656,0.04495815187692642,0.0310224536806345
1761379461074650000,3.823650146484375,-0.005104650743305683,0.040157873183488846,0.027732130140066147
1761379461084733000,3.83373291015625,0.005722430534660816,0.033957768231630325,0.024106502532958984
1761379461094815000,3.84381494140625,0.01875288039445877,0.020764928311109543,0.02180653251707554
1761379461104897000,3.85389697265625,0.022952154278755188,0.0164700485765934,0.010842566378414631
1761379461114979000,3.86397900390625,0.02090913988649845,0.02859104424715042,-0.007726507261395454
1761379461125061000,3.87406103515625,0.019198859110474586,0.028014469891786575,-0.013310356996953487
1761379461135144000,3.88414404296875,0.015474246814846992,0.02480490878224373,-0.003913323860615492
1761379461145226000,3.89422607421875,0.015562931075692177,0.022493019700050354,0.012312250211834908
1761379461155308000,3.90430810546875,0.01933273673057556,0.019231032580137253,0.019129328429698944
1761379461165390000,3.91439013671875,0.026952572166919708,0.01187245175242424,0.01802864298224449
1761379461175473000,3.924472900390625,0.028548285365104675,0.004834923893213272,0.003202634397894144
1761379461185555000,3.934554931640625,0.029569607228040695,0.006526031065732241,-0.005518685560673475
1761379461195637000,3.944636962890625,0.028921959921717644,0.0035343095660209656,-0.004864059388637543
1761379461205719000,3.954718994140625,0.027720874175429344,-0.001964053139090538,-0.003766037989407778
1761379461215801900,3.9648017578125,0.021632060408592224,0.008159361779689789,-0.005094919353723526
1761379461225884000,3.9748837890625,0.017050890251994133,0.01665058359503746,-0.012611424550414085
1761379461235966000,3.984966064453125,0.012600719928741455,0.013074537739157677,-0.01447658147662878
1761379461246048000,3.995048095703125,0.00553002767264843,0.015778444707393646,-0.002680642530322075
1761379461256130000,4.005130126953125,-0.006046122405678034,0.009863629005849361,0.011622942984104156
1761379461266212900,4.015212890625,-0.012475525960326195,0.006928292568773031,0.01766964979469776
1761379461276295000,4.025294921875,-0.01661907508969307,-0.0005426406860351562,0.012934448197484016
1761379461286377000,4.035376953125,-0.017028935253620148,0.0007796185091137886,0.0025057755410671234
1761379461296459000,4.045458984375,-0.013351721689105034,0.00017741136252880096,-0.008209198713302612
1761379461306541800,4.055541748046875,-0.00621072156354785,0.004452051594853401,-0.01837075687944889
1761379461316624000,4.065623779296875,0.001832074485719204,0.010303391143679619,-0.015345864929258823
1761379461326706000,4.075705810546875,0.005124807357788086,0.01109275221824646,-0.006090580951422453
1761379461336788000,4.0857880859375,0.004745750688016415,0.019543562084436417,0.0035810694098472595
1761379461346870800,4.095870849609375,0.005798765458166599,0.01811956986784935,0.00948050431907177
1761379461356952800,4.105952880859375,0.011152596212923527,0.013048291206359863,0.008984718471765518
1761379461367035000,4.116034912109375,0.011492948047816753,0.013830994255840778,-0.009880581870675087
1761379461377117000,4.126116943359375,0.013581964187324047,0.014809668995440006,-0.026211945340037346
1761379461387199000,4.136198974609375,0.02162710577249527,0.015158543363213539,-0.030106551945209503
1761379461397281800,4.14628173828125,0.025281790643930435,0.009861581027507782,-0.021184204146265984
1761379461407363800,4.15636376953125,0.028673328459262848,0.00685913348570466,-0.007477711886167526
1761379461417446000,4.16644580078125,0.03491409495472908,0.006993007380515337,0.008734211325645447
1761379461427528000,4.17652783203125,0.03815595805644989,0.014539340510964394,0.009807465597987175
1761379461437610800,4.18661083984375,0.04334406554698944,0.01403174176812172,-0.001905915909446776
1761379461447692800,4.19669287109375,0.048775579780340195,0.0030893459916114807,-0.010518312454223633
1761379461457774800,4.20677490234375,0.04918849095702171,-0.0012887343764305115,-0.016518650576472282
1761379461467857000,4.21685693359375,0.048891279846429825,-0.0016181673854589462,-0.02222101204097271
1761379461477940000,4.22693994140625,0.044983044266700745,0.0016864417120814323,-0.01820184290409088
1761379461488021800,4.237021728515625,0.0424991138279438,0.009579252451658249,-0.01856190152466297
1761379461498103800,4.247103759765625,0.04660312458872795,0.003472424577921629,-0.005670325364917517
1761379461508185900,4.257185791015625,0.04794296249747276,0.0022244672290980816,-0.005180570296943188
1761379461518268000,4.267267822265625,0.04105013608932495,0.0012481934390962124,-0.011399256065487862
1761379461528350700,4.277350830078125,0.02726135402917862,0.007395567838102579,-0.021840445697307587
1761379461538432800,4.287432861328125,0.010360093787312508,0.012072521261870861,-0.016896836459636688
1761379461548514800,4.297514892578125,-0.0024534398689866066,0.015093611553311348,-0.0023162958677858114
1761379461558596900,4.307596923828125,-0.014526980929076672,0.007404947653412819,0.018391994759440422
1761379461568680000,4.317679931640625,-0.020117223262786865,-0.0028452929109334946,0.024135367944836617
1761379461578762000,4.327761962890625,-0.023509757593274117,-0.009777622297406197,0.011561972089111805
1761379461588843800,4.33784375,-0.021199997514486313,-0.010435955598950386,-0.016088297590613365
1761379461598925800,4.34792578125,-0.019201455637812614,-0.0071064503863453865,-0.027597995474934578
1761379461609009200,4.358009033203125,-0.010285192169249058,-0.005539446137845516,-0.026672013103961945
1761379461619091000,4.368091064453125,-0.0007345639169216156,-0.0018640179187059402,-0.013720262795686722
1761379461629173000,4.378173095703125,0.005110275931656361,0.007050914224237204,-0.009216324426233768
1761379461639255000,4.388255126953125,0.007617225870490074,0.006058504339307547,-0.005461768247187138
1761379461649337000,4.398337158203125,0.005815597251057625,0.0058441199362277985,-0.011458141729235649
1761379461659420000,4.408419921875,0.0013627996668219566,0.0040877824649214745,-0.01505521684885025
1761379461669502000,4.418501953125,-0.006084198132157326,-0.0033666715025901794,-0.022267058491706848
1761379461679584000,4.428583984375,-0.018421493470668793,-0.008934511803090572,-0.02133079059422016
1761379461689666000,4.438666015625,-0.019096605479717255,-0.0008286479860544205,-0.018896661698818207
1761379461699749000,4.4487490234375,-0.023297429084777832,0.010251807980239391,-0.011993407271802425
1761379461709831000,4.458830810546875,-0.019926931709051132,0.016871094703674316,0.004024707246571779
1761379461719913000,4.468912841796875,-0.012317076325416565,0.01705893874168396,0.02600608579814434
1761379461729995000,4.4789951171875,-0.005363296251744032,0.005593499168753624,0.027288930490612984
1761379461740078000,4.489078125,0.0016293739899992943,-0.0009749038144946098,0.008431410416960716
1761379461750160000,4.499159912109375,-0.00033310893923044205,-0.009381438605487347,-0.01567499153316021
1761379461760242000,4.509241943359375,-0.0006547616794705391,-0.015386315993964672,-0.035535406321287155
1761379461770324000,4.519323974609375,0.004860910587012768,-0.024325482547283173,-0.03606058284640312
1761379461780406000,4.529406005859375,0.008397461846470833,-0.02656845934689045,-0.03597675636410713
1761379461790488800,4.53948876953125,0.004708452150225639,-0.01441512443125248,-0.025535834953188896
1761379461800571000,4.54957080078125,0.0002910420298576355,-0.012332054786384106,-0.013325410895049572
1761379461810653000,4.55965283203125,-0.007396971806883812,-0.00971123855561018,-0.00789922010153532
1761379461820735000,4.56973486328125,-0.013142835348844528,-0.01064370945096016,-0.008438370190560818
1761379461830818000,4.579818115234375,-0.01820417307317257,-0.017050476744771004,-0.008492166176438332
1761379461840899800,4.58989990234375,-0.018055906519293785,-0.023667149245738983,-0.013029349967837334
1761379461850982000,4.59998193359375,-0.013110416010022163,-0.03175916522741318,-0.022952288389205933
1761379461861064000,4.61006396484375,-0.00693561090156436,-0.0333850234746933,-0.044641606509685516
1761379461871146000,4.62014599609375,-0.0006103366613388062,-0.03497493267059326,-0.06158330291509628
1761379461881228800,4.630228759765625,-0.0007200231775641441,-0.03264565393328667,-0.0646078959107399
1761379461891310800,4.640310791015625,-0.00992683693766594,-0.05039375647902489,-0.04760121554136276
1761379461901393000,4.650392822265625,-0.012124409899115562,-0.04332222416996956,-0.029741302132606506
1761379461911475000,4.660474853515625,-0.005937353707849979,-0.04620536044239998,-0.029436634853482246
1761379461921558000,4.67055810546875,-0.009182363748550415,-0.05078279227018356,-0.026684682816267014
1761379461931639800,4.680639892578125,0.0031741708517074585,-0.03615830838680267,-0.030916446819901466
1761379461941721900,4.690721923828125,0.0034753140062093735,-0.040275316685438156,-0.038592640310525894
1761379461951804000,4.700803955078125,-0.007393845822662115,-0.02129603549838066,-0.03894044831395149
1761379461961887000,4.710886962890625,-0.015053767710924149,0.004126033280044794,-0.03508998826146126
1761379461971968800,4.72096875,-0.013124573975801468,0.012388224713504314,-0.016483012586832047
1761379461982050800,4.73105078125,-0.011583279818296432,0.026716994121670723,0.00516724307090044
1761379461992132900,4.7411328125,-0.013365733437240124,0.04290049150586128,0.016900064423680305
1761379462002215000,4.75121484375,-0.009064024314284325,0.048018716275691986,0.018037375062704086
1761379462012297700,4.761297607421875,0.0025185951963067055,0.041224464774131775,0.016228288412094116
1761379462022379500,4.771379638671875,0.004948059096932411,0.037136420607566833,0.006187194027006626
1761379462032461600,4.781461669921875,0.00397227518260479,0.037632301449775696,-0.020581835880875587
1761379462042543600,4.791543701171875,0.01156795583665371,0.04062841832637787,-0.034739986062049866
1761379462052626700,4.801626708984375,0.01710280403494835,0.023110412061214447,-0.0348861925303936
1761379462062708700,4.811708740234375,0.020244447514414787,0.01726176217198372,-0.028827836737036705
1761379462072790500,4.82179052734375,0.014821721240878105,0.02341339737176895,-0.030833730474114418
1761379462082872600,4.83187255859375,0.006712860427796841,0.025801144540309906,-0.0313335619866848
1761379462092954600,4.84195458984375,0.008941658772528172,0.023043707013130188,-0.02772631123661995
1761379462103037700,4.85203759765625,0.012037813663482666,0.029682358726859093,-0.014516991563141346
1761379462113119500,4.862119384765625,0.014160087332129478,0.02804930880665779,-0.002107460517436266
1761379462123201500,4.872201416015625,0.013613983988761902,0.020476216450333595,0.009626400656998158
1761379462133283600,4.88228369140625,0.010104203596711159,0.014841499738395214,0.000644623301923275
1761379462143366700,4.89236669921875,0.010789874009788036,0.0071648359298706055,-0.007528211921453476
1761379462153448700,4.90244873046875,0.013806703500449657,-0.0011479547247290611,-0.02126799337565899
1761379462163530500,4.912530517578125,0.015214990824460983,-0.004838809370994568,-0.03172457218170166
1761379462173612500,4.922612548828125,0.02308809384703636,-0.010010136291384697,-0.03763439133763313
1761379462183694600,4.932694580078125,0.027462465688586235,-0.023395109921693802,-0.041915569454431534
1761379462193777700,4.942777587890625,0.03127185255289078,-0.034556418657302856,-0.046780362725257874
1761379462203859500,4.952859375,0.03218495100736618,-0.030922919511795044,-0.04783276095986366
1761379462213941500,4.96294140625,0.03187789022922516,-0.024298306554555893,-0.039844874292612076
1761379462224023600,4.9730234375,0.03577146679162979,-0.012464194558560848,-0.020444795489311218
1761379462234106600,4.983106689453125,0.04082667827606201,-0.00036891642957925797,-0.012600988149642944
1761379462244188700,4.993188720703125,0.037921320647001266,0.008122686296701431,-0.010558640584349632
1761379462254270500,5.0032705078125,0.0281379334628582,0.010008737444877625,-0.01673797331750393
1761379462264352500,5.0133525390625,0.025020787492394447,0.00989148486405611,-0.023676807060837746
1761379462274434600,5.0234345703125,0.02473076991736889,0.019408289343118668,-0.021912995725870132
1761379462284518000,5.033517822265625,0.016655297949910164,0.025972943753004074,-0.018786178901791573
1761379462294599400,5.043599365234375,0.014907464385032654,0.03254589065909386,-0.009312782436609268
1761379462304681500,5.053681396484375,0.016314364969730377,0.021321196109056473,0.0014609245117753744
1761379462314763500,5.063763427734375,0.01633220538496971,0.016989830881357193,-0.0017873330507427454
1761379462324846800,5.073846923828125,0.018006842583417892,0.010872106067836285,-0.015226486138999462
1761379462334928600,5.0839287109375,0.015185757540166378,0.0052709453739225864,-0.033142104744911194
1761379462345010700,5.0940107421875,0.011003316380083561,0.010125103406608105,-0.044509902596473694
1761379462355092700,5.1040927734375,0.002596248872578144,0.01121433638036251,-0.05040321126580238
1761379462365174500,5.114174560546875,0.0023224307224154472,0.012682437896728516,-0.03857985511422157
1761379462375257900,5.1242578125,-0.0019247783347964287,0.016392219811677933,-0.017954740673303604
1761379462385339600,5.134339599609375,-0.007401600480079651,0.025306548923254013,0.001323389122262597
1761379462395421700,5.144421630859375,-0.004112596623599529,0.027505788952112198,0.009114732965826988
1761379462405503700,5.154503662109375,-0.0054382700473070145,0.02109912969172001,0.011139076203107834
1761379462415586800,5.1645869140625,-0.0013724220916628838,0.016261763870716095,0.001959425862878561
1761379462425668600,5.174668701171875,0.0019140997901558876,0.01927664503455162,-0.009828593581914902
1761379462435750700,5.184750732421875,0.004383116960525513,0.02330334484577179,-0.02088843658566475
1761379462445832700,5.194832763671875,0.01477211806923151,0.013266177847981453,-0.017888328060507774
1761379462455914800,5.204914794921875,0.019899234175682068,0.01733335852622986,-0.013443246483802795
1761379462465997600,5.21499755859375,0.021961010992527008,0.018385745584964752,-0.015471525490283966
1761379462476079600,5.22507958984375,0.029870066791772842,0.023681707680225372,-0.025395529344677925
1761379462486161700,5.23516162109375,0.03161077946424484,0.019394442439079285,-0.025465652346611023
1761379462496243700,5.24524365234375,0.030182262882590294,0.02153455838561058,-0.028441734611988068
1761379462506326800,5.255326904296875,0.020843781530857086,0.03644920140504837,-0.027295425534248352
1761379462516408600,5.26540869140625,0.013182400725781918,0.03877360746264458,-0.018351731821894646
1761379462526490600,5.27549072265625,0.008306656964123249,0.02841624617576599,-0.014693782664835453
1761379462536572700,5.28557275390625,0.003685274161398411,0.017132166773080826,-0.014698310755193233
1761379462546655700,5.29565576171875,0.0059688156470656395,0.006444479338824749,-0.023409806191921234
1761379462556737500,5.305737548828125,0.01288610976189375,-0.0087395329028368,-0.03037264198064804
1761379462566819600,5.315819580078125,0.024525009095668793,-0.01660935953259468,-0.03492870554327965
1761379462576901600,5.325901611328125,0.03277148678898811,-0.018329758197069168,-0.032325468957424164
1761379462586983700,5.335983642578125,0.03995206579566002,-0.015958331525325775,-0.018899325281381607
1761379462597066800,5.346066650390625,0.04409514740109444,-0.015388148836791515,-0.010566825978457928
1761379462607148500,5.3561484375,0.0523461252450943,-0.009092390537261963,-0.026616571471095085
1761379462617230600,5.366230712890625,0.04898787662386894,0.003445771988481283,-0.043759074062108994
1761379462627312600,5.376312744140625,0.042072784155607224,0.011496132239699364,-0.05257641151547432
1761379462637394700,5.386394775390625,0.030298683792352676,0.018914368003606796,-0.05403449013829231
1761379462647477500,5.3964775390625,0.019122477620840073,0.02013082429766655,-0.043043676763772964
1761379462657559600,5.4065595703125,0.004686811938881874,0.005222182720899582,-0.01660940796136856
1761379462667641600,5.4166416015625,0.0032737040892243385,-0.003982577472925186,0.00284848571754992
1761379462677723600,5.4267236328125,-0.0010536666959524155,-0.007188224233686924,0.009959125891327858
1761379462687806700,5.436806640625,-0.007384446449577808,-0.00014647748321294785,0.011266275309026241
1761379462697888500,5.446888427734375,-0.013340872712433338,0.0015731253661215305,0.010301412083208561
1761379462707970600,5.456970458984375,-0.01903224177658558,0.010546008124947548,0.0033685883972793818
1761379462718052600,5.467052490234375,-0.030138421803712845,0.015342095866799355,-0.0014575921231880784
1761379462728134700,5.477134765625,-0.04741958528757095,0.015432990156114101,0.0021846171002835035
1761379462738217500,5.487217529296875,-0.05879341810941696,0.014288896694779396,0.0032746491488069296
1761379462748299500,5.497299560546875,-0.06148344278335571,0.009861192665994167,0.0061022937297821045
1761379462758381600,5.507381591796875,-0.053193554282188416,0.0029138047248125076,0.016206858679652214
1761379462768463600,5.517463623046875,-0.034095488488674164,-0.000453852117061615,0.017644589766860008
1761379462778546700,5.527546630859375,-0.020037192851305008,-0.0049229031428694725,0.007929643616080284
1761379462788628500,5.53762841796875,-0.009731997735798359,-0.0029334193095564842,-0.0018128715455532074
1761379462798710500,5.54771044921875,-0.0037806322798132896,0.005217185243964195,-0.009156804531812668
1761379462808792600,5.55779248046875,-0.0007667243480682373,0.023443344980478287,-0.0005832340102642775
1761379462818874600,5.56787451171875,-0.000040479935705661774,0.03162510693073273,0.037447236478328705
1761379462828957400,5.57795751953125,-0.006154202856123447,0.020496128126978874,0.07243011146783829
1761379462839039500,5.58803955078125,-0.01816452667117119,0.003815152682363987,0.09064240753650665
1761379462849121500,5.59812158203125,-0.024497894570231438,-0.0034223757684230804,0.07742335647344589
1761379462859203600,5.60820361328125,-0.02240997552871704,0.007250242400914431,0.03939608484506607
1761379462869286700,5.61828662109375,-0.009883057326078415,0.015493237413465977,0.004154571797698736
1761379462879368400,5.628368408203125,-0.003401455469429493,0.015887917950749397,-0.011972200125455856
1761379462889450500,5.638450439453125,0.0018040165305137634,0.004229951184242964,-0.007429745048284531
1761379462899532500,5.648532470703125,0.0001611132174730301,-0.0209190770983696,-0.006215343251824379
1761379462909614600,5.658614501953125,0.011277413927018642,-0.016576260328292847,-0.014285787008702755
1761379462919697700,5.66869775390625,0.01850682869553566,-0.01181665901094675,-0.012492679990828037
1761379462929779500,5.678779541015625,0.022873081266880035,-0.014073421247303486,-0.0026392503641545773
1761379462939861500,5.688861572265625,0.0361982099711895,-0.018683619797229767,0.0055443765595555305
1761379462949943600,5.698943603515625,0.05155020207166672,-0.018003758043050766,0.01076261792331934
1761379462960025600,5.709025634765625,0.052067115902900696,-0.020177427679300308,0.01705246977508068
1761379462970108700,5.719108642578125,0.0488605797290802,-0.011490300297737122,0.03180119767785072
1761379462980190700,5.729190673828125,0.045326296240091324,-0.003502149134874344,0.04026525467634201
1761379462990272800,5.739272705078125,0.036938391625881195,-0.009843059815466404,0.05038265883922577
1761379463000354600,5.7493544921875,0.0224771611392498,-0.014397864229977131,0.052029822021722794
1761379463010438000,5.75943798828125,0.012505404651165009,0.011025559157133102,0.040037162601947784
1761379463020520000,5.76952001953125,0.009530121460556984,0.01823393628001213,0.03850264847278595
1761379463030602000,5.77960205078125,0.012391622178256512,0.010632968507707119,0.04052776098251343
1761379463040684000,5.78968408203125,0.0044713811948895454,0.0060033295303583145,0.03703822195529938
1761379463050766000,5.79976611328125,-0.0010000308975577354,0.005240447353571653,0.024031618610024452
1761379463060849000,5.809848876953125,-0.015306798741221428,0.017175402492284775,0.00452210009098053
1761379463070931000,5.819930908203125,-0.026455849409103394,0.017065588384866714,0.0077896881848573685
1761379463081013000,5.830012939453125,-0.03436756879091263,0.012438878417015076,0.035199474543333054
1761379463091095000,5.840094970703125,-0.05431816726922989,0.00814264640212059,0.07476695626974106
1761379463101177000,5.850177001953125,-0.04518405720591545,0.005570565350353718,0.10243239998817444
1761379463111260000,5.860260009765625,-0.04820159077644348,-0.0009343679994344711,0.10812291502952576
1761379463121342000,5.870342041015625,-0.055143117904663086,0.0028169602155685425,0.09618795663118362
1761379463131424000,5.880424072265625,-0.0695713683962822,0.013597979210317135,0.08812352269887924
1761379463141506000,5.890506103515625,-0.07901280373334885,0.03381536900997162,0.111528180539608
1761379463151588900,5.9005888671875,-0.09089405834674835,0.02851213328540325,0.1812848150730133
1761379463161671000,5.9106708984375,-0.08466678857803345,0.01241039577871561,0.25112250447273254
1761379463171753000,5.9207529296875,-0.0690276175737381,-0.0002130633220076561,0.251923531293869
1761379463181835000,5.9308349609375,-0.051936518400907516,0.006779599003493786,0.18594475090503693
1761379463191917000,5.9409169921875,-0.038330238312482834,0.01020303089171648,0.09799012541770935
1761379463202000000,5.950999755859375,-0.022517720237374306,0.01756906881928444,0.004151516128331423
1761379463212082000,5.96108203125,-0.0147474380210042,0.045287568122148514,-0.060188595205545425
1761379463222164000,5.9711640625,-0.0018681250512599945,0.04636615142226219,-0.07649379968643188
1761379463232246000,5.98124609375,0.012895491905510426,0.03304480016231537,-0.044513363391160965
1761379463242328800,5.991328857421875,0.020675916224718094,0.02011062577366829,-0.009191060438752174
1761379463252411000,6.001410888671875,0.02424539066851139,0.00470129307359457,0.018673382699489594
1761379463262493000,6.011492919921875,0.02093694917857647,-0.011460898444056511,0.029947875067591667
1761379463272575000,6.021574951171875,0.018096227198839188,-0.012741449289023876,0.007917056791484356
1761379463282657000,6.031656982421875,0.00947983656078577,-0.009402911178767681,-0.01905517280101776
1761379463292739800,6.04173974609375,0.0037087900564074516,-0.002969464287161827,-0.026602724567055702
1761379463302822000,6.05182177734375,0.0011753244325518608,-0.022869136184453964,-0.00824129581451416
1761379463312904000,6.061904052734375,-0.0014389920979738235,-0.039113856852054596,0.004205858800560236
1761379463322986000,6.071986083984375,0.0038148928433656693,-0.038208916783332825,-0.014569692313671112
1761379463333067800,6.08206787109375,0.0074966782703995705,-0.03467274457216263,-0.05042735114693642
1761379463343150800,6.09215087890625,0.010275154374539852,-0.03046947531402111,-0.07924621552228928
1761379463353233000,6.10223291015625,0.013109696097671986,-0.021419692784547806,-0.0904163345694542
1761379463363315000,6.11231494140625,0.019954819232225418,-0.017687272280454636,-0.08524927496910095
1761379463373397000,6.12239697265625,0.029349617660045624,-0.015593461692333221,-0.0709095373749733
1761379463383479800,6.132479736328125,0.02498656138777733,-0.015928754583001137,-0.0421585850417614
1761379463393561900,6.142561767578125,0.01669275388121605,-0.02796671912074089,0.0033228930551558733
1761379463403644000,6.152643798828125,0.018590521067380905,-0.030645325779914856,0.02952866442501545
1761379463413726000,6.162725830078125,0.01771499402821064,-0.029697351157665253,0.02879413589835167
1761379463423807700,6.172807861328125,0.018280381336808205,-0.019106494262814522,0.016900990158319473
1761379463433890800,6.182890869140625,0.0130494749173522,-0.007105434313416481,0.004196661524474621
1761379463443972900,6.192972900390625,0.012481688521802425,-0.0017993524670600891,-0.016863349825143814
1761379463454055000,6.203054931640625,0.015670249238610268,-0.0030865510925650597,-0.02477848529815674
1761379463464137000,6.213136962890625,0.019287889823317528,-0.020135309547185898,-0.03995770588517189
1761379463474218800,6.22321875,0.018842021003365517,-0.014122969470918179,-0.06428958475589752
1761379463484301800,6.2333017578125,0.013780683279037476,-0.01783008873462677,-0.08309789001941681
1761379463494383900,6.2433837890625,0.009504756890237331,-0.01829843968153,-0.09575887024402618
1761379463504466000,6.2534658203125,0.003929962404072285,-0.028042413294315338,-0.11182598769664764
1761379463514547700,6.263547607421875,-0.004042318090796471,-0.025651291012763977,-0.13226619362831116
1761379463524630800,6.273630859375,-0.0068170661106705666,-0.024495478719472885,-0.13624629378318787
1761379463534712800,6.283712890625,-0.0025250185281038284,-0.02901635691523552,-0.10960469394922256
1761379463544795000,6.293794921875,-0.0033828234300017357,-0.026391811668872833,-0.07412739843130112
1761379463554877000,6.303876953125,-0.01613588258624077,-0.014499261975288391,-0.04334338381886482
1761379463564958700,6.313958740234375,-0.02944023720920086,0.009052403271198273,-0.032818038016557693
1761379463575042000,6.3240419921875,-0.03863099589943886,0.029956147074699402,-0.03713180869817734
1761379463585124000,6.3341240234375,-0.03913939371705055,0.035436131060123444,-0.05199304595589638
1761379463595206000,6.344205810546875,-0.037481267005205154,0.02396705374121666,-0.062084611505270004
1761379463605287700,6.35428759765625,-0.03696354851126671,0.009299960918724537,-0.04976296424865723
1761379463615369700,6.36436962890625,-0.035528071224689484,0.0027382713742554188,-0.03226609528064728
1761379463625453000,6.374453125,-0.03473471850156784,0.005563352257013321,-0.011594104580581188
1761379463635535000,6.38453515625,-0.026515617966651917,-0.012743208557367325,0.0013556864578276873
1761379463645617000,6.394616943359375,-0.00842449814081192,-0.03081568516790867,0.00023769144900143147
1761379463655699000,6.404698974609375,0.008127552457153797,-0.040141500532627106,-0.02581367827951908
1761379463665782000,6.414781982421875,0.024389877915382385,-0.04630245640873909,-0.053220268338918686
1761379463675864000,6.424864013671875,0.03949800878763199,-0.04804396629333496,-0.07289250195026398
1761379463685946000,6.434946044921875,0.05619523301720619,-0.053486935794353485,-0.07193642854690552
1761379463696028000,6.44502783203125,0.05533647537231445,-0.04447464644908905,-0.05756710469722748
1761379463706110000,6.45510986328125,0.049824804067611694,-0.036320045590400696,-0.04373118281364441
1761379463716193000,6.465193115234375,0.04308173060417175,-0.03132341057062149,-0.04624477028846741
1761379463726275000,6.475275146484375,0.03601955622434616,-0.03048264980316162,-0.05626091733574867
1761379463736356900,6.48535693359375,0.025674745440483093,-0.024264663457870483,-0.07255073636770248
1761379463746439000,6.49543896484375,0.01836356893181801,-0.020249150693416595,-0.08592886477708817
1761379463756521000,6.50552099609375,0.0009556468576192856,-0.003962589427828789,-0.08525213599205017
1761379463766604000,6.51560400390625,-0.00585911562666297,0.003949928563088179,-0.05244918167591095
1761379463776686000,6.52568603515625,-0.013335322961211205,0.00300805177539587,-0.008867276832461357
1761379463786768000,6.535767822265625,-0.014823763631284237,0.007786029018461704,0.030018869787454605
1761379463796850000,6.545849853515625,-0.028675034642219543,0.02170194685459137,0.025954479351639748
1761379463806932000,6.555931884765625,-0.02389652468264103,0.020338140428066254,0.01212788000702858
1761379463817015000,6.56601513671875,-0.022507144138216972,0.01754850149154663,0.004858837928622961
1761379463827096800,6.576096923828125,-0.030289433896541595,0.02819901518523693,-0.01138191670179367
1761379463837179000,6.586178955078125,-0.032943762838840485,0.01440286822617054,-0.02081168070435524
1761379463847261000,6.596260986328125,-0.033493440598249435,-0.006903486326336861,-0.026424294337630272
1761379463857343000,6.606343017578125,-0.0296517014503479,-0.023340709507465363,-0.03174856677651405
1761379463867425800,6.61642578125,-0.02821199595928192,-0.0355992391705513,-0.04263956472277641
1761379463877507800,6.6265078125,-0.02769501321017742,-0.049788959324359894,-0.06410857290029526
1761379463887590000,6.63658984375,-0.02119370549917221,-0.04982011765241623,-0.07935250550508499
1761379463897672000,6.646671875,-0.018549585714936256,-0.04804972931742668,-0.0875542163848877
1761379463907755000,6.656755126953125,-0.019512318074703217,-0.039411768317222595,-0.0618099719285965
1761379463917836800,6.6668369140625,-0.02345403842628002,-0.03115985170006752,-0.02605607733130455
1761379463927918800,6.6769189453125,-0.03078172542154789,-0.025840453803539276,-0.003506558947265148
1761379463938001000,6.6870009765625,-0.0377187579870224,-0.022486962378025055,-0.001820510602556169
1761379463948083000,6.6970830078125,-0.04279554262757301,-0.009860116057097912,-0.02443101443350315
1761379463958165800,6.707165771484375,-0.03378273546695709,-0.005116296000778675,-0.0418970100581646
1761379463968247800,6.717247802734375,-0.024419058114290237,-0.01203092746436596,-0.03848470002412796
1761379463978329900,6.727329833984375,-0.024533743038773537,-0.011826125904917717,-0.018664106726646423
1761379463988412000,6.737411865234375,-0.029811862856149673,-0.016618482768535614,-0.008241560310125351
1761379463998494000,6.747493896484375,-0.03077923133969307,-0.04481073468923569,-0.013897387310862541
1761379464008576800,6.75757666015625,-0.03312494605779648,-0.061209678649902344,-0.03465033695101738
1761379464018662000,6.767661865234375,-0.02782685123383999,-0.06690378487110138,-0.048451900482177734
1761379464028744000,6.777743896484375,-0.02044377103447914,-0.08565643429756165,-0.03946559876203537
1761379464038826000,6.787825927734375,-0.014105670154094696,-0.10224474221467972,-0.023256953805685043
1761379464048908000,6.797907958984375,-0.008869096636772156,-0.1098848208785057,-0.021209781989455223
1761379464058990800,6.807990966796875,-0.00836925208568573,-0.11972490698099136,-0.021981356665492058
1761379464069073000,6.818072998046875,-0.00969151221215725,-0.10327135771512985,0.042662616819143295
1761379464079155000,6.828155029296875,-0.010827846825122833,-0.0702800452709198,0.03972025588154793
1761379464089237000,6.838237060546875,-0.013697669841349125,0.014376788400113583,0.03676334768533707
1761379464099319800,6.84831982421875,-0.016256434842944145,0.055813178420066833,0.0640876516699791
1761379464109401900,6.85840185546875,-0.019331587478518486,0.044335752725601196,0.10694003850221634
1761379464119484000,6.86848388671875,-0.014087784104049206,0.03679605573415756,0.11533203721046448
1761379464129566000,6.87856591796875,-0.003365098498761654,0.02444325014948845,0.0932813286781311
1761379464139648000,6.88864794921875,0.008891589008271694,0.017186984419822693,0.05324801057577133
1761379464149730800,6.898730712890625,0.030603010207414627,0.010665968991816044,0.0010122342500835657
1761379464159812900,6.908812744140625,0.07137148082256317,-0.026553835719823837,-0.03293987363576889
1761379464169895000,6.91889501953125,0.11130718141794205,-0.07541591674089432,-0.05993899703025818
1761379464179977000,6.92897705078125,0.13728033006191254,-0.10596573352813721,-0.10037454962730408
1761379464190059000,6.93905908203125,0.1420750916004181,-0.10947230458259583,-0.1470557600259781
1761379464200141800,6.949141845703125,0.14745992422103882,-0.11446259915828705,-0.20252355933189392
1761379464210223900,6.959223876953125,0.14802637696266174,-0.11506633460521698,-0.2798881232738495
