time,seconds_elapsed,z,y,x
1761378829281993200,0.0659931640625,-0.0655975341796875,-0.9913177490234375,-0.0274505615234375
1761378829292048000,0.0760478515625,-0.056304931640625,-1.0031280517578125,-0.023284912109375
1761378829302104000,0.08610400390625,-0.050323486328125,-1.005950927734375,-0.0257110595703125
1761378829312160000,0.096159912109375,-0.0592041015625,-1.00347900390625,-0.0316619873046875
1761378829322216000,0.1062158203125,-0.062591552734375,-1.002593994140625,-0.0348052978515625
1761378829332272000,0.116272216796875,-0.0719146728515625,-0.99493408203125,-0.035064697265625
1761378829342327000,0.1263271484375,-0.0751495361328125,-0.995635986328125,-0.0331268310546875
1761378829352383200,0.13638330078125,-0.07305908203125,-1.0029754638671875,-0.02593994140625
1761378829362439000,0.14643896484375,-0.067962646484375,-0.9924468994140625,-0.02294921875
1761378829372494800,0.156494873046875,-0.06396484375,-0.98236083984375,-0.0247650146484375
1761378829382550000,0.166550048828125,-0.055023193359375,-0.9879302978515625,-0.0236663818359375
1761378829392606000,0.17660595703125,-0.0494384765625,-0.99005126953125,-0.0283050537109375
1761378829402662100,0.186662109375,-0.046630859375,-0.98779296875,-0.0304412841796875
1761378829412718000,0.196718017578125,-0.052947998046875,-0.9898834228515625,-0.0297698974609375
1761378829422774000,0.20677392578125,-0.0699005126953125,-0.991302490234375,-0.02667236328125
1761378829432829200,0.2168291015625,-0.0824432373046875,-0.9890899658203125,-0.026153564453125
1761378829442884900,0.226884765625,-0.0814666748046875,-0.9883880615234375,-0.0252227783203125
1761378829452941000,0.236941162109375,-0.074005126953125,-0.986175537109375,-0.0269012451171875
1761378829462997000,0.2469970703125,-0.06341552734375,-0.9871063232421875,-0.028167724609375
1761378829473052000,0.257052001953125,-0.052276611328125,-0.9914703369140625,-0.0258636474609375
1761378829483108000,0.267108154296875,-0.04351806640625,-0.992919921875,-0.0252532958984375
1761378829493164000,0.2771640625,-0.0517578125,-0.991668701171875,-0.028289794921875
1761378829503220000,0.287219970703125,-0.0529022216796875,-0.996337890625,-0.02764892578125
1761378829513276200,0.297276123046875,-0.059478759765625,-0.99725341796875,-0.027587890625
1761378829523330800,0.307330810546875,-0.0685882568359375,-1.002288818359375,-0.0286712646484375
1761378829533387000,0.317386962890625,-0.0698394775390625,-1.0045013427734375,-0.0231170654296875
1761378829543443000,0.32744287109375,-0.0672607421875,-1.0021820068359375,-0.0206451416015625
1761378829553499000,0.337498779296875,-0.0630645751953125,-0.9976654052734375,-0.024200439453125
1761378829563554000,0.347553955078125,-0.0592803955078125,-1.0009765625,-0.0275421142578125
1761378829573610000,0.35760986328125,-0.062713623046875,-1.00482177734375,-0.030242919921875
1761378829583666200,0.367666259765625,-0.0690765380859375,-1.0075836181640625,-0.0355682373046875
1761378829593722000,0.37772216796875,-0.0716705322265625,-1.013427734375,-0.0333251953125
1761378829603778000,0.387778076171875,-0.073974609375,-1.0128631591796875,-0.0257110595703125
1761378829613833000,0.3978330078125,-0.070770263671875,-1.00872802734375,-0.0213623046875
1761378829623889000,0.407888916015625,-0.0622711181640625,-0.997100830078125,-0.018310546875
1761378829633945000,0.417945068359375,-0.048919677734375,-0.98345947265625,-0.0240478515625
1761378829644001000,0.4280009765625,-0.0457000732421875,-0.980865478515625,-0.0281219482421875
1761378829654056200,0.43805615234375,-0.049102783203125,-0.982940673828125,-0.0314788818359375
1761378829664112000,0.448112060546875,-0.0601959228515625,-0.978485107421875,-0.0339202880859375
1761378829674168000,0.45816796875,-0.0721435546875,-0.98388671875,-0.0332794189453125
1761378829684224300,0.468224365234375,-0.076904296875,-0.993896484375,-0.028961181640625
1761378829694279000,0.47827880859375,-0.0746917724609375,-0.9883880615234375,-0.0288238525390625
1761378829704334800,0.4883349609375,-0.05987548828125,-0.9853057861328125,-0.0315704345703125
1761378829714391000,0.49839111328125,-0.0502471923828125,-0.987457275390625,-0.031280517578125
1761378829724447000,0.508447021484375,-0.042938232421875,-0.9826812744140625,-0.0281219482421875
1761378829734503000,0.5185029296875,-0.0440216064453125,-0.9784698486328125,-0.0252532958984375
1761378829744557300,0.528557373046875,-0.0555877685546875,-0.9814605712890625,-0.0253753662109375
1761378829754613500,0.538613525390625,-0.071441650390625,-0.9908447265625,-0.0301513671875
1761378829764669400,0.54866943359375,-0.0921478271484375,-1.0052490234375,-0.0345306396484375
1761378829774725400,0.558725341796875,-0.10015869140625,-1.0141448974609375,-0.04095458984375
1761378829784780500,0.568780517578125,-0.09674072265625,-1.0141143798828125,-0.0379791259765625
1761378829794836500,0.57883642578125,-0.0856781005859375,-1.0162353515625,-0.0309600830078125
1761378829804892400,0.588892333984375,-0.070587158203125,-1.0216522216796875,-0.0267333984375
1761378829814948600,0.598948486328125,-0.0526580810546875,-1.019287109375,-0.0237884521484375
1761378829825004300,0.60900439453125,-0.0465240478515625,-1.008758544921875,-0.0256195068359375
1761378829835059500,0.6190595703125,-0.057586669921875,-1.00091552734375,-0.030609130859375
1761378829845115400,0.629115478515625,-0.0653228759765625,-0.9971160888671875,-0.031219482421875
1761378829855171300,0.63917138671875,-0.075836181640625,-0.99169921875,-0.03131103515625
1761378829865227500,0.6492275390625,-0.0729217529296875,-0.9873199462890625,-0.0299224853515625
1761378829875282400,0.659282470703125,-0.0638275146484375,-0.9838714599609375,-0.030914306640625
1761378829885338600,0.669338623046875,-0.0504150390625,-0.9784088134765625,-0.0316009521484375
1761378829895394600,0.67939453125,-0.04193115234375,-0.9770355224609375,-0.029144287109375
1761378829905450200,0.6894501953125,-0.0397796630859375,-0.978790283203125,-0.0281524658203125
1761378829915506400,0.69950634765625,-0.0438232421875,-0.9794464111328125,-0.02703857421875
1761378829925561300,0.709561279296875,-0.050689697265625,-0.9748077392578125,-0.029510498046875
1761378829935617500,0.719617431640625,-0.053863525390625,-0.978363037109375,-0.0337677001953125
1761378829945673500,0.729673583984375,-0.0648193359375,-0.9857635498046875,-0.03729248046875
1761378829955729400,0.7397294921875,-0.0774688720703125,-0.9931488037109375,-0.0360870361328125
1761378829965784600,0.74978466796875,-0.082275390625,-0.99822998046875,-0.0325164794921875
1761378829975840500,0.759840576171875,-0.0792999267578125,-0.99853515625,-0.026641845703125
1761378829985896400,0.769896484375,-0.0747528076171875,-0.9997711181640625,-0.0206146240234375
1761378829995952400,0.779952392578125,-0.0641021728515625,-1.0021209716796875,-0.016265869140625
1761378830006008300,0.79000830078125,-0.0545654296875,-1.00152587890625,-0.01605224609375
1761378830016063500,0.8000634765625,-0.0536651611328125,-1.002044677734375,-0.0192718505859375
1761378830026119400,0.810119384765625,-0.060577392578125,-0.99658203125,-0.0256805419921875
1761378830036175600,0.820175537109375,-0.063385009765625,-0.9896087646484375,-0.0334320068359375
1761378830046231600,0.8302314453125,-0.0701751708984375,-0.997039794921875,-0.03924560546875
1761378830056286200,0.8402861328125,-0.0794830322265625,-1.0072174072265625,-0.0424041748046875
1761378830066342400,0.85034228515625,-0.080841064453125,-1.0101776123046875,-0.038970947265625
1761378830076398300,0.8603984375,-0.0839691162109375,-1.0049896240234375,-0.03515625
1761378830086454300,0.870454345703125,-0.08074951171875,-1.00384521484375,-0.0305023193359375
1761378830096510500,0.880510498046875,-0.074127197265625,-1.0023651123046875,-0.0246124267578125
1761378830106565400,0.8905654296875,-0.0688323974609375,-0.9969940185546875,-0.0230560302734375
1761378830116621600,0.90062158203125,-0.058624267578125,-0.9928741455078125,-0.02587890625
1761378830126677500,0.910677490234375,-0.0520782470703125,-0.9891510009765625,-0.0329742431640625
1761378830136733400,0.9207333984375,-0.049346923828125,-0.9904327392578125,-0.0415191650390625
1761378830146788400,0.930788330078125,-0.0579071044921875,-0.9913177490234375,-0.0464935302734375
1761378830156844300,0.94084423828125,-0.06903076171875,-0.992523193359375,-0.04510498046875
1761378830166900500,0.950900390625,-0.0727691650390625,-0.9903564453125,-0.0425872802734375
1761378830176956400,0.960956298828125,-0.071563720703125,-0.986358642578125,-0.03814697265625
1761378830187011600,0.971011474609375,-0.0658416748046875,-0.9859161376953125,-0.0337066650390625
1761378830197067500,0.981067626953125,-0.05810546875,-0.99237060546875,-0.033447265625
1761378830207123500,0.99112353515625,-0.0513763427734375,-0.995025634765625,-0.0301055908203125
1761378830217179600,1.0011796875,-0.0521697998046875,-0.9890289306640625,-0.025665283203125
1761378830227235600,1.011235595703125,-0.05401611328125,-0.9875335693359375,-0.023834228515625
1761378830237290500,1.02129052734375,-0.05780029296875,-0.9918670654296875,-0.02606201171875
1761378830247346400,1.031346435546875,-0.0626983642578125,-0.999908447265625,-0.02777099609375
1761378830257402400,1.04140234375,-0.0733642578125,-1.0067138671875,-0.0279998779296875
1761378830267458600,1.05145849609375,-0.0783843994140625,-1.000640869140625,-0.0272979736328125
1761378830277514500,1.061514404296875,-0.07159423828125,-0.994171142578125,-0.030181884765625
1761378830287569400,1.0715693359375,-0.061859130859375,-0.9913177490234375,-0.03192138671875
1761378830297625600,1.08162548828125,-0.0532073974609375,-0.98980712890625,-0.035186767578125
1761378830307681500,1.091681640625,-0.052642822265625,-0.99322509765625,-0.034698486328125
1761378830317737200,1.1017373046875,-0.0561981201171875,-0.9954986572265625,-0.035858154296875
1761378830327792400,1.11179248046875,-0.060546875,-0.993743896484375,-0.034271240234375
1761378830337848300,1.121848388671875,-0.0674896240234375,-0.995086669921875,-0.0299835205078125
1761378830347904500,1.131904541015625,-0.0667572021484375,-0.99786376953125,-0.03009033203125
1761378830357960400,1.14196044921875,-0.074462890625,-0.996002197265625,-0.0322265625
1761378830368015600,1.152015625,-0.0743255615234375,-0.9999542236328125,-0.03375244140625
1761378830378071600,1.162071533203125,-0.072174072265625,-0.9956512451171875,-0.0342254638671875
1761378830388127500,1.17212744140625,-0.06787109375,-0.9972686767578125,-0.0346832275390625
1761378830398183400,1.182183349609375,-0.0596771240234375,-0.997894287109375,-0.0308837890625
1761378830408239400,1.1922392578125,-0.0485382080078125,-0.9940185546875,-0.0283355712890625
1761378830418294500,1.20229443359375,-0.04364013671875,-0.9949493408203125,-0.024627685546875
1761378830428350500,1.2123505859375,-0.0455780029296875,-0.9944915771484375,-0.02203369140625
1761378830438406400,1.222406494140625,-0.052520751953125,-0.9871826171875,-0.0179290771484375
1761378830448462600,1.232462646484375,-0.060211181640625,-0.9885711669921875,-0.0198211669921875
1761378830458517500,1.242517578125,-0.07049560546875,-0.994232177734375,-0.021942138671875
1761378830468573700,1.25257373046875,-0.0753631591796875,-0.99365234375,-0.0279998779296875
1761378830478629400,1.26262939453125,-0.070770263671875,-0.99066162109375,-0.030548095703125
1761378830488685300,1.272685302734375,-0.0602569580078125,-0.992706298828125,-0.0328216552734375
1761378830498741500,1.282741455078125,-0.056732177734375,-0.9954071044921875,-0.028594970703125
1761378830508796400,1.29279638671875,-0.0454864501953125,-0.9970855712890625,-0.0220184326171875
1761378830518852400,1.302852294921875,-0.0429840087890625,-0.99713134765625,-0.0220184326171875
1761378830528908500,1.312908447265625,-0.0588836669921875,-0.99981689453125,-0.026824951171875
1761378830538964500,1.322964599609375,-0.0685272216796875,-1.0007171630859375,-0.0283050537109375
1761378830549019400,1.333019287109375,-0.0754241943359375,-0.993194580078125,-0.0310516357421875
1761378830559075300,1.343075439453125,-0.0699310302734375,-0.995269775390625,-0.0344696044921875
1761378830569131300,1.35313134765625,-0.062103271484375,-0.9979095458984375,-0.03216552734375
1761378830579187500,1.3631875,-0.051055908203125,-0.9955291748046875,-0.029571533203125
1761378830589243400,1.373243408203125,-0.0503387451171875,-0.99591064453125,-0.0290679931640625
1761378830599298600,1.383298583984375,-0.05426025390625,-1.000701904296875,-0.02679443359375
1761378830609354500,1.3933544921875,-0.063629150390625,-1.0006256103515625,-0.02667236328125
1761378830619410400,1.403410400390625,-0.068084716796875,-0.9951629638671875,-0.0304718017578125
1761378830629466600,1.413466552734375,-0.0670166015625,-0.9930572509765625,-0.034088134765625
1761378830639521300,1.423521240234375,-0.065521240234375,-0.9885101318359375,-0.0345458984375
1761378830649577500,1.433577392578125,-0.0597686767578125,-0.9851226806640625,-0.0352630615234375
1761378830659633400,1.44363330078125,-0.050445556640625,-0.9829559326171875,-0.031890869140625
1761378830669689300,1.453689453125,-0.0550689697265625,-0.990203857421875,-0.03204345703125
1761378830679744500,1.46374462890625,-0.062591552734375,-0.9963531494140625,-0.0304412841796875
1761378830689800400,1.473800537109375,-0.0699005126953125,-0.992828369140625,-0.0242919921875
1761378830699856600,1.483856689453125,-0.0735931396484375,-0.9940948486328125,-0.022186279296875
1761378830709912600,1.49391259765625,-0.06640625,-0.998077392578125,-0.022796630859375
1761378830719968500,1.503968505859375,-0.055206298828125,-0.996063232421875,-0.0248870849609375
1761378830730023400,1.5140234375,-0.0423431396484375,-0.9966888427734375,-0.0266571044921875
1761378830740079900,1.524079833984375,-0.0425872802734375,-1.001556396484375,-0.0263671875
1761378830750135800,1.5341357421875,-0.0460205078125,-0.9996337890625,-0.025970458984375
1761378830760192000,1.54419189453125,-0.0528411865234375,-0.9969635009765625,-0.0278472900390625
1761378830770247000,1.554246826171875,-0.064788818359375,-0.9984588623046875,-0.031005859375
1761378830780303000,1.56430322265625,-0.0741424560546875,-1.000030517578125,-0.033233642578125
1761378830790359000,1.574359130859375,-0.073028564453125,-0.9989776611328125,-0.0343170166015625
1761378830800414700,1.584414794921875,-0.06512451171875,-0.99578857421875,-0.03546142578125
1761378830810470000,1.594469970703125,-0.0573577880859375,-0.9958953857421875,-0.03125
1761378830820525800,1.60452587890625,-0.0506134033203125,-0.994659423828125,-0.0283355712890625
1761378830830582000,1.61458203125,-0.0444183349609375,-0.9935150146484375,-0.030120849609375
1761378830840638000,1.624637939453125,-0.046844482421875,-0.9923248291015625,-0.0302276611328125
1761378830850694000,1.63469384765625,-0.0590057373046875,-0.99322509765625,-0.0286712646484375
1761378830860749000,1.6447490234375,-0.0664520263671875,-0.99298095703125,-0.0294342041015625
1761378830870805000,1.654804931640625,-0.0681610107421875,-0.993316650390625,-0.0328521728515625
1761378830880861000,1.66486083984375,-0.06951904296875,-0.993682861328125,-0.036834716796875
1761378830890916900,1.674916748046875,-0.064453125,-0.99835205078125,-0.0397796630859375
1761378830900971800,1.6849716796875,-0.061187744140625,-1.0025787353515625,-0.039215087890625
1761378830911028000,1.695028076171875,-0.057861328125,-1.0015411376953125,-0.0363311767578125
1761378830921084000,1.705083984375,-0.058349609375,-0.996917724609375,-0.0341949462890625
1761378830931139800,1.715139892578125,-0.0544891357421875,-0.9909210205078125,-0.0285797119140625
1761378830941195000,1.725195068359375,-0.049774169921875,-0.984771728515625,-0.0270843505859375
1761378830951250700,1.735250732421875,-0.04559326171875,-0.9797515869140625,-0.0262451171875
1761378830961307000,1.745306884765625,-0.0468597412109375,-0.9792327880859375,-0.0300750732421875
1761378830971362800,1.75536279296875,-0.0528564453125,-0.9815826416015625,-0.03179931640625
1761378830981418800,1.765418701171875,-0.06072998046875,-0.9845123291015625,-0.0292816162109375
1761378830991474000,1.775473876953125,-0.064422607421875,-0.9941558837890625,-0.0281219482421875
1761378831001529900,1.78552978515625,-0.0703125,-1.003875732421875,-0.0291595458984375
1761378831011586000,1.7955859375,-0.0740814208984375,-1.0059356689453125,-0.0302276611328125
1761378831021642000,1.80564208984375,-0.0715179443359375,-1.0052337646484375,-0.0297698974609375
1761378831031697000,1.81569677734375,-0.071136474609375,-1.0032501220703125,-0.0309295654296875
1761378831041752800,1.8257529296875,-0.0688323974609375,-1.002166748046875,-0.0310516357421875
1761378831051808800,1.835808837890625,-0.0569000244140625,-1.0020599365234375,-0.03155517578125
1761378831061865000,1.845864990234375,-0.054779052734375,-1.0006256103515625,-0.03521728515625
1761378831071921000,1.8559208984375,-0.0535430908203125,-1.000701904296875,-0.0336456298828125
1761378831081976000,1.86597607421875,-0.0543060302734375,-1.000640869140625,-0.0294189453125
1761378831092032000,1.876031982421875,-0.058929443359375,-1.0010833740234375,-0.026702880859375
1761378831102088000,1.886087890625,-0.0645904541015625,-1.00250244140625,-0.025482177734375
1761378831112144000,1.896143798828125,-0.0662841796875,-0.997161865234375,-0.0290679931640625
1761378831122198800,1.90619873046875,-0.06036376953125,-0.992523193359375,-0.032135009765625
1761378831132254700,1.916254638671875,-0.0560150146484375,-0.9940032958984375,-0.0355072021484375
1761378831142311000,1.926310791015625,-0.04962158203125,-0.9905548095703125,-0.036895751953125
1761378831152366800,1.936366943359375,-0.049835205078125,-0.98724365234375,-0.0351715087890625
1761378831162422000,1.946422119140625,-0.0565032958984375,-0.9888153076171875,-0.027099609375
1761378831172478000,1.95647802734375,-0.0625152587890625,-0.989044189453125,-0.0216522216796875
1761378831182534000,1.966533935546875,-0.069061279296875,-0.98822021484375,-0.0221099853515625
1761378831192590000,1.976590087890625,-0.0708770751953125,-0.9908599853515625,-0.0220489501953125
1761378831202644700,1.986644775390625,-0.068878173828125,-0.99114990234375,-0.0221099853515625
1761378831212701000,1.996700927734375,-0.06610107421875,-0.99188232421875,-0.027069091796875
1761378831222756900,2.0067568359375,-0.0616912841796875,-0.991058349609375,-0.0303802490234375
1761378831232812800,2.016812744140625,-0.0601654052734375,-0.987518310546875,-0.0325469970703125
1761378831242868000,2.026867919921875,-0.0613861083984375,-0.989837646484375,-0.0347442626953125
1761378831252924000,2.036923828125,-0.061798095703125,-0.9908447265625,-0.03143310546875
1761378831262980000,2.04697998046875,-0.0598907470703125,-0.9919586181640625,-0.03125
1761378831273036000,2.0570361328125,-0.0607452392578125,-0.996826171875,-0.029571533203125
1761378831283092000,2.067092041015625,-0.0621490478515625,-0.9979095458984375,-0.02728271484375
1761378831293147000,2.07714697265625,-0.06494140625,-1,-0.0280303955078125
1761378831303202800,2.087202880859375,-0.066925048828125,-0.9972686767578125,-0.0259857177734375
1761378831313259000,2.097259033203125,-0.0644989013671875,-0.992401123046875,-0.029205322265625
1761378831323315000,2.10731494140625,-0.059326171875,-0.9977874755859375,-0.0277099609375
1761378831333369900,2.117369873046875,-0.062286376953125,-1.0006561279296875,-0.024078369140625
1761378831343426000,2.127426025390625,-0.0602569580078125,-0.998443603515625,-0.0224151611328125
1761378831353482000,2.13748193359375,-0.059051513671875,-0.9984893798828125,-0.024261474609375
1761378831363538000,2.147537841796875,-0.0582427978515625,-1.0030975341796875,-0.02813720703125
1761378831373592800,2.1575927734375,-0.0639495849609375,-1.005584716796875,-0.033355712890625
1761378831383648800,2.167648681640625,-0.06658935546875,-1.0051422119140625,-0.0344696044921875
1761378831393705000,2.177705078125,-0.06976318359375,-1.006927490234375,-0.033203125
1761378831403761000,2.187760986328125,-0.076904296875,-1.0060577392578125,-0.032623291015625
1761378831413816000,2.197816162109375,-0.0733795166015625,-1.0027313232421875,-0.0310516357421875
1761378831423872000,2.2078720703125,-0.0676727294921875,-0.997467041015625,-0.0312347412109375
1761378831433928000,2.217927978515625,-0.0657501220703125,-0.9961395263671875,-0.0300445556640625
1761378831443984000,2.22798388671875,-0.0630035400390625,-0.9945220947265625,-0.0289306640625
1761378831454039800,2.238039794921875,-0.0588531494140625,-0.9882049560546875,-0.033416748046875
1761378831464095000,2.248094970703125,-0.06182861328125,-0.985748291015625,-0.0399169921875
1761378831474151000,2.25815087890625,-0.0649566650390625,-0.9874725341796875,-0.0392913818359375
1761378831484206800,2.268206787109375,-0.068756103515625,-0.98333740234375,-0.038330078125
1761378831494263000,2.278262939453125,-0.06805419921875,-0.9839630126953125,-0.0343475341796875
1761378831504318000,2.28831787109375,-0.072235107421875,-0.9916534423828125,-0.0255584716796875
1761378831514374100,2.2983740234375,-0.0735015869140625,-0.9942474365234375,-0.0175628662109375
1761378831524429800,2.308429931640625,-0.0717620849609375,-0.9946746826171875,-0.0177001953125
1761378831534485800,2.31848583984375,-0.0726318359375,-0.999908447265625,-0.0230865478515625
1761378831544541000,2.328541015625,-0.0758819580078125,-1.0041351318359375,-0.0322265625
1761378831554596900,2.338596923828125,-0.071563720703125,-0.99591064453125,-0.0402069091796875
1761378831564652800,2.34865283203125,-0.07220458984375,-0.9900360107421875,-0.0418853759765625
1761378831574709000,2.358708984375,-0.0672760009765625,-0.9930572509765625,-0.0362396240234375
1761378831584764000,2.368763916015625,-0.062744140625,-0.995758056640625,-0.0324859619140625
1761378831594820000,2.378820068359375,-0.061676025390625,-0.9958343505859375,-0.0278167724609375
1761378831604875800,2.388875732421875,-0.0658111572265625,-0.9937591552734375,-0.022613525390625
1761378831614931700,2.398931640625,-0.064300537109375,-0.9934539794921875,-0.0168914794921875
1761378831624987000,2.40898681640625,-0.06097412109375,-0.98736572265625,-0.016021728515625
1761378831635042800,2.419042724609375,-0.0540618896484375,-0.98504638671875,-0.023468017578125
1761378831645099000,2.42909912109375,-0.055389404296875,-0.985015869140625,-0.031890869140625
1761378831655155000,2.439155029296875,-0.0552978515625,-0.979644775390625,-0.039947509765625
1761378831665211000,2.4492109375,-0.05810546875,-0.9831695556640625,-0.04522705078125
1761378831675266000,2.45926611328125,-0.06292724609375,-0.9912261962890625,-0.041351318359375
1761378831685321700,2.46932177734375,-0.0694580078125,-0.9943695068359375,-0.035308837890625
1761378831695378000,2.4793779296875,-0.0723724365234375,-1.0020599365234375,-0.02685546875
1761378831705433900,2.489433837890625,-0.0687713623046875,-1.00628662109375,-0.01788330078125
1761378831715489000,2.499489013671875,-0.0647735595703125,-1.005462646484375,-0.0164031982421875
1761378831725545000,2.509544921875,-0.06072998046875,-0.998809814453125,-0.0231170654296875
1761378831735601000,2.519600830078125,-0.050811767578125,-0.9883880615234375,-0.037628173828125
1761378831745660700,2.52966064453125,-0.05279541015625,-0.98870849609375,-0.0478363037109375
1761378831755715800,2.5397158203125,-0.0565185546875,-0.994049072265625,-0.04547119140625
1761378831765771800,2.549771728515625,-0.0671234130859375,-0.998291015625,-0.041107177734375
1761378831775828000,2.559827880859375,-0.074432373046875,-0.9984130859375,-0.0340728759765625
1761378831785884000,2.5698837890625,-0.0750732421875,-0.997161865234375,-0.0295867919921875
1761378831795938800,2.579938720703125,-0.07305908203125,-0.9981842041015625,-0.02496337890625
1761378831805994800,2.589994873046875,-0.0625762939453125,-0.9966278076171875,-0.0230560302734375
1761378831816050700,2.60005078125,-0.054168701171875,-0.989471435546875,-0.0255126953125
1761378831826107000,2.61010693359375,-0.047821044921875,-0.984832763671875,-0.0304412841796875
1761378831836161800,2.620161865234375,-0.0501251220703125,-0.9846954345703125,-0.036712646484375
1761378831846218000,2.630218017578125,-0.0590972900390625,-0.9896697998046875,-0.0449371337890625
1761378831856274000,2.64027392578125,-0.075042724609375,-0.9911041259765625,-0.04473876953125
1761378831866329600,2.65032958984375,-0.08251953125,-0.9913177490234375,-0.036895751953125
1761378831876384800,2.660384765625,-0.0856475830078125,-0.9999542236328125,-0.0264739990234375
1761378831886440700,2.670440673828125,-0.0828704833984375,-1.0018310546875,-0.0163421630859375
1761378831896497000,2.680496826171875,-0.0750732421875,-0.9967041015625,-0.0151519775390625
1761378831906552800,2.690552734375,-0.0613555908203125,-0.9975738525390625,-0.0240325927734375
1761378831916607700,2.700607666015625,-0.0526580810546875,-1.0001068115234375,-0.031280517578125
1761378831926664000,2.710663818359375,-0.0557098388671875,-0.9973602294921875,-0.0339813232421875
1761378831936720000,2.720719970703125,-0.0628509521484375,-0.9966888427734375,-0.03680419921875
1761378831946775600,2.730775634765625,-0.0712890625,-0.99835205078125,-0.0381317138671875
1761378831956830700,2.740830810546875,-0.0831298828125,-0.9999237060546875,-0.0380401611328125
1761378831966886700,2.75088671875,-0.0849761962890625,-1.0024261474609375,-0.03387451171875
1761378831976942800,2.76094287109375,-0.07647705078125,-1.001220703125,-0.030181884765625
1761378831986998800,2.770998779296875,-0.06475830078125,-1.00067138671875,-0.0288848876953125
1761378831997054700,2.7810546875,-0.051239013671875,-0.997344970703125,-0.030364990234375
1761378832007110000,2.79110986328125,-0.0424957275390625,-0.9892425537109375,-0.0322113037109375
1761378832017165800,2.801165771484375,-0.04058837890625,-0.992431640625,-0.036651611328125
1761378832027221800,2.8112216796875,-0.0544586181640625,-0.9984893798828125,-0.0376129150390625
1761378832037277700,2.821277587890625,-0.0733184814453125,-0.99505615234375,-0.0370025634765625
1761378832047332900,2.831332763671875,-0.07928466796875,-0.9886016845703125,-0.034027099609375
1761378832057388800,2.841388916015625,-0.0847320556640625,-0.9869842529296875,-0.0323944091796875
1761378832067444700,2.85144482421875,-0.074737548828125,-0.990570068359375,-0.03021240234375
1761378832077501000,2.8615009765625,-0.0579376220703125,-0.9892730712890625,-0.03021240234375
1761378832087555800,2.871555908203125,-0.0527496337890625,-0.98760986328125,-0.0313568115234375
1761378832097611800,2.88161181640625,-0.052703857421875,-0.9957427978515625,-0.02783203125
1761378832107667700,2.891667724609375,-0.0585174560546875,-0.9965972900390625,-0.023284912109375
1761378832117723600,2.9017236328125,-0.067413330078125,-0.9945220947265625,-0.02264404296875
1761378832127778800,2.91177880859375,-0.07000732421875,-0.9982147216796875,-0.0230865478515625
1761378832137834800,2.921834716796875,-0.0703887939453125,-0.994049072265625,-0.028594970703125
1761378832147890700,2.931890625,-0.064178466796875,-0.991424560546875,-0.0384368896484375
1761378832157947000,2.94194677734375,-0.05804443359375,-0.9931182861328125,-0.042572021484375
1761378832168001800,2.952001708984375,-0.0588836669921875,-0.9974517822265625,-0.045623779296875
1761378832178057700,2.9620576171875,-0.0628814697265625,-1.0021514892578125,-0.044342041015625
1761378832188113700,2.97211376953125,-0.0698394775390625,-1.0088043212890625,-0.0349578857421875
1761378832198169600,2.982169677734375,-0.0742034912109375,-1.011993408203125,-0.03021240234375
1761378832208224800,2.992224853515625,-0.0749359130859375,-1.010467529296875,-0.0288238525390625
1761378832218280700,3.00228076171875,-0.0743560791015625,-1.004058837890625,-0.0268096923828125
1761378832228337000,3.0123369140625,-0.066558837890625,-0.9977569580078125,-0.029022216796875
1761378832238392800,3.022392822265625,-0.05987548828125,-0.996185302734375,-0.035736083984375
1761378832248448000,3.032447998046875,-0.052642822265625,-0.990692138671875,-0.0400238037109375
1761378832258503700,3.042503662109375,-0.0547332763671875,-0.9879302978515625,-0.0422515869140625
1761378832268559600,3.0525595703125,-0.0583648681640625,-0.9876861572265625,-0.0400238037109375
1761378832278615800,3.06261572265625,-0.0584869384765625,-0.9847564697265625,-0.036895751953125
1761378832288670700,3.072670654296875,-0.0570220947265625,-0.9847869873046875,-0.0350189208984375
1761378832298727000,3.082726806640625,-0.0591278076171875,-0.983245849609375,-0.0363006591796875
1761378832308782800,3.092782958984375,-0.060394287109375,-0.9819183349609375,-0.035552978515625
1761378832318838800,3.1028388671875,-0.0601348876953125,-0.980621337890625,-0.03521728515625
1761378832328894000,3.11289404296875,-0.0531463623046875,-0.9810791015625,-0.0421600341796875
1761378832338949600,3.12294970703125,-0.0495147705078125,-0.981353759765625,-0.0464935302734375
1761378832349005800,3.133005859375,-0.053619384765625,-0.98779296875,-0.0457916259765625
1761378832359061800,3.143061767578125,-0.0640869140625,-1.0012664794921875,-0.03875732421875
1761378832369116700,3.15311669921875,-0.0735931396484375,-1.009002685546875,-0.0278778076171875
1761378832379172900,3.1631728515625,-0.0781097412109375,-1.0115509033203125,-0.021942138671875
1761378832389228800,3.173228759765625,-0.0788726806640625,-1.013214111328125,-0.020904541015625
1761378832399284700,3.18328466796875,-0.0736541748046875,-1.0072479248046875,-0.0244293212890625
1761378832409339600,3.193339599609375,-0.0614776611328125,-1.0003509521484375,-0.036651611328125
1761378832419395600,3.2033955078125,-0.053192138671875,-0.9977569580078125,-0.0459442138671875
1761378832429451800,3.21345166015625,-0.0505218505859375,-0.9972686767578125,-0.0474395751953125
1761378832439507700,3.2235078125,-0.05157470703125,-0.999359130859375,-0.046356201171875
1761378832449563000,3.23356298828125,-0.0573577880859375,-1.00262451171875,-0.0417633056640625
1761378832459618800,3.243618896484375,-0.063262939453125,-1.0042877197265625,-0.034454345703125
1761378832469674800,3.2536748046875,-0.07183837890625,-1.0035858154296875,-0.0298309326171875
1761378832479731000,3.26373095703125,-0.070526123046875,-0.9996185302734375,-0.0301971435546875
1761378832489787000,3.273786865234375,-0.0664825439453125,-0.994049072265625,-0.0326995849609375
1761378832499841800,3.283841796875,-0.06353759765625,-0.98724365234375,-0.036529541015625
1761378832509897700,3.293897705078125,-0.0550994873046875,-0.985198974609375,-0.0393218994140625
1761378832519953700,3.30395361328125,-0.05255126953125,-0.9839935302734375,-0.041412353515625
1761378832530009900,3.314009765625,-0.0503082275390625,-0.9876251220703125,-0.0376129150390625
1761378832540064800,3.324064697265625,-0.0510711669921875,-0.9871978759765625,-0.032867431640625
1761378832550120700,3.33412060546875,-0.0526885986328125,-0.9832611083984375,-0.0303192138671875
1761378832560177000,3.344177001953125,-0.0532684326171875,-0.9854888916015625,-0.027923583984375
1761378832570232800,3.35423291015625,-0.05706787109375,-0.9879608154296875,-0.0278472900390625
1761378832580287700,3.364287841796875,-0.0603485107421875,-0.9925079345703125,-0.0320892333984375
1761378832590343700,3.37434375,-0.0672149658203125,-1.0029144287109375,-0.0345306396484375
1761378832600399600,3.384399658203125,-0.0751953125,-1.00927734375,-0.036376953125
1761378832610455800,3.394455810546875,-0.076690673828125,-1.0040283203125,-0.0327606201171875
1761378832620510700,3.4045107421875,-0.0686187744140625,-0.9961700439453125,-0.0352783203125
1761378832630567000,3.41456689453125,-0.0563201904296875,-0.99273681640625,-0.039306640625
1761378832640622800,3.424622802734375,-0.04412841796875,-0.9883880615234375,-0.04193115234375
1761378832650678800,3.4346787109375,-0.03619384765625,-0.982025146484375,-0.045623779296875
1761378832660733700,3.444733642578125,-0.038421630859375,-0.981231689453125,-0.04443359375
1761378832670789600,3.45478955078125,-0.0493011474609375,-0.99066162109375,-0.0417938232421875
1761378832680845800,3.464845703125,-0.058074951171875,-1.00115966796875,-0.039459228515625
1761378832690901800,3.47490185546875,-0.072296142578125,-1.0052337646484375,-0.0330047607421875
1761378832700957000,3.48495703125,-0.077972412109375,-1.0025787353515625,-0.0282745361328125
1761378832711012900,3.495012939453125,-0.0732421875,-1.00408935546875,-0.0314178466796875
1761378832721068800,3.50506884765625,-0.061798095703125,-1.001739501953125,-0.03369140625
1761378832731125000,3.515125,-0.0503387451171875,-0.9920196533203125,-0.0371856689453125
1761378832741176300,3.52517626953125,-0.0439300537109375,-0.98907470703125,-0.0399169921875
1761378832751232500,3.535232421875,-0.0497894287109375,-0.990325927734375,-0.0399322509765625
1761378832761288400,3.545288330078125,-0.0543365478515625,-0.9923553466796875,-0.0394744873046875
1761378832771344400,3.555344482421875,-0.0613861083984375,-0.99591064453125,-0.0399017333984375
1761378832781399600,3.565399658203125,-0.067901611328125,-0.9954071044921875,-0.0395355224609375
1761378832791455500,3.57545556640625,-0.06817626953125,-0.9895782470703125,-0.040191650390625
1761378832801511400,3.585511474609375,-0.0634918212890625,-0.9881134033203125,-0.0414886474609375
1761378832811567400,3.5955673828125,-0.054931640625,-0.987762451171875,-0.039886474609375
1761378832821622300,3.605622314453125,-0.0437469482421875,-0.9857025146484375,-0.0396575927734375
1761378832831678500,3.615678466796875,-0.042205810546875,-0.990081787109375,-0.037994384765625
1761378832841734400,3.625734375,-0.0511627197265625,-0.9962310791015625,-0.034698486328125
1761378832851790300,3.635790283203125,-0.0620574951171875,-1.0027008056640625,-0.03375244140625
1761378832861845500,3.645845458984375,-0.07574462890625,-1.0050506591796875,-0.03424072265625
1761378832871901400,3.6559013671875,-0.0832672119140625,-1.0009613037109375,-0.03369140625
1761378832881957400,3.665957275390625,-0.07525634765625,-1.0001678466796875,-0.0328521728515625
1761378832892013300,3.676013427734375,-0.0615081787109375,-1.0008697509765625,-0.0293121337890625
1761378832902068500,3.686068359375,-0.051910400390625,-0.9971466064453125,-0.0273590087890625
1761378832912124400,3.69612451171875,-0.0457000732421875,-1.000518798828125,-0.0282135009765625
1761378832922180400,3.706180419921875,-0.0425872802734375,-1.0020599365234375,-0.030517578125
1761378832932236500,3.716236572265625,-0.0465850830078125,-1.0006866455078125,-0.0338592529296875
1761378832942291500,3.72629150390625,-0.0543060302734375,-0.9977569580078125,-0.041168212890625
1761378832952347400,3.736347412109375,-0.0605316162109375,-0.9940948486328125,-0.04656982421875
1761378832962403300,3.7464033203125,-0.06024169921875,-0.99676513671875,-0.04791259765625
1761378832972459300,3.756459228515625,-0.0606231689453125,-0.998748779296875,-0.0461273193359375
1761378832982514400,3.766514404296875,-0.06060791015625,-0.998046875,-0.0448150634765625
1761378832992570400,3.7765703125,-0.05706787109375,-0.9976806640625,-0.0377349853515625
1761378833002626300,3.786626220703125,-0.05230712890625,-0.9908599853515625,-0.034759521484375
1761378833012682500,3.7966826171875,-0.0481414794921875,-0.988739013671875,-0.034515380859375
1761378833022737400,3.8067373046875,-0.050262451171875,-0.9896697998046875,-0.0301666259765625
1761378833032793600,3.816793701171875,-0.0479583740234375,-0.9818572998046875,-0.035308837890625
1761378833042849300,3.826849365234375,-0.0454559326171875,-0.9754638671875,-0.042816162109375
1761378833052905200,3.8369052734375,-0.054168701171875,-0.98895263671875,-0.04766845703125
1761378833062961400,3.84696142578125,-0.059112548828125,-1.0023651123046875,-0.0442047119140625
1761378833073016300,3.857016357421875,-0.0683746337890625,-1.0017242431640625,-0.0387725830078125
1761378833083072500,3.867072509765625,-0.0667572021484375,-1.0004119873046875,-0.036285400390625
1761378833093128400,3.87712841796875,-0.0628814697265625,-0.996063232421875,-0.0344696044921875
1761378833103184400,3.887184326171875,-0.0556640625,-0.9918365478515625,-0.0327606201171875
1761378833113239600,3.897239501953125,-0.0474090576171875,-0.995361328125,-0.0332489013671875
1761378833123295200,3.907295166015625,-0.05035400390625,-0.9945220947265625,-0.034698486328125
1761378833133351400,3.917351318359375,-0.05487060546875,-1.000457763671875,-0.0404815673828125
1761378833143407400,3.927407470703125,-0.063507080078125,-1.0039825439453125,-0.0386199951171875
1761378833153462500,3.937462646484375,-0.0680999755859375,-0.9991912841796875,-0.0379638671875
1761378833163518500,3.9475185546875,-0.066162109375,-0.997039794921875,-0.03680419921875
1761378833173574400,3.957574462890625,-0.059326171875,-0.9953155517578125,-0.032318115234375
1761378833183630600,3.967630615234375,-0.0479888916015625,-0.9893951416015625,-0.0326080322265625
1761378833193685200,3.977685302734375,-0.0407562255859375,-0.9870758056640625,-0.0372467041015625
1761378833203741400,3.987741455078125,-0.0384368896484375,-0.990631103515625,-0.03570556640625
1761378833213797400,3.99779736328125,-0.0438385009765625,-0.9957122802734375,-0.0320281982421875
1761378833223853300,4.007853271484375,-0.055419921875,-1.0057525634765625,-0.03021240234375
1761378833233908500,4.017908447265625,-0.0672607421875,-1.0133819580078125,-0.030364990234375
1761378833243964400,4.02796435546875,-0.0701751708984375,-1.0112762451171875,-0.03460693359375
1761378833254017300,4.038017333984375,-0.067779541015625,-1.00323486328125,-0.035430908203125
1761378833264073500,4.048073486328125,-0.0596923828125,-0.9975128173828125,-0.0364532470703125
1761378833274129400,4.05812939453125,-0.0474090576171875,-0.993621826171875,-0.037933349609375
1761378833284184600,4.0681845703125,-0.040557861328125,-0.991851806640625,-0.0388031005859375
1761378833294240500,4.078240478515625,-0.0397796630859375,-0.989776611328125,-0.04058837890625
1761378833304296400,4.08829638671875,-0.0408782958984375,-0.987640380859375,-0.040679931640625
1761378833314352600,4.0983525390625,-0.050567626953125,-0.9884033203125,-0.042724609375
1761378833324407300,4.1084072265625,-0.0599822998046875,-0.9902801513671875,-0.0410919189453125
1761378833334463200,4.118463134765625,-0.0619354248046875,-0.9919586181640625,-0.0406341552734375
1761378833344519400,4.12851953125,-0.06500244140625,-0.994415283203125,-0.041168212890625
1761378833354575400,4.138575439453125,-0.0612945556640625,-0.99053955078125,-0.040313720703125
1761378833364630500,4.148630615234375,-0.0533599853515625,-0.9856109619140625,-0.0401611328125
1761378833374686500,4.1586865234375,-0.0494384765625,-0.9848480224609375,-0.0392913818359375
1761378833384742400,4.168742431640625,-0.0458221435546875,-0.9876251220703125,-0.0331878662109375
1761378833394798600,4.178798583984375,-0.0439300537109375,-0.9916229248046875,-0.0308685302734375
1761378833404853200,4.188853271484375,-0.04962158203125,-0.993377685546875,-0.03076171875
1761378833414909400,4.198909423828125,-0.05413818359375,-0.99188232421875,-0.0319366455078125
1761378833424965400,4.20896533203125,-0.0592193603515625,-0.992919921875,-0.0350341796875
1761378833435021300,4.219021240234375,-0.0584259033203125,-0.9958038330078125,-0.03778076171875
1761378833445076500,4.229076416015625,-0.05712890625,-0.9962310791015625,-0.040008544921875
1761378833455132400,4.23913232421875,-0.050201416015625,-0.9947509765625,-0.0415802001953125
1761378833465188600,4.249188720703125,-0.0424652099609375,-0.994232177734375,-0.039215087890625
1761378833475244500,4.25924462890625,-0.04119873046875,-1.0009307861328125,-0.0369110107421875
1761378833485299500,4.269299560546875,-0.04412841796875,-1.0084686279296875,-0.0384521484375
1761378833495355400,4.27935546875,-0.0514068603515625,-1.0131683349609375,-0.0354156494140625
1761378833505411300,4.289411376953125,-0.0546875,-1.01214599609375,-0.028533935546875
1761378833515467500,4.299467529296875,-0.0596923828125,-1.0035400390625,-0.0308837890625
1761378833525523500,4.3095234375,-0.060333251953125,-0.9966888427734375,-0.037384033203125
1761378833535578400,4.319578369140625,-0.0585479736328125,-0.99468994140625,-0.0405120849609375
1761378833545634600,4.329634521484375,-0.0578765869140625,-0.99188232421875,-0.04315185546875
1761378833555690500,4.3396904296875,-0.0538482666015625,-0.98907470703125,-0.0467681884765625
1761378833565746400,4.349746337890625,-0.04876708984375,-0.9928131103515625,-0.04559326171875
1761378833575801300,4.35980126953125,-0.04620361328125,-0.9946441650390625,-0.040130615234375
1761378833585857300,4.369857177734375,-0.0463104248046875,-0.9937286376953125,-0.0326385498046875
1761378833595913500,4.37991357421875,-0.044281005859375,-0.992340087890625,-0.0281982421875
1761378833605969400,4.389969482421875,-0.048248291015625,-0.9838714599609375,-0.0264739990234375
1761378833616024600,4.400024658203125,-0.0521087646484375,-0.9825897216796875,-0.0284423828125
1761378833626080500,4.41008056640625,-0.0570526123046875,-0.9817657470703125,-0.0340728759765625
1761378833636136200,4.42013623046875,-0.0616302490234375,-0.9779815673828125,-0.0416412353515625
1761378833646192400,4.4301923828125,-0.0621795654296875,-0.9873199462890625,-0.0481414794921875
1761378833656250400,4.44025048828125,-0.0678558349609375,-0.9956817626953125,-0.049591064453125
1761378833666306600,4.450306640625,-0.061309814453125,-0.9959259033203125,-0.0412445068359375
1761378833676362500,4.460362548828125,-0.0535125732421875,-1.002777099609375,-0.032958984375
1761378833686418200,4.470418212890625,-0.0430145263671875,-1.00885009765625,-0.0291900634765625
1761378833696473300,4.480473388671875,-0.0350189208984375,-1.00311279296875,-0.031829833984375
1761378833706529300,4.490529296875,-0.036865234375,-0.9942779541015625,-0.033111572265625
1761378833716585500,4.50058544921875,-0.0394287109375,-0.9910888671875,-0.034942626953125
1761378833726641400,4.510641357421875,-0.0457916259765625,-0.9923858642578125,-0.0401458740234375
1761378833736696600,4.520696533203125,-0.056854248046875,-0.9925689697265625,-0.0434417724609375
1761378833746752500,4.53075244140625,-0.0601959228515625,-0.9977874755859375,-0.040130615234375
1761378833756808400,4.540808349609375,-0.0655975341796875,-1.0092926025390625,-0.037200927734375
1761378833766864400,4.550864501953125,-0.0652008056640625,-1.0133819580078125,-0.0355072021484375
1761378833776919300,4.560919189453125,-0.0590972900390625,-1.01104736328125,-0.0311126708984375
1761378833786975500,4.5709755859375,-0.050933837890625,-1.0053558349609375,-0.0268402099609375
1761378833797031400,4.581031494140625,-0.0405120849609375,-0.997222900390625,-0.0312957763671875
1761378833807087400,4.59108740234375,-0.0344085693359375,-0.9851226806640625,-0.0370025634765625
1761378833817143600,4.6011435546875,-0.0343017578125,-0.97930908203125,-0.0388641357421875
1761378833827198500,4.611198486328125,-0.0439300537109375,-0.98345947265625,-0.0403289794921875
1761378833837254400,4.62125439453125,-0.05804443359375,-0.98968505859375,-0.0372161865234375
1761378833847310300,4.631310302734375,-0.070770263671875,-0.9948272705078125,-0.033721923828125
1761378833857366300,4.6413662109375,-0.0692901611328125,-0.9958953857421875,-0.0327301025390625
1761378833867421400,4.65142138671875,-0.065185546875,-0.9981231689453125,-0.0351715087890625
1761378833877477400,4.661477294921875,-0.05621337890625,-0.9980010986328125,-0.0379180908203125
1761378833887533300,4.671533203125,-0.047821044921875,-0.99603271484375,-0.0433197021484375
1761378833897589500,4.681589599609375,-0.0431976318359375,-0.994049072265625,-0.045623779296875
1761378833907644400,4.69164453125,-0.0449676513671875,-0.992462158203125,-0.04296875
1761378833917700400,4.701700439453125,-0.04632568359375,-0.990509033203125,-0.0382843017578125
1761378833927756300,4.71175634765625,-0.0465087890625,-0.99078369140625,-0.0346221923828125
1761378833937812200,4.721812255859375,-0.051483154296875,-0.9932403564453125,-0.03192138671875
1761378833947867400,4.731867431640625,-0.0532684326171875,-0.9956512451171875,-0.0295562744140625
1761378833957923300,4.74192333984375,-0.0553741455078125,-0.9984588623046875,-0.029815673828125
1761378833967979500,4.7519794921875,-0.0541534423828125,-1.0020904541015625,-0.0283966064453125
1761378833978035500,4.762035400390625,-0.0502471923828125,-0.9990692138671875,-0.030120849609375
1761378833988091400,4.77209130859375,-0.0470123291015625,-0.99566650390625,-0.0354156494140625
1761378833998146300,4.782146240234375,-0.040496826171875,-0.9936370849609375,-0.0380401611328125
1761378834008202200,4.7922021484375,-0.04083251953125,-0.997528076171875,-0.036407470703125
1761378834018258400,4.802258544921875,-0.0455474853515625,-0.9989166259765625,-0.0341339111328125
1761378834028314400,4.812314453125,-0.0576934814453125,-0.99566650390625,-0.0337371826171875
1761378834038369500,4.82236962890625,-0.0602874755859375,-0.9947509765625,-0.031341552734375
1761378834048425500,4.832425537109375,-0.059356689453125,-0.990142822265625,-0.0312347412109375
1761378834058481400,4.8424814453125,-0.0525970458984375,-0.9887237548828125,-0.033905029296875
1761378834068537600,4.85253759765625,-0.0460357666015625,-0.9921875,-0.036376953125
1761378834078592300,4.86259228515625,-0.0440216064453125,-0.995880126953125,-0.0413360595703125
1761378834088648200,4.872648193359375,-0.045989990234375,-0.9979400634765625,-0.0416259765625
1761378834098704400,4.882704345703125,-0.05255126953125,-0.9981842041015625,-0.0419769287109375
1761378834108760300,4.89276025390625,-0.0569305419921875,-1.0018157958984375,-0.041046142578125
1761378834118815500,4.9028154296875,-0.0598907470703125,-1.0030364990234375,-0.036834716796875
1761378834128871400,4.912871337890625,-0.0615234375,-0.9999237060546875,-0.028717041015625
1761378834138927400,4.92292724609375,-0.061614990234375,-0.9999542236328125,-0.025390625
1761378834148983600,4.932983642578125,-0.0573272705078125,-1.00439453125,-0.025665283203125
1761378834159039500,4.94303955078125,-0.052459716796875,-1.0006103515625,-0.030548095703125
1761378834169094400,4.953094482421875,-0.04888916015625,-0.99322509765625,-0.035552978515625
1761378834179150300,4.963150390625,-0.040435791015625,-0.98760986328125,-0.036895751953125
1761378834189206300,4.973206298828125,-0.0354766845703125,-0.98138427734375,-0.0366363525390625
1761378834199262500,4.983262451171875,-0.03533935546875,-0.98541259765625,-0.039306640625
1761378834209317400,4.9933173828125,-0.0403289794921875,-0.991241455078125,-0.0360260009765625
1761378834219373600,5.00337353515625,-0.05389404296875,-0.9913177490234375,-0.0334014892578125
1761378834229429500,5.013429443359375,-0.055755615234375,-0.9981536865234375,-0.037445068359375
1761378834239485400,5.0234853515625,-0.0616302490234375,-1.0082244873046875,-0.0345916748046875
1761378834249540400,5.033540283203125,-0.06231689453125,-1.0073699951171875,-0.029693603515625
1761378834259596300,5.04359619140625,-0.053192138671875,-1,-0.0295562744140625
1761378834269652500,5.053652587890625,-0.041229248046875,-0.9955596923828125,-0.0319976806640625
1761378834279708400,5.06370849609375,-0.0345916748046875,-0.993682861328125,-0.0362701416015625
1761378834289764400,5.073764404296875,-0.0344085693359375,-0.98779296875,-0.03955078125
1761378834299819500,5.083819580078125,-0.036102294921875,-0.981597900390625,-0.0372772216796875
1761378834309875500,5.09387548828125,-0.03692626953125,-0.9824676513671875,-0.0387420654296875
1761378834319931400,5.103931396484375,-0.0422515869140625,-0.98992919921875,-0.040985107421875
1761378834329987600,5.113987548828125,-0.0526580810546875,-0.995880126953125,-0.0406951904296875
1761378834340042200,5.124042236328125,-0.0562591552734375,-1.0012664794921875,-0.037261962890625
1761378834350098400,5.134098388671875,-0.0579071044921875,-1.006866455078125,-0.037017822265625
1761378834360154400,5.144154296875,-0.053680419921875,-1.00848388671875,-0.0345611572265625
1761378834370210300,5.154210205078125,-0.0478057861328125,-1.0081024169921875,-0.0305023193359375
1761378834380265500,5.164265380859375,-0.04595947265625,-1.0054473876953125,-0.0312652587890625
1761378834390321400,5.1743212890625,-0.047088623046875,-1.00201416015625,-0.0347137451171875
1761378834400377600,5.184377685546875,-0.051483154296875,-0.999298095703125,-0.0391387939453125
1761378834410433300,5.194433349609375,-0.0589599609375,-0.9939727783203125,-0.0381011962890625
1761378834420488400,5.204488525390625,-0.038970947265625,-0.9842071533203125,-0.0373687744140625
1761378834430544400,5.21454443359375,-0.0469818115234375,-0.976837158203125,-0.026611328125
1761378834440600300,5.224600341796875,-0.0414581298828125,-0.9925537109375,-0.0195465087890625
1761378834450656500,5.234656494140625,-0.0316162109375,-0.9990386962890625,-0.0278778076171875
1761378834460712400,5.24471240234375,-0.0329742431640625,-0.9906005859375,-0.0387725830078125
1761378834470767600,5.254767578125,-0.0392608642578125,-0.9907684326171875,-0.042144775390625
1761378834480823600,5.264823486328125,-0.0483551025390625,-0.9945831298828125,-0.046051025390625
1761378834490879200,5.274879150390625,-0.051544189453125,-0.993255615234375,-0.048370361328125
1761378834500935400,5.284935302734375,-0.0509033203125,-0.9921417236328125,-0.04498291015625
1761378834510990300,5.294990234375,-0.0449371337890625,-0.9915924072265625,-0.04248046875
1761378834521046500,5.305046630859375,-0.03497314453125,-0.9897613525390625,-0.036712646484375
1761378834531102500,5.3151025390625,-0.0296783447265625,-0.992645263671875,-0.028594970703125
1761378834541158400,5.325158447265625,-0.0375518798828125,-0.99273681640625,-0.0227508544921875
1761378834551214300,5.33521435546875,-0.0547637939453125,-0.9967193603515625,-0.02392578125
