time,seconds_elapsed,z,y,x
1761378829287020800,0.071020751953125,0.01167476549744606,-0.04857952147722244,0.024334101006388664
1761378829297076000,0.081075927734375,0.020839501172304153,-0.03164181485772133,0.0038155107758939266
1761378829307132000,0.0911318359375,0.02321717143058777,-0.020364927127957344,-0.010930146090686321
1761378829317188000,0.10118798828125,0.021952170878648758,0.005621666554361582,-0.002430933527648449
1761378829327244000,0.111244140625,0.013976269401609898,0.015478558838367462,0.018219750374555588
1761378829337299200,0.12129931640625,0.0054328483529388905,0.012411662377417088,0.03824964910745621
1761378829347355100,0.131355224609375,0.009909356012940407,0.00487278588116169,0.04728629067540169
1761378829357411000,0.1414111328125,0.008846222423017025,-0.008343949913978577,0.054609715938568115
1761378829367467000,0.151467041015625,0.007237939164042473,-0.026447853073477745,0.049922820180654526
1761378829377523000,0.16152294921875,0.00977353472262621,-0.03217924013733864,0.02665025368332863
1761378829387578000,0.171578125,0.005014998838305473,-0.02624678425490856,-0.0037020600866526365
1761378829397634000,0.181634033203125,0.006208893842995167,-0.01344683300703764,-0.030668163672089577
1761378829407690000,0.19168994140625,0.009375392459332943,0.00037683729897253215,-0.04499597102403641
1761378829417746200,0.20174609375,0.00041039311327040195,-0.0004884237423539162,-0.04493871331214905
1761378829427801000,0.211801025390625,-0.004535629414021969,-0.003442668356001377,-0.02316390909254551
1761378829437857000,0.22185693359375,0.0007965514669194818,-0.0073599121533334255,0.004794755019247532
1761378829447913000,0.231912841796875,0.0035507925786077976,-0.007015299052000046,0.028851887211203575
1761378829457969000,0.241968994140625,0.0011531487107276917,-0.01769670471549034,0.03110918402671814
1761378829468024000,0.252024169921875,0.0034642398823052645,-0.020656010136008263,0.007192665245383978
1761378829478080000,0.262080078125,0.000639424950350076,-0.010881409980356693,-0.02292182669043541
1761378829488136000,0.272135986328125,-0.005654956214129925,-0.022547652944922447,-0.051607001572847366
1761378829498192100,0.282192138671875,-0.002502306131646037,-0.010550911538302898,-0.057678211480379105
1761378829508248000,0.292248046875,-0.00914636068046093,0.003999801818281412,-0.04788576811552048
1761378829518303000,0.302302978515625,-0.01028512790799141,0.009852897375822067,-0.03434519097208977
1761378829528359000,0.31235888671875,0.0010831075487658381,0.013645504601299763,-0.008955411612987518
1761378829538414800,0.322414794921875,0.011263573542237282,0.014721421524882317,0.012116583995521069
1761378829548471000,0.332470947265625,0.013039901852607727,0.00612260727211833,0.01769111305475235
1761378829558527000,0.34252685546875,0.01230726670473814,0.0027475832030177116,0.008075769990682602
1761378829568582100,0.35258203125,-0.002414954360574484,0.0020698087755590677,-0.010200971737504005
1761378829578638000,0.36263818359375,-0.02582414075732231,0.0019952403381466866,-0.013220996595919132
1761378829588694000,0.372694091796875,-0.03290042653679848,0.008197476156055927,0.004022438544780016
1761378829598750200,0.382750244140625,-0.025477396324276924,0.0076209018006920815,0.03177604079246521
1761378829608804900,0.392804931640625,-0.0034820830915123224,0.0012061456218361855,0.05329731106758118
1761378829618861000,0.402861083984375,0.01133760903030634,-0.0032738239970058203,0.059049736708402634
1761378829628917000,0.4129169921875,0.023785224184393883,0.006332997232675552,0.0426795519888401
1761378829638973000,0.422972900390625,0.02857252210378647,0.007862450554966927,0.010731739923357964
1761378829649028000,0.433028076171875,0.02333648130297661,0.015573632903397083,-0.01561411377042532
1761378829659084000,0.443083984375,0.007035805378109217,0.015361911617219448,-0.023021962493658066
1761378829669140200,0.45314013671875,-0.008418518118560314,0.003993676509708166,-0.014702779240906239
1761378829679196200,0.463196044921875,-0.004084490239620209,-0.00016245282313320786,0.00461579067632556
1761378829689252000,0.473252197265625,-0.008820123039186,-0.006859504152089357,0.01913481205701828
1761378829699307000,0.48330712890625,-0.014161624945700169,0.004002464935183525,0.020912738516926765
1761378829709363000,0.493363037109375,-0.01088780164718628,0.014654843136668205,-0.0004945489927195013
1761378829719419000,0.5034189453125,-0.0012330436147749424,0.01888527348637581,-0.030960045754909515
1761378829729475000,0.51347509765625,0.014034059830009937,0.011144263669848442,-0.06832419335842133
1761378829739529500,0.523529541015625,0.02136600948870182,-0.012411928735673428,-0.09461705386638641
1761378829749585400,0.53358544921875,0.009260343387722969,-0.01443886011838913,-0.09724771976470947
1761378829759641300,0.543641357421875,-0.020231502130627632,-0.00893756840378046,-0.06916016340255737
1761378829769697500,0.553697509765625,-0.03284396603703499,0.003096190979704261,-0.00726510351523757
1761378829779753500,0.56375341796875,-0.04075062647461891,0.012855078093707561,0.055873651057481766
1761378829789808400,0.573808349609375,-0.03003193438053131,0.02262781374156475,0.08913200348615646
1761378829799864600,0.583864501953125,-0.013260145671665668,0.019448531791567802,0.08540091663599014
1761378829809920500,0.59392041015625,0.010033193044364452,0.019687417894601822,0.06228175014257431
1761378829819976400,0.6039765625,0.02177240699529648,0.023743413388729095,0.029323266819119453
1761378829830031400,0.61403125,0.01522848755121231,0.019155584275722504,0.01239168830215931
1761378829840087300,0.62408740234375,0.005857090000063181,0.0219122227281332,0.0168484877794981
1761378829850143500,0.6341435546875,-0.0033566481433808804,0.011351457796990871,0.04206622764468193
1761378829860199400,0.644199462890625,-0.015181083232164383,0.005232844967395067,0.06616650521755219
1761378829870255400,0.65425537109375,-0.017906561493873596,0.0035366779193282127,0.08098272979259491
1761378829880310500,0.664310546875,-0.017589112743735313,0.0019036275334656239,0.07052716612815857
1761378829890366500,0.674366455078125,-0.01605992577970028,-0.0038663772866129875,0.03448846936225891
1761378829900422400,0.68442236328125,-0.014304903335869312,-0.01110245194286108,-0.01314989011734724
1761378829910478300,0.694478271484375,-0.004805674310773611,-0.01660001650452614,-0.046610645949840546
1761378829920533500,0.704533447265625,0.0011137339752167463,-0.013963219709694386,-0.06505490094423294
1761378829930589400,0.71458935546875,-0.0010341054294258356,0.007377754896879196,-0.07000598311424255
1761378829940645400,0.724645263671875,-0.014326474629342556,0.03111264482140541,-0.06692763417959213
1761378829950701600,0.73470166015625,-0.025317341089248657,0.04367717355489731,-0.045580003410577774
1761378829960757500,0.744757568359375,-0.027935493737459183,0.048885785043239594,-0.00777616398409009
1761378829970812700,0.754812744140625,-0.023541012778878212,0.04501940682530403,0.021889319643378258
1761378829980868400,0.764868408203125,-0.012426309287548065,0.02172180637717247,0.03104713186621666
1761378829990924300,0.77492431640625,-0.002258360618725419,0.0031305458396673203,0.01847168430685997
1761378830000980500,0.78498046875,0.007611314300447702,-0.016639962792396545,-0.010565824806690216
1761378830011035400,0.795035400390625,0.022429941222071648,-0.023743679746985435,-0.04300898686051369
1761378830021091600,0.805091552734375,0.03357580304145813,-0.02468111179769039,-0.051722582429647446
1761378830031147500,0.8151474609375,0.03271906450390816,-0.007720770314335823,-0.03867122903466225
1761378830041203500,0.825203369140625,0.016569921746850014,0.014705975539982319,-0.026008164510130882
1761378830051259400,0.83525927734375,0.007352721411734819,0.020554808899760246,-0.007238205522298813
1761378830061314300,0.845314208984375,0.0010791128734126687,0.02690112218260765,0.01697232574224472
1761378830071370200,0.855370361328125,-0.006001166999340057,0.013968279585242271,0.04200151190161705
1761378830081426400,0.865426513671875,-0.01270061545073986,0.0022189458832144737,0.051660798490047455
1761378830091482400,0.875482421875,-0.009700830094516277,-0.0073138391599059105,0.053344447165727615
1761378830101537500,0.88553759765625,-0.0002324939559912309,-0.02184377983212471,0.051001131534576416
1761378830111593500,0.895593505859375,0.019168633967638016,-0.03248923271894455,0.03904620185494423
1761378830121649400,0.9056494140625,0.03244182839989662,-0.029936060309410095,0.020486632362008095
1761378830131705600,0.91570556640625,0.030163761228322983,-0.013005547225475311,0.005501291714608669
1761378830141761500,0.925761474609375,0.014209561981260777,0.00654525076970458,-0.005339105147868395
1761378830151816400,0.93581640625,0.00023462448734790087,0.008639294654130936,0.005798234138637781
1761378830161872400,0.945872314453125,-0.011918711476027966,0.0075852153822779655,0.02774294838309288
1761378830171928300,0.95592822265625,-0.020121779292821884,-0.0008378304773941636,0.04981469362974167
1761378830181984500,0.965984619140625,-0.030955785885453224,-0.0019419770687818527,0.049360889941453934
1761378830192039400,0.976039306640625,-0.036913011223077774,0.00027057717670686543,0.042216960340738297
1761378830202095600,0.986095703125,-0.020896226167678833,0.0011518171522766352,0.028615133836865425
1761378830212151600,0.996151611328125,-0.012517123483121395,-0.00009241169027518481,0.013043629936873913
1761378830222207500,1.00620751953125,0.000895621080417186,0.002235191175714135,-0.0014255901332944632
1761378830232262400,1.016262451171875,0.006015814375132322,0.0012812467757612467,-0.010906443931162357
1761378830242318300,1.026318359375,0.014088921248912811,0.003540406236425042,-0.01438293419778347
1761378830252374500,1.03637451171875,0.013571735471487045,0.004238420631736517,-0.0023118900135159492
1761378830262430500,1.046430419921875,0.00737242866307497,-0.009362342767417431,0.021318605169653893
1761378830272486400,1.056486328125,-0.004349741153419018,-0.013110741972923279,0.04175117611885071
1761378830282541600,1.06654150390625,-0.007259777281433344,-0.0031819448340684175,0.04224492609500885
1761378830292597500,1.076597412109375,-0.008884837850928307,0.004454403184354305,0.0256358552724123
1761378830302653400,1.0866533203125,-0.01477575022727251,0.0117312241345644,-0.00013315805699676275
1761378830312709600,1.096709716796875,-0.009358348324894905,0.01907142996788025,-0.008914132602512836
1761378830322764300,1.106764404296875,-0.007438741624355316,0.01726207695901394,-0.002557966159656644
1761378830332820500,1.116820556640625,0.0015550197567790747,0.01595260202884674,0.005093029234558344
1761378830342876400,1.12687646484375,0.00960016343742609,0.021312478929758072,0.015192268416285515
1761378830352932400,1.136932373046875,0.002811232814565301,-0.00018615495355334133,0.02412051521241665
1761378830362988500,1.146988525390625,-0.006990265101194382,-0.009661415591835976,0.03489406779408455
1761378830373043500,1.15704345703125,-0.018809374421834946,-0.010720022022724152,0.04556348919868469
1761378830383099600,1.167099609375,-0.03177337720990181,-0.011781824752688408,0.05253671109676361
1761378830393155300,1.1771552734375,-0.0427706316113472,-0.0076360818929970264,0.04652302712202072
1761378830403211300,1.187211181640625,-0.03686214238405228,-0.002035187790170312,0.030042054131627083
1761378830413266400,1.197266357421875,-0.02684972435235977,0.007505586836487055,0.002971288748085499
1761378830423322400,1.207322265625,-0.018435733392834663,0.008732238784432411,-0.01944587007164955
1761378830433378600,1.217378662109375,-0.010525344870984554,-0.0014178669080138206,-0.022107433527708054
1761378830443434500,1.2274345703125,0.00105354655534029,-0.0015792545164003968,-0.0188373364508152
1761378830453490400,1.237490478515625,0.00216488353908062,-0.0023366576060652733,-0.0007744472241029143
1761378830463545600,1.247545654296875,-0.00299259414896369,-0.004036020487546921,0.021314876154065132
1761378830473601300,1.257601318359375,-0.02154523879289627,-0.0030567762441933155,0.04261749982833862
1761378830483657500,1.267657470703125,-0.03352866694331169,0.0028541097417473793,0.04861414059996605
1761378830493713400,1.27771337890625,-0.041302699595689774,0.0009366337326355278,0.029156554490327835
1761378830503768300,1.287768310546875,-0.030797060579061508,0.0018809906905516982,0.005305549595504999
1761378830513824500,1.297824462890625,-0.009268865920603275,0.00878230668604374,-0.018542258068919182
1761378830523880400,1.30788037109375,0.0017068199813365936,0.0026405241806060076,-0.026686737313866615
1761378830533936400,1.317936279296875,0.006464823614805937,0.008872054517269135,-0.0049409628845751286
1761378830543992600,1.32799267578125,-0.002162220422178507,0.011739213950932026,0.02406885102391243
1761378830554047200,1.338047119140625,-0.012153069488704205,0.019302058964967728,0.05197824537754059
1761378830564103400,1.348103515625,-0.019306054338812828,0.02371758036315441,0.05614342913031578
1761378830574159400,1.358159423828125,-0.02840394526720047,0.027110712602734566,0.03674762696027756
1761378830584215300,1.36821533203125,-0.02792191132903099,0.01251232996582985,0.010568488389253616
1761378830594270500,1.3782705078125,-0.018373947590589523,0.005112736485898495,-0.007811850402504206
1761378830604326400,1.388326416015625,-0.00666269613429904,0.0012370382901281118,-0.015737418085336685
1761378830614382600,1.398382568359375,0.0035393410362303257,-0.002692455891519785,-0.003909520339220762
1761378830624438500,1.4084384765625,0.0010626012226566672,0.013547234237194061,0.013880928047001362
1761378830634493400,1.418493408203125,-0.008481102995574474,0.02509017288684845,0.02569923736155033
1761378830644549400,1.42854931640625,-0.013247095979750156,0.03296833485364914,0.03237578272819519
1761378830654605300,1.438605224609375,-0.013699034228920937,0.043602872639894485,0.01732093282043934
1761378830664661500,1.44866162109375,-0.023209448903799057,0.04352004826068878,-0.0012239888310432434
1761378830674717400,1.458717529296875,-0.02809901162981987,0.03460538014769554,-0.007940747775137424
1761378830684772600,1.468772705078125,-0.025922410190105438,0.01774357631802559,-0.001627457677386701
1761378830694828500,1.47882861328125,-0.015962988138198853,-0.004859203472733498,0.018366223201155663
1761378830704884500,1.488884521484375,-0.008068579249083996,-0.013844176195561886,0.030941138043999672
1761378830714940700,1.498940673828125,-0.008637696504592896,-0.0104752779006958,0.03128388524055481
1761378830724995300,1.508995361328125,-0.005154814571142197,0.004862399306148291,0.019523367285728455
1761378830735051500,1.519051513671875,0.0009017463307827711,0.01224521454423666,0.0014375743921846151
1761378830745108000,1.52910791015625,0.00917538907378912,0.017075389623641968,-0.012229235842823982
1761378830755164000,1.539163818359375,0.017066601663827896,0.017840249463915825,-0.014482269994914532
1761378830765219800,1.5492197265625,0.013459616340696812,0.01540372334420681,-0.008837433531880379
1761378830775275000,1.55927490234375,0.0007321029552258551,-0.00001997370782191865,0.0065353973768651485
1761378830785331000,1.5693310546875,-0.005842975340783596,-0.0009060074225999415,0.027452129870653152
1761378830795387000,1.579386962890625,-0.011938684619963169,-0.0022498385515064,0.048122256994247437
1761378830805442800,1.58944287109375,-0.011777297593653202,-0.0003153182624373585,0.04809588938951492
1761378830815498000,1.599498046875,-0.00501153664663434,0.0015017564874142408,0.034326549619436264
1761378830825554000,1.609553955078125,0.00009161273919744417,0.008009989745914936,0.018142517656087875
1761378830835609900,1.61960986328125,0.010934673249721527,0.014536332339048386,0.00279072648845613
1761378830845666000,1.629666015625,0.013317936100065708,0.005264803301542997,-0.0054549528285861015
1761378830855721000,1.639720947265625,0.00959723349660635,-0.006398510653525591,-0.0008077367674559355
1761378830865777000,1.64977685546875,0.011547999456524849,-0.021614214405417442,0.00983505416661501
1761378830875832800,1.659832763671875,-0.0011885687708854675,-0.034377146512269974,0.009156480431556702
1761378830885888800,1.669888671875,-0.01624901033937931,-0.03014671616256237,0.008353270590305328
1761378830895945000,1.679945068359375,-0.019175825640559196,-0.023019565269351006,0.010493387468159199
1761378830906000000,1.689999755859375,-0.02027065120637417,-0.003537210635840893,0.01858779974281788
1761378830916055800,1.700055908203125,-0.01423486229032278,0.007227818947285414,0.02088530734181404
1761378830926112000,1.710112060546875,-0.004327903036028147,0.013089703395962715,0.027043601498007774
1761378830936168000,1.72016796875,0.004503138829022646,0.015909990295767784,0.017245832830667496
1761378830946223000,1.73022314453125,0.008013717830181122,0.012864932417869568,-0.002002697205170989
1761378830956278800,1.74027880859375,0.004604871850460768,0.003203782718628645,-0.029558956623077393
1761378830966334700,1.750334716796875,-0.004757737275213003,-0.0024738102219998837,-0.05170740187168121
1761378830976391000,1.760390869140625,-0.011711517348885536,-0.01357333268970251,-0.06040342152118683
1761378830986445800,1.77044580078125,-0.015752332285046577,-0.010273942723870277,-0.05987478420138359
1761378830996502000,1.780501953125,-0.008535430766642094,-0.0006681871018372476,-0.04583779722452164
1761378831006558000,1.790557861328125,-0.0038751657120883465,0.0036818201187998056,-0.020863469690084457
1761378831016614000,1.80061376953125,-0.0010775149567052722,0.015870574861764908,0.0020812603179365396
1761378831026670000,1.810670166015625,0.002496180823072791,0.011650530621409416,0.01555525790899992
1761378831036724700,1.820724853515625,-0.0030298782512545586,-0.004996622912585735,0.023490944877266884
1761378831046781000,1.830781005859375,-0.005601426586508751,-0.009092564694583416,0.018622420728206635
1761378831056836900,1.8408369140625,-0.014491590671241283,-0.007385478354990482,0.00851332675665617
1761378831066892800,1.850892822265625,-0.023092802613973618,-0.006471215281635523,-0.006146309431642294
1761378831076948000,1.860947998046875,-0.014644722454249859,-0.006343649700284004,-0.010936803184449673
1761378831087004000,1.87100390625,-0.001586178783327341,-0.01321140956133604,-0.0070091737434268
1761378831097059800,1.881059814453125,0.009096559137105942,-0.015962189063429832,0.005802495405077934
1761378831107116000,1.891115966796875,0.009857158176600933,-0.017644774168729782,0.026140257716178894
1761378831117170700,1.901170654296875,0.011166101321578026,-0.01245374046266079,0.036980386823415756
1761378831127227000,1.911226806640625,-0.001466869143769145,-0.0033305492252111435,0.03146684542298317
1761378831137282800,1.92128271484375,-0.01679043099284172,0.006353769451379776,0.01594407856464386
1761378831147338800,1.9313388671875,-0.02539803460240364,0.0156119829043746,-0.0033361418172717094
1761378831157395000,1.94139501953125,-0.031246069818735123,0.013519803062081337,-0.016148343682289124
1761378831167449900,1.951449951171875,-0.028057733550667763,0.008282963186502457,-0.02184591069817543
1761378831177506000,1.961506103515625,-0.019209647551178932,-0.0030743530951440334,-0.015283615328371525
1761378831187562000,1.97156201171875,-0.006868558935821056,-0.005248025059700012,-0.0026794064324349165
1761378831197618000,1.981617919921875,0.0029265477787703276,-0.005550294183194637,0.002430134452879429
1761378831207672800,1.9916728515625,0.011463843286037445,-0.006924751214683056,0.005557218100875616
1761378831217728800,2.001728759765625,0.011468370445072651,-0.0073569826781749725,-0.002445048186928034
1761378831227785000,2.011784912109375,-0.0024620923213660717,-0.007284544408321381,-0.011057977564632893
1761378831237841000,2.0218408203125,-0.01655101403594017,-0.008587363176047802,-0.019936690106987953
1761378831247896000,2.03189599609375,-0.02261689491569996,-0.0015401060227304697,-0.02383768931031227
1761378831257952000,2.041951904296875,-0.031205322593450546,0.010879012756049633,-0.03069719299674034
1761378831268008000,2.052008056640625,-0.026497388258576393,0.022067219018936157,-0.03248550370335579
1761378831278064000,2.062064208984375,-0.01775050163269043,0.025020930916070938,-0.02755466289818287
1761378831288118800,2.072118896484375,-0.011401258409023285,0.024293089285492897,-0.021411016583442688
1761378831298175000,2.082175048828125,-0.007817708887159824,0.018636800348758698,-0.018868230283260345
1761378831308231000,2.09223095703125,-0.00717588746920228,0.01107502169907093,-0.015918245539069176
1761378831318286800,2.102286865234375,-0.014585067518055439,0.015632489696145058,-0.015156315639615059
1761378831328342000,2.112342041015625,-0.012059592641890049,0.009723734110593796,-0.023314110934734344
1761378831338398000,2.12239794921875,-0.007926899008452892,0.005736182443797588,-0.02923591621220112
1761378831348454000,2.132453857421875,0.002472745021805167,0.0029406624380499125,-0.029523802921175957
1761378831358510000,2.142510009765625,0.010378871113061905,0.01197090931236744,-0.03218083828687668
1761378831368565800,2.152565673828125,0.004310059826821089,0.00987287051975727,-0.032344091683626175
1761378831378621000,2.162620849609375,-0.010733870789408684,0.010453173890709877,-0.026037460193037987
1761378831388676900,2.1726767578125,-0.017372865229845047,0.013015933334827423,-0.016757940873503685
1761378831398732800,2.18273291015625,-0.01804238371551037,0.005126052536070347,-0.0007185208378359675
1761378831408789000,2.1927890625,-0.011228686198592186,0.009827597066760063,0.022779081016778946
1761378831418844000,2.202843994140625,0.0007363640470430255,0.016696421429514885,0.04356532171368599
1761378831428900000,2.212900146484375,0.006405435036867857,0.02004055306315422,0.0503113754093647
1761378831438956000,2.2229560546875,0.015542208217084408,0.02249838411808014,0.0378352627158165
1761378831449011700,2.23301171875,0.01648336835205555,0.026885410770773888,0.029390912503004074
1761378831459067000,2.24306689453125,0.00851359311491251,0.021317007020115852,0.02491467073559761
1761378831469122800,2.253122802734375,-0.009546101093292236,0.01882695034146309,0.014768559485673904
1761378831479179000,2.263178955078125,-0.02738182246685028,0.01062095258384943,0.008452607318758965
1761378831489235000,2.27323486328125,-0.04351392015814781,0.009731456637382507,0.006363356951624155
1761378831499290000,2.2832900390625,-0.03597185015678406,-0.007148456759750843,0.002977414056658745
1761378831509346000,2.293345947265625,-0.00929336715489626,-0.018072210252285004,0.0043891556560993195
1761378831519402000,2.303402099609375,0.012473180890083313,-0.02640417590737343,0.01098340842872858
1761378831529458000,2.3134580078125,0.02400413528084755,-0.024695493280887604,0.011874768882989883
1761378831539513900,2.323513916015625,0.027002057060599327,-0.011434814892709255,0.01756194978952408
1761378831549568800,2.33356884765625,0.011856392957270145,0.003206445835530758,0.034205108880996704
1761378831559625000,2.343625,-0.010354369878768921,0.008733570575714111,0.04391872137784958
1761378831569681000,2.353680908203125,-0.02943059243261814,0.008579639717936516,0.03731008619070053
1761378831579736800,2.36373681640625,-0.03730902075767517,0.00490154791623354,0.0273264292627573
1761378831589792000,2.3737919921875,-0.034876491874456406,-0.0008876316132955253,0.019634954631328583
1761378831599847700,2.38384765625,-0.025957031175494194,-0.006073871627449989,0.01731880195438862
1761378831609903900,2.39390380859375,-0.005607551895081997,-0.008263256400823593,0.01708231493830681
1761378831619959800,2.403959716796875,0.022473350167274475,-0.011801266111433506,0.01841416023671627
1761378831630015000,2.414014892578125,0.03895032778382301,-0.003832288784906268,0.017181383445858955
1761378831640071000,2.42407080078125,0.03918229043483734,0.015081481076776981,0.009190035983920097
1761378831650126800,2.434126953125,0.018216554075479507,0.025893915444612503,0.0001358212175546214
1761378831660183000,2.44418310546875,0.0003834952076431364,0.02738555148243904,-0.0023579627741128206
1761378831670238000,2.454238037109375,-0.012721387669444084,0.025131719186902046,-0.00663579860702157
1761378831680294000,2.4642939453125,-0.031255658715963364,0.013981861993670464,-0.006359628401696682
1761378831690349800,2.474349853515625,-0.03111317753791809,-0.011903530918061733,-0.007224889472126961
1761378831700405800,2.48440576171875,-0.00974557176232338,-0.028716333210468292,-0.004487692844122648
1761378831710461000,2.4944609375,0.02383076399564743,-0.04176821932196617,0.00033582461765035987
1761378831720516900,2.504516845703125,0.041367147117853165,-0.03603949397802353,-0.0019406455103307962
1761378831730573000,2.514572998046875,0.04042545333504677,-0.004344947170466185,-0.0007739146240055561
1761378831740632800,2.5246328125,0.029881466180086136,0.013404754921793938,-0.00920308567583561
1761378831750687700,2.534687744140625,0.013834855519235134,0.02641136758029461,-0.015064170584082603
1761378831760744000,2.544743896484375,-0.005178516730666161,0.015619972720742226,-0.01812094636261463
1761378831770799900,2.5547998046875,-0.019183814525604248,-0.0019489012192934752,-0.011119496077299118
1761378831780855800,2.564855712890625,-0.028920864686369896,-0.015549398958683014,0.00290444353595376
1761378831790910700,2.57491064453125,-0.025079786777496338,-0.028170384466648102,0.013148559257388115
1761378831800966700,2.584966552734375,-0.009729593060910702,-0.023897342383861542,0.016986174508929253
1761378831811022800,2.59502294921875,0.007878429256379604,-0.01703757233917713,0.008702677674591541
1761378831821078800,2.605078857421875,0.025463014841079712,-0.0018732674652710557,-0.010001767426729202
1761378831831134700,2.615134765625,0.02875841036438942,0.007453122641891241,-0.034144386649131775
1761378831841190000,2.62518994140625,0.011025752872228622,0.017674867063760757,-0.04609132930636406
1761378831851245800,2.635245849609375,-0.020776119083166122,0.017602961510419846,-0.0421714223921299
1761378831861302000,2.645302001953125,-0.04250644892454147,0.015669507905840874,-0.01709536276757717
1761378831871357700,2.655357666015625,-0.049073804169893265,0.005906891077756882,0.008594552986323833
1761378831881412900,2.665412841796875,-0.03019625134766102,-0.005894108209758997,0.023138076066970825
1761378831891468800,2.67546875,-0.011173292063176632,-0.01122149545699358,0.035480231046676636
1761378831901524700,2.685524658203125,0.015025022439658642,-0.001999235013499856,0.03609941527247429
1761378831911581000,2.695580810546875,0.03364717587828636,0.013008742593228817,0.020796358585357666
1761378831921635800,2.7056357421875,0.03206392750144005,0.012493954040110111,-0.00812104344367981
1761378831931691800,2.71569189453125,0.015019962564110756,-0.0007065366371534765,-0.027454527094960213
1761378831941748000,2.725748046875,-0.002977946773171425,-0.004979046061635017,-0.03038240596652031
1761378831951803600,2.7358037109375,-0.02413995750248432,-0.01841469295322895,-0.01031655352562666
1761378831961858800,2.74585888671875,-0.030540332198143005,-0.022355638444423676,0.018012290820479393
1761378831971914800,2.755914794921875,-0.018314026296138763,-0.02095108851790428,0.05002748221158981
1761378831981970700,2.765970703125,-0.004320712294429541,-0.019634421914815903,0.06089078262448311
1761378831992027000,2.77602685546875,0.007395864464342594,-0.012996225617825985,0.048290032893419266
1761378832002081800,2.786081787109375,0.012049471959471703,-0.006317284423857927,0.020491959527134895
1761378832012138000,2.796137939453125,0.015015434473752975,0.006937800906598568,-0.019230419769883156
1761378832022193700,2.806193603515625,0.014420217834413052,0.014449247159063816,-0.04470515251159668
1761378832032249600,2.81624951171875,0.005474660079926252,0.00974397361278534,-0.03393666073679924
1761378832042304800,2.8263046875,-0.0034205641131848097,0.011491806246340275,-0.00038216362008824944
1761378832052360700,2.836360595703125,-0.011639079079031944,-0.0012918994762003422,0.03407807648181915
1761378832062417000,2.8464169921875,-0.01215892843902111,-0.003593669505789876,0.0563943013548851
1761378832072472800,2.856472900390625,-0.013088105246424675,-0.0030959248542785645,0.053519684821367264
1761378832082528000,2.866528076171875,-0.015170697122812271,-0.0010833739070221782,0.025777269154787064
1761378832092584000,2.876583984375,-0.01034691371023655,-0.008319182321429253,-0.0032890038564801216
1761378832102639600,2.8866396484375,-0.0021281319204717875,-0.018756642937660217,-0.014964568428695202
1761378832112695800,2.89669580078125,0.008341286331415176,-0.03459339588880539,-0.01401648297905922
1761378832122750700,2.906750732421875,0.023251259699463844,-0.03898095339536667,-0.00003941478280466981
1761378832132806700,2.916806640625,0.023938622325658798,-0.033124662935733795,0.014516358263790607
1761378832142862800,2.92686279296875,0.019278623163700104,-0.019957995042204857,0.023727966472506523
1761378832152918800,2.936918701171875,0.009283512830734253,-0.0034048515371978283,0.02455194853246212
1761378832162974000,2.946973876953125,-0.008138353936374187,0.011287808418273926,0.011782357469201088
1761378832173030000,2.95702978515625,-0.022651782259345055,0.021954301744699478,0.011759188026189804
1761378832183085600,2.96708544921875,-0.021146297454833984,0.01792440563440323,0.013741911388933659
1761378832193141800,2.977141845703125,-0.011548797599971294,0.015791213139891624,0.025676067918539047
1761378832203197700,2.98719775390625,-0.0004396878939587623,-0.0018338527297601104,0.039134085178375244
1761378832213252900,2.9972529296875,0.007105313707143068,-0.011327755637466908,0.051720451563596725
1761378832223308800,3.007308837890625,0.007955128327012062,-0.019457587972283363,0.05452902242541313
1761378832233364700,3.01736474609375,0.0054155378602445126,-0.014307300560176373,0.052392102777957916
1761378832243421000,3.0274208984375,0.002767823403701186,-0.0031883365008980036,0.043778639286756516
1761378832253475600,3.0374755859375,-0.004974252078682184,0.00026791400159709156,0.03231692686676979
1761378832263531800,3.04753173828125,-0.012060657143592834,-0.00021678130724467337,0.02497326023876667
1761378832273587700,3.057587646484375,-0.00689092930406332,-0.004177967086434364,0.021260812878608704
1761378832283643600,3.0676435546875,-0.0015028218040242791,-0.005239502992480993,0.01575286313891411
1761378832293698800,3.07769873046875,0.0015100123127922416,-0.01041349209845066,0.009782856330275536
1761378832303754800,3.087754638671875,0.003941211849451065,-0.015026619657874107,0.014398646540939808
1761378832313811000,3.09781103515625,0.005200088489800692,-0.010692858137190342,0.011857991106808186
1761378832323867000,3.107866943359375,0.0006072007236070931,0.0032117723021656275,0.008539426140487194
1761378832333921800,3.117921875,-0.01158821303397417,0.01763731613755226,-0.003261040663346648
1761378832343977700,3.127977783203125,-0.023424366489052773,0.03154807165265083,-0.02528112195432186
1761378832354033700,3.13803369140625,-0.038770031183958054,0.031034881249070168,-0.042142126709222794
1761378832364089600,3.148089599609375,-0.031063644215464592,0.01661040261387825,-0.03542004153132439
1761378832374144800,3.158144775390625,-0.008480037562549114,0.0031044469214975834,-0.013478790409862995
1761378832384200700,3.16820068359375,0.012897422537207603,-0.01751401275396347,0.015672968700528145
1761378832394257000,3.1782568359375,0.024397751316428185,-0.026747191324830055,0.043226566165685654
1761378832404312800,3.188312744140625,0.018919894471764565,-0.023812921717762947,0.05273591727018356
1761378832414367700,3.19836767578125,0.004201669245958328,-0.013674799352884293,0.045941926538944244
1761378832424423700,3.208423583984375,-0.017284713685512543,5.326322138898831e-7,0.03172836825251579
1761378832434479600,3.218479736328125,-0.031083617359399796,0.016104135662317276,0.013609019108116627
1761378832444535800,3.228535888671875,-0.03557796776294708,0.023793213069438934,0.005650694947689772
1761378832454590700,3.2385908203125,-0.025563150644302368,0.022338328883051872,0.010471283458173275
1761378832464647000,3.24864697265625,-0.007779093459248543,0.019533220678567886,0.021621672436594963
1761378832474702800,3.258702880859375,0.008115983568131924,0.01666925847530365,0.04489423707127571
1761378832484758800,3.2687587890625,0.02135508880019188,0.0117927435785532,0.06246311217546463
1761378832494813700,3.278813720703125,0.015633555129170418,0.011151454411447048,0.06953833252191544
1761378832504869600,3.28886962890625,-0.00006205165118444711,0.011027617380023003,0.0715801790356636
1761378832514925800,3.29892578125,-0.014707040973007679,0.009368468075990677,0.054073087871074677
1761378832524981800,3.308981689453125,-0.024995364248752594,0.014709170907735825,0.035475701093673706
1761378832535037000,3.319036865234375,-0.02671283669769764,0.008012652397155762,0.014999988488852978
1761378832545092900,3.3290927734375,-0.020386764779686928,0.007303985767066479,0.004313788376748562
1761378832555148800,3.339148681640625,-0.009212672710418701,-0.00020879182557109743,-0.008893626742064953
1761378832565204700,3.349204833984375,0.004897020757198334,-0.004886367823928595,-0.016921725124120712
1761378832575259600,3.359259765625,0.010040383785963058,-0.005337507463991642,-0.017614146694540977
1761378832585315600,3.369315673828125,0.014104367233812809,-0.0038077877834439278,-0.012675048783421516
1761378832595371800,3.379371826171875,0.011431884951889515,-0.011582886800169945,0.006910103838890791
1761378832605427700,3.389427734375,0.005579588934779167,-0.01913055032491684,0.033786192536354065
1761378832615483000,3.39948291015625,0.004662662278860807,-0.027830032631754875,0.052018195390701294
1761378832625538800,3.409538818359375,0.006895456463098526,-0.030788538977503777,0.04932254180312157
1761378832635594800,3.4195947265625,0.0020719394087791443,-0.02244778536260128,0.030401315540075302
1761378832645651000,3.42965087890625,-0.01016954705119133,-0.008047273382544518,0.0004122573300264776
1761378832655705600,3.43970556640625,-0.018907910212874413,0.0034234935883432627,-0.0275618527084589
1761378832665761800,3.44976171875,-0.01648763008415699,0.01840963400900364,-0.039508793503046036
1761378832675817700,3.459817626953125,-0.007399326656013727,0.028903020545840263,-0.02815733477473259
1761378832685873700,3.469873779296875,0.0036674391012638807,0.020710337907075882,0.002130528911948204
1761378832695928800,3.4799287109375,0.0087218526750803,0.0049129994586110115,0.032223183661699295
1761378832705984800,3.48998486328125,0.01420450210571289,-0.00990109983831644,0.04686257988214493
1761378832716041000,3.500041015625,0.01314909104257822,-0.016681242734193802,0.04410434514284134
1761378832726097000,3.510096923828125,0.013251623138785362,-0.021621139720082283,0.027101658284664154
1761378832736151800,3.52015185546875,0.0017888452857732773,-0.01512915175408125,0.0034991272259503603
1761378832746204400,3.530204345703125,-0.01058926060795784,-0.010899253189563751,-0.024052338674664497
1761378832756260400,3.54026025390625,-0.012264123186469078,-0.007309045642614365,-0.03128308802843094
1761378832766316300,3.55031640625,-0.000523577444255352,-0.0010932276491075754,-0.019726833328604698
1761378832776372500,3.56037255859375,0.006665891967713833,0.002466619713231921,0.003996339626610279
1761378832786427400,3.570427490234375,0.007132478058338165,0.005358812864869833,0.03129773586988449
1761378832796483600,3.580483642578125,0.003923901356756687,0.006569752003997564,0.03677745535969734
1761378832806539300,3.590539306640625,-0.009096825495362282,-0.0009009473724290729,0.028477713465690613
1761378832816595200,3.60059521484375,-0.014133928343653679,0.002198173198848963,0.007938616909086704
1761378832826650400,3.610650390625,-0.020003002136945724,0.01540718600153923,-0.027469441294670105
1761378832836706300,3.620706298828125,-0.02412584237754345,0.012803945690393448,-0.04778243601322174
1761378832846762500,3.630762451171875,-0.015093731693923473,0.012543221935629845,-0.047992561012506485
1761378832856818400,3.640818359375,-0.014201839454472065,0.019047992303967476,-0.02070687711238861
1761378832866873600,3.65087353515625,-0.015169098973274231,0.0151986600831151,0.023975374177098274
1761378832876929500,3.660929443359375,-0.009213471785187721,0.011917646043002605,0.057676345109939575
1761378832886985200,3.670985107421875,0.00040852889651432633,0.0065377941355109215,0.06526635587215424
1761378832897041400,3.68104150390625,-0.0006929545197635889,-0.0039087217301130295,0.04958672821521759
1761378832907096300,3.691096435546875,-0.004803277086466551,-0.019099391996860504,0.02443024143576622
1761378832917152500,3.701152587890625,-0.0044352286495268345,-0.015251656994223595,-0.0034738273825496435
1761378832927208400,3.71120849609375,0.004476507660001516,-0.01564420759677887,-0.012179700657725334
1761378832937264400,3.721264404296875,0.008355401456356049,-0.005350024439394474,-0.009208411909639835
1761378832947319600,3.731319580078125,0.002975283656269312,0.0037758296821266413,0.011749067343771458
1761378832957375500,3.74137548828125,0.0028399948496371508,0.015864184126257896,0.031563252210617065
1761378832967431400,3.751431396484375,-0.007604389917105436,0.02027810737490654,0.04068324714899063
1761378832977487400,3.7614873046875,-0.021929267793893814,0.016049006953835487,0.04718455672264099
1761378832987542300,3.771542236328125,-0.027212712913751602,0.009187373332679272,0.04897233471274376
1761378832997598500,3.781598388671875,-0.024582041427493095,-0.0005403553950600326,0.039437420666217804
1761378833007654400,3.791654296875,-0.01860084757208824,-0.012880911119282246,0.024284301325678825
1761378833017710300,3.80171044921875,-0.0002884203568100929,-0.029748307541012764,0.005934321787208319
1761378833027765500,3.811765625,0.0208301804959774,-0.021223263815045357,0.0011507519520819187
1761378833037821200,3.8218212890625,0.01366308145225048,-0.00983505416661501,-0.0014199974248185754
1761378833047877400,3.83187744140625,0.00119629199616611,0.004506334662437439,-0.011094196699559689
1761378833057933300,3.841933349609375,-0.014013021253049374,0.014817828312516212,-0.014975220896303654
1761378833067988500,3.851988525390625,-0.02215323969721794,0.008552209474146366,-0.006579872220754623
1761378833078044400,3.86204443359375,-0.020085293799638748,0.008227303624153137,0.00953917670994997
1761378833088100400,3.872100341796875,-0.015241803601384163,0.005529255140572786,0.021764151751995087
1761378833098156500,3.882156494140625,-0.0060299295000731945,0.0011427623685449362,0.020066119730472565
1761378833108211500,3.89221142578125,0.006098905112594366,0.0052951630204916,0.009368468075990677
1761378833118267400,3.902267333984375,0.0043561323545873165,0.009661681950092316,-0.007957259193062782
1761378833128323300,3.9123232421875,-0.0016269250772893429,0.01757446676492691,-0.012227637693285942
1761378833138379300,3.922379150390625,-0.011317902244627476,0.01918887533247471,-0.005280249286442995
1761378833148434400,3.932434326171875,-0.018374746665358543,0.01883307658135891,0.015929166227579117
1761378833158490400,3.942490478515625,-0.025129588320851326,0.011874502524733543,0.035356126725673676
1761378833168546600,3.952546630859375,-0.020384900271892548,0.009484848007559776,0.045643649995326996
1761378833178602500,3.9626025390625,-0.01672678254544735,0.01781068928539753,0.03891570866107941
1761378833188657400,3.972657470703125,-0.014919561333954334,0.02972194366157055,0.021522069349884987
1761378833198713300,3.98271337890625,-0.015987223014235497,0.03422188758850098,0.005061337724328041
1761378833208769300,3.992769287109375,-0.0028535770252346992,0.03572817146778107,-0.007865912280976772
1761378833218825200,4.0028251953125,0.007412109989672899,0.03080904483795166,-0.01258130557835102
1761378833228880400,4.01288037109375,0.01028619334101677,0.02124829776585102,0.0010735202813521028
1761378833238936300,4.022936279296875,0.01251259632408619,0.010651845484972,0.025178590789437294
1761378833248989400,4.032989501953125,0.006418750621378422,0.0055031562224030495,0.0499316081404686
1761378833259045400,4.04304541015625,-0.003185939509421587,-0.003656520042568445,0.06191503256559372
1761378833269101300,4.053101318359375,-0.005774265620857477,-0.006401173770427704,0.05245814844965935
1761378833279156500,4.063156494140625,-0.00663579860702157,-0.002493251347914338,0.03110705316066742
1761378833289212400,4.07321240234375,-0.003073287894949317,0.0008458199445158243,0.00948005449026823
1761378833299268600,4.0832685546875,0.0017536915838718414,0.0013659353135153651,-0.0018232000293210149
1761378833309324500,4.093324462890625,0.0006372944335453212,0.002965696156024933,-0.0007890945998951793
1761378833319379500,4.10337939453125,-0.0016849819803610444,0.00800253264605999,0.0030131004750728607
1761378833329435400,4.113435302734375,-0.0012037487467750907,0.013511015102267265,0.01775849051773548
1761378833339491300,4.1234912109375,-0.008639294654130936,0.016164056956768036,0.02979304827749729
1761378833349547300,4.13354736328125,-0.011990882456302643,0.013761618174612522,0.03725362941622734
1761378833359602400,4.1436025390625,-0.010548780672252178,0.02027864009141922,0.03924354165792465
1761378833369658400,4.153658447265625,-0.011955728754401207,0.01913241483271122,0.02846626192331314
1761378833379714600,4.163714599609375,-0.009829727932810783,0.015220497734844685,0.014814632013440132
1761378833389770500,4.1737705078125,0.0025156219489872456,0.008104265667498112,-0.008381234481930733
1761378833399825400,4.183825439453125,0.001210673013702035,-0.000853809411637485,-0.023931965231895447
1761378833409881300,4.19388134765625,0.0011659319279715419,-0.0010972223244607449,-0.024322383105754852
1761378833419937300,4.203937255859375,0.0020961740519851446,-0.005306348204612732,-0.010368751361966133
1761378833429993500,4.213993408203125,-0.0006482133758254349,-0.004492220003157854,0.009710418060421944
1761378833440048400,4.22404833984375,-0.007553257513791323,0.000011984225238848012,0.019294336438179016
1761378833450104600,4.2341044921875,-0.0184682235121727,0.010120278224349022,0.020851219072937965
1761378833460160500,4.244160400390625,-0.023615047335624695,0.012645754031836987,0.01432141475379467
1761378833470216400,4.254216552734375,-0.020481573417782784,0.025202559307217598,-0.0046911584213376045
1761378833480272400,4.2642724609375,-0.019293537363409996,0.02983805723488331,-0.018575016409158707
1761378833490327300,4.274327392578125,-0.01210087165236473,0.023728499189019203,-0.016118248924613
1761378833500383500,4.284383544921875,-0.0008564725867472589,0.011095527559518814,-0.0034621094819158316
1761378833510439400,4.294439453125,0.008258729241788387,-0.0004487426485866308,0.008743956685066223
1761378833520495400,4.304495361328125,0.009436111897230148,-0.004775314126163721,0.023201193660497665
1761378833530550500,4.314550537109375,0.010300042107701302,-0.011485148221254349,0.03857482224702835
1761378833540606500,4.3246064453125,-0.006170810665935278,-0.004159324802458286,0.04361166059970856
1761378833550662400,4.334662353515625,-0.022942867130041122,0.000627973407972604,0.046486809849739075
1761378833560718300,4.34471826171875,-0.03291107714176178,0.009485647082328796,0.04261909797787666
1761378833570773200,4.354773193359375,-0.03224661946296692,0.018913237378001213,0.031001325696706772
1761378833580829400,4.364829345703125,-0.023750070482492447,0.026067020371556282,0.021044565364718437
1761378833590885400,4.374885498046875,-0.007001183927059174,0.014651114121079445,0.008665659464895725
1761378833600941300,4.38494140625,0.01062015350908041,0.004029096569865942,-0.0065255435183644295
1761378833610996500,4.39499658203125,0.027213778346776962,-0.00872131995856762,-0.01865011639893055
1761378833621052400,4.405052490234375,0.02172606810927391,-0.01841788925230503,-0.021208882331848145
1761378833631108600,4.415108642578125,0.007025951519608498,-0.02869476191699505,-0.015185876749455929
1761378833641164300,4.425164306640625,-0.011403389275074005,-0.01073999609798193,-0.00620995881035924
1761378833651220200,4.43522021484375,-0.03413213789463043,-0.005091697443276644,0.014067615382373333
1761378833661278500,4.445278564453125,-0.041371408849954605,-0.008450476452708244,0.034496456384658813
1761378833671334400,4.45533447265625,-0.03081304021179676,-0.013725931756198406,0.03440724313259125
1761378833681390600,4.465390625,-0.015205051749944687,-0.010001234710216522,0.016172844916582108
1761378833691445200,4.4754453125,-0.0008484831196255982,-0.007555387914180756,-0.005322593729943037
1761378833701501400,4.48550146484375,0.013711284846067429,-0.007168430835008621,-0.01599707640707493
1761378833711557400,4.495557373046875,0.020323380827903748,-0.004781972151249647,-0.01811695285141468
1761378833721613300,4.50561328125,0.013261476531624794,0.004091148264706135,-0.019826967269182205
1761378833731669500,4.51566943359375,-0.010899785906076431,-0.005307147279381752,-0.012911271303892136
1761378833741724400,4.525724365234375,-0.026547454297542572,-0.00618252856656909,-0.0032658344134688377
1761378833751780600,4.535780517578125,-0.03140879049897194,-0.0021134845446795225,0.01236479077488184
1761378833761836500,4.54583642578125,-0.03134700283408165,-0.008265919052064419,0.03605653718113899
1761378833771892200,4.555892333984375,-0.020363328978419304,-0.006205431651324034,0.049620550125837326
1761378833781947400,4.565947509765625,-0.008698949590325356,-0.004078897647559643,0.0506778247654438
1761378833792003300,4.57600341796875,-0.002906840294599533,0.007891212590038776,0.04140709340572357
1761378833802059500,4.5860595703125,0.007702128030359745,0.015106781385838985,0.023992950096726418
1761378833812115500,4.596115478515625,0.010457434691488743,0.023874172940850258,0.0009872338268905878
1761378833822170400,4.60617041015625,0.003947603516280651,0.020072776824235916,-0.022783609107136726
1761378833832226600,4.6162265625,-0.006072806194424629,0.010588728822767735,-0.03135286271572113
1761378833842282200,4.6262822265625,-0.011769307777285576,-0.00017070861940737814,-0.015218101441860199
1761378833852338400,4.63633837890625,-0.008992163464426994,-0.004425374791026115,0.008351673372089863
1761378833862393300,4.646393310546875,-0.009524262510240078,-0.010952516458928585,0.027358386665582657
1761378833872449300,4.65644921875,-0.011600197292864323,-0.0016679377295076847,0.029702501371502876
1761378833882505500,4.66650537109375,-0.01583036221563816,0.004521781112998724,0.022773755714297295
1761378833892561400,4.6765615234375,-0.01949114352464676,0.0179987084120512,0.015850335359573364
1761378833902617300,4.686617431640625,-0.025657959282398224,0.023662718012928963,0.00881985668092966
1761378833912672500,4.696672607421875,-0.02418523095548153,0.02010633423924446,0.006810501683503389
1761378833922728200,4.706728271484375,-0.02286536805331707,0.01926450803875923,0.003454119898378849
1761378833932784400,4.716784423828125,-0.025728799402713776,0.019993947818875313,-0.0015744607662782073
1761378833942840300,4.72684033203125,-0.022160429507493973,0.017708688974380493,0.004319114610552788
1761378833952895500,4.7368955078125,-0.01571478135883808,0.012173308990895748,0.011034541763365269
1761378833962951400,4.746951416015625,-0.0018338527297601104,0.007501858286559582,0.023359917104244232
1761378833973007400,4.75700732421875,0.0072869411669671535,0.005189169198274612,0.027273433282971382
1761378833983063600,4.7670634765625,-0.0002508697798475623,0.007220628671348095,0.024868065491318703
1761378833993118500,4.777118408203125,-0.016148876398801804,0.010487528517842293,0.009721070528030396
1761378834003174400,4.78717431640625,-0.018551580607891083,0.008423312567174435,-0.009378321468830109
1761378834013230300,4.797230224609375,-0.015692677348852158,0.011176488362252712,-0.023794012144207954
1761378834023286300,4.807286376953125,-0.02189730852842331,-0.0037792918737977743,-0.015574431978166103
1761378834033341400,4.817341552734375,-0.016201606020331383,-0.006868292577564716,0.005123123060911894
1761378834043397400,4.8273974609375,-0.006839796435087919,-0.0037028591614216566,0.025558622553944588
1761378834053453600,4.83745361328125,0.0018053569365292788,-0.003567037871107459,0.034927889704704285
1761378834063509500,4.847509521484375,0.009312541224062443,0.0020543625578284264,0.026732545346021652
1761378834073565400,4.8575654296875,0.011316037736833096,0.012912869453430176,0.01489239651709795
1761378834083620400,4.867620361328125,-0.005548962391912937,0.01341540738940239,-0.0032320122700184584
1761378834093676300,4.87767626953125,-0.02154231071472168,0.014461763203144073,-0.009473130106925964
1761378834103732200,4.887732177734375,-0.03556385263800621,0.009811085648834705,-0.015015434473752975
1761378834113788400,4.897788330078125,-0.03609595075249672,0.014780277386307716,-0.008258196525275707
1761378834123843300,4.90784326171875,-0.03316620737314224,0.008842493407428265,0.011529090814292431
1761378834133899500,4.9178994140625,-0.01990979164838791,-0.0013148026773706079,0.023985227569937706
1761378834143955500,4.92795556640625,0.010000701993703842,0.0017808558186516166,0.03427514806389809
1761378834154011400,4.938011474609375,0.019475696608424187,0.002775280037894845,0.04093704745173454
1761378834164066300,4.94806640625,0.01986611634492874,0.004406732507050037,0.0398922897875309
1761378834174122200,4.958122314453125,0.007254716940224171,0.0107682254165411,0.034088727086782455
1761378834184178400,4.968178466796875,-0.007312241476029158,0.01449638418853283,0.016755010932683945
1761378834194234400,4.978234375,-0.014123009517788887,0.013999705202877522,-0.0031342741567641497
1761378834204289500,4.98828955078125,-0.018009094521403313,0.014736602082848549,-0.019101789221167564
1761378834214345500,4.998345458984375,-0.01931244507431984,0.015104117803275585,-0.020107930526137352
1761378834224401400,5.0084013671875,-0.017652763053774834,0.02149011194705963,-0.003183010034263134
1761378834234457600,5.01845751953125,-0.00902944803237915,0.02231888845562935,0.018442124128341675
1761378834244513500,5.028513427734375,-0.006214752793312073,0.013820474036037922,0.037521541118621826
1761378834254568400,5.038568359375,-0.0010785802733153105,0.009455020539462566,0.04771239310503006
1761378834264624400,5.048624267578125,0.006076534744352102,0.010879811830818653,0.0408552885055542
1761378834274680300,5.058680419921875,0.0073804184794425964,0.012427641078829765,0.023020630702376366
1761378834284736500,5.068736572265625,0.0009805759182199836,0.007998271845281124,0.008743690326809883
1761378834294791400,5.07879150390625,-0.011537612415850163,0.002743055811151862,-0.0018322548130527139
1761378834304847400,5.088847412109375,-0.01655633933842182,-0.0003981425834354013,-0.01380875613540411
1761378834314903600,5.098903564453125,-0.019748404622077942,0.00990109983831644,-0.016878049820661545
1761378834324959500,5.10895947265625,-0.0213612150400877,0.007298126816749573,-0.009299758821725845
1761378834335014400,5.119014404296875,-0.021203022450208664,0.016889767721295357,0.006448311731219292
1761378834345070300,5.1290703125,-0.022475481033325195,0.03122076950967312,0.02141421101987362
1761378834355126300,5.139126220703125,-0.01792600378394127,0.03187857195734978,0.03165246918797493
1761378834365182500,5.149182373046875,-0.006331665441393852,0.03255847468972206,0.03780436888337135
1761378834375238400,5.15923828125,0.001071123406291008,0.025042502209544182,0.03688265010714531
1761378834385293600,5.16929345703125,0.0019230686593800783,0.018132397904992104,0.027117904275655746
1761378834395349500,5.179349609375,-0.005998237524181604,0.003742806613445282,0.028786374256014824
1761378834405405400,5.189405517578125,-0.014870558865368366,-0.01878540590405464,0.039392679929733276
1761378834415461400,5.19946142578125,-0.020924989134073257,-0.006914631463587284,0.08557295799255371
1761378834425516300,5.209516357421875,-0.017612017691135406,-0.04006912186741829,0.08981137722730637
1761378834435572500,5.219572509765625,-0.0036751623265445232,-0.04742077738046646,0.0578228197991848
1761378834445628400,5.22962841796875,0.014515559189021587,-0.0522373728454113,0.01842348277568817
1761378834455684400,5.239684326171875,0.01912868767976761,-0.03840437904000282,-0.001253017340786755
1761378834465739500,5.249739501953125,0.013969078660011292,-0.02569284662604332,-0.01708577573299408
1761378834475795500,5.25979541015625,0.0019254654180258512,-0.014929414726793766,-0.021379856392741203
1761378834485851600,5.2698515625,-0.008022506721317768,-0.0075971996411681175,-0.01811748556792736
1761378834495907300,5.2799072265625,-0.022346317768096924,0.00740198977291584,-0.01293523982167244
1761378834505963300,5.28996337890625,-0.02810274064540863,0.022039521485567093,-0.019289275631308556
1761378834516018400,5.300018310546875,-0.01961364783346653,0.028739769011735916,-0.023549534380435944
1761378834526074400,5.310074462890625,0.008950085379183292,0.026222549378871918,-0.03640461340546608
1761378834536130300,5.32013037109375,0.0307517871260643,0.008776181377470493,-0.05476338043808937
1761378834546186500,5.3301865234375,0.03658890351653099,-0.02357936091721058,-0.07126139849424362
1761378834556241400,5.340241455078125,0.03790077567100525,-0.04579571634531021,-0.06463544815778732
