time,seconds_elapsed,z,y,x
1761378829327244000,0.111244140625,0.020993046462535858,0.011096877977252007,0.011812759563326836
1761378829337299200,0.12129931640625,0.012449625879526138,0.008029980584979057,0.031842656433582306
1761378829347355100,0.131355224609375,0.01692654751241207,0.0004899017512798309,0.040879637002944946
1761378829357411000,0.1414111328125,0.015863412991166115,-0.012726834043860435,0.048203062266111374
1761378829367467000,0.151467041015625,0.01425589807331562,-0.030832968652248383,0.043516792356967926
1761378829377523000,0.16152294921875,0.016791492700576782,-0.036564357578754425,0.020244227722287178
1761378829387578000,0.171578125,0.012032602913677692,-0.030630869790911674,-0.010108375921845436
1761378829397634000,0.181634033203125,0.013226497918367386,-0.017830919474363327,-0.03707448020577431
1761378829407690000,0.19168994140625,0.01639246568083763,-0.00400570360943675,-0.05140272155404091
1761378829417746200,0.20174609375,0.0074274661019444466,-0.004870964679867029,-0.05134546384215355
1761378829427801000,0.211801025390625,0.002482092473655939,-0.007827097550034523,-0.02957012876868248
1761378829437857000,0.22185693359375,0.007814273238182068,-0.011744340881705284,-0.0016114641912281513
1761378829447913000,0.231912841796875,0.010568633675575256,-0.011400071904063225,0.022445764392614365
1761378829457969000,0.241968994140625,0.008170989342033863,-0.02208147756755352,0.02470306120812893
1761378829468024000,0.252024169921875,0.010482316836714745,-0.02504146844148636,0.0007867356762290001
1761378829478080000,0.262080078125,0.0076575023122131824,-0.015266869217157364,-0.0293277557939291
1761378829488136000,0.272135986328125,0.0013629435561597347,-0.026932597160339355,-0.05801307410001755
1761378829498192100,0.282192138671875,0.004515593871474266,-0.014935855753719807,-0.06408428400754929
1761378829508248000,0.292248046875,-0.0021284022368490696,-0.0003853137604892254,-0.05429179221391678
1761378829518303000,0.302302978515625,-0.003267169464379549,0.00546778179705143,-0.04075121879577637
1761378829528359000,0.31235888671875,0.008101480081677437,0.009259188547730446,-0.015361099503934383
1761378829538414800,0.322414794921875,0.01828194595873356,0.010335105471313,0.0057108961045742035
1761378829548471000,0.332470947265625,0.020057683810591698,0.0017380067147314548,0.01128494180738926
1761378829558527000,0.34252685546875,0.019325047731399536,-0.0016370173543691635,0.0016695987433195114
1761378829568582100,0.35258203125,0.004603241104632616,-0.002315992722287774,-0.016606803983449936
1761378829578638000,0.36263818359375,-0.01880594529211521,-0.0023905611597001553,-0.019626829773187637
1761378829588694000,0.372694091796875,-0.02588288113474846,0.0038135615177452564,-0.00238392548635602
1761378829598750200,0.382750244140625,-0.018459852784872055,0.0032369871623814106,0.02536967769265175
1761378829608804900,0.392804931640625,0.0035349305253475904,-0.0031762230210006237,0.046890512108802795
1761378829618861000,0.402861083984375,0.018354622647166252,-0.007656192407011986,0.05264293774962425
1761378829628917000,0.4129169921875,0.030802767723798752,0.0019490825943648815,0.03627318888902664
1761378829638973000,0.422972900390625,0.03559006750583649,0.0034785359166562557,0.004325375892221928
1761378829649028000,0.433028076171875,0.03035343624651432,0.011191437020897865,-0.022020960226655006
1761378829659084000,0.443083984375,0.014052759855985641,0.01097971573472023,-0.029428809881210327
1761378829669140200,0.45314013671875,-0.0013991352170705795,-0.00039555132389068604,-0.021107643842697144
1761378829679196200,0.463196044921875,0.002934892661869526,-0.004551680758595467,-0.00178907485678792
1761378829689252000,0.473252197265625,-0.001801927573978901,-0.0112453056499362,0.012728978879749775
1761378829699307000,0.48330712890625,-0.007143429480493069,-0.0003833365626633167,0.01450690533965826
1761378829709363000,0.493363037109375,-0.003871023654937744,0.01027316227555275,-0.006901539862155914
1761378829719419000,0.5034189453125,0.005783734377473593,0.014503592625260353,-0.03736703842878342
1761378829729475000,0.51347509765625,0.021051663905382156,0.006760177668184042,-0.07473050802946091
1761378829739529500,0.523529541015625,0.028383612632751465,-0.016796015202999115,-0.101023368537426
1761378829749585400,0.53358544921875,0.016277946531772614,-0.018822945654392242,-0.10365403443574905
1761378829759641300,0.543641357421875,-0.013213898055255413,-0.013321654871106148,-0.07556647807359695
1761378829769697500,0.553697509765625,-0.025825710967183113,-0.0012897823471575975,-0.013670887798070908
1761378829779753500,0.56375341796875,-0.033732373267412186,0.008469104766845703,0.049467865377664566
1761378829789808400,0.573808349609375,-0.023012731224298477,0.0182390995323658,0.08272699266672134
1761378829799864600,0.583864501953125,-0.006240942049771547,0.01505981758236885,0.07899590581655502
1761378829809920500,0.59392041015625,0.017051685601472855,0.015300759114325047,0.05587615817785263
1761378829819976400,0.6039765625,0.028790898621082306,0.019356753677129745,0.022917676717042923
1761378829830031400,0.61403125,0.02224656566977501,0.014770125970244408,0.005985758733004332
1761378829840087300,0.62408740234375,0.012875167652964592,0.017526764422655106,0.01044255867600441
1761378829850143500,0.6341435546875,0.0036614290438592434,0.006965999025851488,0.03566029667854309
1761378829860199400,0.644199462890625,-0.00816300604492426,0.0008473861962556839,0.059760574251413345
1761378829870255400,0.65425537109375,-0.01088925264775753,-0.0008465489372611046,0.07457616925239563
1761378829880310500,0.664310546875,-0.010571803897619247,-0.0024795993231236935,0.06412060558795929
1761378829890366500,0.674366455078125,-0.009041611105203629,-0.008252521045506,0.02808273211121559
1761378829900422400,0.68442236328125,-0.007286589127033949,-0.015488595701754093,-0.019555626437067986
1761378829910478300,0.694478271484375,0.0022126398980617523,-0.02098616026341915,-0.053016383200883865
1761378829920533500,0.704533447265625,0.008132047951221466,-0.018349364399909973,-0.07146063446998596
1761378829930589400,0.71458935546875,0.005983203649520874,0.002994528040289879,-0.07641254365444183
1761378829940645400,0.724645263671875,-0.00730916578322649,0.026729417964816093,-0.07333418726921082
1761378829950701600,0.73470166015625,-0.018299086019396782,0.039291199296712875,-0.051985789090394974
1761378829960757500,0.744757568359375,-0.020917238667607307,0.04449981078505516,-0.014181949198246002
1761378829970812700,0.754812744140625,-0.016522817313671112,0.04063360393047333,0.015483486466109753
1761378829980868400,0.764868408203125,-0.005408113822340965,0.017336005344986916,0.02464129775762558
1761378829990924300,0.77492431640625,0.004759480245411396,-0.0012542265467345715,0.01206556148827076
1761378830000980500,0.78498046875,0.014629155397415161,-0.021024735644459724,-0.016971947625279427
1761378830011035400,0.795035400390625,0.029447544366121292,-0.02812776528298855,-0.04941530153155327
1761378830021091600,0.805091552734375,0.040593408048152924,-0.029065197333693504,-0.05812889710068703
1761378830031147500,0.8151474609375,0.039736490696668625,-0.012104341760277748,-0.04507768899202347
1761378830041203500,0.825203369140625,0.02358734793961048,0.010322405025362968,-0.03241462633013725
1761378830051259400,0.83525927734375,0.014370562508702278,0.016170036047697067,-0.013644328340888023
1761378830061314300,0.845314208984375,0.008096953853964806,0.022516349330544472,0.01056620292365551
1761378830071370200,0.855370361328125,0.0010170876048505306,0.009582306258380413,0.03559572622179985
1761378830081426400,0.865426513671875,-0.0056823608465492725,-0.0021670274436473846,0.045255012810230255
1761378830091482400,0.875482421875,-0.0026835212484002113,-0.011697066016495228,0.046937890350818634
1761378830101537500,0.88553759765625,0.00678481487557292,-0.026227006688714027,0.044594574719667435
1761378830111593500,0.895593505859375,0.02618570625782013,-0.0368717722594738,0.03263945132493973
1761378830121649400,0.9056494140625,0.039458900690078735,-0.034318599849939346,0.014079881832003593
1761378830131705600,0.91570556640625,0.037181541323661804,-0.017390146851539612,-0.0009048795327544212
1761378830141761500,0.925761474609375,0.021227343007922173,0.002160650212317705,-0.011745275929570198
1761378830151816400,0.93581640625,0.0072538279928267,0.004250580444931984,-0.0006067766807973385
1761378830161872400,0.945872314453125,-0.004899507854133844,0.003196501173079014,0.02133793756365776
1761378830171928300,0.95592822265625,-0.013104293495416641,-0.005221572704613209,0.04340828210115433
1761378830181984500,0.965984619140625,-0.02393830008804798,-0.00632571941241622,0.04295447841286659
1761378830192039400,0.976039306640625,-0.029895644634962082,-0.004112822003662586,0.035810451954603195
1761378830202095600,0.986095703125,-0.013878858648240566,-0.003231581998988986,0.022208625450730324
1761378830212151600,0.996151611328125,-0.005500286351889372,-0.004474265035241842,0.006636687554419041
1761378830222207500,1.00620751953125,0.007912457920610905,-0.0021466619800776243,-0.007832532748579979
1761378830232262400,1.016262451171875,0.01303406897932291,-0.0031047265511006117,-0.017312228679656982
1761378830242318300,1.026318359375,0.021107176318764687,-0.0008455670904368162,-0.02078871801495552
1761378830252374500,1.03637451171875,0.020590227097272873,-0.0001482381485402584,-0.008717481046915054
1761378830262430500,1.046430419921875,0.014390921220183372,-0.013749001547694206,0.014913014136254787
1761378830272486400,1.056486328125,0.0026680403389036655,-0.01749534159898758,0.03534500300884247
1761378830282541600,1.06654150390625,-0.00024199578911066055,-0.007566545158624649,0.03583875298500061
1761378830292597500,1.076597412109375,-0.0018672933802008629,0.00007048854604363441,0.01922949030995369
1761378830302653400,1.0866533203125,-0.007758205756545067,0.007347309496253729,-0.0065395222045481205
1761378830312709600,1.096709716796875,-0.0023409808054566383,0.014688030816614628,-0.015320641919970512
1761378830322764300,1.106764404296875,-0.0004213741049170494,0.012878677807748318,-0.008964475244283676
1761378830332820500,1.116820556640625,0.008573037572205067,0.011567315086722374,-0.0013129482977092266
1761378830342876400,1.12687646484375,0.01661818102002144,0.016927191987633705,0.008786290884017944
1761378830352932400,1.136932373046875,0.009828836657106876,-0.0045702410861849785,0.01771419867873192
1761378830362988500,1.146988525390625,0.000027338974177837372,-0.014045501127839088,0.02848775126039982
1761378830373043500,1.15704345703125,-0.01179111935198307,-0.01510599534958601,0.03915770351886749
1761378830383099600,1.167099609375,-0.024755122140049934,-0.01616779714822769,0.04613092541694641
1761378830393155300,1.1771552734375,-0.0357525534927845,-0.01202154066413641,0.04011709615588188
1761378830403211300,1.187211181640625,-0.029844064265489578,-0.006420646794140339,0.023636125028133392
1761378830413266400,1.197266357421875,-0.019831351935863495,0.003119270782917738,-0.0034343991428613663
1761378830423322400,1.207322265625,-0.011417360976338387,0.004345922730863094,-0.02585155889391899
1761378830433378600,1.217378662109375,-0.0035086842253804207,-0.005799204111099243,-0.028514521196484566
1761378830443434500,1.2274345703125,0.008070207200944424,-0.0059605916030704975,-0.025244424119591713
1761378830453490400,1.237490478515625,0.009181544184684753,-0.006717994809150696,-0.007181534543633461
1761378830463545600,1.247545654296875,0.004026847891509533,-0.00842542015016079,0.014910059049725533
1761378830473601300,1.257601318359375,-0.0145273981615901,-0.007441548630595207,0.03621137887239456
1761378830483657500,1.267657470703125,-0.026510827243328094,-0.0015306626446545124,0.04220801591873169
1761378830493713400,1.27771337890625,-0.034284207969903946,-0.0034500251058489084,0.022750962525606155
1761378830503768300,1.287768310546875,-0.02377856895327568,-0.0025056679733097553,-0.001100041437894106
1761378830513824500,1.297824462890625,-0.002249662298709154,0.004393592476844788,-0.0249472688883543
1761378830523880400,1.30788037109375,0.008726023137569427,-0.0017481900285929441,-0.033091746270656586
1761378830533936400,1.317936279296875,0.013482250273227692,0.004488483536988497,-0.011347423307597637
1761378830543992600,1.32799267578125,0.004855206236243248,0.007355642970651388,0.01766239106655121
1761378830554047200,1.338047119140625,-0.00513564283028245,0.014918487519025803,0.04557178542017937
1761378830564103400,1.348103515625,-0.01228862814605236,0.019334008917212486,0.04973696917295456
1761378830574159400,1.358159423828125,-0.02138509787619114,0.02272302657365799,0.030342325568199158
1761378830584215300,1.36821533203125,-0.02090306393802166,0.008124643005430698,0.004163186997175217
1761378830594270500,1.3782705078125,-0.011356521397829056,0.000729165505617857,-0.014218310825526714
1761378830604326400,1.388326416015625,0.000354730524122715,-0.003146532690152526,-0.022143878042697906
1761378830614382600,1.398382568359375,0.010557478293776512,-0.007078086491674185,-0.01031540147960186
1761378830624438500,1.4084384765625,0.008080737665295601,0.009161603637039661,0.007475046906620264
1761378830634493400,1.418493408203125,-0.0014630258083343506,0.020704714581370354,0.01929330825805664
1761378830644549400,1.42854931640625,-0.006229018792510033,0.028582876548171043,0.0259698536247015
1761378830654605300,1.438605224609375,-0.006679830607026815,0.039214156568050385,0.010915922001004219
1761378830664661500,1.44866162109375,-0.016190245747566223,0.03913133591413498,-0.007628999650478363
1761378830674717400,1.458717529296875,-0.021080756559967995,0.03021940588951111,-0.01434653252363205
1761378830684772600,1.468772705078125,-0.018904155120253563,0.01335760299116373,-0.00803324207663536
1761378830694828500,1.47882861328125,-0.008945325389504433,-0.00924346037209034,0.011959955096244812
1761378830704884500,1.488884521484375,-0.0010509160347282887,-0.018228434026241302,0.02453486993908882
1761378830714940700,1.498940673828125,-0.0016203876584768295,-0.014858504757285118,0.024877328425645828
1761378830724995300,1.508995361328125,0.0018624942749738693,0.0004791724495589733,0.013116810470819473
1761378830735051500,1.519051513671875,0.007919645868241787,0.007860270328819752,-0.004968499764800072
1761378830745108000,1.52910791015625,0.016193289309740067,0.01269044540822506,-0.018635310232639313
1761378830755164000,1.539163818359375,0.024086162447929382,0.013450508937239647,-0.020886991173028946
1761378830765219800,1.5492197265625,0.020479176193475723,0.011013982817530632,-0.015242153778672218
1761378830775275000,1.55927490234375,0.007749706972390413,-0.004404059611260891,0.00012908130884170532
1761378830785331000,1.5693310546875,0.001174628734588623,-0.005290093366056681,0.021045813336968422
1761378830795387000,1.579386962890625,-0.004920903127640486,-0.006634439341723919,0.0417160838842392
1761378830805442800,1.58944287109375,-0.004759516101330519,-0.004699918907135725,0.04168971627950668
1761378830815498000,1.599498046875,0.0020074890926480293,-0.0028864440973848104,0.027921393513679504
1761378830825554000,1.609553955078125,0.007110638543963432,0.0036217891611158848,0.011737361550331116
1761378830835609900,1.61960986328125,0.017952810972929,0.010150701738893986,-0.0036151546519249678
1761378830845666000,1.629666015625,0.020336072891950607,0.0008791727013885975,-0.011860834434628487
1761378830855721000,1.639720947265625,0.01661507412791252,-0.010783283039927483,-0.00721385981887579
1761378830865777000,1.64977685546875,0.018565841019153595,-0.02599898725748062,0.003428931348025799
1761378830875832800,1.659832763671875,0.005829745437949896,-0.038763292133808136,0.0027507441118359566
1761378830885888800,1.669888671875,-0.00923069566488266,-0.03453285992145538,0.0019475342705845833
1761378830895945000,1.679945068359375,-0.012157807126641273,-0.027404852211475372,0.004087409935891628
1761378830906000000,1.689999755859375,-0.013252632692456245,-0.00792249757796526,0.012181822210550308
1761378830916055800,1.700055908203125,-0.0072167254984378815,0.002842188347131014,0.01447942666709423
1761378830926112000,1.710112060546875,0.0026902337558567524,0.008704072795808315,0.020637720823287964
1761378830936168000,1.72016796875,0.011522224172949791,0.011521618813276291,0.010840725153684616
1761378830946223000,1.73022314453125,0.015032803639769554,0.008476560935378075,-0.008407805114984512
1761378830956278800,1.74027880859375,0.011623244732618332,-0.001182533334940672,-0.03596464544534683
1761378830966334700,1.750334716796875,0.002260635606944561,-0.0068601262755692005,-0.05811309069395065
1761378830976391000,1.760390869140625,-0.004692550748586655,-0.01796136237680912,-0.06680862605571747
1761378830986445800,1.77044580078125,-0.008733365684747696,-0.014661972410976887,-0.06627999246120453
1761378830996502000,1.780501953125,-0.0015177675522863865,-0.005052444525063038,-0.05224406346678734
1761378831006558000,1.790557861328125,0.0031424975022673607,-0.0007024372462183237,-0.027269737794995308
1761378831016614000,1.80061376953125,0.005940799135714769,0.011484431102871895,-0.004324476234614849
1761378831026670000,1.810670166015625,0.00951449479907751,0.007264386862516403,0.009149521589279175
1761378831036724700,1.820724853515625,0.003988198935985565,-0.009382082149386406,0.017085015773773193
1761378831046781000,1.830781005859375,0.0014166506007313728,-0.013478023931384087,0.012216491624712944
1761378831056836900,1.8408369140625,-0.007472387049347162,-0.011774192564189434,0.0021083159372210503
1761378831066892800,1.850892822265625,-0.016073599457740784,-0.010859929025173187,-0.0125513207167387
1761378831076948000,1.860947998046875,-0.0076256366446614265,-0.010732021182775497,-0.017341911792755127
1761378831087004000,1.87100390625,0.005432907026261091,-0.01759978197515011,-0.01341428142040968
1761378831097059800,1.881059814453125,0.016114696860313416,-0.020347818732261658,-0.0006033857353031635
1761378831107116000,1.891115966796875,0.016875294968485832,-0.022030405700206757,0.019734377041459084
1761378831117170700,1.901170654296875,0.018184712156653404,-0.01684074103832245,0.030574891716241837
1761378831127227000,1.911226806640625,0.00555174145847559,-0.00771755026653409,0.02506135031580925
1761378831137282800,1.92128271484375,-0.009772708639502525,0.00196934025734663,0.00953785888850689
1761378831147338800,1.9313388671875,-0.018380312249064445,0.011227553710341454,-0.009742360562086105
1761378831157395000,1.94139501953125,-0.024227755144238472,0.009133659303188324,-0.022554080933332443
1761378831167449900,1.951449951171875,-0.021039418876171112,0.0038968194276094437,-0.02825164794921875
1761378831177506000,1.961506103515625,-0.012190086767077446,-0.007464094087481499,-0.02168833464384079
1761378831187562000,1.97156201171875,0.00015100184828042984,-0.00963776558637619,-0.0090841269120574
1761378831197618000,1.981617919921875,0.00994456559419632,-0.009935581125319004,-0.003975843079388142
1761378831207672800,1.9916728515625,0.018481861799955368,-0.011310038156807423,-0.0008487594313919544
1761378831217728800,2.001728759765625,0.018486980348825455,-0.011743983253836632,-0.008850542828440666
1761378831227785000,2.011784912109375,0.004556518048048019,-0.01167154498398304,-0.017463471740484238
1761378831237841000,2.0218408203125,-0.009532641619443893,-0.012973679229617119,-0.026342377066612244
1761378831247896000,2.03189599609375,-0.015598522499203682,-0.005926421843469143,-0.03024337813258171
1761378831257952000,2.041951904296875,-0.024186119437217712,0.006490298546850681,-0.03710220381617546
1761378831268008000,2.052008056640625,-0.01947818510234356,0.017678504809737206,-0.03889051452279091
1761378831278064000,2.062064208984375,-0.010731654241681099,0.020633243024349213,-0.03395996242761612
1761378831288118800,2.072118896484375,-0.004382410552352667,0.01990540325641632,-0.027816317975521088
1761378831298175000,2.082175048828125,-0.0007990985177457333,0.014249799773097038,-0.025273725390434265
1761378831308231000,2.09223095703125,-0.00015727709978818893,0.006688020657747984,-0.022323740646243095
1761378831318286800,2.102286865234375,-0.007566457148641348,0.011245489120483398,-0.02156181074678898
1761378831328342000,2.112342041015625,-0.005040982272475958,0.005336733069270849,-0.029719606041908264
1761378831338398000,2.12239794921875,-0.0009074569679796696,0.0013467827811837196,-0.03564073145389557
1761378831348454000,2.132453857421875,0.009492186829447746,-0.0014487372245639563,-0.035928621888160706
1761378831358510000,2.142510009765625,0.017398789525032043,0.007580142002552748,-0.03858526796102524
1761378831368565800,2.152565673828125,0.011329978704452515,0.005482103209942579,-0.038748521357774734
1761378831378621000,2.162620849609375,-0.0037145474925637245,0.006064116954803467,-0.032442376017570496
1761378831388676900,2.1726767578125,-0.010353541933000088,0.008626876398921013,-0.023162854835391045
1761378831398732800,2.18273291015625,-0.011022643186151981,0.0007357983849942684,-0.007123095449060202
1761378831408789000,2.1927890625,-0.004208945669233799,0.005437342915683985,0.016374506056308746
1761378831418844000,2.202843994140625,0.007756283041089773,0.01230565458536148,0.03716089203953743
1761378831428900000,2.212900146484375,0.013425353914499283,0.015649786219000816,0.04390694573521614
1761378831438956000,2.2229560546875,0.022561710327863693,0.01810881309211254,0.03143049404025078
1761378831449011700,2.23301171875,0.02350287139415741,0.02249583974480629,0.022986143827438354
1761378831459067000,2.24306689453125,0.01553303562104702,0.016927607357501984,0.01850985363125801
1761378831469122800,2.253122802734375,-0.0025266590528190136,0.01443755067884922,0.008363742381334305
1761378831479179000,2.263178955078125,-0.0203628558665514,0.006232922896742821,0.002047402784228325
1761378831489235000,2.27323486328125,-0.03649495542049408,0.005343426950275898,-0.000041847582906484604
1761378831499290000,2.2832900390625,-0.02895294316112995,-0.011536315083503723,-0.003427838906645775
1761378831509346000,2.293345947265625,-0.002274459693580866,-0.02246006950736046,-0.0020160973072052
1761378831519402000,2.303402099609375,0.01949179172515869,-0.030791176483035088,0.004577913787215948
1761378831529458000,2.3134580078125,0.031022746115922928,-0.029082493856549263,0.005469274241477251
1761378831539513900,2.323513916015625,0.03402096405625343,-0.015822673216462135,0.011156696826219559
1761378831549568800,2.33356884765625,0.018875300884246826,-0.0011814124882221222,0.027799855917692184
1761378831559625000,2.343625,-0.0033356407657265663,0.004346226342022419,0.03751332312822342
1761378831569681000,2.353680908203125,-0.02241186425089836,0.0041922954842448235,0.03090468794107437
1761378831579736800,2.36373681640625,-0.030289877206087112,0.0005130046047270298,0.0209213700145483
1761378831589792000,2.3737919921875,-0.027857348322868347,-0.005276174750179052,0.013229895383119583
1761378831599847700,2.38384765625,-0.018938954919576645,-0.010459329932928085,0.010912872850894928
1761378831609903900,2.39390380859375,0.0014105252921581268,-0.01264871470630169,0.010676385834813118
1761378831619959800,2.403959716796875,0.02949225716292858,-0.016189124435186386,0.01200890727341175
1761378831630015000,2.414014892578125,0.04596923664212227,-0.008220147341489792,0.010776130482554436
1761378831640071000,2.42407080078125,0.046201493591070175,0.01069276686757803,0.0027850251644849777
1761378831650126800,2.434126953125,0.02523575723171234,0.02150520123541355,-0.006269189529120922
1761378831660183000,2.44418310546875,0.007402878254652023,0.0229963231831789,-0.008762828074395657
1761378831670238000,2.454238037109375,-0.0057020047679543495,0.020742490887641907,-0.013040663674473763
1761378831680294000,2.4642939453125,-0.024236928671598434,0.009594517759978771,-0.012765025720000267
1761378831690349800,2.474349853515625,-0.02409444749355316,-0.016290875151753426,-0.01363028772175312
1761378831700405800,2.48440576171875,-0.0027257129549980164,-0.033106930553913116,-0.010892171412706375
1761378831710461000,2.4944609375,0.030850622802972794,-0.046158816665410995,-0.006068653427064419
1761378831720516900,2.504516845703125,0.04838528484106064,-0.040425125509500504,-0.008346526883542538
1761378831730573000,2.514572998046875,0.04744359105825424,-0.008730577304959297,-0.007179795764386654
1761378831740632800,2.5246328125,0.03690066933631897,0.009016040712594986,-0.015608096495270729
1761378831750687700,2.534687744140625,0.020854059606790543,0.022022653371095657,-0.021469181403517723
1761378831760744000,2.544743896484375,0.0018409253098070621,0.011230573058128357,-0.02452576346695423
1761378831770799900,2.5547998046875,-0.012164372950792313,-0.0063383011147379875,-0.017524313181638718
1761378831780855800,2.564855712890625,-0.021901244297623634,-0.01993931084871292,-0.0035002282820641994
1761378831790910700,2.57491064453125,-0.018060166388750076,-0.03256029635667801,0.006743887439370155
1761378831800966700,2.584966552734375,-0.0027113384567201138,-0.028283316642045975,0.010580389760434628
1761378831811022800,2.59502294921875,0.014896683394908905,-0.021423544734716415,0.002296892926096916
1761378831821078800,2.605078857421875,0.03248317167162895,-0.0062647187151014805,-0.016406003385782242
1761378831831134700,2.615134765625,0.03577856719493866,0.0030616712756454945,-0.040548622608184814
1761378831841190000,2.62518994140625,0.018045254051685333,0.01328529603779316,-0.05249609798192978
1761378831851245800,2.635245849609375,-0.013756616972386837,0.013213390484452248,-0.04857619106769562
1761378831861302000,2.645302001953125,-0.03548635169863701,0.011278226971626282,-0.02349964715540409
1761378831871357700,2.655357666015625,-0.0420537069439888,0.001515610609203577,0.002190268598496914
1761378831881412900,2.665412841796875,-0.023175735026597977,-0.010286584496498108,0.016734130680561066
1761378831891468800,2.67546875,-0.004152776673436165,-0.015613972209393978,0.029076285660266876
1761378831901524700,2.685524658203125,0.022044822573661804,-0.006389660760760307,0.02969488874077797
1761378831911581000,2.695580810546875,0.04066697508096695,0.008618316613137722,0.014391832053661346
1761378831921635800,2.7056357421875,0.039084143936634064,0.008102331310510635,-0.014525230973958969
1761378831931691800,2.71569189453125,0.02204017899930477,-0.005098158959299326,-0.03385871276259422
1761378831941748000,2.725748046875,0.004042270127683878,-0.009370667859911919,-0.03678659349679947
1761378831951803600,2.7358037109375,-0.017119741067290306,-0.022806314751505852,-0.016720740124583244
1761378831961858800,2.74585888671875,-0.02352011576294899,-0.026747260242700577,0.011608103290200233
1761378831971914800,2.755914794921875,-0.011293809860944748,-0.025342710316181183,0.043623294681310654
1761378831981970700,2.765970703125,0.0026991465128958225,-0.024025019258260727,0.05448630452156067
1761378831992027000,2.77602685546875,0.014415723271667957,-0.017386822029948235,0.041885554790496826
1761378832002081800,2.786081787109375,0.019069213420152664,-0.010707538574934006,0.014087384566664696
1761378832012138000,2.796137939453125,0.022035174071788788,0.0025475467555224895,-0.025634994730353355
1761378832022193700,2.806193603515625,0.021439066156744957,0.010061560198664665,-0.05111045390367508
1761378832032249600,2.81624951171875,0.01249350793659687,0.0053562866523861885,-0.04034196212887764
1761378832042304800,2.8263046875,0.003599354764446616,0.007101038936525583,-0.006786593236029148
1761378832052360700,2.836360595703125,-0.004619160201400518,-0.005682666786015034,0.027673646807670593
1761378832062417000,2.8464169921875,-0.005138711538165808,-0.007985292002558708,0.04999011382460594
1761378832072472800,2.856472900390625,-0.006067888345569372,-0.007487547118216753,0.047115497291088104
1761378832082528000,2.866528076171875,-0.008150897920131683,-0.005473800003528595,0.019372742623090744
1761378832092584000,2.876583984375,-0.0033271140418946743,-0.012709608301520348,-0.009693529456853867
1761378832102639600,2.8866396484375,0.004891309887170792,-0.023146042600274086,-0.021369386464357376
1761378832112695800,2.89669580078125,0.015360727906227112,-0.03898279368877411,-0.02042130008339882
1761378832122750700,2.906750732421875,0.030270345509052277,-0.04336932674050331,-0.006444522645324469
1761378832132806700,2.916806640625,0.03095770813524723,-0.03751303628087044,0.008111250586807728
1761378832142862800,2.92686279296875,0.02629830315709114,-0.024348078295588493,0.017323343083262444
1761378832152918800,2.936918701171875,0.01630319282412529,-0.007794934790581465,0.01814732514321804
1761378832162974000,2.946973876953125,-0.0011180173605680466,0.006895844358950853,0.005378267262130976
1761378832173030000,2.95702978515625,-0.01563144475221634,0.01756233721971512,0.005355097819119692
1761378832183085600,2.96708544921875,-0.01412620022892952,0.013533124700188637,0.007337627001106739
1761378832193141800,2.977141845703125,-0.00452870037406683,0.011399932205677032,0.019271783530712128
1761378832203197700,2.98719775390625,0.0065801115706563,-0.006224278826266527,0.032729558646678925
1761378832213252900,2.9972529296875,0.014125113375484943,-0.015718180686235428,0.045315925031900406
1761378832223308800,3.007308837890625,0.01497564371675253,-0.02385006472468376,0.04812507703900337
1761378832233364700,3.01736474609375,0.012436052784323692,-0.018699776381254196,0.04598815739154816
1761378832243421000,3.0274208984375,0.009787503629922867,-0.007578419521450996,0.037374015897512436
1761378832253475600,3.0374755859375,0.0020454279147088528,-0.0041221692226827145,0.02591230347752571
1761378832263531800,3.04753173828125,-0.005041096359491348,-0.004606522154062986,0.01856853999197483
1761378832273587700,3.057587646484375,0.00012863148003816605,-0.008567707613110542,0.014856092631816864
1761378832283643600,3.0676435546875,0.005516381934285164,-0.009628217667341232,0.009347852319478989
1761378832293698800,3.07769873046875,0.008529216051101685,-0.014802206307649612,0.003377845510840416
1761378832303754800,3.087754638671875,0.01096071396023035,-0.019416190683841705,0.007993877865374088
1761378832313811000,3.09781103515625,0.012219591066241264,-0.015082428231835365,0.005453222431242466
1761378832323867000,3.107866943359375,0.00762646459043026,-0.0011771132703870535,0.0021344637498259544
1761378832333921800,3.117921875,-0.004568949341773987,0.01324843056499958,-0.009666003286838531
1761378832343977700,3.127977783203125,-0.01640528067946434,0.02715970017015934,-0.03168623149394989
1761378832354033700,3.13803369140625,-0.03175094723701477,0.026646509766578674,-0.04854723438620567
1761378832364089600,3.148089599609375,-0.024044319987297058,0.01222134567797184,-0.041824955493211746
1761378832374144800,3.158144775390625,-0.001460714265704155,-0.0012846100144088268,-0.01988370344042778
1761378832384200700,3.16820068359375,0.01991686411201954,-0.02190341241657734,0.009268151596188545
1761378832394257000,3.1782568359375,0.03141719475388527,-0.031136590987443924,0.036821749061346054
1761378832404312800,3.188312744140625,0.025939753279089928,-0.028203517198562622,0.046331439167261124
1761378832414367700,3.19836767578125,0.011221528053283691,-0.018065396696329117,0.039537448436021805
1761378832424423700,3.208423583984375,-0.010264795273542404,-0.0043902345933020115,0.025323938578367233
1761378832434479600,3.218479736328125,-0.024063698947429657,0.011713368818163872,0.007204589433968067
1761378832444535800,3.228535888671875,-0.028557751327753067,0.019401591271162033,-0.0007534921169281006
1761378832454590700,3.2385908203125,-0.018542934209108353,0.01794670708477497,0.004067096393555403
1761378832464647000,3.24864697265625,-0.0007579796947538853,0.015139035880565643,0.015218213200569153
1761378832474702800,3.258702880859375,0.015137096866965294,0.012275073677301407,0.03849077969789505
1761378832484758800,3.2687587890625,0.028374649584293365,0.0074030025862157345,0.05605839192867279
1761378832494813700,3.278813720703125,0.022653115913271904,0.006761713419109583,0.0631336122751236
1761378832504869600,3.28886962890625,0.006957568693906069,0.006637704558670521,0.06517550349235535
1761378832514925800,3.29892578125,-0.007687420584261417,0.004978555254638195,0.04766841605305672
1761378832524981800,3.308981689453125,-0.017975565046072006,0.01031874492764473,0.029071174561977386
1761378832535037000,3.319036865234375,-0.01969303749501705,0.0036222264170646667,0.008595462888479233
1761378832545092900,3.3290927734375,-0.01336696557700634,0.0029135597869753838,-0.0020907376892864704
1761378832555148800,3.339148681640625,-0.002192873042076826,-0.004599217791110277,-0.015298152342438698
1761378832565204700,3.349204833984375,0.01191646233201027,-0.00927576795220375,-0.023326542228460312
1761378832575259600,3.359259765625,0.017059825360774994,-0.00972690712660551,-0.024018963798880577
1761378832585315600,3.369315673828125,0.021123036742210388,-0.008194960653781891,-0.019080495461821556
1761378832595371800,3.379371826171875,0.018450554460287094,-0.015970058739185333,0.0005046576261520386
1761378832605427700,3.389427734375,0.012598912231624126,-0.02351960726082325,0.027381278574466705
1761378832615483000,3.39948291015625,0.01168198511004448,-0.032219089567661285,0.045613281428813934
1761378832625538800,3.409538818359375,0.013915196992456913,-0.03517879173159599,0.04291796684265137
1761378832635594800,3.4195947265625,0.009091679938137531,-0.026838039979338646,0.023996740579605103
1761378832645651000,3.42965087890625,-0.003149151336401701,-0.012439407408237457,-0.005991784390062094
1761378832655705600,3.43970556640625,-0.01188751496374607,-0.0009686409030109644,-0.03396589308977127
1761378832665761800,3.44976171875,-0.009467175230383873,0.014017327688634396,-0.045912787318229675
1761378832675817700,3.459817626953125,-0.0003788713365793228,0.024510715156793594,-0.03456132858991623
1761378832685873700,3.469873779296875,0.010687238536775112,0.016319911926984787,-0.004273997154086828
1761378832695928800,3.4799287109375,0.015741651877760887,0.0005225734785199165,0.025818657130002975
1761378832705984800,3.48998486328125,0.021224360913038254,-0.01429169625043869,0.04045810177922249
1761378832716041000,3.500041015625,0.02016894891858101,-0.021071840077638626,0.0376998670399189
1761378832726097000,3.510096923828125,0.020272139459848404,-0.02601361647248268,0.020697712898254395
1761378832736151800,3.52015185546875,0.008809360675513744,-0.019521627575159073,-0.0029048172291368246
1761378832746204400,3.530204345703125,-0.003569043707102537,-0.015290874987840652,-0.030456526204943657
1761378832756260400,3.54026025390625,-0.005243906285613775,-0.011700667440891266,-0.0376872755587101
1761378832766316300,3.55031640625,0.006495864596217871,-0.0054826270788908005,-0.026131650432944298
1761378832776372500,3.56037255859375,0.013685334473848343,-0.0019227799493819475,-0.0024084774777293205
1761378832786427400,3.570427490234375,0.01415347121655941,0.0009649698622524738,0.02489417977631092
1761378832796483600,3.580483642578125,0.010944895446300507,0.002175909001380205,0.03037389926612377
1761378832806539300,3.590539306640625,-0.002077442593872547,-0.005290175322443247,0.022072847932577133
1761378832816595200,3.60059521484375,-0.007114545442163944,-0.0021910546347498894,0.0015337513759732246
1761378832826650400,3.610650390625,-0.012982307001948357,0.011014197021722794,-0.033873241394758224
1761378832836706300,3.620706298828125,-0.01710514724254608,0.008410956710577011,-0.05418623611330986
1761378832846762500,3.630762451171875,-0.00807387288659811,0.008152625523507595,-0.054397039115428925
1761378832856818400,3.640818359375,-0.007181980647146702,0.014657395891845226,-0.02711135521531105
1761378832866873600,3.65087353515625,-0.008150488138198853,0.010811658576130867,0.017569879069924355
1761378832876929500,3.660929443359375,-0.00219486141577363,0.007530645001679659,0.051270850002765656
1761378832886985200,3.670985107421875,0.007428030949085951,0.002148223575204611,0.058861587196588516
1761378832897041400,3.68104150390625,0.00632654782384634,-0.008298292756080627,0.04318195953965187
1761378832907096300,3.691096435546875,0.0022167605347931385,-0.023490501567721367,0.01802590861916542
1761378832917152500,3.701152587890625,0.002584808971732855,-0.019642766565084457,-0.009878160431981087
1761378832927208400,3.71120849609375,0.01149606890976429,-0.020033948123455048,-0.018584420904517174
1761378832937264400,3.721264404296875,0.015374962240457535,-0.009739765897393227,-0.015613132156431675
1761378832947319600,3.731319580078125,0.009995141997933388,-0.0006147667299956083,0.005344589240849018
1761378832957375500,3.74137548828125,0.00985985342413187,0.011473587714135647,0.025158774107694626
1761378832967431400,3.751431396484375,-0.0005844119004905224,0.015887169167399406,0.03427886590361595
1761378832977487400,3.7614873046875,-0.0149092897772789,0.011658068746328354,0.04078017547726631
1761378832987542300,3.771542236328125,-0.020192496478557587,0.004795751068741083,0.0425681471824646
1761378832997598500,3.781598388671875,-0.01756182499229908,-0.004931977484375238,0.033033233135938644
1761378833007654400,3.791654296875,-0.011580152437090874,-0.017273899167776108,0.017880503088235855
1761378833017710300,3.80171044921875,0.006732274312525988,-0.03414129465818405,-0.0004694773815572262
1761378833027765500,3.811765625,0.02785087563097477,-0.025616252794861794,-0.005253047216683626
1761378833037821200,3.8218212890625,0.020683297887444496,-0.014226676896214485,-0.007824184373021126
1761378833047877400,3.83187744140625,0.008215139620006084,0.00011864770203828812,-0.017499499022960663
1761378833057933300,3.841933349609375,-0.006994173396378756,0.010430141352117062,-0.02138052135705948
1761378833067988500,3.851988525390625,-0.015134451910853386,0.004164694342762232,-0.012985222041606903
1761378833078044400,3.86204443359375,-0.013066506013274193,0.003839788492769003,0.003133827354758978
1761378833088100400,3.872100341796875,-0.008222242817282677,0.001139514148235321,0.015359431505203247
1761378833098156500,3.882156494140625,0.0009896312840282917,-0.003246978623792529,0.013661399483680725
1761378833108211500,3.89221142578125,0.013118108734488487,0.0009064488112926483,0.0029634572565555573
1761378833118267400,3.902267333984375,0.011375335976481438,0.005272967740893364,-0.014362270012497902
1761378833128323300,3.9123232421875,0.005392041523009539,0.013186437077820301,-0.01863284222781658
1761378833138379300,3.922379150390625,-0.004298935644328594,0.0148008456453681,-0.011685453355312347
1761378833148434400,3.932434326171875,-0.011354530230164528,0.014441454783082008,0.009524978697299957
1761378833158490400,3.942490478515625,-0.01810937188565731,0.007482880260795355,0.028951939195394516
1761378833168546600,3.952546630859375,-0.013365697115659714,0.005096133798360825,0.039238639175891876
1761378833178602500,3.9626025390625,-0.009707579389214516,0.013421975076198578,0.03251069784164429
1761378833188657400,3.972657470703125,-0.00789868738502264,0.025328442454338074,0.015118416398763657
1761378833198713300,3.98271337890625,-0.008966349065303802,0.0298283863812685,-0.0013423156924545765
1761378833208769300,3.992769287109375,0.004165983758866787,0.03133843094110489,-0.014270632527768612
1761378833218825200,4.0028251953125,0.014431670308113098,0.026419304311275482,-0.01898602582514286
1761378833228880400,4.01288037109375,0.017305100336670876,0.016860440373420715,-0.005331732798367739
1761378833238936300,4.022936279296875,0.019531503319740295,0.00626398716121912,0.018773337826132774
1761378833248989400,4.032989501953125,0.013438311405479908,0.0011134152300655842,0.04352688789367676
1761378833259045400,4.04304541015625,0.003833621274679899,-0.00804626103490591,0.05551031231880188
1761378833269101300,4.053101318359375,0.0012449980713427067,-0.010790059342980385,0.04605318605899811
1761378833279156500,4.063156494140625,0.00038346508517861366,-0.006882136687636375,0.02470209077000618
1761378833289212400,4.07321240234375,0.003945738077163696,-0.003542380640283227,0.003074898384511471
1761378833299268600,4.0832685546875,0.008772717788815498,-0.0030222651548683643,-0.008228356018662453
1761378833309324500,4.093324462890625,0.00765649788081646,-0.0014230180531740189,-0.007194105535745621
1761378833319379500,4.10337939453125,0.005334221757948399,0.003613818436861038,-0.003391910344362259
1761378833329435400,4.113435302734375,0.005814624018967152,0.009124699048697948,0.011352802626788616
1761378833339491300,4.1234912109375,-0.0016209217719733715,0.011777740903198719,0.023387361317873
1761378833349547300,4.13354736328125,-0.0049715591594576836,0.009372561238706112,0.03084871545433998
1761378833359602400,4.1436025390625,-0.003529457375407219,0.01588958315551281,0.03283862769603729
1761378833369658400,4.153658447265625,-0.0049370587803423405,0.014745241962373257,0.0220608152449131
1761378833379714600,4.163714599609375,-0.002811057958751917,0.010833324864506721,0.008409185335040092
1761378833389770500,4.1737705078125,0.009534886106848717,0.0037153800949454308,-0.014786196872591972
1761378833399825400,4.183825439453125,0.008229936473071575,-0.005242695100605488,-0.030336927622556686
1761378833409881300,4.19388134765625,0.008184779435396194,-0.005484909284859896,-0.030727684497833252
1761378833419937300,4.203937255859375,0.009115021675825119,-0.009694035165011883,-0.016774052754044533
1761378833429993500,4.213993408203125,0.006370456423610449,-0.008879393339157104,0.0033049718476831913
1761378833440048400,4.22404833984375,-0.0005345875397324562,-0.004375188611447811,0.012888889759778976
1761378833450104600,4.2341044921875,-0.011448245495557785,0.005729339551180601,0.014446837827563286
1761378833460160500,4.244160400390625,-0.01659506931900978,0.008254814893007278,0.00791703350841999
1761378833470216400,4.254216552734375,-0.013462606817483902,0.020814530551433563,-0.011096362955868244
1761378833480272400,4.2642724609375,-0.012274570763111115,0.025450028479099274,-0.024980220943689346
1761378833490327300,4.274327392578125,-0.005082498770207167,0.01934218406677246,-0.02252393588423729
1761378833500383500,4.284383544921875,0.006161900237202644,0.006709211505949497,-0.00986779760569334
1761378833510439400,4.294439453125,0.015278887003660202,-0.004840194247663021,0.0023397207260131836
1761378833520495400,4.304495361328125,0.01645626872777939,-0.009166765958070755,0.016796957701444626
1761378833530550500,4.314550537109375,0.017319662496447563,-0.015875060111284256,0.03217015042901039
1761378833540606500,4.3246064453125,0.0008488097228109837,-0.008549237623810768,0.0372069887816906
1761378833550662400,4.334662353515625,-0.015923485159873962,-0.003761254483833909,0.040081944316625595
1761378833560718300,4.34471826171875,-0.02589169517159462,0.005096419248729944,0.036214232444763184
1761378833570773200,4.354773193359375,-0.025227831676602364,0.014525722712278366,0.024595975875854492
1761378833580829400,4.364829345703125,-0.01673128269612789,0.021679505705833435,0.014639215543866158
1761378833590885400,4.374885498046875,0.000017070677131414413,0.010265140794217587,0.0022598747164011
1761378833600941300,4.38494140625,0.01763840764760971,-0.00035687675699591637,-0.012931328266859055
1761378833610996500,4.39499658203125,0.03423280268907547,-0.013109520077705383,-0.02505527250468731
1761378833621052400,4.405052490234375,0.028745094314217567,-0.022806089371442795,-0.027614038437604904
1761378833631108600,4.415108642578125,0.014044858515262604,-0.033082619309425354,-0.021591130644083023
1761378833641164300,4.425164306640625,-0.004384481813758612,-0.01512785442173481,-0.012615211308002472
1761378833651220200,4.43522021484375,-0.02711358666419983,-0.009478528052568436,0.007662072777748108
1761378833661278500,4.445278564453125,-0.034352857619524,-0.012837306596338749,0.028090912848711014
1761378833671334400,4.45533447265625,-0.02379514090716839,-0.01811087504029274,0.028001168742775917
1761378833681390600,4.465390625,-0.008187152445316315,-0.01438617892563343,0.009766770526766777
1761378833691445200,4.4754453125,0.006169061176478863,-0.01193930208683014,-0.011728957295417786
1761378833701501400,4.48550146484375,0.020728830248117447,-0.011552345007658005,-0.02240344136953354
1761378833711557400,4.495557373046875,0.027342524379491806,-0.009170515462756157,-0.02452201209962368
1761378833721613300,4.50561328125,0.020280621945858,-0.000297395046800375,-0.026232026517391205
1761378833731669500,4.51566943359375,-0.0038812346756458282,-0.009693977423012257,-0.019316814839839935
1761378833741724400,4.525724365234375,-0.01952890306711197,-0.010569358244538307,-0.009671377018094063
1761378833751780600,4.535780517578125,-0.02439083158969879,-0.006498600356280804,0.005958764813840389
1761378833761836500,4.54583642578125,-0.024329043924808502,-0.012651034630835056,0.029650511220097542
1761378833771892200,4.555892333984375,-0.01334418449550867,-0.010593974962830544,0.043215490877628326
1761378833781947400,4.565947509765625,-0.0016798051074147224,-0.00846744142472744,0.0442727655172348
1761378833792003300,4.57600341796875,0.004112007562071085,0.0035035256296396255,0.03500179201364517
1761378833802059500,4.5860595703125,0.01472097635269165,0.010719094425439835,0.017587648704648018
1761378833812115500,4.596115478515625,0.017477354034781456,0.019483406096696854,-0.005417196080088615
1761378833822170400,4.60617041015625,0.010967522859573364,0.015682009980082512,-0.029188038781285286
1761378833832226600,4.6162265625,0.0009455080144107342,0.0062025850638747215,-0.03775859996676445
1761378833842282200,4.6262822265625,-0.0047509935684502125,-0.004556852392852306,-0.02162383869290352
1761378833852338400,4.63633837890625,-0.001973256003111601,-0.008813233114778996,0.0019464204087853432
1761378833862393300,4.646393310546875,-0.0025053550489246845,-0.015340374782681465,0.020953133702278137
1761378833872449300,4.65644921875,-0.00458271149545908,-0.006051680073142052,0.023296087980270386
1761378833882505500,4.66650537109375,-0.008812876418232918,0.000138038769364357,0.016367342323064804
1761378833892561400,4.6765615234375,-0.012471940368413925,0.01360999420285225,0.009445324540138245
1761378833902617300,4.686617431640625,-0.01863875612616539,0.01927400380373001,0.002414845861494541
1761378833912672500,4.696672607421875,-0.017165906727313995,0.01571727730333805,0.00040558772161602974
1761378833922728200,4.706728271484375,-0.015846043825149536,0.014875451102852821,-0.0029507940635085106
1761378833932784400,4.716784423828125,-0.018710128962993622,0.01560677494853735,-0.007979907095432281
1761378833942840300,4.72684033203125,-0.015141759067773819,0.01332151610404253,-0.0020863316021859646
1761378833952895500,4.7368955078125,-0.008696762844920158,0.007788022048771381,0.004628564231097698
1761378833962951400,4.746951416015625,0.0051841652020812035,0.003116571344435215,0.01695393957197666
1761378833973007400,4.75700732421875,0.014306502416729927,0.0007994282059371471,0.020868713036179543
1761378833983063600,4.7670634765625,0.006768690887838602,0.0028308876790106297,0.018463345244526863
1761378833993118500,4.777118408203125,-0.009130088612437248,0.0061000133864581585,0.003315721172839403
1761378834003174400,4.78717431640625,-0.011532792821526527,0.0040357974357903,-0.01578367128968239
1761378834013230300,4.797230224609375,-0.008673948235809803,0.00678914412856102,-0.030199410393834114
1761378834023286300,4.807286376953125,-0.014878579415380955,-0.00816663634032011,-0.02197982929646969
1761378834033341400,4.817341552734375,-0.009183647111058235,-0.011253408156335354,-0.0012829029001295567
1761378834043397400,4.8273974609375,0.00017816200852394104,-0.008087974973022938,0.019152596592903137
1761378834053453600,4.83745361328125,0.008823493495583534,-0.007952668704092503,0.028522009029984474
1761378834063509500,4.847509521484375,0.016330678015947342,-0.0023312680423259735,0.020326664671301842
1761378834073565400,4.8575654296875,0.01833476684987545,0.008525525219738483,0.008486999198794365
1761378834083620400,4.867620361328125,0.0014697667211294174,0.009028063155710697,-0.009637409821152687
1761378834093676300,4.87767626953125,-0.014522511512041092,0.010071337223052979,-0.015877656638622284
1761378834103732200,4.887732177734375,-0.028544053435325623,0.00542065966874361,-0.021419961005449295
1761378834113788400,4.897788330078125,-0.029077578336000443,0.0103939613327384,-0.014663884416222572
1761378834123843300,4.90784326171875,-0.026147834956645966,0.004456177353858948,0.005123402923345566
1761378834133899500,4.9178994140625,-0.012890171259641647,-0.005704715382307768,0.017580555751919746
1761378834143955500,4.92795556640625,0.017020322382450104,-0.0026090568862855434,0.027870476245880127
1761378834154011400,4.938011474609375,0.026494543999433517,-0.0016124069225043058,0.03453174605965614
1761378834164066300,4.94806640625,0.026884963735938072,0.000019045546650886536,0.0334869883954525
1761378834174122200,4.958122314453125,0.014273326843976974,0.006381224375218153,0.027683231979608536
1761378834184178400,4.968178466796875,-0.00029363110661506653,0.01010938361287117,0.010349515825510025
1761378834194234400,4.978234375,-0.007105700671672821,0.009616478346288204,-0.009540830738842487
1761378834204289500,4.98828955078125,-0.010991785675287247,0.010353375226259232,-0.025508346036076546
1761378834214345500,4.998345458984375,-0.012294959276914597,0.010720375925302505,-0.026514343917369843
1761378834224401400,5.0084013671875,-0.01063527725636959,0.017106369137763977,-0.00958942249417305
1761378834234457600,5.01845751953125,-0.0020122569985687733,0.01793600432574749,0.012035470455884933
1761378834244513500,5.028513427734375,0.0008024382404983044,0.009437589906156063,0.031114887446165085
1761378834254568400,5.038568359375,0.005939614959061146,0.0050692190416157246,0.04130655899643898
1761378834264624400,5.048624267578125,0.01309473067522049,0.006494010332971811,0.03444945439696312
1761378834274680300,5.058680419921875,0.014398613944649696,0.00804184004664421,0.016614798456430435
1761378834284736500,5.068736572265625,0.007998771034181118,0.0036124703474342823,0.002337857149541378
1761378834294791400,5.07879150390625,-0.004519830923527479,-0.001641544746235013,-0.00823842640966177
1761378834304847400,5.088847412109375,-0.009538557380437851,-0.004782743286341429,-0.020214926451444626
1761378834314903600,5.098903564453125,-0.012731213122606277,0.005518215708434582,-0.023284703493118286
1761378834324959500,5.10895947265625,-0.014344023540616035,0.002915242686867714,-0.015706412494182587
1761378834335014400,5.119014404296875,-0.014185063540935516,0.01250465214252472,0.000042285770177841187
1761378834345070300,5.1290703125,-0.015457522124052048,0.02683565393090248,0.015008185058832169
1761378834355126300,5.139126220703125,-0.010908341035246849,0.027494315057992935,0.02524620108306408
1761378834365182500,5.149182373046875,0.0006859977729618549,0.02817421779036522,0.03139810264110565
1761378834375238400,5.15923828125,0.008088549599051476,0.020658930763602257,0.030476190149784088
1761378834385293600,5.16929345703125,0.008940495550632477,0.013748826459050179,0.020711444318294525
1761378834395349500,5.179349609375,0.0010194256901741028,-0.0006414507515728474,0.022380106151103973
1761378834405405400,5.189405517578125,-0.007852895185351372,-0.023169662803411484,0.032986413687467575
1761378834415461400,5.19946142578125,-0.01390703022480011,-0.011299747042357922,0.07916693389415741
1761378834425516300,5.209516357421875,-0.010594058781862259,-0.044454239308834076,0.08340535312891006
1761378834435572500,5.219572509765625,0.0033430331386625767,-0.051806580275297165,0.05141698569059372
1761378834445628400,5.22962841796875,0.021533753722906113,-0.056623175740242004,0.012017649598419666
1761378834455684400,5.239684326171875,0.026147060096263885,-0.042790696024894714,-0.007658705115318298
1761378834465739500,5.249739501953125,0.02098745107650757,-0.03007916361093521,-0.02349146455526352
1761378834475795500,5.25979541015625,0.008943306282162666,-0.01931418664753437,-0.027785979211330414
1761378834485851600,5.2698515625,-0.0010046660900115967,-0.011981971561908722,-0.02452360838651657
1761378834495907300,5.2799072265625,-0.01532877329736948,0.0030180751346051693,-0.0193416029214859
1761378834505963300,5.28996337890625,-0.021085195243358612,0.01765560731291771,-0.025695640593767166
1761378834516018400,5.300018310546875,-0.012595570646226406,0.02435431070625782,-0.029955463483929634
1761378834526074400,5.310074462890625,0.015968162566423416,0.02183709107339382,-0.04281054437160492
1761378834536130300,5.32013037109375,0.03776974603533745,0.004391065798699856,-0.06116940826177597
1761378834546186500,5.3301865234375,0.04360686242580414,-0.027964476495981216,-0.07766742259263992
