time,seconds_elapsed,z,y,x
1761378855009643000,0.12464306640625,0.11498597709536552,0.041326866644620895,-0.019455080445855855
1761378855019699200,0.13469921875,0.05356083673052489,-0.015230302357673644,-0.05112930786781944
1761378855029755100,0.144755126953125,0.019234788758680222,0.008232990816235542,-0.05441534380116499
1761378855039811000,0.15481103515625,0.01594802217297256,0.12105272978842258,-0.07344313874565996
1761378855049867300,0.1648671875,0.010310308546945451,0.10675473984479904,-0.0608003686631564
1761378855059922200,0.174922119140625,-0.016785130584239957,0.07160919218361378,-0.04404489343166351
1761378855069978000,0.18497802734375,-0.000957958311960101,0.16956044784784316,0.010347069493914023
1761378855080034000,0.195033935546875,0.03117722855210304,0.17661095088124273,-0.01448781342729926
1761378855090090000,0.205090087890625,0.017380758389830588,0.06955810487270354,0.015705664784461257
1761378855100146200,0.215146240234375,-0.008405497838929295,0.04745031796097755,0.09716082680574618
1761378855110202000,0.2252021484375,0.01982471747584641,0.09551379938423633,0.11223771043368615
1761378855120257000,0.235257080078125,0.00576228985376656,0.0810579885303974,0.06163053587698377
1761378855130313200,0.245313232421875,0.050288829322531814,-0.02061784061491489,0.04670330811911262
1761378855140369200,0.255369140625,0.09221249281652272,-0.004586158746480941,0.048663648406649
1761378855150425000,0.265425048828125,0.1677163543511182,0.09030220221579074,0.027362063311273232
1761378855160481300,0.275481201171875,0.22999774621911345,0.14515432086586952,0.02664207847365178
1761378855170537200,0.285537109375,0.22322131088674066,0.07076748066246509,0.019673545502126216
1761378855180592000,0.295592041015625,0.19688041644990442,0.07896773825287819,0.022186112844943998
1761378855190648000,0.30564794921875,0.12363229795284568,0.07964929077625274,0.026481051826197654
1761378855200704000,0.3157041015625,0.008515314888954162,0.004691372686624526,0.03916077465191483
1761378855210760200,0.32576025390625,-0.04180032937526702,-0.01106207676231861,0.05160875281468034
1761378855220816100,0.335816162109375,-0.1085948147535324,-0.025044424885511396,0.06247063082978129
1761378855230872000,0.3458720703125,-0.059652212408185,-0.027387773141264914,0.007817688013613223
1761378855240927200,0.35592724609375,0.0071462915580719705,-0.08696399770379067,0.020432967300992456
1761378855250983200,0.365983154296875,0.09052665862143039,-0.07827624885737895,0.014370324527472257
1761378855261039000,0.3760390625,0.05181318934559822,-0.1367670162707567,0.05487213852480054
1761378855271095000,0.386094970703125,-0.0013725304622203111,-0.13218728726506232,0.07645997494934126
1761378855281151000,0.39615087890625,-0.08275427105426787,-0.11439794807434081,0.0661627633459866
1761378855291206100,0.4062060546875,-0.11724449661187827,-0.06628302872478961,0.042966167417401446
1761378855301262000,0.416261962890625,-0.07082417928576469,-0.01524140827357769,0.00201338564902544
1761378855311318300,0.426318359375,0.01998896812684834,0.039112113204598425,-0.02240017572073266
1761378855321374200,0.436374267578125,0.08457863693721591,0.013501871129870413,-0.031593974393140524
1761378855331430100,0.44643017578125,0.07115918339379132,-0.02190904946923256,-0.07454975741384551
1761378855341486300,0.456486328125,0.14936404751539228,0.06022972003519535,-0.09703092594891786
1761378855351541000,0.466541015625,0.10766659399271011,0.1421533854842186,-0.12467486580833792
1761378855361597200,0.47659716796875,0.07724917083196342,0.13486907369494439,-0.09480157772796229
1761378855371653000,0.486653076171875,0.06863273365609347,0.1334434248059988,-0.07390024399654939
1761378855381709000,0.496708984375,0.017925532791018484,0.11499766753315925,-0.05028510299548507
1761378855391765000,0.506764892578125,-0.018380217755958436,0.041867549392580986,-0.0096169742542319
1761378855401821200,0.5168212890625,-0.07303476800732314,0.00028758476972579955,-0.0230910805943422
1761378855411876000,0.5268759765625,-0.17852628298327325,-0.07282441319227219,-0.026408224052004516
1761378855421932300,0.536932373046875,-0.19583872537724673,-0.09631810150444507,-0.0037616723547689614
1761378855431988200,0.54698828125,-0.09154321525283157,0.004796586626768112,-0.014363182400632649
1761378855442044000,0.5570439453125,-0.028185134064033626,0.03453413776457309,-0.033151761761773375
1761378855452100000,0.56710009765625,0.13501403512358665,0.09133446787297725,-0.055453153283149
1761378855462156000,0.577156005859375,0.21674824241511523,0.17105682388544083,-0.1229232181017287
1761378855472211200,0.587211181640625,0.25313180743865665,0.18189970493912697,-0.10073374425591901
1761378855482267100,0.59726708984375,0.1261883391112089,0.15748188751935957,-0.07997808433920145
1761378855492323000,0.607322998046875,0.015736498314142228,0.0970750573515892,-0.07845087477192282
1761378855502379300,0.617379150390625,-0.07291318745426834,0.06065525197088718,-0.06780919711245223
1761378855512435200,0.627435302734375,-0.11005487736873328,0.03715571843981743,-0.03762448672903702
1761378855522490000,0.637489990234375,-0.021073110101744532,0.04622457555830478,-0.0791828240419738
1761378855532546000,0.647546142578125,0.12283026085495947,0.06354395914971828,-0.15418357662633062
1761378855542602000,0.65760205078125,0.22796645958721637,0.06278875686824321,-0.1535071386694908
1761378855552658200,0.667658203125,0.22565175290405748,0.05541209062039852,-0.09359759049937129
1761378855562714000,0.677714111328125,0.15342304058261214,-0.005554126995801926,-0.03756267353920266
1761378855572770000,0.68777001953125,0.0030769232273101803,-0.10671382331252098,0.010938596513122319
1761378855582825200,0.6978251953125,-0.14696984585523604,-0.14357026654481886,-0.0014943302109837531
1761378855592881200,0.707881103515625,-0.2277635574262589,-0.07935878339707851,-0.0227142192391213
1761378855602937300,0.717937255859375,-0.19507190572321415,-0.05073007028400898,0.00011368950754404068
1761378855612993300,0.7279931640625,-0.10561718718223273,-0.07153028172850609,0.025525933925295247
1761378855623049000,0.738049072265625,0.044242461830377576,-0.09172317492961883,0.012728402539342642
1761378855633105200,0.748105224609375,0.11816628763191402,-0.06777472858726978,0.03239593842579052
1761378855643160000,0.75816015625,0.14260755899250507,0.008786533045768737,0.05264467173367739
1761378855653216000,0.768216064453125,0.15577859073281286,0.06226502525508403,0.05928513266146183
1761378855663272200,0.778272216796875,0.12975041550695895,0.07128302896916866,0.04851444006115198
1761378855673328000,0.788328125,0.09898870895318686,0.04370587073564529,0.02919436590550467
1761378855683384000,0.798384033203125,0.04678564350716769,0.055255438753962514,0.02353297914294526
1761378855693440300,0.808440185546875,0.013115502160787582,0.07892448363304137,0.007210808161646127
1761378855703495000,0.818494873046875,-0.030066052439808845,0.047992754274606704,-0.009822159703820943
1761378855713551000,0.828551025390625,-0.10162029956579208,0.011246201157569885,-0.023197774105519056
1761378855723607000,0.83860693359375,-0.11755780034475027,0.010878536888957024,-0.03585178710124455
1761378855733663000,0.8486630859375,-0.13226327511072158,0.010195230799913406,-0.01666091968268156
1761378855743719200,0.85871923828125,-0.10830021572113037,-0.005087094005942344,-0.006431494352221488
1761378855753775000,0.868775146484375,-0.1353553959071636,-0.01762684210538864,-0.013196750703454017
1761378855763830300,0.878830322265625,-0.22005371370129287,-0.05267535913288593,-0.005979786795657128
1761378855773889500,0.8888896484375,-0.23720175931379198,-0.04268821812570095,0.006977465196652337
1761378855783945500,0.898945556640625,-0.22038163048140702,0.022587094861268996,0.03446605923073366
1761378855794001700,0.909001708984375,-0.1976343766223639,0.06756196261942386,0.06694984033675865
1761378855804057600,0.9190576171875,-0.20230770219564437,0.12316636094152926,0.06064589962065219
1761378855814113500,0.929113525390625,-0.2403044745694846,0.16369184807538986,0.041926604369748384
1761378855824168400,0.93916845703125,-0.32188619471304114,0.1755009438127279,0.005796712713176384
1761378855834224400,0.949224365234375,-0.35312713615112007,0.21087854666411876,-0.04739507150924764
1761378855844280600,0.959280517578125,-0.3570375875931233,0.24139468095898628,-0.10814310719696804
1761378855854336500,0.96933642578125,-0.34866964528560634,0.2328881338983774,-0.1003026410959661
1761378855864392400,0.979392333984375,-0.28198621906638144,0.18086276310682295,-0.06789543235749006
1761378855874447600,0.989447509765625,-0.35647768868803975,0.19096563944816589,-0.07069719190523029
1761378855884503600,0.999503662109375,-0.19784838469922542,0.1523661519408226,0.022631226263940332
1761378855894559700,1.009559814453125,-0.0727455027371645,0.13640461269915102,0.04506970643475652
1761378855904615700,1.01961572265625,0.12102182319350539,0.12375380544066428,0.0030377693938557055
1761378855914671400,1.02967138671875,0.30970008235685526,0.17349603373110292,0.03519712258479558
1761378855924727600,1.0397275390625,0.38364049396701155,0.25071137535870075,0.018040254345024005
1761378855934782500,1.049782470703125,0.32731706065535543,0.2557283267378807,0.029581483793258666
1761378855944838400,1.05983837890625,0.18245273571200668,0.2466477791815996,0.09143223829218186
1761378855954894600,1.06989453125,0.07847557082176208,0.22604221352636814,0.12865180661529302
1761378855964950500,1.079950439453125,0.044244799917936325,0.13928396752774713,0.11655220349878072
1761378855975006500,1.09000634765625,0.05128602366633713,0.1105862808316946,0.013130854993546381
1761378855985062700,1.100062744140625,0.09227978589907287,0.12455986112654209,-0.06662656319914385
1761378855995117300,1.110117431640625,0.06363339099884033,0.16281389619708062,-0.03808627728819847
1761378856005173500,1.120173583984375,-0.13801606648378073,0.16987433610260486,-0.014089891017740592
1761378856015229400,1.1302294921875,-0.31485783044621346,0.18566987112760544,-0.01565347793949768
1761378856025285400,1.140285400390625,-0.4523620018851012,0.3188186969012022,0.03868733018757775
1761378856035341600,1.150341552734375,-0.7832224342357367,0.5807604913264512,0.08631314171277918
1761378856045397500,1.1603974609375,-1.0774094517707824,0.833670838034153,-0.15805048118755222
1761378856055452700,1.17045263671875,-0.8784422921746968,0.850860457766056,-0.49912733325660225
1761378856065508600,1.180508544921875,-0.10796638065688312,0.7092547692924738,-0.7207683892145752
1761378856075564500,1.190564453125,0.38350598086714743,0.5211100324839353,-0.6082477793194353
1761378856085620700,1.200620849609375,0.5913474248576909,0.27617197982966896,-0.3767455468215048
1761378856095676400,1.210676513671875,0.5354968697547913,-0.02123451120853424,-0.1777279722124338
1761378856105732400,1.220732421875,0.36400815725810826,-0.3091010204851627,-0.11133461498096585
1761378856115787500,1.23078759765625,0.22177520373165607,-0.6219447346299887,-0.10886340256184339
1761378856125843500,1.240843505859375,0.1552858387798071,-0.7815460985213518,-0.15866861308589578
1761378856135899600,1.250899658203125,0.0718254652827978,-0.8132464741647243,-0.1202468202330172
1761378856145955600,1.26095556640625,0.09348200129568576,-0.7709259203076362,0.032062779214978215
1761378856156011500,1.271011474609375,0.36715091226324437,-0.6663549542427063,0.10664879525229334
1761378856166067700,1.281067626953125,0.794867352387309,-0.5506587830513715,0.12987316510379313
1761378856176122400,1.291122314453125,0.9721623400099575,-0.37183833942711353,0.2715044264100492
1761378856186178600,1.301178466796875,0.7529221346486359,-0.07761047842502594,0.3761547413215041
1761378856196234500,1.311234375,0.3244930892758071,0.27362346439063545,0.3992565077066421
1761378856206290400,1.32129052734375,-0.47891120531037445,0.6467950982481241,0.31032997775822874
1761378856216346600,1.3313466796875,-0.6770440329741686,0.701827834162116,0.06750497173517941
1761378856226402600,1.341402587890625,-0.26637480843663214,0.5213263055831193,-0.3103627109840512
1761378856236457500,1.35145751953125,0.23712664825096724,0.26448154203593727,-0.4747818504206836
1761378856246513700,1.361513671875,0.5643040081746876,0.03540741346776485,-0.357266208717227
1761378856256569600,1.371569580078125,0.6316515243258327,-0.1607183852225542,-0.16281711106747387
1761378856266625500,1.38162548828125,0.6545576950736344,-0.3741489544570446,-0.012453389556822366
1761378856276681500,1.391681396484375,0.5763344915777444,-0.6264227568268775,0.11305004059672355
1761378856286737400,1.4017373046875,0.3604045067429542,-0.7927578128874302,0.229264244312793
1761378856296792600,1.41179248046875,0.20305844749771057,-0.8449071023195982,0.19887524352893232
1761378856306848500,1.4218486328125,0.052798693251609796,-0.6886234846740961,0.14066913827583194
1761378856316904400,1.431904541015625,0.20355865210480986,-0.5239993241846561,0.06317234935835003
1761378856326960600,1.441960693359375,0.42148068753965195,-0.30454642592072484,-0.06308686759856064
1761378856337016600,1.4520166015625,0.5735703606266528,-0.15995090798139572,-0.1286792791441083
1761378856347071700,1.46207177734375,0.6169910577453672,-0.14476093763411044,-0.15178631535940804
1761378856357127400,1.47212744140625,0.45168877879865466,-0.15312076970040797,-0.01988149373095948
1761378856367183400,1.482183349609375,0.3418355614818632,-0.12953706501722334,0.06616596908322535
1761378856377239600,1.492239501953125,0.170859693878144,-0.05722001682519912,0.1722583086296916
1761378856387295500,1.50229541015625,0.08370236555933952,-0.06072188746631145,0.29289427431076764
1761378856397351400,1.512351318359375,0.05503273591399192,-0.02037877116203308,0.3101335784032941
1761378856407406600,1.522406494140625,0.09125263480842113,-0.01019815340936184,0.2305259348116815
1761378856417462500,1.532462646484375,0.07316635849773884,0.08773556659817695,0.14601751356646417
1761378856427518700,1.542518798828125,0.04596504783928394,0.23377543812692164,0.12725976773500441
1761378856437574700,1.55257470703125,0.0745581781823188,0.36445348987281323,0.07408302581808529
1761378856447630600,1.562630615234375,-0.2039065156944096,0.3627887715309858,0.15834171921908854
1761378856457686500,1.5726865234375,-0.23874906182102856,0.1729962675154209,0.15007744734860023
1761378856467741400,1.582741455078125,-0.3587497252732515,0.0933060602068901,0.09772665312811732
1761378856477797600,1.592797607421875,-0.37439562269449234,0.026091888111829758,-0.01212020751312375
1761378856487853600,1.602853515625,-0.29503698542788626,-0.031848844203352926,-0.0988993410361465
1761378856497909500,1.612909423828125,-0.2237906352072954,-0.0064566287934780114,-0.15291048795059323
1761378856507965400,1.62296533203125,-0.07789740560762584,0.04712707735598087,-0.20521642924919722
1761378856518021600,1.633021728515625,0.005414426264166832,0.09311082989573478,-0.2542657068394124
1761378856528076500,1.64307666015625,0.0824573339343071,0.12394728218615055,-0.27008929891511796
1761378856538132500,1.653132568359375,0.08935045444890856,0.06718845313191414,-0.27761297241821886
1761378856548188400,1.6631884765625,0.17905666353292762,-0.006488192975521087,-0.22661329141259193
1761378856558244400,1.673244384765625,0.23002463422603903,-0.031982115194201466,-0.1677690343864262
1761378856568300500,1.683300537109375,0.2263403196901083,-0.08611644096374511,-0.11834551665633916
1761378856578356500,1.6933564453125,0.23937281974256036,-0.1054009871482849,-0.053913522625714534
1761378856588411600,1.70341162109375,0.20703480378277597,-0.040727147185802455,0.005821833454701118
1761378856598467600,1.713467529296875,0.17768997828960417,-0.042024785780906675,0.016959902629256247
1761378856608523500,1.7235234375,0.10620178213715553,-0.05832827032804489,-0.02257584281489253
1761378856618579700,1.733579833984375,0.07378777833171188,0.03237666746973991,-0.05974150269341189
1761378856628635600,1.7436357421875,0.08838789302706718,0.062060442593693727,-0.10746230359226465
1761378856638690600,1.753690673828125,0.10177169073522091,-0.03285129924416542,-0.10800327860116958
1761378856648746500,1.76374658203125,0.14120280676111577,-0.0368213719189167,-0.015335657861712388
1761378856658802400,1.773802490234375,0.19616963783204555,-0.005292261189222335,0.04275149262025952
1761378856668858600,1.783858642578125,0.1783335368901491,-0.04725333408415317,0.052462154773622746
1761378856678914600,1.79391455078125,0.16596344626918433,-0.055633039894700045,0.12124269940257072
1761378856688970500,1.803970458984375,0.09277253785207867,-0.014181085565686225,0.15847060629576443
1761378856699025700,1.814025634765625,0.01700089222677052,-0.015125672939419745,0.20957345541492103
1761378856709081600,1.82408154296875,-0.023759572706744073,-0.022936638951301574,0.1799199292987585
1761378856719137500,1.834137451171875,-0.08731894862130284,-0.018297288712859152,0.048142980966833414
1761378856729193500,1.844193359375,-0.07665010896027087,0.01690320400595665,-0.03418926984965801
1761378856739249400,1.85424951171875,-0.05319850622415542,0.07321545833647251,-0.09231281138584017
1761378856749305600,1.8643056640625,-0.041346667323634026,0.04575988065600395,-0.11405439533367752
1761378856759360500,1.874360595703125,0.012140008192136884,-0.008458616265654563,-0.09437018230706452
1761378856769416400,1.88441650390625,-0.017840338725596667,-0.056035775476694104,-0.05382700881946366
1761378856779472600,1.89447265625,-0.048471989158913494,-0.07946575090289115,0.022387622199836185
1761378856789528600,1.904528564453125,-0.08205211413428187,-0.03529986144006252,0.08531126206070185
1761378856799584500,1.91458447265625,-0.05321954901218414,0.038946693509817124,0.05911284483447671
1761378856809640400,1.924640380859375,0.02808963780030608,0.13677870670855044,-0.015656998770567587
1761378856819695400,1.9346953125,0.15019881783910094,0.269482126802206,-0.0813541949979961
1761378856829751600,1.94475146484375,0.2246149572022259,0.29327684388756753,-0.0889078252479434
1761378856839807500,1.954807373046875,0.20635266673751174,0.18198621417880056,-0.08781257735714317
1761378856849863400,1.964863525390625,0.16073314440026878,0.09346621920466422,-0.05037818810641765
1761378856859919600,1.974919677734375,0.047583004429936404,0.020256021565198897,0.007361614809185266
1761378856869974500,1.984974609375,0.024412556722760197,-0.03542436460256576,0.012150164259970187
1761378856880030500,1.995030517578125,-0.018001374506205318,-0.04193827654123306,0.011593404876755083
1761378856890086400,2.00508642578125,-0.033845570978522296,-0.07621931632757187,0.0226228968270123
1761378856900142300,2.015142333984375,0.003652750353887677,-0.06545417668521404,-0.0005988449592725373
1761378856910198500,2.025198486328125,0.06946757704503834,-0.034735797816514966,-0.05939005434066057
1761378856920254500,2.03525439453125,0.09666187344081699,-0.052530397704243656,-0.08822948759496212
1761378856930309600,2.0453095703125,0.05208791463375091,-0.03337210824787617,-0.05786415994763374
1761378856940365600,2.055365478515625,0.0648024347782135,-0.012654898911714552,-0.03080868750065565
1761378856950421500,2.06542138671875,0.04087327765822411,-0.010850479838252066,-0.022775018648803234
1761378856960477700,2.075477783203125,0.006869885769486427,-0.011584639331698418,-0.026312983516603706
1761378856970533600,2.08553369140625,0.03790098384916782,0.03812953190803527,-0.003113894236832857
1761378856980589300,2.09558935546875,0.03300195976123214,0.11371639555096626,-0.0010891081276698969
1761378856990644500,2.10564453125,0.031087650572508573,0.1361269648015499,0.0046631717887357805
1761378857000700400,2.115700439453125,0.024465748214721677,0.11730769804120063,0.02992547492533922
1761378857010756600,2.125756591796875,0.03833820622265339,0.1317827981173992,0.0349608387440443
1761378857020812500,2.1358125,0.029328970336914062,0.10313245769441128,-0.002409399229288101
1761378857030868500,2.145868408203125,0.04217325434088707,0.021074352210760115,-0.011576748286187648
1761378857040924700,2.155924560546875,0.01880290014743805,0.00015548282265663146,0.012081629068404435
1761378857050979600,2.1659794921875,-0.04162555733025074,-0.05250993943810463,0.02887713491618633
1761378857061035500,2.176035400390625,-0.011114099210500716,-0.05869535007476806,0.052259179547429084
1761378857071091500,2.186091552734375,0.07713643117249011,-0.008959551525115966,0.030394407611340282
1761378857081147400,2.1961474609375,0.13534253642559052,0.03140577661097049,0.0036224282808601854
1761378857091203300,2.206203369140625,0.14986483664438127,0.0752595313847065,0.0280643617951544
1761378857101258500,2.216258544921875,0.12653890611454843,0.05543371793031692,0.056141870766249484
1761378857111314400,2.226314453125,0.0912058730572462,0.0223603003680706,0.03290376008376479
1761378857121370600,2.23637060546875,0.05324935962855815,0.044109190839529036,0.014615093068778513
1761378857131426600,2.246426513671875,0.03427585215456783,0.02704290522634983,-0.014272127133293542
1761378857141482500,2.256482421875,-0.03745806238725781,-0.0011368950754404067,-0.07554229384884238
1761378857151538700,2.26653857421875,-0.07131883093491197,0.047186698588728905,-0.07759761894345284
1761378857161593300,2.27659326171875,-0.0317804551422596,0.034553426986932756,-0.07400134801715612
1761378857171649500,2.2866494140625,0.02046294231414795,0.02982172228991985,-0.1015488417647779
1761378857181705500,2.29670556640625,0.0072938102699816225,0.02533142513334751,-0.09309665523990988
1761378857191761400,2.306761474609375,0.04792158873453736,0.054905310142040246,-0.0858740105099976
1761378857201817600,2.316817626953125,0.05679105082340538,0.06450432861447333,-0.08821896620094775
1761378857211873500,2.32687353515625,-0.010213935500383376,0.024233693024516105,0.0077284022949635975
1761378857221928700,2.3369287109375,0.017906243568658827,-0.01248071138858795,0.05372121492400765
1761378857231984600,2.346984619140625,0.012197218272089957,-0.043972412717342375,-0.003416530445218086
1761378857242040300,2.357040283203125,0.022628011393547056,-0.08062485781013966,-0.029551965437829494
1761378857252096500,2.367096435546875,0.032682956939935684,-0.020770400828123092,-0.016305530373752115
1761378857262152400,2.37715234375,0.03243643483296037,0.03825812672376633,0.0008647978525026701
1761378857272208400,2.38720849609375,0.042781741628050804,0.04774491699337959,-0.0017865911558270454
1761378857282263600,2.397263671875,0.07205635142922401,0.09295768516063689,-0.0036414252422749993
1761378857292319500,2.407319580078125,0.0791022513527423,0.1705745933264494,-0.00838628396509448
1761378857302375700,2.417375732421875,0.14635434430539607,0.14480126964449883,-0.020708587638288735
1761378857312431600,2.427431640625,0.13171966975331306,0.07637187654078006,-0.004256050009280443
1761378857322487600,2.437487548828125,0.08972177197933197,0.013117255726456641,0.016459990283101796
1761378857332542500,2.44754248046875,0.07225903439447283,-0.02393500233888626,0.06227861995559651
1761378857342598400,2.457598388671875,-0.02791208927631378,-0.07825812867879867,0.07099442128613591
1761378857352654300,2.467654296875,-0.10790084114000201,-0.14929215132296084,0.07517302214503288
1761378857362710500,2.47771044921875,0.0007629471965134143,-0.13702128329277038,-0.04085428069680929
1761378857372766500,2.487766357421875,-0.17121639836132527,-0.052859483528137206,0.03190612734854221
1761378857382822400,2.497822509765625,-0.02876782932281494,-0.04355331052243709,0.02102773659005761
1761378857392877600,2.507877685546875,0.05190335184708238,0.021336218017339707,-0.0697225016541779
1761378857402933500,2.51793359375,0.17958273323364554,0.06433131013512611,-0.08861088812798261
1761378857412989400,2.527989501953125,0.23634908800721166,0.07614157491624354,-0.09304784766212106
1761378857423045400,2.53804541015625,0.1740426347631961,0.07670037784278393,-0.06149301796928048
1761378857433101300,2.548101318359375,0.07377426126301288,0.004026186776161194,0.001311082598567009
1761378857443157500,2.558157470703125,0.014116203635931013,-0.020497429105639457,0.04718567567542195
1761378857453212400,2.56821240234375,-0.022430442994832992,0.03402560372054576,0.03299392258524895
1761378857463268600,2.5782685546875,-0.03777575003430247,0.049152445703744885,0.01751315031455597
1761378857473324500,2.588324462890625,-0.04271211045794189,0.0252881705135107,-0.011969549279345664
1761378857483380500,2.59838037109375,-0.024160627788305283,0.027816812208294867,-0.06331263461187482
1761378857493436700,2.608436767578125,0.010474047741293907,0.007949497699737549,-0.13807882952168582
1761378857503492600,2.61849267578125,0.039096477244049306,-0.017426351097226143,-0.15384966849684714
1761378857513547500,2.628547607421875,0.026689342548325657,-0.033031916508078574,-0.0904234905079007
1761378857523603500,2.638603515625,0.03587912263274193,-0.03758534202873707,-0.029215573090314865
1761378857533659400,2.648659423828125,0.07034253324866295,-0.0028407763838768003,0.002972293809056282
1761378857543715600,2.658715576171875,0.11261983248591423,0.05548807846605777,0.05063713130354881
1761378857553771500,2.668771484375,0.10131342557370662,0.08154898691773414,0.09164587190970779
1761378857563826700,2.67882666015625,0.06452895159907639,0.07837912470996379,0.06260536312535404
1761378857573882600,2.688882568359375,0.07102649692483246,0.11143033044040203,-0.005786768991185818
1761378857583938600,2.6989384765625,0.07031104213185609,0.12785656458437442,-0.03858838159143924
1761378857593994500,2.708994384765625,0.02431852176375687,0.058096799659729,-0.005564358412160072
1761378857604050400,2.719050537109375,0.010060790765285491,-0.014016250392794609,0.0520939059831202
1761378857614106400,2.7291064453125,-0.03035414866618812,-0.0401326884239912,0.10474661489278077
1761378857624161500,2.73916162109375,-0.03409676926061511,-0.033088030609488485,0.1240624329984188
1761378857634217500,2.749217529296875,-0.04070186661407351,-0.01972527568936348,0.1045754869764205
1761378857644273400,2.7592734375,0.008314312424138187,-0.01356909114718437,0.029261163514421786
1761378857654329600,2.76932958984375,0.047396541947126385,0.021726678639650342,-0.06267331379503012
1761378857664385500,2.779385498046875,0.07732289365530014,0.03481938444674015,-0.09496990176588296
1761378857674441500,2.78944140625,0.10280059539154171,0.034949732828140255,-0.09111848703473806
1761378857684496400,2.799496337890625,0.15132745654284954,0.05486439360976219,-0.0753176913127303
1761378857694552300,2.80955224609375,0.15116072167381644,0.04125555497407913,-0.03526215521160047
1761378857704608500,2.8196083984375,0.06401902931556105,0.012509352961182593,-0.009844951490941457
1761378857714664400,2.82966455078125,-0.05257248328030109,-0.02780629081428051,0.011469926910847425
1761378857724720400,2.839720458984375,-0.1580120488733053,-0.1115314527273178,0.01844283466339111
1761378857734776600,2.849776611328125,-0.23299159427285193,-0.1106558389365673,0.002338379819691181
1761378857744831500,2.85983154296875,-0.17194953494146464,-0.0433569111675024,-0.05160334598720073
1761378857754887700,2.8698876953125,-0.12004516018107533,-0.03775076172351837,-0.02987315793292364
1761378857764943600,2.879943603515625,0.0051630818516016,-0.00113806411921978,-0.014922989974170922
1761378857774996000,2.889995849609375,0.12167173846960067,0.05885960072576999,-0.03840820271894336
1761378857785052200,2.90005224609375,0.1946463007222861,0.11567454388141632,-0.0025293677805690094
1761378857795106800,2.91010693359375,0.22045126165151593,0.18786884247660635,-0.012861381269246339
1761378857805163000,2.9201630859375,0.1405662624232471,0.18757716605365274,-0.04140854901212733
1761378857815219000,2.930218994140625,0.036327450922131535,0.14374971476495266,0.010053191980719566
1761378857825275000,2.94027490234375,-0.10795870880708097,0.11944763267934322,0.03835880605268758
1761378857835331000,2.9503310546875,-0.11921550442390143,0.0760825382053852,0.009120438891963567
1761378857845387000,2.960386962890625,-0.09890110373497009,0.002689385214447975,-0.019749094956368205
1761378857855442000,2.97044189453125,-0.030832287571951746,-0.0541623828202486,-0.025650430237932596
1761378857865498000,2.980498046875,-0.004066372656077146,-0.09512567684948443,-0.011897801500675268
1761378857875554000,2.990553955078125,0.031259061616659166,-0.10079144752621651,0.029446605367213486
1761378857885610000,3.00060986328125,0.11986088965535163,-0.029611294409632682,0.060699237243086096
1761378857895666000,3.010666015625,0.163563326324895,0.00442892235815525,0.0565467937387526
1761378857905721900,3.020721923828125,0.24636260556466877,0.051993806609511375,0.03060556386070093
1761378857915777000,3.030777099609375,0.22843005851097403,0.13976619808673857,0.01521758672328433
1761378857925833000,3.0408330078125,0.16291735657155512,0.12984569257497786,0.01589490374624729
1761378857935889000,3.050888916015625,0.03252732798680663,0.07733867574632167,0.020545072206226176
1761378857945945000,3.060945068359375,-0.04571370342671871,0.07336743402779101,-0.007119038224965333
1761378857956001000,3.0710009765625,-0.06250877088308333,0.032843115937709805,-0.08124868879690766
1761378857966057000,3.081056884765625,-0.24293014689795672,-0.06716624130010604,0.03202419848697027
1761378857976111900,3.09111181640625,-0.10726020514890551,-0.10089783051013947,0.0186159947066335
1761378857986167800,3.101167724609375,-0.06986315223388373,-0.07725099746286869,-0.0008563268516794778
1761378857996224000,3.11122412109375,0.029628245544433593,-0.025869769793748856,0.01828194501325488
1761378858006280000,3.121280029296875,0.08036174989454448,0.057741994872689245,-0.020316076622786932
1761378858016336000,3.1313359375,0.1704747131485492,0.1285159052759409,-0.018235185545368585
1761378858026391000,3.14139111328125,0.2142225963950157,0.19731588525772092,-0.01039528341665864
1761378858036447000,3.151447021484375,0.20380583179891107,0.1585790351063013,-0.05391118453815579
1761378858046503200,3.161503173828125,0.1374677118860185,0.09370178152620792,-0.05765928045872133
1761378858056559000,3.17155908203125,0.01092179150879383,0.04959843590557575,-0.0409225236274302
1761378858066615000,3.181614990234375,-0.13057459137141703,-0.016727262917160986,-0.027265023544430732
1761378858076671000,3.1916708984375,-0.19943645760826764,-0.08782850557863711,0.034044306137727104
1761378858086726000,3.201725830078125,-0.19937880913689732,-0.16688918281197546,0.0930859877154231
1761378858096782000,3.211781982421875,-0.07923837188780307,-0.158061148712039,0.08066445916816592
1761378858106838000,3.221838134765625,0.0747066467422992,-0.05527180536687374,0.03764598389150342
1761378858116894000,3.23189404296875,0.14691972310319543,0.02136076793670654,-0.03075009374779183
1761378858126950100,3.2419501953125,0.1856331193137914,0.0878553935855627,-0.060709027984738345
1761378858137006000,3.252006103515625,0.18105112528577447,0.1876712740778923,-0.046756348914024415
1761378858147061000,3.26206103515625,0.12401581737771629,0.1971171478152275,-0.025968850820627994
1761378858157117000,3.272116943359375,0.025286416947841645,0.11243512356877326,-0.0055909518748521805
1761378858167172900,3.2821728515625,-0.03988368209898471,0.0426642527282238,0.036466567131876945
1761378858177228800,3.292228759765625,-0.0589507861405611,0.028297873723506926,0.03893383402824402
1761378858187285000,3.302284912109375,-0.01759045561775565,0.006596914047002792,0.01306055253657978
1761378858197341000,3.3123408203125,0.015202829828858375,-0.017151625809073447,-0.00972688263580203
1761378858207396000,3.32239599609375,0.025122312427312134,-0.01024082350730896,-0.0346736946490244
1761378858217452000,3.3324521484375,0.05637903595641255,-0.03380348540246486,-0.00803455020126421
1761378858227508000,3.342508056640625,0.059117959401011465,-0.04680734388232231,-0.04612944462075829
1761378858237564200,3.352564208984375,-0.01045841178074479,-0.06096212596297264,-0.052579789803922174
1761378858247620000,3.3626201171875,-0.031332711374759674,0.010900164198875427,-0.03089402769654989
1761378858257675000,3.372675048828125,0.01099018056988716,0.09256780906021594,-0.06901625308096408
1761378858267731000,3.38273095703125,0.05950900454521179,0.04324994366168976,-0.11326835952252148
1761378858277787000,3.392786865234375,0.08791662225350737,0.0300637143522501,-0.08134323521256447
1761378858287843000,3.402843017578125,0.11305530129373073,0.051477673780918116,-0.023042145152390003
1761378858297899000,3.41289892578125,0.000443067592382431,0.016732523614168167,0.03636310675740242
1761378858307955000,3.422954833984375,-0.05600355370752513,-0.027369068440794942,0.08117211642935872
1761378858318010000,3.433010009765625,-0.027639848206192252,0.03243862679004669,0.04959917112451512
1761378858328066000,3.443066162109375,-0.08699081264548003,0.03485971645712852,0.013537963073269928
1761378858338122000,3.4531220703125,-0.06865326498746871,-0.009621814826130866,0.019104513442516326
1761378858348178000,3.463177978515625,-0.011758388463407755,0.02408522446453571,0.015326896883232985
1761378858358233900,3.47323388671875,0.03564187981076539,0.03892915785312653,0.005867720706330146
1761378858368290000,3.4832900390625,0.09503573354370891,0.04591770156621933,0.012974045580194797
1761378858378345000,3.493344970703125,0.1548317383367568,0.07293839496076107,-0.028191054631455333
1761378858388401200,3.503401123046875,0.1518517726778984,0.06583762304484844,-0.04522650443166494
1761378858398457000,3.51345703125,0.14736980495825408,0.06975099709630012,-0.03653042843161383
1761378858408513000,3.523512939453125,0.07900054454393685,0.08053074978590011,-0.023829936812503727
1761378858418569000,3.53356884765625,0.0005688128639012575,-0.02196516357064247,0.011172402985708322
1761378858428624000,3.543623779296875,-0.05966083410605788,-0.08337035712599754,0.04944382986575365
1761378858438679800,3.5536796875,-0.09406586559824645,-0.09347966320812702,0.04914484691917896
1761378858448736000,3.563736083984375,-0.07193126374483108,-0.07091302661299705,0.029803163719922303
1761378858458792000,3.5737919921875,-0.032896307429671284,-0.03599193535745144,0.008793108917027712
1761378858468847900,3.583847900390625,0.015171850168704986,0.05232289243340492,-0.02615194773599505
1761378858478904000,3.593904052734375,0.0737514649093151,0.1044949782192707,-0.08866714835986494
1761378858488959000,3.603958984375,0.10777122341096401,0.12060966219604015,-0.09210545224547385
1761378858499015200,3.61401513671875,0.11347732609808445,0.11831190664768218,-0.0714575087532401
1761378858509071000,3.624071044921875,0.07396722655184566,0.07151917581260205,-0.03706000526366988
1761378858519126800,3.634126708984375,0.014997662645578384,0.039137832167744635,0.021675532974302768
1761378858529183000,3.644182861328125,-0.023036007672548292,0.011427987465262412,0.07763005990833044
1761378858539239000,3.654239013671875,-0.06388188586719334,-0.06026537587046623,0.06484335131049156
1761378858549294000,3.664294189453125,-0.05346913985908031,-0.09492343227565288,0.0027601123631000517
1761378858559350000,3.67435009765625,-0.03344984965920448,-0.033138884013891215,-0.021649375619739293
1761378858569406000,3.684406005859375,0.01610189756043255,-0.003250526228547096,-0.03679667586907744
1761378858579462100,3.694462158203125,0.11698394597955047,0.04103869735300541,-0.05189268432259559
1761378858589518000,3.70451806640625,0.15462766713201997,0.09057225132882595,-0.03092237700819969
1761378858599573000,3.714572998046875,0.19634039128907024,0.1255482876420021,0.009165300946997012
1761378858609629000,3.72462890625,0.18017134677655994,0.13353285665512085,0.021187162652180996
1761378858619684900,3.734684814453125,0.13673494063206015,0.08471358842849731,0.010731819611357059
1761378858629741000,3.744740966796875,0.07633921638019382,0.07738777558505534,-0.00028860996632138267
1761378858639797000,3.754796875,0.013300795599818229,0.07423369546830653,-0.0038614977337419983
1761378858649853000,3.76485302734375,-0.05139350262880325,-0.010061375287175179,0.010354074623435735
1761378858659908000,3.774908203125,-0.04036700863651931,-0.060469374009966846,0.06722016344442963
1761378858669964000,3.784964111328125,-0.052901496038958426,-0.012259762114286423,0.08950418370589613
1761378858680020000,3.79502001953125,-0.0107885935831815,-0.005026888251304626,0.03480024363814154
1761378858690076200,3.805076171875,0.06369133173115551,0.04438566969335079,-0.06946575041413307
1761378858700131800,3.8151318359375,0.06423954019844531,0.051613282859325406,-0.12561229278892277
1761378858710188000,3.82518798828125,0.041692704282328484,-0.0012824410259723662,-0.12105506787598132
1761378858720243000,3.835242919921875,0.019122122164443135,-0.014302666118741035,-0.10247282474189996
1761378858730299000,3.845298828125,0.05843114618062973,0.0008148235142230987,-0.06386164679676294
1761378858740355000,3.85535498046875,0.03184825968146324,-0.001163198560476303,0.002040273655951023
1761378858750411000,3.865410888671875,0.04846037178635597,0.032980478581786155,0.031440263402462004
1761378858760467000,3.875467041015625,0.0035031127501279112,0.023204934498667715,0.04787263502627611
1761378858770522000,3.885522216796875,-0.020968480683490633,0.014765022933483123,0.0681022069759667
1761378858780578000,3.895578125,-0.0034626346092671155,0.014100421544909477,0.04063508498817682
1761378858790634200,3.90563427734375,-0.03840250363051891,-0.058043023645877836,0.01966959997937083
1761378858800690200,3.915690185546875,-0.012322305956482886,-0.04060439758896828,0.0016579963400959968
1761378858810746000,3.92574609375,0.003348798971250653,0.02377367429733276,-0.028924773450195788
1761378858820802300,3.93580224609375,-0.00861811767630279,-0.009935118559002875,-0.08746902461647987
1761378858830857200,3.945857177734375,0.05397657792456448,0.021319266882538795,-0.10325579181313514
1761378858840913200,3.9559130859375,0.08892572623081504,0.08793722665011883,-0.07374123577624558
1761378858850969000,3.965968994140625,0.12131992935724556,0.06069324589371681,-0.019040072187467012
1761378858861025000,3.97602490234375,0.08887772237062454,0.04392974261939525,0.05110109555348754
1761378858871081200,3.986081298828125,0.057741410350799556,0.038163434177637096,0.113860480196774
1761378858881136000,3.99613623046875,0.002208835155889392,0.05249123473763465,0.12556217003688216
1761378858891192300,4.0061923828125,-0.028305472508072853,0.06019172611236572,0.07018807333931326
1761378858901248300,4.016248291015625,-0.005363572859764099,0.028166940820217132,-0.010279401952028274
1761378858911302100,4.02630224609375,-0.02027582224421203,0.009729951375722884,-0.07575155268535018
1761378858921358000,4.036358154296875,-0.012954101053997873,-0.001575286492705345,-0.09702931851372122
1761378858931414000,4.0464140625,-0.01655073730647564,-0.05425006110370159,-0.05766147698238492
1761378858941470200,4.05647021484375,0.04800210662484169,-0.034248891082406044,-0.04348828246220946
1761378858951525000,4.066525146484375,0.0953447994928807,-0.004534720820188522,-0.014500816756056155
1761378858961581300,4.076581298828125,0.10613280855417251,-0.02275076099038124,0.014107728068530558
1761378858971637200,4.08663720703125,0.06340593891851604,0.022054010897874832,0.025863488466723355
1761378858981693200,4.096693115234375,0.01980360162258148,0.0272445652782917,0.0038474692083895205
1761378858991749000,4.1067490234375,-0.07153963407874107,0.03150923698544502,-0.024859862098842857
1761378859001804000,4.116803955078125,-0.14105214624404908,0.008718143984675407,-0.02884074842855334
1761378859011860200,4.126860107421875,-0.16442140445895492,-0.03615793957412243,-0.04851765493154526
1761378859021916200,4.136916259765625,-0.1414608001101762,-0.030454759496450424,-0.06276464534029365
1761378859031972000,4.14697216796875,-0.032898060995340345,0.0018809914410114288,-0.0688218995526433
1761378859042028300,4.1570283203125,0.08320435290932655,0.07057225035130978,-0.09127513890117406
1761378859052084200,4.167084228515625,0.20513152744472027,0.16772621815800665,-0.10260887221172452
1761378859062139400,4.177139404296875,0.20673947409801183,0.1849655222505331,-0.059545244902372355
1761378859072195000,4.187195068359375,0.15146540370881556,0.13703648086190223,0.015045447310060262
1761378859082251000,4.1972509765625,0.03696574882566929,0.12143792971372604,0.05959463700205087
1761378859092307200,4.20730712890625,-0.08530972769074141,0.054553427964448925,0.07991495597511529
1761378859102363100,4.217363037109375,-0.17069434724859892,-0.033870705419778824,0.08108604558110237
1761378859112418000,4.22741796875,-0.15128420192301273,-0.03778174138367176,0.0585828296110034
1761378859122474200,4.23747412109375,-0.04826156127862632,0.017674188378453255,0.02211976732717594
1761378859132530200,4.2475302734375,0.07511340091228484,0.046723757252097126,-0.007311784318089484
1761378859142586000,4.257586181640625,0.1682213081985712,0.08239069843888282,-0.022428251037746667
1761378859152642300,4.267642333984375,0.22542846554219723,0.13975509217083454,-0.04336187960356474
1761378859162698200,4.2776982421875,0.18548516221046446,0.1354997728139162,-0.05002104523181915
1761378859172753200,4.287753173828125,0.07049976963698863,0.0322118322968483,-0.019911445911228655
1761378859182809000,4.29780908203125,-0.054364627394080156,-0.04012976581454277,0.04152721152231097
1761378859192865000,4.307864990234375,-0.14920571514852343,-0.05386076952517032,0.08073957023099064
1761378859202921200,4.317921142578125,-0.19858320177979766,-0.11186404568254947,0.06157251294627785
1761378859212977200,4.32797705078125,-0.15447802952826023,-0.12276420988142489,0.02573284554108977
1761378859223033000,4.338033203125,-0.07612352780289948,-0.06740238814353942,-0.02234320081950864
1761378859233088300,4.348088134765625,-0.0020025719940662385,0.0067751932233572005,-0.03929302272945642
1761378859243144200,4.358144287109375,0.06682020434141159,0.09630056584775447,-0.0012640285864472388
1761378859253200100,4.3682001953125,0.16451427037417887,0.1641162109673023,0.018546148907393215
1761378859263256000,4.378256103515625,0.2051683523237705,0.18025486034154892,0.006905541604757309
1761378859273312000,4.38831201171875,0.15715513978302478,0.15153087016046046,-0.008560323074460028
1761378859283367200,4.3983671875,0.05302307659201324,0.06513385868966579,-0.03185819427029928
1761378859293423000,4.408423095703125,-0.07075228309333324,-0.03455050437748432,-0.05866159393563866
1761378859303479300,4.418479248046875,-0.16273732382953165,-0.044888358518481254,-0.08034282599836587
1761378859313538000,4.4285380859375,-0.21143150437176225,-0.07929916216433047,-0.05688303995579481
1761378859323594000,4.438593994140625,-0.18229301510564982,-0.12845160786807536,0.0021788042021624278
1761378859333650200,4.448650146484375,-0.05682780263721943,-0.08014438081681728,0.036804859175533056
1761378859343705000,4.458705078125,0.05527998867332935,-0.03539981468319893,0.06934840764477848
1761378859353761300,4.46876123046875,0.16883739427030087,0.04894435591101646,0.07138312834277749
1761378859363817200,4.478817138671875,0.26814364474005997,0.157729140278697,0.005389582942210836
1761378859373873200,4.488873046875,0.276554257145524,0.21030103903710842,-0.04875336338356137
1761378859383929300,4.498929443359375,0.18574746640846132,0.20406828212738035,-0.022548078025132416
1761378859393984000,4.50898388671875,0.10418342805206775,0.13693185144364833,-0.022317922531068325
1761378859404040200,4.519040283203125,0.05165186130404472,0.0625713147252798,-0.008886047897487879
1761378859414096100,4.52909619140625,-0.05586451056301593,-0.01725508618354797,0.027153379863500592
1761378859424152000,4.539152099609375,-0.10672492922842503,-0.07543138082027435,0.08523571260645985
1761378859434208300,4.549208251953125,-0.09478256250023841,-0.11198737980127334,0.060595192346721886
1761378859444264200,4.55926416015625,-0.06903671134710311,-0.11964344751238823,0.013406301800906658
1761378859454319400,4.5693193359375,-0.05268310404792428,-0.07801613661646843,0.0330482831209898
1761378859464375300,4.579375244140625,0.03885492357313633,-0.056148003679513926,-0.012909019803255796
1761378859474431200,4.58943115234375,0.05899236025996506,-0.02609305715560913,-0.01821925618223031
1761378859484487200,4.599487060546875,0.09103877286203205,0.039915830802917475,-0.028521307215839623
1761378859494543000,4.609543212890625,0.12528057661652564,0.05310030654668808,-0.014095014717429875
1761378859504599000,4.61959912109375,0.08499014034755527,0.03980769425332546,0.007405452809267444
1761378859514654200,4.629654296875,0.03175590522289276,0.015841712254285812,0.02476078563854098
1761378859524710100,4.639710205078125,-0.034588059908896684,0.009433598777651786,0.022048896331340072
1761378859534766000,4.64976611328125,-0.1297392365258187,-0.015243161839246748,-0.027754414496570824
1761378859544822300,4.659822265625,-0.12885039792731404,-0.04300970516502857,-0.05027151286154985
1761378859554878200,4.669878173828125,-0.1328898825764656,-0.0020586860954761505,-0.03695844230204821
1761378859564933000,4.67993310546875,-0.08394333470836281,-0.0062970543175935745,-0.043779228232800955
1761378859574989000,4.689989013671875,0.016385317611694334,-0.003931494230031967,-0.05849383615329861
1761378859585045000,4.700044921875,0.07337386376857757,0.03857844471931457,-0.0312619842261076
1761378859595101200,4.71010107421875,0.1597848306994885,0.02897124294042587,-0.03404343163818121
1761378859605157000,4.7201572265625,0.17355105185396968,-0.02138824046552181,-0.03561915652230382
1761378859615213000,4.730213134765625,0.1453039584696293,-0.006456044271588325,0.006949673007428645
1761378859625268200,4.740268310546875,0.07676233716309071,0.04843523734509945,0.040875177354365584
1761378859635324200,4.75032421875,0.050499695594236255,0.09793196644186973,0.03867152983024716
1761378859645380400,4.76038037109375,0.01952010850608349,0.1079588549375534,0.0203005913592875
1761378859655436300,4.770436279296875,0.015241335208341478,0.08002630739510058,0.033116964443027974
1761378859665492000,4.780491943359375,0.0386339742988348,0.06099310562312603,0.04481222454234957
1761378859675548200,4.790548095703125,0.07498371011801064,0.03827975403368473,0.025533961968123912
1761378859685603000,4.80060302734375,0.07295709966123104,-0.0055395139485597605,0.022926409818232057
1761378859695659300,4.8106591796875,0.06268829216845333,-0.015893734702467917,0.016652004582219524
1761378859705715200,4.820715087890625,0.032022520269826056,-0.016367781955003737,-0.02810366632565856
1761378859715771100,4.830771240234375,0.04234693040736019,0.005768062007427215,-0.03365340940728783
1761378859725827300,4.840827392578125,0.04779752396345138,0.029230186137557027,-0.04034925378412008
1761378859735882200,4.85088232421875,0.0602665449142456,0.012059271106123924,-0.06382891357094049
1761378859745938200,4.860938232421875,0.09332125777602195,0.05858370639383793,-0.06847980811670422
1761378859755994000,4.870994140625,0.05166062913239002,0.07457213364243508,-0.007615297309309244
1761378859766050000,4.881050048828125,0.031651860326528544,0.02766249842941761,0.03432078727483749
1761378859776112000,4.891112060546875,-0.013770166677236555,-0.030621932756900786,0.021954203785210846
1761378859786168000,4.90116796875,-0.03594458908438682,-0.025203999361395835,0.0077523676924407476
1761378859796223200,4.91122314453125,-0.058096215137839316,0.0023187983363866806,0.0046918110780417915
1761378859806279200,4.921279052734375,-0.08346446515023707,0.013932663762569427,0.01053644545301795
1761378859816335000,4.931335205078125,-0.01856960284821689,0.06029927814006805,-0.03469488128423691
1761378859826391300,4.941391357421875,0.01711370495148003,0.06321721141338348,-0.009806377612799405
1761378859836447200,4.951447265625,0.023665026291087268,0.0473304909735918,0.017031214299798012
1761378859846503000,4.9615029296875,0.0368605348855257,0.031057986086606978,0.039488837562501426
1761378859856558000,4.97155810546875,0.010462430368736385,0.02969020486474037,0.06495265690386295
1761378859866614000,4.981614013671875,-0.006102408528327941,0.00845218652486801,0.030317981374263763
1761378859876670200,4.991670166015625,-0.019471008667349816,-0.004587327790260315,-0.025844781482964752
1761378859886726100,5.00172607421875,-0.015026961805298923,0.026458383336663244,-0.024096330380439755
1761378859896782000,5.011781982421875,0.00936469825990498,0.046426820132136344,-0.024688012663275003
1761378859906837200,5.021837158203125,0.038653336586430664,0.030594460228085516,-0.041886254093050954
1761378859916893000,5.031892822265625,0.06535882655195892,0.034299159964919085,-0.025313451085239646
1761378859926949000,5.04194921875,0.045209772492572665,0.029449966368079183,0.021744506557285784
1761378859937005000,5.052005126953125,0.019530629900097844,0.008453355568647384,0.06032675066888332
1761378859947061000,5.06206103515625,0.03650974868647754,0.010676876837015152,0.08655059459730982
1761378859957117200,5.0721171875,0.0035819501399993892,0.03550327505767345,0.06699746060445905
1761378859967172000,5.082172119140625,0.04223061055131256,0.03922434140741825,-0.02494900168702006
1761378859977228300,5.092228271484375,-0.008712810222432017,0.05975450373888015,-0.0732370856463909
1761378859987284200,5.1022841796875,-0.0024712854843586683,0.056841246640682214,-0.0890165463194251
1761378859997340200,5.112340087890625,0.0007452654093503951,0.030437223839759824,-0.07026508409827947
1761378860007396000,5.12239599609375,-0.0033060558080673214,-0.018459201276302337,-0.019502718979865313
1761378860017452300,5.132452392578125,0.031762919485568995,-0.020576339560747146,0.021264467955380676
1761378860027507000,5.1425068359375,0.014270005958154797,0.046214054164290426,0.03804199975505471
1761378860037563100,5.152563232421875,0.05864983043260872,0.08236614851951599,0.047863282676041126
1761378860047619000,5.162619140625,0.09668101653270422,0.12422785269320011,0.041173283518105744
1761378860057675000,5.172675048828125,0.0947136619824916,0.11569617119133471,0.004233691761588852
1761378860067731200,5.182731201171875,0.10868541564643383,0.10159282703697681,-0.018834464329481125
1761378860077786000,5.1927861328125,0.0323333397846669,0.07597323261201382,-0.037800007692724465
1761378860087842300,5.20284228515625,-0.0014771598804742096,0.002246317622065544,-0.05725859526991844
1761378860097898000,5.21289794921875,-0.056274187342450016,-0.04544306979179382,-0.06454626806005835
1761378860107954000,5.222953857421875,-0.12580664631724356,-0.09576806640624999,-0.04591711704432964
1761378860118010000,5.233010009765625,-0.11632095202617347,-0.10098843140304088,-0.001903933925181627
1761378860128066000,5.243066162109375,-0.04850881403796375,-0.04566051193475723,-0.0007499417271734273
1761378860138121200,5.253121337890625,0.058318991043046116,-0.0035661680489778515,0.026761165675520896
1761378860148177200,5.26317724609375,0.15380875196456908,0.021906126859784124,0.06499634991511702
1761378860158233000,5.273233154296875,0.2165402987528592,0.08305237721800804,0.058351797334104775
1761378860168289300,5.283289306640625,0.24860775414295494,0.11314707123041153,0.031427257790416475
1761378860178345200,5.29334521484375,0.15627309625148772,0.10939034904539585,0.002613835760205984
1761378860188401200,5.303401123046875,-0.011054477977752684,0.06675356884598732,-0.00029269933626055716
1761378860198456000,5.3134560546875,-0.13121515429727731,0.0035679216146469114,0.03967340034916997
1761378860208512000,5.323511962890625,-0.18653489045910537,0.0229746328741312,0.048048283854126926
1761378860218568200,5.333568115234375,-0.08495024672858417,0.02859130371212959,0.040772301501780746
1761378860228624100,5.3436240234375,0.019950316616892814,-0.000727145230770111,0.028869390001147983
1761378860238680000,5.35368017578125,0.09083470165729522,0.0042418753534555435,-0.002757482014596462
1761378860248735200,5.3637353515625,0.047619902374222874,-0.03159107005000114,-0.01323518301770091
1761378860258791200,5.373791259765625,-0.0011361644230782986,-0.028763737669587133,-0.05761164649128914
1761378860268847000,5.38384716796875,-0.052601051787659524,-0.003369184172153473,-0.05768281203135848
1761378860278903000,5.393903076171875,-0.05231982369348406,0.0002747252881526947,-0.04249561816304922
1761378860288959000,5.403958984375,0.03273264130055904,0.04238017508983612,-0.050591246335208416
1761378860299015200,5.41401513671875,0.11688216610550879,0.046997898018360136,-0.05673033361211419
1761378860309070000,5.424070068359375,0.12404497040696441,0.029680852514505383,-0.09465484446734189
1761378860319126000,5.4341259765625,0.1279961922507733,0.012813888865709304,-0.14713511941954494
1761378860329182200,5.44418212890625,0.05084529416151345,0.07187456512153148,-0.031844168028235434
1761378860339238100,5.454238037109375,-0.22545944520235062,-0.0372615169018507,0.17802739355042577
1761378860349294000,5.464294189453125,-0.2373194674093276,-0.18140344585478305,0.1843633185736835
1761378860359349000,5.474348876953125,-0.0987519775878638,-0.06812193458974361,0.15309709656387566
1761378860369405000,5.484405029296875,0.041062151293829084,0.07108721413612365,0.05597001676410436
1761378860379461000,5.494461181640625,0.22560915587134658,0.1364759243696928,-0.008982201748341322
1761378860389517000,5.50451708984375,0.34588739415593445,0.2212684232532978,-0.08558861769735812
1761378860399573000,5.514572998046875,0.27534678105190397,0.24991817915439604,-0.14470891518592835
1761378860409629200,5.524629150390625,0.12344641999192535,0.1553635801911354,-0.14137290263101457
1761378860419684000,5.53468408203125,-0.03410568321943283,0.11853987018465995,-0.0968225438952446
1761378860429740300,5.544740234375,-0.11402334260828792,-0.031744799306988716,-0.010618716908991336
1761378860439796200,5.554796142578125,-0.2209106227915734,-0.05855214221179485,0.11277297722101211
