time,seconds_elapsed,z,y,x
1761378854958108200,0.073108154296875,-0.0995635986328125,-1.000213623046875,-0.0056304931640625
1761378854968164000,0.0831640625,-0.09326171875,-0.9997100830078125,-0.0095062255859375
1761378854978220300,0.09322021484375,-0.0809326171875,-1.00030517578125,-0.0118408203125
1761378854988276000,0.10327587890625,-0.0697021484375,-1.000213623046875,-0.01312255859375
1761378854998332000,0.113331787109375,-0.06353759765625,-0.994842529296875,-0.0089263916015625
1761378855008387000,0.123386962890625,-0.064300537109375,-0.994110107421875,-0.0128173828125
1761378855018443000,0.133443115234375,-0.0711822509765625,-0.9993133544921875,-0.0148162841796875
1761378855028499200,0.143499267578125,-0.0728302001953125,-0.9935455322265625,-0.01580810546875
1761378855038555100,0.15355517578125,-0.07403564453125,-0.9833831787109375,-0.0172882080078125
1761378855048611000,0.163611083984375,-0.074737548828125,-0.98797607421875,-0.0159759521484375
1761378855058666200,0.173666259765625,-0.077545166015625,-0.9882354736328125,-0.013427734375
1761378855068722000,0.183721923828125,-0.073883056640625,-0.97772216796875,-0.0091705322265625
1761378855078778000,0.193778076171875,-0.0719757080078125,-0.9818878173828125,-0.012176513671875
1761378855088834000,0.203833984375,-0.0740966796875,-0.9915924072265625,-0.00677490234375
1761378855098890000,0.213889892578125,-0.07623291015625,-0.9915313720703125,0.00048828125
1761378855108946200,0.2239462890625,-0.0734100341796875,-0.9862518310546875,-0.0001220703125
1761378855119001000,0.2340009765625,-0.0749664306640625,-0.99163818359375,-0.00579833984375
1761378855129057300,0.244057373046875,-0.0685882568359375,-1.000244140625,-0.00579833984375
1761378855139113200,0.25411328125,-0.0655364990234375,-0.9953155517578125,-0.0067138671875
1761378855149169200,0.264169189453125,-0.056488037109375,-0.985382080078125,-0.0090484619140625
1761378855159225300,0.274225341796875,-0.0535430908203125,-0.983367919921875,-0.0091552734375
1761378855169281000,0.284281005859375,-0.055633544921875,-0.99072265625,-0.0099639892578125
1761378855179336200,0.294336181640625,-0.0601654052734375,-0.9874267578125,-0.01007080078125
1761378855189392100,0.30439208984375,-0.0711212158203125,-0.990570068359375,-0.0096282958984375
1761378855199448000,0.314447998046875,-0.0823211669921875,-0.9970703125,-0.0082550048828125
1761378855209504000,0.32450390625,-0.089080810546875,-0.997833251953125,-0.0077056884765625
1761378855219560200,0.334560302734375,-0.090484619140625,-0.9984283447265625,-0.0076141357421875
1761378855229616000,0.3446162109375,-0.0896453857421875,-1.0009002685546875,-0.0140228271484375
1761378855239671300,0.35467138671875,-0.076568603515625,-1.0055389404296875,-0.0111083984375
1761378855249727000,0.36472705078125,-0.075714111328125,-1.0054473876953125,-0.01312255859375
1761378855259783000,0.374782958984375,-0.07666015625,-1.0110321044921875,-0.00732421875
1761378855269839000,0.384839111328125,-0.086822509765625,-1.009307861328125,-0.0078887939453125
1761378855279895000,0.39489501953125,-0.0921173095703125,-1.0070953369140625,-0.0086517333984375
1761378855289950200,0.4049501953125,-0.097137451171875,-1.0020751953125,-0.012725830078125
1761378855300006100,0.415006103515625,-0.0873870849609375,-0.99627685546875,-0.0164337158203125
1761378855310062000,0.42506201171875,-0.0810546875,-0.99212646484375,-0.0185089111328125
1761378855320118300,0.4351181640625,-0.07427978515625,-0.9961395263671875,-0.0206756591796875
1761378855330174200,0.44517431640625,-0.076202392578125,-0.998016357421875,-0.0246124267578125
1761378855340230100,0.455230224609375,-0.0697784423828125,-0.9873809814453125,-0.02825927734375
1761378855350285000,0.46528515625,-0.0738372802734375,-0.9810943603515625,-0.02886962890625
1761378855360341000,0.475341064453125,-0.078857421875,-0.9829864501953125,-0.0267791748046875
1761378855370397200,0.485397216796875,-0.079833984375,-0.9821929931640625,-0.0246429443359375
1761378855380453000,0.495453125,-0.0852203369140625,-0.98651123046875,-0.021728515625
1761378855390509000,0.505509033203125,-0.089752197265625,-0.9930877685546875,-0.018524169921875
1761378855400565200,0.515565185546875,-0.0961456298828125,-0.9974822998046875,-0.0207977294921875
1761378855410620200,0.5256201171875,-0.1068267822265625,-1.005401611328125,-0.020477294921875
1761378855420676400,0.53567626953125,-0.1029510498046875,-1.00372314453125,-0.018585205078125
1761378855430732000,0.54573193359375,-0.0936279296875,-0.99383544921875,-0.0208282470703125
1761378855440788000,0.5557880859375,-0.083892822265625,-0.992431640625,-0.022216796875
1761378855450844200,0.56584423828125,-0.0684814453125,-0.984466552734375,-0.026611328125
1761378855460900000,0.575900146484375,-0.060882568359375,-0.9778900146484375,-0.03192138671875
1761378855470955000,0.585955078125,-0.061004638671875,-0.977813720703125,-0.02813720703125
1761378855481011200,0.59601123046875,-0.07635498046875,-0.9813385009765625,-0.026763916015625
1761378855491067100,0.606067138671875,-0.086456298828125,-0.9875640869140625,-0.0266265869140625
1761378855501123000,0.616123046875,-0.0952606201171875,-0.990631103515625,-0.0247344970703125
1761378855511179300,0.62617919921875,-0.0954437255859375,-0.9925994873046875,-0.0226287841796875
1761378855521234000,0.63623388671875,-0.084075927734375,-0.9905242919921875,-0.0285797119140625
1761378855531290000,0.6462900390625,-0.069549560546875,-0.989837646484375,-0.0348968505859375
1761378855541346000,0.656345947265625,-0.0618743896484375,-0.98968505859375,-0.03179931640625
1761378855551402000,0.666402099609375,-0.0646209716796875,-0.99151611328125,-0.0251007080078125
1761378855561458200,0.676458251953125,-0.075653076171875,-0.9989471435546875,-0.0189208984375
1761378855571514000,0.68651416015625,-0.0919952392578125,-1.00885009765625,-0.0147857666015625
1761378855581569300,0.6965693359375,-0.1080322265625,-1.00958251953125,-0.0164642333984375
1761378855591625200,0.706625244140625,-0.1124420166015625,-1.0022735595703125,-0.0174713134765625
1761378855601681200,0.71668115234375,-0.107421875,-1.001495361328125,-0.0139923095703125
1761378855611737000,0.726737060546875,-0.0954742431640625,-1.00396728515625,-0.01220703125
1761378855621793000,0.73679296875,-0.080169677734375,-1.0052337646484375,-0.0130767822265625
1761378855631849000,0.746848876953125,-0.0743560791015625,-1.0013427734375,-0.0103912353515625
1761378855641904000,0.756904052734375,-0.07208251953125,-0.9934539794921875,-0.008819580078125
1761378855651960000,0.7669599609375,-0.0714263916015625,-0.9892730712890625,-0.0082244873046875
1761378855662016300,0.777016357421875,-0.0749664306640625,-0.989349365234375,-0.0098419189453125
1761378855672072200,0.787072265625,-0.0787200927734375,-0.991973876953125,-0.0116119384765625
1761378855682128100,0.797128173828125,-0.0839080810546875,-0.9896087646484375,-0.01251220703125
1761378855692184300,0.807184326171875,-0.0868988037109375,-0.988189697265625,-0.0138397216796875
1761378855702239000,0.817239013671875,-0.092041015625,-0.9923858642578125,-0.0160064697265625
1761378855712295200,0.827295166015625,-0.09857177734375,-0.9953155517578125,-0.0167694091796875
1761378855722351000,0.83735107421875,-0.097808837890625,-0.9947357177734375,-0.017425537109375
1761378855732407000,0.847406982421875,-0.0989227294921875,-0.99566650390625,-0.015472412109375
1761378855742463200,0.857463134765625,-0.095001220703125,-0.997100830078125,-0.0146331787109375
1761378855752519200,0.867519287109375,-0.099700927734375,-0.99896240234375,-0.01513671875
1761378855762574000,0.877573974609375,-0.1057891845703125,-1.0027313232421875,-0.0138397216796875
1761378855772633600,0.887633544921875,-0.1053466796875,-0.9992523193359375,-0.012237548828125
1761378855782689500,0.897689453125,-0.1015777587890625,-0.993194580078125,-0.0085906982421875
1761378855792745500,0.907745361328125,-0.09906005859375,-0.9888153076171875,-0.006378173828125
1761378855802801700,0.9178017578125,-0.0984649658203125,-0.98291015625,-0.0071868896484375
1761378855812857600,0.927857666015625,-0.103118896484375,-0.979949951171875,-0.0100250244140625
1761378855822912500,0.93791259765625,-0.1105499267578125,-0.9788055419921875,-0.0135040283203125
1761378855832968400,0.947968505859375,-0.10992431640625,-0.9744720458984375,-0.019439697265625
1761378855843024400,0.9580244140625,-0.110504150390625,-0.97265625,-0.02349853515625
1761378855853080600,0.96808056640625,-0.1071014404296875,-0.9745635986328125,-0.021270751953125
1761378855863136500,0.978136474609375,-0.09783935546875,-0.9786224365234375,-0.016876220703125
1761378855873191700,0.988191650390625,-0.1068572998046875,-0.978912353515625,-0.01654052734375
1761378855883247600,0.99824755859375,-0.0831451416015625,-0.9825897216796875,-0.0046234130859375
1761378855893303600,1.008303466796875,-0.0723419189453125,-0.984100341796875,-0.006195068359375
1761378855903359700,1.01835986328125,-0.0492401123046875,-0.98468017578125,-0.0080108642578125
1761378855913415400,1.02841552734375,-0.0334320068359375,-0.977996826171875,-0.0054168701171875
1761378855923471400,1.038471435546875,-0.030548095703125,-0.9705657958984375,-0.0074462890625
1761378855933526500,1.048526611328125,-0.0398712158203125,-0.97235107421875,-0.0047149658203125
1761378855943582500,1.05858251953125,-0.056610107421875,-0.9719085693359375,0.0012359619140625
1761378855953638700,1.068638671875,-0.0659637451171875,-0.9762725830078125,0.0035247802734375
1761378855963694600,1.078694580078125,-0.069671630859375,-0.9845123291015625,-0.000213623046875
1761378855973750500,1.08875048828125,-0.0687408447265625,-0.9858245849609375,-0.0127410888671875
1761378855983806700,1.098806640625,-0.0661468505859375,-0.983062744140625,-0.018157958984375
1761378855993861400,1.108861328125,-0.074310302734375,-0.98004150390625,-0.0143890380859375
1761378856003917600,1.11891748046875,-0.097381591796875,-0.9796142578125,-0.0125274658203125
1761378856013973500,1.128973388671875,-0.114410400390625,-0.9758148193359375,-0.013519287109375
1761378856024029400,1.139029541015625,-0.131317138671875,-0.95849609375,-0.0052032470703125
1761378856034085600,1.149085693359375,-0.170166015625,-0.929931640625,-0.00750732421875
1761378856044141600,1.1591416015625,-0.1927947998046875,-0.90814208984375,-0.0372161865234375
1761378856054196500,1.169196533203125,-0.1539764404296875,-0.913055419921875,-0.071563720703125
1761378856064252700,1.179252685546875,-0.07879638671875,-0.92840576171875,-0.084564208984375
1761378856074308600,1.18930859375,-0.0372161865234375,-0.9489898681640625,-0.06646728515625
1761378856084364500,1.199364501953125,-0.0255584716796875,-0.9752044677734375,-0.0404510498046875
1761378856094420500,1.20942041015625,-0.03863525390625,-1.0055999755859375,-0.0223236083984375
1761378856104476400,1.219476318359375,-0.059814453125,-1.0351104736328125,-0.0160980224609375
1761378856114531600,1.229531494140625,-0.0735015869140625,-1.0650482177734375,-0.0166473388671875
1761378856124587500,1.23958740234375,-0.0836944580078125,-1.076629638671875,-0.019500732421875
1761378856134643500,1.2496435546875,-0.0919189453125,-1.0778656005859375,-0.01116943359375
1761378856144699600,1.25969970703125,-0.0855712890625,-1.0714569091796875,0.006561279296875
1761378856154755600,1.269755615234375,-0.0497894287109375,-1.0604400634765625,0.0112762451171875
1761378856164811500,1.2798115234375,-0.0095977783203125,-1.0478515625,0.0181121826171875
1761378856174866400,1.289866455078125,-0.00335693359375,-1.0262298583984375,0.0338287353515625
1761378856184922400,1.29992236328125,-0.0310516357421875,-0.994720458984375,0.0424957275390625
1761378856194978600,1.309978515625,-0.089324951171875,-0.9561614990234375,0.041473388671875
1761378856205034500,1.320034423828125,-0.167755126953125,-0.923858642578125,0.029541015625
1761378856215090400,1.33009033203125,-0.169586181640625,-0.9253997802734375,-0.00091552734375
1761378856225146600,1.340146728515625,-0.1229248046875,-0.947265625,-0.03759765625
1761378856235201500,1.350201416015625,-0.0749969482421875,-0.973541259765625,-0.0458526611328125
1761378856245257700,1.3602578125,-0.049285888671875,-0.9950103759765625,-0.029296875
1761378856255313700,1.370313720703125,-0.0477752685546875,-1.015289306640625,-0.00994873046875
1761378856265369600,1.38036962890625,-0.044525146484375,-1.03826904296875,0.0052337646484375
1761378856275425500,1.390425537109375,-0.0606689453125,-1.0625152587890625,0.018341064453125
1761378856285481500,1.4004814453125,-0.0838470458984375,-1.077178955078125,0.0275726318359375
1761378856295536600,1.41053662109375,-0.100433349609375,-1.07659912109375,0.0220489501953125
1761378856305592600,1.420592529296875,-0.1103515625,-1.059112548828125,0.016693115234375
1761378856315648500,1.4306484375,-0.0892486572265625,-1.0416717529296875,0.007080078125
1761378856325704400,1.440704345703125,-0.067535400390625,-1.01904296875,-0.003753662109375
1761378856335760600,1.4507607421875,-0.0517578125,-1.0089569091796875,-0.00872802734375
1761378856345815300,1.460815185546875,-0.0523681640625,-1.00836181640625,-0.0070648193359375
1761378856355871500,1.47087158203125,-0.0701751708984375,-1.0095977783203125,0.0101318359375
1761378856365927400,1.480927490234375,-0.0770721435546875,-1.004974365234375,0.0163116455078125
1761378856375983400,1.4909833984375,-0.0956268310546875,-0.99951171875,0.03173828125
1761378856386039600,1.50103955078125,-0.0985260009765625,-1.0000152587890625,0.0412445068359375
1761378856396095500,1.511095458984375,-0.0996856689453125,-0.9959564208984375,0.0421142578125
1761378856406150700,1.521150634765625,-0.0924530029296875,-0.9945220947265625,0.03094482421875
1761378856416206600,1.53120654296875,-0.098724365234375,-0.9818572998046875,0.026031494140625
1761378856426262500,1.541262451171875,-0.0936431884765625,-0.9670867919921875,0.021209716796875
1761378856436318700,1.551318603515625,-0.1005096435546875,-0.955413818359375,0.0194244384765625
1761378856446374700,1.561374755859375,-0.12548828125,-0.962005615234375,0.0278167724609375
1761378856456430300,1.571430419921875,-0.127838134765625,-0.9806976318359375,0.024383544921875
1761378856466485500,1.581485595703125,-0.140380859375,-0.986328125,0.01751708984375
1761378856476541400,1.59154150390625,-0.137115478515625,-0.994415283203125,0.005035400390625
1761378856486597600,1.60159765625,-0.12921142578125,-0.99798583984375,-0.002655029296875
1761378856496653600,1.611653564453125,-0.119659423828125,-0.9945068359375,-0.0089874267578125
1761378856506709500,1.62170947265625,-0.104248046875,-0.9886474609375,-0.0146942138671875
1761378856516765700,1.631765625,-0.097015380859375,-0.9842681884765625,-0.01953125
1761378856526820400,1.6418203125,-0.09027099609375,-0.9829559326171875,-0.0211334228515625
1761378856536876500,1.65187646484375,-0.08819580078125,-0.99066162109375,-0.0201873779296875
1761378856546932500,1.661932373046875,-0.0789794921875,-0.9965057373046875,-0.0142364501953125
1761378856556988400,1.671988525390625,-0.075592041015625,-0.999237060546875,-0.008758544921875
1761378856567044600,1.682044677734375,-0.07659912109375,-1.0054473876953125,-0.003662109375
1761378856577100500,1.6921005859375,-0.075927734375,-1.00408935546875,0.002838134765625
1761378856587155500,1.702155517578125,-0.079986572265625,-0.99847412109375,0.00762939453125
1761378856597211600,1.712211669921875,-0.0839385986328125,-1.00018310546875,0.006561279296875
1761378856607267600,1.722267578125,-0.09149169921875,-0.9995574951171875,0.00128173828125
1761378856617323500,1.732323486328125,-0.0924530029296875,-0.9893798828125,-0.0018310546875
1761378856627379700,1.742379638671875,-0.0912322998046875,-0.9902496337890625,-0.0075836181640625
1761378856637434400,1.752434326171875,-0.0887603759765625,-1.0001220703125,-0.0039825439453125
1761378856647490600,1.762490478515625,-0.08404541015625,-0.9970550537109375,0.0058135986328125
1761378856657546500,1.77254638671875,-0.0793914794921875,-0.996063232421875,0.0095977783203125
1761378856667602400,1.7826025390625,-0.0822601318359375,-1.000732421875,0.012359619140625
1761378856677658600,1.79265869140625,-0.08404541015625,-0.9996185302734375,0.01885986328125
1761378856687714600,1.802714599609375,-0.093231201171875,-0.99578857421875,0.022216796875
1761378856697769700,1.812769775390625,-0.099639892578125,-0.9972991943359375,0.0259552001953125
1761378856707825400,1.822825439453125,-0.1041412353515625,-0.997100830078125,0.0192413330078125
1761378856717881300,1.83288134765625,-0.1092987060546875,-0.9965972900390625,0.0055694580078125
1761378856727937500,1.8429375,-0.1062469482421875,-0.9915924072265625,-0.0021514892578125
1761378856737993500,1.852993408203125,-0.10394287109375,-0.9872894287109375,-0.00714111328125
1761378856748049400,1.86304931640625,-0.101531982421875,-0.9919586181640625,-0.008270263671875
1761378856758104600,1.8731044921875,-0.096588134765625,-0.9971466064453125,-0.0047149658203125
1761378856768160500,1.883160400390625,-0.1015167236328125,-1.0019378662109375,-0.000091552734375
1761378856778216700,1.893216796875,-0.1031036376953125,-1.003204345703125,0.008575439453125
1761378856788272400,1.9032724609375,-0.1063690185546875,-0.9965667724609375,0.0125732421875
1761378856798328300,1.913328369140625,-0.10064697265625,-0.9894256591796875,0.0077972412109375
1761378856808384500,1.923384521484375,-0.0914459228515625,-0.9776763916015625,-0.00042724609375
1761378856818439400,1.933439453125,-0.0784759521484375,-0.9657135009765625,-0.0066375732421875
1761378856828495600,1.94349560546875,-0.0745697021484375,-0.9673614501953125,-0.006103515625
1761378856838551600,1.953551513671875,-0.0768280029296875,-0.9794769287109375,-0.00592041015625
1761378856848607500,1.963607421875,-0.0846405029296875,-0.9873809814453125,-0.0005950927734375
1761378856858663700,1.97366357421875,-0.0950164794921875,-0.9948577880859375,0.0038299560546875
1761378856868718300,1.98371826171875,-0.0968780517578125,-0.9988555908203125,0.004180908203125
1761378856878774500,1.9937744140625,-0.1019134521484375,-0.99981689453125,0.004150390625
1761378856888830500,2.00383056640625,-0.101409912109375,-1.0036163330078125,0.00494384765625
1761378856898886400,2.013886474609375,-0.0966339111328125,-1.000396728515625,0.00091552734375
1761378856908942300,2.0239423828125,-0.0895538330078125,-0.9989776611328125,-0.0048065185546875
1761378856918998500,2.03399853515625,-0.0887298583984375,-1.0004730224609375,-0.0061492919921875
1761378856929053400,2.044053466796875,-0.0922088623046875,-0.997955322265625,-0.002197265625
1761378856939109600,2.054109619140625,-0.09051513671875,-0.9962615966796875,0.00018310546875
1761378856949165600,2.06416552734375,-0.09405517578125,-0.9964447021484375,0.00042724609375
1761378856959221500,2.074221435546875,-0.0953521728515625,-0.9958038330078125,0.00042724609375
1761378856969277400,2.08427734375,-0.092803955078125,-0.9894866943359375,0.0028228759765625
1761378856979333400,2.09433349609375,-0.0931549072265625,-0.9823455810546875,0.0028533935546875
1761378856989388500,2.104388427734375,-0.093353271484375,-0.98193359375,0.003509521484375
1761378856999444500,2.114444580078125,-0.093780517578125,-0.983612060546875,0.0062103271484375
1761378857009500400,2.12450048828125,-0.0926971435546875,-0.981475830078125,0.005462646484375
1761378857019556600,2.134556640625,-0.09307861328125,-0.9873046875,0.0018310546875
1761378857029612500,2.144612548828125,-0.0923614501953125,-0.9940643310546875,0.00201416015625
1761378857039668500,2.15466845703125,-0.0957794189453125,-0.996002197265625,0.00445556640625
1761378857049723400,2.164723388671875,-0.1009674072265625,-1.00189208984375,0.0062408447265625
1761378857059779300,2.174779296875,-0.09503173828125,-1.000091552734375,0.008148193359375
1761378857069835500,2.18483544921875,-0.085906982421875,-0.9953155517578125,0.0049591064453125
1761378857079891500,2.194891357421875,-0.08135986328125,-0.9908447265625,0.0032501220703125
1761378857089947400,2.204947509765625,-0.0806427001953125,-0.987548828125,0.0070343017578125
1761378857100002600,2.21500244140625,-0.08367919921875,-0.990966796875,0.0083160400390625
1761378857110058500,2.22505859375,-0.0878143310546875,-0.9928131103515625,0.005340576171875
1761378857120114700,2.23511474609375,-0.0911407470703125,-0.9906463623046875,0.00408935546875
1761378857130170600,2.245170654296875,-0.0946044921875,-0.9938812255859375,-0.0006561279296875
1761378857140226600,2.2552265625,-0.1025390625,-0.9944305419921875,-0.005523681640625
1761378857150282500,2.265282470703125,-0.10321044921875,-0.99041748046875,-0.004913330078125
1761378857160337400,2.27533740234375,-0.098236083984375,-0.9920654296875,-0.0056304931640625
1761378857170393300,2.285393310546875,-0.0946197509765625,-0.9927215576171875,-0.0080413818359375
1761378857180449500,2.295449462890625,-0.0955657958984375,-0.9919891357421875,-0.0063018798828125
1761378857190505500,2.30550537109375,-0.090789794921875,-0.9890899658203125,-0.00634765625
1761378857200561400,2.3155615234375,-0.092529296875,-0.9891204833984375,-0.0045166015625
1761378857210617600,2.32561767578125,-0.0985260009765625,-0.994110107421875,0.00640869140625
1761378857220672500,2.335672607421875,-0.094696044921875,-0.9971160888671875,0.0075225830078125
1761378857230728400,2.345728515625,-0.0963897705078125,-1.0011138916015625,0.001678466796875
1761378857240784400,2.355784423828125,-0.0950775146484375,-1.00274658203125,0.000335693359375
1761378857250840300,2.36584033203125,-0.0940704345703125,-0.9954833984375,0.001617431640625
1761378857260896500,2.375896484375,-0.0940704345703125,-0.990631103515625,0.0033721923828125
1761378857270952400,2.385952392578125,-0.09210205078125,-0.990020751953125,0.0025634765625
1761378857281007600,2.396007568359375,-0.090301513671875,-0.9835205078125,0.0025787353515625
1761378857291063600,2.4060634765625,-0.08782958984375,-0.977569580078125,0.0012969970703125
1761378857301119500,2.416119384765625,-0.0817413330078125,-0.98199462890625,0.0011138916015625
1761378857311175700,2.42617578125,-0.0862579345703125,-0.9892730712890625,0.0027008056640625
1761378857321231600,2.436231689453125,-0.0895233154296875,-0.994873046875,0.0059051513671875
1761378857331286500,2.44628662109375,-0.09295654296875,-0.998687744140625,0.0099334716796875
1761378857341342500,2.456342529296875,-0.1051025390625,-1.00518798828125,0.0101470947265625
1761378857351398400,2.4663984375,-0.109466552734375,-1.0109405517578125,0.0092620849609375
1761378857361454600,2.47645458984375,-0.100250244140625,-1.006622314453125,-0.0029144287109375
1761378857371510500,2.486510498046875,-0.1162567138671875,-1.000152587890625,0.00836181640625
1761378857381566500,2.49656640625,-0.0977020263671875,-0.9981231689453125,0.0013427734375
1761378857391621600,2.50662158203125,-0.0893402099609375,-0.9918060302734375,-0.0053558349609375
1761378857401677600,2.516677490234375,-0.0768280029296875,-0.98828125,-0.0069580078125
1761378857411733500,2.5267333984375,-0.0735015869140625,-0.9871063232421875,-0.006011962890625
1761378857421789400,2.53678955078125,-0.0833282470703125,-0.9884185791015625,-0.0020599365234375
1761378857431845400,2.546845458984375,-0.092010498046875,-0.9967041015625,0.0046844482421875
1761378857441901600,2.556901611328125,-0.098114013671875,-0.99609375,0.0074310302734375
1761378857451956500,2.56695654296875,-0.1011505126953125,-0.990875244140625,0.005706787109375
1761378857462012400,2.577012451171875,-0.10223388671875,-0.9907989501953125,0.0035552978515625
1761378857472068600,2.587068603515625,-0.102691650390625,-0.9926605224609375,-0.0003509521484375
1761378857482124500,2.59712451171875,-0.099334716796875,-0.9924163818359375,-0.00616455078125
1761378857492180500,2.607180419921875,-0.09600830078125,-0.99530029296875,-0.0131988525390625
1761378857502236700,2.617236572265625,-0.0934906005859375,-0.997344970703125,-0.0122528076171875
1761378857512291300,2.627291259765625,-0.094573974609375,-0.9990997314453125,-0.004608154296875
1761378857522347500,2.637347412109375,-0.0929412841796875,-0.9983062744140625,0.000762939453125
1761378857532403500,2.647403564453125,-0.088134765625,-0.994415283203125,0.0045013427734375
1761378857542459400,2.65745947265625,-0.0853729248046875,-0.98834228515625,0.009979248046875
1761378857552515600,2.667515625,-0.08709716796875,-0.987335205078125,0.01251220703125
1761378857562570500,2.677570556640625,-0.090850830078125,-0.9867401123046875,0.007659912109375
1761378857572626700,2.687626708984375,-0.089019775390625,-0.9829254150390625,0.000885009765625
1761378857582682600,2.6976826171875,-0.0904693603515625,-0.983428955078125,-0.0003509521484375
1761378857592738300,2.70773828125,-0.09503173828125,-0.991668701171875,0.0039215087890625
1761378857602794500,2.71779443359375,-0.096954345703125,-0.9978790283203125,0.010223388671875
1761378857612850400,2.727850341796875,-0.1001129150390625,-0.99945068359375,0.0151519775390625
1761378857622905600,2.737905517578125,-0.1009063720703125,-0.9980316162109375,0.0160980224609375
1761378857632961500,2.74796142578125,-0.099395751953125,-0.9975433349609375,0.0124359130859375
1761378857643017500,2.758017578125,-0.0946502685546875,-0.995941162109375,0.0034942626953125
1761378857653073700,2.76807373046875,-0.0902557373046875,-0.9923248291015625,-0.0047760009765625
1761378857663129600,2.778129638671875,-0.0874481201171875,-0.9921112060546875,-0.0064697265625
1761378857673185500,2.788185546875,-0.0848236083984375,-0.991058349609375,-0.006072998046875
1761378857683240400,2.798240478515625,-0.0799407958984375,-0.989837646484375,-0.00360107421875
1761378857693296400,2.80829638671875,-0.0825347900390625,-0.9918975830078125,0.0005340576171875
1761378857703352600,2.8183525390625,-0.093719482421875,-0.994720458984375,0.002899169921875
1761378857713408500,2.828408447265625,-0.1050262451171875,-0.999786376953125,0.0047149658203125
1761378857723464400,2.83846435546875,-0.1157989501953125,-1.0081329345703125,0.0048370361328125
1761378857733520400,2.848520263671875,-0.1196136474609375,-1.0047607421875,0.00152587890625
1761378857743575600,2.858575439453125,-0.1114959716796875,-0.9991607666015625,-0.0027008056640625
1761378857753631500,2.868631591796875,-0.104736328125,-0.9990234375,0.00103759765625
1761378857763687700,2.878687744140625,-0.0894622802734375,-0.9941253662109375,0.000457763671875
1761378857773740000,2.888739990234375,-0.0794830322265625,-0.9878997802734375,-0.0003509521484375
1761378857783796000,2.8987958984375,-0.0721588134765625,-0.9821624755859375,0.0032501220703125
1761378857793851000,2.908850830078125,-0.072509765625,-0.9752349853515625,0.0004730224609375
1761378857803906800,2.91890673828125,-0.082489013671875,-0.977752685546875,-0.0007171630859375
1761378857813963000,2.928962890625,-0.0950164794921875,-0.9814910888671875,0.0053253173828125
1761378857824019000,2.93901904296875,-0.10784912109375,-0.983978271484375,0.0066375732421875
1761378857834075000,2.949074951171875,-0.1065826416015625,-0.9894561767578125,0.0030059814453125
1761378857844131000,2.959131103515625,-0.103607177734375,-0.9969635009765625,0.0009918212890625
1761378857854186000,2.96918603515625,-0.0957794189453125,-1.001922607421875,0.0007476806640625
1761378857864242200,2.9792421875,-0.0942840576171875,-1.005950927734375,0.0031585693359375
1761378857874298000,2.989298095703125,-0.0881195068359375,-1.0047607421875,0.007720947265625
1761378857884354000,2.99935400390625,-0.0798797607421875,-0.996795654296875,0.0099639892578125
1761378857894410000,3.009409912109375,-0.0745849609375,-0.9947662353515625,0.0086822509765625
1761378857904466000,3.0194658203125,-0.0678558349609375,-0.9876861572265625,0.005950927734375
1761378857914521000,3.02952099609375,-0.072021484375,-0.9805450439453125,0.004608154296875
1761378857924577000,3.039576904296875,-0.0810089111328125,-0.98370361328125,0.004791259765625
1761378857934633000,3.049633056640625,-0.0941314697265625,-0.9879302978515625,0.00494384765625
1761378857944689200,3.059689208984375,-0.0995941162109375,-0.9886932373046875,-0.000457763671875
1761378857954745000,3.0697451171875,-0.1070098876953125,-0.9942474365234375,-0.0030975341796875
1761378857964801000,3.079801025390625,-0.11712646484375,-1.004730224609375,0.0080718994140625
1761378857974856000,3.08985595703125,-0.103851318359375,-1.00518798828125,0.0036773681640625
1761378857984912000,3.099911865234375,-0.09832763671875,-1.0027923583984375,0.00421142578125
1761378857994968000,3.109968017578125,-0.0890350341796875,-0.9962615966796875,0.0044403076171875
1761378858005024000,3.12002392578125,-0.0831756591796875,-0.9880523681640625,0.0006866455078125
1761378858015080000,3.130079833984375,-0.0745391845703125,-0.9805145263671875,0.0020904541015625
1761378858025135000,3.140135009765625,-0.0724334716796875,-0.9751434326171875,0.0010986328125
1761378858035191000,3.15019091796875,-0.0750885009765625,-0.9813232421875,-0.0030517578125
1761378858045247000,3.1602470703125,-0.084869384765625,-0.9868927001953125,-0.001983642578125
1761378858055303200,3.17030322265625,-0.099212646484375,-0.99163818359375,-0.000457763671875
1761378858065359000,3.180359130859375,-0.1124725341796875,-0.998931884765625,0.001800537109375
1761378858075414800,3.190414794921875,-0.1171417236328125,-1.00628662109375,0.0091400146484375
1761378858085470000,3.200469970703125,-0.1141510009765625,-1.013427734375,0.0131378173828125
1761378858095526000,3.21052587890625,-0.0987701416015625,-1.0093536376953125,0.010498046875
1761378858105582000,3.22058203125,-0.084136962890625,-0.9989166259765625,0.0050811767578125
1761378858115638000,3.230637939453125,-0.0785064697265625,-0.9919586181640625,-0.0012969970703125
1761378858125694000,3.24069384765625,-0.074951171875,-0.9839324951171875,-0.00341796875
1761378858135750100,3.250750244140625,-0.0780029296875,-0.97503662109375,-0.0014190673828125
1761378858145804800,3.2608046875,-0.0846099853515625,-0.976715087890625,0.0008392333984375
1761378858155861000,3.270861083984375,-0.095306396484375,-0.986297607421875,0.0036163330078125
1761378858165917000,3.2809169921875,-0.101531982421875,-0.9918212890625,0.0074005126953125
1761378858175972900,3.290972900390625,-0.1014556884765625,-0.9926910400390625,0.0062713623046875
1761378858186029000,3.301029052734375,-0.097015380859375,-0.995452880859375,0.00390625
1761378858196085000,3.3110849609375,-0.0942840576171875,-0.9969635009765625,0.0009307861328125
1761378858206140200,3.32114013671875,-0.0931243896484375,-0.9965972900390625,-0.0001678466796875
1761378858216196000,3.331196044921875,-0.0898284912109375,-0.999359130859375,0.001861572265625
1761378858226252000,3.341251953125,-0.0915985107421875,-1.00054931640625,-0.002838134765625
1761378858236308200,3.35130810546875,-0.0990447998046875,-1.0010223388671875,-0.0016937255859375
1761378858246364000,3.361364013671875,-0.0989837646484375,-0.9912261962890625,-0.000579833984375
1761378858256418800,3.371418701171875,-0.094085693359375,-0.986053466796875,-0.005767822265625
1761378858266475000,3.38147509765625,-0.089080810546875,-0.9922943115234375,-0.008026123046875
1761378858276531000,3.391531005859375,-0.0867919921875,-0.9913177490234375,-0.0034942626953125
1761378858286587000,3.4015869140625,-0.0861358642578125,-0.9900970458984375,0.002593994140625
1761378858296643000,3.41164306640625,-0.100128173828125,-0.995025634765625,0.0085906982421875
1761378858306699000,3.421698974609375,-0.10125732421875,-0.9973602294921875,0.011474609375
1761378858316754200,3.431754150390625,-0.100677490234375,-0.99066162109375,0.006805419921875
1761378858326809900,3.441809814453125,-0.106048583984375,-0.9935760498046875,0.004486083984375
1761378858336865800,3.45186572265625,-0.102294921875,-0.9960479736328125,0.0048980712890625
1761378858346922000,3.461921875,-0.0960540771484375,-0.991943359375,0.003814697265625
1761378858356978000,3.47197802734375,-0.0916290283203125,-0.9912109375,0.0034942626953125
1761378858367033900,3.482033935546875,-0.0843048095703125,-0.9902191162109375,0.00323486328125
1761378858377089000,3.492089111328125,-0.0801544189453125,-0.987548828125,-0.00146484375
1761378858387145000,3.50214501953125,-0.08135986328125,-0.9893035888671875,-0.0020294189453125
1761378858397201200,3.512201171875,-0.0827484130859375,-0.9872589111328125,-0.0009002685546875
1761378858407257000,3.522257080078125,-0.09185791015625,-0.9888763427734375,0.0006256103515625
1761378858417313000,3.53231298828125,-0.09820556640625,-1.00006103515625,0.0051422119140625
1761378858427368000,3.542367919921875,-0.1052398681640625,-1.004364013671875,0.00750732421875
1761378858437423900,3.552423828125,-0.105316162109375,-1.0043792724609375,0.007171630859375
1761378858447480000,3.56247998046875,-0.1028900146484375,-1.002197265625,0.00482177734375
1761378858457536000,3.572535888671875,-0.09747314453125,-0.997100830078125,0.0021514892578125
1761378858467592000,3.582592041015625,-0.0915374755859375,-0.9883880615234375,-0.0020751953125
1761378858477648100,3.592648193359375,-0.08551025390625,-0.9841461181640625,-0.0079193115234375
1761378858487703000,3.602703125,-0.0821380615234375,-0.983123779296875,-0.006683349609375
1761378858497759000,3.612759033203125,-0.0827178955078125,-0.9841461181640625,-0.0040283203125
1761378858507815000,3.62281494140625,-0.08734130859375,-0.989654541015625,0.0000762939453125
1761378858517870800,3.632870849609375,-0.0924835205078125,-0.9920654296875,0.0063323974609375
1761378858527927000,3.642927001953125,-0.096099853515625,-0.996185302734375,0.01055908203125
1761378858537983000,3.65298291015625,-0.09918212890625,-1.003662109375,0.0074920654296875
1761378858548038000,3.663037841796875,-0.0966796875,-1.0041961669921875,0.000762939453125
1761378858558094000,3.673093994140625,-0.094696044921875,-0.99774169921875,-0.000701904296875
1761378858568150000,3.68314990234375,-0.086456298828125,-0.995574951171875,-0.00274658203125
1761378858578206000,3.6932060546875,-0.077606201171875,-0.9903717041015625,-0.0032958984375
1761378858588262100,3.70326220703125,-0.0734405517578125,-0.9858245849609375,-0.000213623046875
1761378858598316800,3.71331689453125,-0.0707550048828125,-0.9823150634765625,0.0037689208984375
1761378858608373000,3.723373046875,-0.073333740234375,-0.9833984375,0.0041351318359375
1761378858618429000,3.733428955078125,-0.0787353515625,-0.9877166748046875,0.00274658203125
1761378858628484900,3.74348486328125,-0.0857391357421875,-0.9876708984375,0.0015106201171875
1761378858638541000,3.753541015625,-0.0921173095703125,-0.989654541015625,0.0015106201171875
1761378858648597000,3.763596923828125,-0.097381591796875,-0.999267578125,0.004150390625
1761378858658652200,3.773652099609375,-0.09588623046875,-1.000823974609375,0.00970458984375
1761378858668708000,3.7837080078125,-0.09698486328125,-0.9965057373046875,0.01025390625
1761378858678764000,3.793763916015625,-0.0904388427734375,-0.9956817626953125,0.0022735595703125
1761378858688820000,3.803820068359375,-0.085205078125,-0.9897918701171875,-0.00775146484375
1761378858698876000,3.8138759765625,-0.08502197265625,-0.9917755126953125,-0.0115203857421875
1761378858708931800,3.823931884765625,-0.0887298583984375,-0.9968109130859375,-0.0103607177734375
1761378858718987000,3.833987060546875,-0.0885162353515625,-0.9970703125,-0.007781982421875
1761378858729043000,3.84404296875,-0.0853271484375,-0.995697021484375,-0.003021240234375
1761378858739099100,3.85409912109375,-0.0879364013671875,-0.99530029296875,0.0034637451171875
1761378858749155000,3.864155029296875,-0.0865478515625,-0.991912841796875,0.0053253173828125
1761378858759211000,3.8742109375,-0.091888427734375,-0.9943389892578125,0.0077667236328125
1761378858769266200,3.88426611328125,-0.0929718017578125,-0.99365234375,0.008514404296875
1761378858779322000,3.894322021484375,-0.0923004150390625,-0.9960479736328125,0.00506591796875
1761378858789378000,3.9043779296875,-0.0951690673828125,-1.0025634765625,0.0032806396484375
1761378858799434200,3.914434326171875,-0.091583251953125,-0.9979705810546875,0.001068115234375
1761378858809490200,3.924490234375,-0.091217041015625,-0.9933929443359375,-0.003021240234375
1761378858819546000,3.934546142578125,-0.0901031494140625,-0.9974822998046875,-0.0084381103515625
1761378858829601000,3.94460107421875,-0.08367919921875,-0.9913177490234375,-0.0087127685546875
1761378858839657000,3.954656982421875,-0.0800323486328125,-0.9870758056640625,-0.00408935546875
1761378858849713200,3.964713134765625,-0.078155517578125,-0.990447998046875,0.0016326904296875
1761378858859769000,3.97476904296875,-0.0825042724609375,-0.99176025390625,0.0091705322265625
1761378858869825000,3.984824951171875,-0.0857696533203125,-0.9918975830078125,0.0145111083984375
1761378858879880200,3.994880126953125,-0.0919189453125,-0.9898681640625,0.0139007568359375
1761378858889936100,4.00493603515625,-0.093597412109375,-0.9904632568359375,0.00689697265625
1761378858899992300,4.014992431640625,-0.0916290283203125,-0.993682861328125,-0.0012664794921875
1761378858910045200,4.025045166015625,-0.0928192138671875,-0.994720458984375,-0.0071868896484375
1761378858920101000,4.03510107421875,-0.09210205078125,-0.997314453125,-0.0072479248046875
1761378858930157300,4.0451572265625,-0.0909881591796875,-1.0021514892578125,-0.0032501220703125
1761378858940213200,4.055213134765625,-0.0833892822265625,-0.9980010986328125,-0.001861572265625
1761378858950268200,4.06526806640625,-0.0794677734375,-0.99700927734375,0.0016632080078125
1761378858960324000,4.075323974609375,-0.0795745849609375,-0.9974822998046875,0.00421142578125
1761378858970380000,4.085380126953125,-0.08544921875,-0.9929046630859375,0.004913330078125
1761378858980436000,4.09543603515625,-0.0899505615234375,-0.992950439453125,0.001251220703125
1761378858990492200,4.1054921875,-0.1005401611328125,-0.9928436279296875,-0.0001983642578125
1761378859000547000,4.115547119140625,-0.1055450439453125,-0.996368408203125,-0.0014801025390625
1761378859010603300,4.125603271484375,-0.1067657470703125,-0.999908447265625,-0.0032806396484375
1761378859020659200,4.1356591796875,-0.1017303466796875,-0.9986572265625,-0.0043792724609375
1761378859030715100,4.145715087890625,-0.0893096923828125,-0.9944915771484375,-0.0054168701171875
1761378859040771300,4.155771240234375,-0.0763702392578125,-0.9865875244140625,-0.0077056884765625
1761378859050827300,4.1658271484375,-0.0666961669921875,-0.9773101806640625,-0.0078887939453125
1761378859060882200,4.175882080078125,-0.069091796875,-0.9784088134765625,-0.00152587890625
1761378859070938000,4.185938232421875,-0.076263427734375,-0.9825439453125,0.005615234375
1761378859080994000,4.195994140625,-0.0898284912109375,-0.98468017578125,0.0093841552734375
1761378859091050200,4.20605029296875,-0.1016845703125,-0.992828369140625,0.01116943359375
1761378859101106200,4.216106201171875,-0.1085205078125,-1.0004730224609375,0.010223388671875
1761378859111161300,4.226161376953125,-0.1032867431640625,-0.9983062744140625,0.007476806640625
1761378859121217300,4.23621728515625,-0.0911102294921875,-0.9931640625,0.0033416748046875
1761378859131273200,4.246273193359375,-0.078643798828125,-0.9907073974609375,0.0008544921875
1761378859141329200,4.2563291015625,-0.0701141357421875,-0.9862213134765625,-0.0009613037109375
1761378859151385000,4.266385009765625,-0.0664825439453125,-0.9807586669921875,-0.0027008056640625
1761378859161441000,4.27644091796875,-0.07354736328125,-0.984130859375,-0.00262451171875
1761378859171496200,4.28649609375,-0.0874176025390625,-0.9951934814453125,0.001556396484375
1761378859181552000,4.29655224609375,-0.0990753173828125,-1.0001983642578125,0.0079803466796875
1761378859191608000,4.306608154296875,-0.1091766357421875,-1.0023956298828125,0.010223388671875
1761378859201664300,4.316664306640625,-0.111114501953125,-1.008209228515625,0.0077362060546875
1761378859211720200,4.32672021484375,-0.1052093505859375,-1.007354736328125,0.00335693359375
1761378859221776100,4.336776123046875,-0.096099853515625,-1.001007080078125,-0.0013275146484375
1761378859231831000,4.3468310546875,-0.089111328125,-0.9930572509765625,-0.0015869140625
1761378859241887000,4.356886962890625,-0.0806121826171875,-0.983795166015625,0.0025482177734375
1761378859251943200,4.366943115234375,-0.0719757080078125,-0.978424072265625,0.00311279296875
1761378859261999000,4.3769990234375,-0.0700225830078125,-0.9777679443359375,0.002349853515625
1761378859272055000,4.387054931640625,-0.078216552734375,-0.98162841796875,0.0000457763671875
1761378859282111200,4.397111328125,-0.08990478515625,-0.9921417236328125,-0.002288818359375
1761378859292166100,4.407166259765625,-0.1035003662109375,-1.0002899169921875,-0.00518798828125
1761378859302222300,4.417222412109375,-0.1117706298828125,-1.0003814697265625,-0.0065155029296875
1761378859312278300,4.4272783203125,-0.115203857421875,-1.005462646484375,-0.0028228759765625
1761378859322334000,4.437333984375,-0.109283447265625,-1.0084075927734375,0.003204345703125
1761378859332390100,4.44739013671875,-0.095550537109375,-1.00238037109375,0.0060882568359375
1761378859342445000,4.457445068359375,-0.08453369140625,-0.9982452392578125,0.0091705322265625
1761378859352501200,4.467501220703125,-0.0724029541015625,-0.9873504638671875,0.0074615478515625
1761378859362557200,4.47755712890625,-0.0648040771484375,-0.977935791015625,-0.0002593994140625
1761378859372613000,4.487613037109375,-0.0672607421875,-0.973419189453125,-0.0035552978515625
1761378859382669300,4.49766943359375,-0.0785369873046875,-0.976104736328125,-0.0004730224609375
1761378859392725200,4.507725341796875,-0.0859222412109375,-0.983489990234375,-0.0012054443359375
1761378859402780200,4.5177802734375,-0.092987060546875,-0.9910125732421875,0.00103759765625
1761378859412836000,4.527836181640625,-0.1040191650390625,-0.9992828369140625,0.005706787109375
1761378859422892000,4.53789208984375,-0.1078948974609375,-1.0037841796875,0.01080322265625
1761378859432948200,4.5479482421875,-0.103515625,-1.0077056884765625,0.00494384765625
1761378859443004200,4.558004150390625,-0.1045684814453125,-1.0064544677734375,0.003662109375
1761378859453059000,4.56805908203125,-0.0970306396484375,-1.002685546875,0.003173828125
1761378859463115300,4.578115234375,-0.0915679931640625,-1.0006103515625,-0.000640869140625
1761378859473171200,4.588171142578125,-0.0874786376953125,-0.99664306640625,-0.0009765625
1761378859483227100,4.59822705078125,-0.0851593017578125,-0.99041748046875,-0.0018157958984375
1761378859493283300,4.608283447265625,-0.08160400390625,-0.9902191162109375,0.000335693359375
1761378859503339000,4.618339111328125,-0.0883331298828125,-0.9920654296875,0.0023651123046875
1761378859513394200,4.628394287109375,-0.0927581787109375,-0.994415283203125,0.0039520263671875
1761378859523450000,4.6384501953125,-0.1020050048828125,-0.994293212890625,0.0023040771484375
1761378859533506000,4.648506103515625,-0.1084136962890625,-0.99835205078125,-0.00286865234375
1761378859543562200,4.658562255859375,-0.1080780029296875,-0.999114990234375,-0.00408935546875
1761378859553618200,4.6686181640625,-0.1078643798828125,-0.995147705078125,-0.0028076171875
1761378859563674000,4.678674072265625,-0.099212646484375,-0.996795654296875,-0.0041656494140625
1761378859573729300,4.688729248046875,-0.0902557373046875,-0.9949798583984375,-0.0044708251953125
1761378859583785000,4.698784912109375,-0.083251953125,-0.991302490234375,-0.0015411376953125
1761378859593841200,4.708841064453125,-0.0747222900390625,-0.9938812255859375,-0.00225830078125
1761378859603897000,4.71889697265625,-0.0758056640625,-0.9981689453125,-0.00115966796875
1761378859613953000,4.728953125,-0.0790252685546875,-0.9953155517578125,0.0033111572265625
1761378859624008200,4.73900830078125,-0.0861358642578125,-0.9890899658203125,0.00628662109375
1761378859634064100,4.749064208984375,-0.0881195068359375,-0.984893798828125,0.004791259765625
1761378859644120300,4.759120361328125,-0.0908660888671875,-0.985198974609375,0.0035247802734375
1761378859654176300,4.76917626953125,-0.0904083251953125,-0.988128662109375,0.0054168701171875
1761378859664232200,4.779232177734375,-0.08795166015625,-0.9897918701171875,0.0055694580078125
1761378859674288400,4.789288330078125,-0.0841827392578125,-0.9928741455078125,0.003509521484375
1761378859684343000,4.799343017578125,-0.084716796875,-0.99713134765625,0.003875732421875
1761378859694399200,4.809399169921875,-0.0863189697265625,-0.9973907470703125,0.001678466796875
1761378859704455200,4.819455078125,-0.08843994140625,-0.997406005859375,-0.002227783203125
1761378859714511000,4.829510986328125,-0.0868377685546875,-0.994049072265625,-0.002593994140625
1761378859724567300,4.8395673828125,-0.0868072509765625,-0.9931793212890625,-0.00360107421875
1761378859734623200,4.849623291015625,-0.0836639404296875,-0.993896484375,-0.0064239501953125
1761378859744678100,4.85967822265625,-0.082977294921875,-0.9886474609375,-0.00457763671875
1761378859754734300,4.869734375,-0.08673095703125,-0.9889068603515625,0.001708984375
1761378859764790000,4.8797900390625,-0.089385986328125,-0.994537353515625,0.00457763671875
1761378859774852000,4.88985205078125,-0.0937652587890625,-0.99981689453125,0.0030364990234375
1761378859784908000,4.899907958984375,-0.095489501953125,-0.997100830078125,0.001220703125
1761378859794963200,4.909963134765625,-0.0988616943359375,-0.995697021484375,0.0019683837890625
1761378859805019100,4.92001904296875,-0.098297119140625,-0.993133544921875,0.0008697509765625
1761378859815075000,4.930074951171875,-0.091522216796875,-0.9891204833984375,-0.0029144287109375
1761378859825131300,4.94013134765625,-0.088470458984375,-0.9896392822265625,0.0009613037109375
1761378859835187200,4.950187255859375,-0.087493896484375,-0.9916839599609375,0.0032501220703125
1761378859845243100,4.9602431640625,-0.087371826171875,-0.99267578125,0.005828857421875
1761378859855298000,4.970298095703125,-0.089752197265625,-0.9931488037109375,0.0070648193359375
1761378859865354000,4.98035400390625,-0.091522216796875,-0.995819091796875,0.002593994140625
1761378859875410200,4.99041015625,-0.0920867919921875,-0.9958343505859375,-0.002532958984375
1761378859885466000,5.000466064453125,-0.0910186767578125,-0.9924163818359375,-0.0013275146484375
1761378859895522000,5.01052197265625,-0.0881805419921875,-0.9912109375,-0.0024871826171875
1761378859905578200,5.020578125,-0.0847625732421875,-0.993560791015625,-0.0034027099609375
1761378859915633200,5.030633056640625,-0.083038330078125,-0.992095947265625,-0.0009765625
1761378859925689300,5.040689453125,-0.08551025390625,-0.993804931640625,0.0042877197265625
1761378859935745300,5.050745361328125,-0.0873565673828125,-0.9956512451171875,0.0080718994140625
1761378859945801000,5.060801025390625,-0.0857391357421875,-0.9941558837890625,0.00927734375
1761378859955857200,5.070857177734375,-0.087921142578125,-0.9920654296875,0.0055084228515625
1761378859965913000,5.0809130859375,-0.085174560546875,-0.991607666015625,-0.0045318603515625
1761378859975968000,5.090968017578125,-0.090087890625,-0.9897308349609375,-0.007293701171875
1761378859986024200,5.101024169921875,-0.0878448486328125,-0.99066162109375,-0.008819580078125
1761378859996080000,5.111080078125,-0.0885162353515625,-0.9942474365234375,-0.0051727294921875
1761378860006136000,5.121135986328125,-0.087066650390625,-0.9989013671875,-0.0001983642578125
1761378860016192300,5.131192138671875,-0.0849609375,-0.9969329833984375,0.0036163330078125
1761378860026247000,5.141246826171875,-0.0854949951171875,-0.9900970458984375,0.004913330078125
1761378860036303000,5.15130322265625,-0.080535888671875,-0.98675537109375,0.0055999755859375
1761378860046359000,5.161359130859375,-0.0778961181640625,-0.9832916259765625,0.00384521484375
1761378860056415000,5.1714150390625,-0.07830810546875,-0.984649658203125,-0.000213623046875
1761378860066471200,5.18147119140625,-0.0786285400390625,-0.9857940673828125,-0.0021209716796875
1761378860076527000,5.191527099609375,-0.0876007080078125,-0.9898529052734375,-0.00433349609375
1761378860086582300,5.201582275390625,-0.0899505615234375,-0.9974365234375,-0.0059661865234375
1761378860096638200,5.21163818359375,-0.0977020263671875,-1.001678466796875,-0.0065765380859375
1761378860106694100,5.221694091796875,-0.102264404296875,-1.0069122314453125,-0.0035247802734375
1761378860116750300,5.231750244140625,-0.0997772216796875,-1.0052490234375,0.0001220703125
1761378860126806000,5.241805908203125,-0.090362548828125,-0.999176025390625,0.000244140625
1761378860136861200,5.251861083984375,-0.07965087890625,-0.9959716796875,0.0045013427734375
1761378860146917000,5.261917236328125,-0.0700531005859375,-0.992431640625,0.0071868896484375
1761378860156973000,5.27197314453125,-0.06488037109375,-0.9863433837890625,0.0058441162109375
1761378860167029200,5.282029296875,-0.06365966796875,-0.9842987060546875,0.0023040771484375
1761378860177085200,5.292085205078125,-0.077545166015625,-0.9853515625,0
1761378860187141000,5.30214111328125,-0.0938720703125,-0.991241455078125,0.000213623046875
1761378860197196000,5.312196044921875,-0.10577392578125,-0.9958038330078125,0.0048980712890625
1761378860207252000,5.322251953125,-0.106475830078125,-0.992919921875,0.0041656494140625
1761378860217308200,5.33230810546875,-0.094940185546875,-0.9938812255859375,0.003997802734375
1761378860227364000,5.342364013671875,-0.084381103515625,-0.9962615966796875,0.0020751953125
1761378860237420000,5.352419921875,-0.0798187255859375,-0.996246337890625,-0.0004425048828125
1761378860247476200,5.362476318359375,-0.0855255126953125,-1.00006103515625,-0.002288818359375
1761378860257531100,5.37253125,-0.090484619140625,-0.99786376953125,-0.0064544677734375
1761378860267587000,5.382587158203125,-0.094940185546875,-0.99639892578125,-0.0054473876953125
1761378860277643300,5.392643310546875,-0.092498779296875,-0.9953155517578125,-0.0042724609375
1761378860287699200,5.40269921875,-0.0821990966796875,-0.990936279296875,-0.00531005859375
1761378860297755000,5.4127548828125,-0.075592041015625,-0.99188232421875,-0.0059051513671875
1761378860307810000,5.42281005859375,-0.0761566162109375,-0.993438720703125,-0.0110321044921875
1761378860317866000,5.432865966796875,-0.073486328125,-0.994049072265625,-0.0140228271484375
1761378860327922200,5.442922119140625,-0.0908203125,-0.9888458251953125,0.003936767578125
1761378860337978000,5.45297802734375,-0.1124420166015625,-1.0053863525390625,0.0210723876953125
1761378860348034000,5.463033935546875,-0.1081695556640625,-1.014312744140625,0.0183868408203125
1761378860358090200,5.47309033203125,-0.0924224853515625,-0.9985504150390625,0.014434814453125
1761378860368145200,5.483145263671875,-0.076904296875,-0.987030029296875,0.0041656494140625
1761378860378201000,5.493201171875,-0.058258056640625,-0.98065185546875,-0.0026702880859375
1761378860388257000,5.503257080078125,-0.0516815185546875,-0.971405029296875,-0.0108184814453125
1761378860398313000,5.51331298828125,-0.0624237060546875,-0.9727630615234375,-0.015838623046875
1761378860408369200,5.523369140625,-0.0809326171875,-0.9820404052734375,-0.0136260986328125
1761378860418425000,5.533425048828125,-0.094940185546875,-0.9864959716796875,-0.0080718994140625
1761378860428480300,5.543480224609375,-0.104400634765625,-1.0018157958984375,0.003021240234375
1761378860438536200,5.5535361328125,-0.1119384765625,-1.0023956298828125,0.0131072998046875
