time,seconds_elapsed,z,y,x
1761378854958108200,0.073108154296875,-0.011080614291131496,-0.042339202016592026,0.015417572110891342
1761378854968164000,0.0831640625,0.003564641112461686,-0.025121064856648445,0.048887915909290314
1761378854978220300,0.09322021484375,0.005431783385574818,-0.017258083447813988,0.05606753006577492
1761378854988276000,0.10327587890625,0.010113886557519436,-0.016039419919252396,0.037059485912323
1761378854998332000,0.113331787109375,0.008762066252529621,-0.011671570129692554,0.013362676836550236
1761378855008387000,0.123386962890625,0.012063853442668915,-0.006431001238524914,-0.007951133884489536
1761378855018443000,0.133443115234375,0.012659070082008839,0.008347677998244762,-0.014101704582571983
1761378855028499200,0.143499267578125,0.010529606603085995,0.022480808198451996,-0.004066913388669491
1761378855038555100,0.15355517578125,0.005153216887265444,0.032640766352415085,0.00009427589975530282
1761378855048611000,0.163611083984375,0.009090700186789036,0.03988589718937874,0.008175372146070004
1761378855058666200,0.173666259765625,0.01122122909873724,0.03556465357542038,0.018312161788344383
1761378855068722000,0.183721923828125,0.004315652418881655,0.024760207161307335,0.015134744346141815
1761378855078778000,0.193778076171875,-0.00205276464112103,0.018915101885795593,0.0004703142330981791
1761378855088834000,0.203833984375,0.0034104441292583942,0.00086872314568609,-0.009110940620303154
1761378855098890000,0.213889892578125,0.0044996771030128,-0.012733638286590576,-0.010009757243096828
1761378855108946200,0.2239462890625,-0.004452539142221212,-0.024602016434073448,-0.00908484123647213
1761378855119001000,0.2340009765625,-0.0006609965930692852,-0.023661121726036072,-0.005407548509538174
1761378855129057300,0.244057373046875,0.010328804142773151,-0.02141847275197506,-0.001198955113068223
1761378855139113200,0.25411328125,0.012221512384712696,-0.008761267177760601,-0.010239321738481522
1761378855149169200,0.264169189453125,0.012605806812644005,-0.012778112664818764,-0.03702219948172569
1761378855159225300,0.274225341796875,0.02303847298026085,-0.01495338324457407,-0.07335437834262848
1761378855169281000,0.284281005859375,0.030058300122618675,-0.02009754441678524,-0.10100224614143372
1761378855179336200,0.294336181640625,0.02190556563436985,-0.016415458172559738,-0.11592979729175568
1761378855189392100,0.30439208984375,0.01751827262341976,-0.01829005777835846,-0.11629758030176163
1761378855199448000,0.314447998046875,0.023334084078669548,-0.017595505341887474,-0.09429693967103958
1761378855209504000,0.32450390625,0.030768565833568573,-0.028436701744794846,-0.06270066648721695
1761378855219560200,0.334560302734375,0.017531855031847954,-0.009454754181206226,-0.02588273026049137
1761378855229616000,0.3446162109375,0.027149861678481102,0.004967061802744865,-0.003632019041106105
1761378855239671300,0.35467138671875,0.026740267872810364,0.026215624064207077,-0.003043726785108447
1761378855249727000,0.36472705078125,0.026165558025240898,0.02503025159239769,-0.025317074730992317
1761378855259783000,0.374782958984375,0.03025723807513714,0.025678465142846107,-0.03500858321785927
1761378855269839000,0.384839111328125,0.03394438326358795,0.015178420580923557,-0.03347034379839897
1761378855279895000,0.39489501953125,0.0306915994733572,0.0042733084410429,-0.02388802170753479
1761378855289950200,0.4049501953125,0.024938106536865234,-0.010929879732429981,-0.006534065585583448
1761378855300006100,0.415006103515625,0.02004348300397396,-0.012043346650898457,0.0039044604636728764
1761378855310062000,0.42506201171875,0.017798172309994698,-0.006854976527392864,-0.004283960908651352
1761378855320118300,0.4351181640625,0.017482055351138115,-0.015414375811815262,-0.014058294706046581
1761378855330174200,0.44517431640625,0.02671177126467228,0.006170011591166258,-0.0259274709969759
1761378855340230100,0.455230224609375,0.026006566360592842,0.011451059952378273,-0.03087136335670948
1761378855350285000,0.46528515625,0.023192403838038445,0.02738075703382492,-0.035599008202552795
1761378855360341000,0.475341064453125,0.014600248076021671,0.035776641219854355,-0.034086063504219055
1761378855370397200,0.485397216796875,0.009618538431823254,0.0369550883769989,-0.029755232855677605
1761378855380453000,0.495453125,0.0038274950347840786,0.04174451529979706,-0.027290742844343185
1761378855390509000,0.505509033203125,0.007366836071014404,0.031184017658233643,-0.020311662927269936
1761378855400565200,0.515565185546875,0.011381817981600761,0.020620856434106827,-0.0008258462767116725
1761378855410620200,0.5256201171875,0.01683703623712063,-0.000018375811123405583,0.024167122319340706
1761378855420676400,0.53567626953125,0.014360031113028526,-0.009526926092803478,0.04921574890613556
1761378855430732000,0.54573193359375,0.008071508258581161,-0.026158099994063377,0.0584782250225544
1761378855440788000,0.5557880859375,0.004445082042366266,-0.029636722058057785,0.05203497037291527
1761378855450844200,0.56584423828125,-0.003442135639488697,-0.0245498176664114,0.025123195722699165
1761378855460900000,0.575900146484375,-0.013457751832902431,-0.01221858337521553,-0.008782838471233845
1761378855470955000,0.585955078125,-0.017374197021126747,-0.012239089235663414,-0.028597023338079453
1761378855481011200,0.59601123046875,-0.017596837133169174,-0.007691475562751293,-0.031125428155064583
1761378855491067100,0.606067138671875,-0.019834158942103386,-0.011537612415850163,-0.010557835921645164
1761378855501123000,0.616123046875,-0.015980297699570656,-0.017972875386476517,0.013624998740851879
1761378855511179300,0.62617919921875,-0.019763318821787834,-0.018208298832178116,0.0317227765917778
1761378855521234000,0.63623388671875,-0.02846572920680046,-0.0036400086246430874,0.025962624698877335
1761378855531290000,0.6462900390625,-0.04557361081242561,0.018684737384319305,-0.005880525801330805
1761378855541346000,0.656345947265625,-0.06282876431941986,0.020748155191540718,-0.047441817820072174
1761378855551402000,0.666402099609375,-0.06818518042564392,0.000993625377304852,-0.0869295746088028
1761378855561458200,0.676458251953125,-0.057436395436525345,-0.026580743491649628,-0.11011851578950882
1761378855571514000,0.68651416015625,-0.05463528260588646,-0.041485656052827835,-0.10045789927244186
1761378855581569300,0.6965693359375,-0.06011180579662323,-0.047016244381666183,-0.052798233926296234
1761378855591625200,0.706625244140625,-0.06023404374718666,-0.04020121693611145,0.013494503684341908
1761378855601681200,0.71668115234375,-0.04754834249615669,-0.028170118108391762,0.0552816316485405
1761378855611737000,0.726737060546875,-0.03571884706616402,-0.014681740663945675,0.07093462347984314
1761378855621793000,0.73679296875,-0.023152723908424377,0.0033076461404561996,0.05987771600484848
1761378855631849000,0.746848876953125,-0.016560068354010582,0.006293315906077623,0.04403803125023842
1761378855641904000,0.756904052734375,-0.022288527339696884,0.008582835085690022,0.0203995481133461
1761378855651960000,0.7669599609375,-0.017891915515065193,0.0031217574141919613,0.0033566481433808804
1761378855662016300,0.777016357421875,-0.007363373879343271,-0.006088785361498594,-0.004894091282039881
1761378855672072200,0.787072265625,-0.006344715133309364,-0.00800466351211071,-0.006114617921411991
1761378855682128100,0.797128173828125,-0.009426258504390717,-0.013342970050871372,0.006399576086550951
1761378855692184300,0.807184326171875,-0.005109274294227362,-0.005342833697795868,0.018568357452750206
1761378855702239000,0.817239013671875,-0.008115983568131924,-0.00436039362102747,0.03249402716755867
1761378855712295200,0.827295166015625,-0.013333115726709366,0.0039041941054165363,0.05132390931248665
1761378855722351000,0.83735107421875,-0.01811029389500618,0.002118544653058052,0.0675412267446518
1761378855732407000,0.847406982421875,-0.01210007257759571,0.0012295814231038094,0.08336412906646729
1761378855742463200,0.857463134765625,-0.018555041402578354,-0.003614175831899047,0.09029127657413483
1761378855752519200,0.867519287109375,-0.024213993921875954,-0.005829393398016691,0.09844854474067688
1761378855762574000,0.877573974609375,-0.02942340262234211,-0.003029079409316182,0.11785020679235458
1761378855772633600,0.887633544921875,-0.027222299948334694,0.00009081379539566115,0.13493597507476807
1761378855782689500,0.897689453125,-0.013467605225741863,0.009635317139327526,0.14448687434196472
1761378855792745500,0.907745361328125,-0.006926615722477436,0.027219103649258614,0.1326611042022705
1761378855802801700,0.9178017578125,-0.003917776048183441,0.04559438303112984,0.11767816543579102
1761378855812857600,0.927857666015625,-0.006299174856394529,0.05838341638445854,0.1066630631685257
1761378855822912500,0.93791259765625,-0.013902232982218266,0.06953167170286179,0.11151747405529022
1761378855832968400,0.947968505859375,-0.03783739358186722,0.08647816628217697,0.12381915003061295
1761378855843024400,0.9580244140625,-0.054437942802906036,0.08824330568313599,0.13467445969581604
1761378855853080600,0.96808056640625,-0.06217335909605026,0.08764276653528214,0.13788196444511414
1761378855863136500,0.978136474609375,-0.08245812356472015,0.07725431025028229,0.14077575504779816
1761378855873191700,0.988191650390625,-0.07892198115587234,0.06799023598432541,0.14721953868865967
1761378855883247600,0.99824755859375,-0.05535247176885605,0.04092932492494583,0.13365153968334198
1761378855893303600,1.008303466796875,-0.03117309883236885,0.031130755320191383,0.09309026598930359
1761378855903359700,1.01835986328125,-0.018762769177556038,0.032944101840257645,0.026164492592215538
1761378855913415400,1.02841552734375,-0.015292136929929256,0.053053099662065506,-0.04290458932518959
1761378855923471400,1.038471435546875,-0.0007624630234204233,0.07343479990959167,-0.0862555280327797
1761378855933526500,1.048526611328125,0.011322163045406342,0.08251059055328369,-0.10826095938682556
1761378855943582500,1.05858251953125,0.029916886240243912,0.06563334167003632,-0.10589474439620972
1761378855953638700,1.068638671875,0.04567081481218338,0.04030001908540726,-0.10081449151039124
1761378855963694600,1.078694580078125,0.05064426735043526,0.016949422657489777,-0.10499033331871033
1761378855973750500,1.08875048828125,0.0374874547123909,0.0057502975687384605,-0.10600606352090836
1761378855983806700,1.098806640625,0.02149224281311035,0.01116050872951746,-0.10487315058708191
1761378855993861400,1.108861328125,0.0016996293561533093,0.014784804545342922,-0.10321187227964401
1761378856003917600,1.11891748046875,0.007220628671348095,0.03728611767292023,-0.08924039453268051
1761378856013973500,1.128973388671875,0.03826083615422249,0.08501822501420975,-0.07693605870008469
1761378856024029400,1.139029541015625,0.05091804265975952,0.05870538949966431,-0.06748929619789124
1761378856034085600,1.149085693359375,0.021252557635307312,-0.06167774647474289,-0.07952012866735458
1761378856044141600,1.1591416015625,-0.027419906109571457,-0.20661203563213348,-0.08965665102005005
1761378856054196500,1.169196533203125,-0.07498688995838165,-0.2317488044500351,-0.10141929984092712
1761378856064252700,1.179252685546875,-0.12750469148159027,-0.19514232873916626,-0.11183571815490723
1761378856074308600,1.18930859375,-0.16240781545639038,-0.13793523609638214,-0.13987454771995544
1761378856084364500,1.199364501953125,-0.17855243384838104,-0.10813578963279724,-0.18852996826171875
1761378856094420500,1.20942041015625,-0.16609443724155426,-0.10744363814592361,-0.24472905695438385
1761378856104476400,1.219476318359375,-0.14202451705932617,-0.1039453074336052,-0.27514633536338806
1761378856114531600,1.229531494140625,-0.12961818277835846,-0.08462727069854736,-0.25898414850234985
1761378856124587500,1.23958740234375,-0.13366618752479553,-0.07757841795682907,-0.20072057843208313
1761378856134643500,1.2496435546875,-0.14945898950099945,-0.08851441740989685,-0.11459182947874069
1761378856144699600,1.25969970703125,-0.16405019164085388,-0.11656682938337326,-0.031032750383019447
1761378856154755600,1.269755615234375,-0.15168939530849457,-0.09564796090126038,0.017640246078372
1761378856164811500,1.2798115234375,-0.12274748831987381,-0.019775036722421646,-0.002919090911746025
1761378856174866400,1.289866455078125,-0.05974269285798073,0.0512850247323513,-0.06809250265359879
1761378856184922400,1.29992236328125,0.005637912079691887,0.07437623292207718,-0.14339710772037506
1761378856194978600,1.309978515625,0.02081739716231823,-0.045528870075941086,-0.21209122240543365
1761378856205034500,1.320034423828125,0.005032309330999851,-0.21458473801612854,-0.2382834106683731
1761378856215090400,1.33009033203125,-0.013836986385285854,-0.2832418382167816,-0.2163783758878708
1761378856225146600,1.340146728515625,-0.011344267055392265,-0.23030723631381989,-0.15778324007987976
1761378856235201500,1.350201416015625,-0.027151193469762802,-0.11446718871593475,-0.08628854900598526
1761378856245257700,1.3602578125,-0.056464340537786484,-0.025545839220285416,-0.053888533264398575
1761378856255313700,1.370313720703125,-0.07010585069656372,0.027763720601797104,-0.06978867202997208
1761378856265369600,1.38036962890625,-0.05504674091935158,0.03924114629626274,-0.11245810240507126
1761378856275425500,1.390425537109375,-0.027335483580827713,0.013579990714788437,-0.15530890226364136
1761378856285481500,1.4004814453125,-0.006902647204697132,-0.012234562076628208,-0.15184944868087769
1761378856295536600,1.41053662109375,-0.010439058765769005,-0.049790460616350174,-0.08582542836666107
1761378856305592600,1.420592529296875,-0.029208218678832054,-0.053189717233181,0.014495053328573704
1761378856315648500,1.4306484375,-0.05717034637928009,-0.03809066116809845,0.10495677590370178
1761378856325704400,1.440704345703125,-0.08523553609848022,-0.004307929426431656,0.13923831284046173
1761378856335760600,1.4507607421875,-0.11048629879951477,0.021020596846938133,0.12417947500944138
1761378856345815300,1.460815185546875,-0.1154610812664032,0.031443409621715546,0.10134313255548477
1761378856355871500,1.47087158203125,-0.10460497438907623,0.05528322979807854,0.11115714907646179
1761378856365927400,1.480927490234375,-0.1003337949514389,0.0858994647860527,0.13916641473770142
1761378856375983400,1.4909833984375,-0.08414656668901443,0.11368821561336517,0.16341742873191833
1761378856386039600,1.50103955078125,-0.05852962285280228,0.14084899425506592,0.175921231508255
1761378856396095500,1.511095458984375,-0.023006515577435493,0.1561131775379181,0.16691787540912628
1761378856406150700,1.521150634765625,0.007144995033740997,0.17163380980491638,0.13248160481452942
1761378856416206600,1.53120654296875,0.030132602900266647,0.15867966413497925,0.09141965955495834
1761378856426262500,1.541262451171875,0.021511683240532875,0.1535741090774536,0.05395884066820145
1761378856436318700,1.551318603515625,0.007378287613391876,0.08923853188753128,0.022834476083517075
1761378856446374700,1.561374755859375,0.014827948063611984,0.05289916694164276,0.010745055973529816
1761378856456430300,1.571430419921875,0.026989540085196495,0.023911457508802414,0.014461763203144073
1761378856466485500,1.581485595703125,0.04169285297393799,0.008329303003847599,0.0320303700864315
1761378856476541400,1.59154150390625,0.0573921874165535,0.00800386443734169,0.0512208417057991
1761378856486597600,1.60159765625,0.066302590072155,-0.003971039317548275,0.057253703474998474
1761378856496653600,1.611653564453125,0.05934961140155792,-0.009689644910395145,0.05356522276997566
1761378856506709500,1.62170947265625,0.04544125124812126,-0.007162838242948055,0.04578080400824547
1761378856516765700,1.631765625,0.024775654077529907,0.0029707562644034624,0.034987278282642365
1761378856526820400,1.6418203125,0.005056277383118868,0.005063734482973814,0.02737383358180523
1761378856536876500,1.65187646484375,-0.003266633255407214,0.009217200800776482,0.024573786184191704
1761378856546932500,1.661932373046875,-0.006935137789696455,0.0070882695727050304,0.009927998296916485
1761378856556988400,1.671988525390625,-0.004051466938108206,0.0024658208712935448,-0.003585147438570857
1761378856567044600,1.682044677734375,0.009859554469585419,0.00036751621519215405,-0.015454057604074478
1761378856577100500,1.6921005859375,0.022948192432522774,-0.01564367488026619,-0.019755328074097633
1761378856587155500,1.702155517578125,0.038600657135248184,-0.022465627640485764,-0.022064555436372757
1761378856597211600,1.712211669921875,0.04676644131541252,-0.030673490837216377,-0.021985193714499474
1761378856607267600,1.722267578125,0.029808495193719864,-0.032587237656116486,-0.009712282568216324
1761378856617323500,1.732323486328125,0.002110288944095373,-0.028251344338059425,0.011627361178398132
1761378856627379700,1.742379638671875,-0.017831195145845413,-0.011828163638710976,0.024274712428450584
1761378856637434400,1.752434326171875,-0.032525453716516495,0.0002644518972374499,0.02503770962357521
1761378856647490600,1.762490478515625,-0.036555346101522446,0.007247260306030512,0.01721440628170967
1761378856657546500,1.77254638671875,-0.02732935920357704,0.007352188695222139,0.00018375810759607702
1761378856667602400,1.7826025390625,-0.006827545817941427,0.01260793674737215,-0.012321647256612778
1761378856677658600,1.79265869140625,0.011544004082679749,0.009326123632490635,-0.01980646140873432
1761378856687714600,1.802714599609375,0.031192807480692863,-0.007645668927580118,-0.011018828488886356
1761378856697769700,1.812769775390625,0.0423533171415329,-0.01630626805126667,0.001927862293086946
1761378856707825400,1.822825439453125,0.03905632346868515,-0.01691187173128128,0.017350228503346443
1761378856717881300,1.83288134765625,0.03244049847126007,-0.016708139330148697,0.0393572598695755
1761378856727937500,1.8429375,0.013478790409862995,-0.00875940266996622,0.05212685093283653
1761378856737993500,1.852993408203125,-0.011637747287750244,-0.006749515421688557,0.04728975147008896
1761378856748049400,1.86304931640625,-0.02821672335267067,0.0018133464036509395,0.033611491322517395
1761378856758104600,1.8731044921875,-0.030251912772655487,0.015868445858359337,0.022102639079093933
1761378856768160500,1.883160400390625,-0.022044848650693893,0.0221529733389616,0.019822707399725914
1761378856778216700,1.893216796875,0.002374208066612482,0.014490525238215923,0.03470897674560547
1761378856788272400,1.9032724609375,0.02798849157989025,0.009687514975667,0.04504949972033501
1761378856798328300,1.913328369140625,0.03245354816317558,0.015014369040727615,0.043899014592170715
1761378856808384500,1.923384521484375,0.028603948652744293,0.01666979119181633,0.034279145300388336
1761378856818439400,1.933439453125,0.013453491032123566,0.020205935463309288,0.013437777757644653
1761378856828495600,1.94349560546875,-0.004563060123473406,0.0211873110383749,-0.019532155245542526
1761378856838551600,1.953551513671875,-0.013350159861147404,0.021952703595161438,-0.04291976988315582
1761378856848607500,1.963607421875,-0.01860031671822071,0.014246846549212933,-0.04913798347115517
1761378856858663700,1.97366357421875,-0.01146730501204729,0.005155080929398537,-0.037633128464221954
1761378856868718300,1.98371826171875,-0.001978462329134345,-0.008283762261271477,-0.016593357548117638
1761378856878774500,1.9937744140625,0.005077849142253399,-0.022172680124640465,0.007492803502827883
1761378856888830500,2.00383056640625,0.00577772781252861,-0.026441726833581924,0.025179654359817505
1761378856898886400,2.013886474609375,-0.0059987702406942844,-0.021939920261502266,0.03305036202073097
1761378856908942300,2.0239423828125,-0.01537549402564764,-0.008249673992395401,0.03435184806585312
1761378856918998500,2.03399853515625,-0.0199808981269598,-0.010609234683215618,0.03153848648071289
1761378856929053400,2.044053466796875,-0.019665580242872238,-0.009459814056754112,0.03163861855864525
1761378856939109600,2.054109619140625,-0.015453258529305458,-0.00603525573387742,0.02587607130408287
1761378856949165600,2.06416552734375,-0.010965033434331417,0.000015446334145963192,0.023994015529751778
1761378856959221500,2.074221435546875,-0.00373082235455513,0.013127786107361317,0.025061145424842834
1761378856969277400,2.08427734375,-0.0032658344134688377,0.019102055579423904,0.026224680244922638
1761378856979333400,2.09433349609375,-0.004999552387744188,0.012910205870866776,0.02160143293440342
1761378856989388500,2.104388427734375,-0.002594451420009136,0.0030029804911464453,0.01372247003018856
1761378856999444500,2.114444580078125,-0.00794500857591629,-0.0019805929623544216,0.0027750139124691486
1761378857009500400,2.12450048828125,-0.0073173013515770435,-0.004391818773001432,-0.0004695153038483113
1761378857019556600,2.134556640625,-0.008801747113466263,0.003022421384230256,-0.004716724622994661
1761378857029612500,2.144612548828125,-0.011041998863220215,0.019122561439871788,0.0020242687314748764
1761378857039668500,2.15466845703125,-0.00947712454944849,0.019905531778931618,0.013620737008750439
1761378857049723400,2.164723388671875,-0.005366269499063492,0.018207499757409096,0.027426298707723618
1761378857059779300,2.174779296875,-0.004101268015801907,0.016041817143559456,0.032162196934223175
1761378857069835500,2.18483544921875,-0.00869362335652113,0.019233083352446556,0.02353169210255146
1761378857079891500,2.194891357421875,-0.018078070133924484,0.018222946673631668,0.013964285142719746
1761378857089947400,2.204947509765625,-0.012473979964852333,0.011653993278741837,0.0035228293854743242
1761378857100002600,2.21500244140625,-0.001100684516131878,0.00869229156523943,-0.004837099462747574
1761378857110058500,2.22505859375,0.0041486723348498344,-0.0005062668933533132,-0.014513695612549782
1761378857120114700,2.23511474609375,-0.0014423680258914828,0.002429601736366749,-0.024863004684448242
1761378857130170600,2.245170654296875,-0.004594751633703709,0.01401648297905922,-0.02377643622457981
1761378857140226600,2.2552265625,-0.0015773903578519821,0.014327007345855236,-0.008675247430801392
1761378857150282500,2.265282470703125,0.002329733222723007,0.016337960958480835,0.008268049918115139
1761378857160337400,2.27533740234375,-0.0034163030795753,0.020724453032016754,0.01146703865379095
1761378857170393300,2.285393310546875,-0.005605155136436224,0.015037006698548794,0.0036932716611772776
1761378857180449500,2.295449462890625,-0.009272061288356781,0.013862552121281624,-0.000014913702216290403
1761378857190505500,2.30550537109375,-0.024987908080220222,0.014488928020000458,-0.003913248889148235
1761378857200561400,2.3155615234375,-0.030429543927311897,-0.003093794221058488,-0.007995874620974064
1761378857210617600,2.32561767578125,-0.019723370671272278,-0.01008166279643774,-0.012656672857701778
1761378857220672500,2.335672607421875,-0.00999351218342781,-0.013569071888923645,-0.012475045397877693
1761378857230728400,2.345728515625,-0.009921340271830559,-0.004491953644901514,-0.013344034552574158
1761378857240784400,2.355784423828125,-0.0033159018494188786,0.005545233841985464,-0.003315103007480502
1761378857250840300,2.36584033203125,0.0007691209320910275,0.008954878896474838,0.00914476253092289
1761378857260896500,2.375896484375,0.00008628641808172688,0.011908324435353279,0.011476892977952957
1761378857270952400,2.385952392578125,0.0014152037911117077,0.011953598819673061,0.009120261296629906
1761378857281007600,2.396007568359375,-0.0016951019642874599,0.005002481862902641,0.005208876915276051
1761378857291063600,2.4060634765625,-0.008220645599067211,0.004800880327820778,-0.0011808456620201468
1761378857301119500,2.416119384765625,-0.016083361580967903,0.012458533979952335,-0.021702365949749947
1761378857311175700,2.42617578125,-0.02154017984867096,0.018245849758386612,-0.033189110457897186
1761378857321231600,2.436231689453125,-0.014348313212394714,0.025886723771691322,-0.03707599639892578
1761378857331286500,2.44628662109375,-0.007795871235430241,0.02136574313044548,-0.031797345727682114
1761378857341342500,2.456342529296875,0.003969175275415182,0.009830792434513569,-0.020428575575351715
1761378857351398400,2.4663984375,0.014084394089877605,0.02863883599638939,0.0019006980583071709
1761378857361454600,2.47645458984375,0.0028826056513935328,0.0019651465117931366,0.026272883638739586
1761378857371510500,2.486510498046875,0.007084541022777557,-0.0015776565996930003,0.04796512797474861
1761378857381566500,2.49656640625,-0.0009661948424763978,-0.007414773106575012,0.05000191554427147
1761378857391621600,2.50662158203125,-0.012025503441691399,0.002639192622154951,0.037091441452503204
1761378857401677600,2.516677490234375,-0.021151358261704445,0.0232296884059906,0.01757047139108181
1761378857411733500,2.5267333984375,-0.02311410754919052,0.034274883568286896,-0.003203782718628645
1761378857421789400,2.53678955078125,-0.011120561510324478,0.028652682900428772,-0.01483220886439085
1761378857431845400,2.546845458984375,0.0029843382071703672,0.02231675758957863,-0.013500362634658813
1761378857441901600,2.556901611328125,0.010845190845429897,0.00948085356503725,-0.0036786242853850126
1761378857451956500,2.56695654296875,0.015664979815483093,-0.008501076139509678,0.003028813051059842
1761378857462012400,2.577012451171875,0.012780243530869484,-0.01991751603782177,0.009041165933012962
1761378857472068600,2.587068603515625,0.0017185378819704056,-0.027358386665582657,0.013566674664616585
1761378857482124500,2.59712451171875,-0.00944782979786396,-0.02544970065355301,0.016464460641145706
1761378857492180500,2.607180419921875,-0.020772123709321022,-0.010897388681769371,0.017430122941732407
1761378857502236700,2.617236572265625,-0.030975759029388428,0.0023752732668071985,0.02739087864756584
1761378857512291300,2.627291259765625,-0.03343918174505234,0.007986287586390972,0.03218696638941765
1761378857522347500,2.637347412109375,-0.031924642622470856,0.009810819290578365,0.03104952909052372
1761378857532403500,2.647403564453125,-0.026224147528409958,0.01116104144603014,0.024644626304507256
1761378857542459400,2.65745947265625,-0.009382848627865314,0.003573962254449725,0.01649135909974575
1761378857552515600,2.667515625,-0.0009776464430615306,-0.0033417344093322754,0.006726612336933613
1761378857562570500,2.677570556640625,0.001317998394370079,0.001210939371958375,0.00580888707190752
1761378857572626700,2.687626708984375,-0.011038802564144135,0.010934406891465187,0.004677309654653072
1761378857582682600,2.6976826171875,-0.01920192316174507,0.019809657707810402,0.00026072346372529864
1761378857592738300,2.70773828125,-0.029221534729003906,0.025802569463849068,0.0031041805632412434
1761378857602794500,2.71779443359375,-0.02437032014131546,0.022949257865548134,0.005884787067770958
1761378857612850400,2.727850341796875,-0.012762133963406086,0.013042032718658447,0.016824252903461456
1761378857622905600,2.737905517578125,0.002767823403701186,-0.0018218684708699584,0.02160116657614708
1761378857632961500,2.74796142578125,0.010083260014653206,-0.012494486756622791,0.022478410974144936
1761378857643017500,2.758017578125,0.008741825819015503,-0.013548832386732101,0.021873606368899345
1761378857653073700,2.76807373046875,-0.00010226538870483637,-0.004997421521693468,0.016219982877373695
1761378857663129600,2.778129638671875,-0.007819307036697865,0.002529204124584794,0.009012402966618538
1761378857673185500,2.788185546875,-0.012897422537207603,0.01756541058421135,-0.000508663768414408
1761378857683240400,2.798240478515625,-0.010325874201953411,0.022159896790981293,-0.010876616463065147
1761378857693296400,2.80829638671875,-0.009886719286441803,0.025015337392687798,-0.025897908955812454
1761378857703352600,2.8183525390625,0.0032597091048955917,0.017715081572532654,-0.023503461852669716
1761378857713408500,2.828408447265625,0.008928514085710049,0.004761998075991869,-0.004160390235483646
1761378857723464400,2.83846435546875,0.005392368417233229,-0.007828895002603531,0.025411350652575493
1761378857733520400,2.848520263671875,-0.0028272117488086224,-0.003621100215241313,0.0632745772600174
1761378857743575600,2.858575439453125,-0.0109253516420722,-0.00794394314289093,0.08712584525346756
1761378857753631500,2.868631591796875,-0.015161375515162945,-0.006622216198593378,0.0893826112151146
1761378857763687700,2.878687744140625,-0.016996027901768684,0.00018988338706549257,0.07074341177940369
1761378857773740000,2.888739990234375,-0.011287275701761246,0.0019438412273302674,0.038498654961586
1761378857783796000,2.8987958984375,-0.0026639599818736315,0.005418733693659306,0.004089816473424435
1761378857793851000,2.908850830078125,-0.006339921150356531,0.011669439263641834,-0.02858290821313858
1761378857803906800,2.91890673828125,-0.006718356627970934,0.012458001263439655,-0.03954607620835304
1761378857813963000,2.928962890625,-0.006567088887095451,-0.00558251840993762,-0.025064339861273766
1761378857824019000,2.93901904296875,-0.010218283161520958,-0.01034478284418583,-0.0015550197567790747
1761378857834075000,2.949074951171875,-0.019274095073342323,-0.005065332166850567,0.021736187860369682
1761378857844131000,2.959131103515625,-0.020381703972816467,-0.0016287893522530794,0.034384604543447495
1761378857854186000,2.96918603515625,-0.021988656371831894,0.003674097126349807,0.03562350943684578
1761378857864242200,2.9792421875,-0.024046214297413826,0.0027542412281036377,0.03695881739258766
1761378857874298000,2.989298095703125,-0.015457519330084324,0.006749781779944897,0.03512096777558327
1761378857884354000,2.99935400390625,-0.001463406952098012,0.004997421521693468,0.02576608397066593
1761378857894410000,3.009409912109375,0.004290618933737278,0.012317120097577572,0.007906924933195114
1761378857904466000,3.0194658203125,0.007961253635585308,0.022041119635105133,-0.017354222014546394
1761378857914521000,3.02952099609375,0.008899485692381859,0.029857231304049492,-0.03693218529224396
1761378857924577000,3.039576904296875,0.010477142408490181,0.024533838033676147,-0.050829093903303146
1761378857934633000,3.049633056640625,0.003930559381842613,0.017646372318267822,-0.03260508179664612
1761378857944689200,3.059689208984375,-0.011812184937298298,0.04301644116640091,-0.0073412698693573475
1761378857954745000,3.0697451171875,-0.023907197639346123,0.008715194649994373,0.015262842178344727
1761378857964801000,3.079801025390625,-0.017851967364549637,0.0024810009635984898,0.03570260480046272
1761378857974856000,3.08985595703125,-0.016933443024754524,-0.007930094376206398,0.045755770057439804
1761378857984912000,3.099911865234375,-0.009358881041407585,-0.00600462919101119,0.04626177251338959
1761378857994968000,3.109968017578125,-0.006410494912415743,-0.01082788035273552,0.027590349316596985
1761378858005024000,3.12002392578125,0.001957956003025174,-0.013499030843377113,0.007449660450220108
1761378858015080000,3.130079833984375,-0.00022157499915920198,-0.016623452305793762,-0.022278407588601112
1761378858025135000,3.140135009765625,-0.0051811798475682735,-0.01966984197497368,-0.05564435198903084
1761378858035191000,3.15019091796875,-0.011625230312347412,-0.012635367922484875,-0.07703059911727905
1761378858045247000,3.1602470703125,-0.026377812027931213,-0.007393467705696821,-0.06973753869533539
1761378858055303200,3.17030322265625,-0.024591894820332527,0.0010495517635717988,-0.03889546915888786
1761378858065359000,3.180359130859375,-0.021514080464839935,0.0015329155139625072,0.006715160794556141
1761378858075414800,3.190414794921875,-0.0073167686350643635,-0.005878928117454052,0.04544764384627342
1761378858085470000,3.200469970703125,0.006371080409735441,-0.006203301250934601,0.06654573976993561
1761378858095526000,3.21052587890625,0.015422365628182888,0.0004876247840002179,0.06133206561207771
1761378858105582000,3.22058203125,0.015135543420910835,0.006228334736078978,0.0338120274245739
1761378858115638000,3.230637939453125,0.0020242687314748764,0.014083861373364925,0.004857339430600405
1761378858125694000,3.24069384765625,-0.005114068277180195,0.016390424221754074,-0.01661679334938526
1761378858135750100,3.250750244140625,-0.0142356613650918,0.016757408156991005,-0.03136404976248741
1761378858145804800,3.2608046875,-0.01781867817044258,0.01335708424448967,-0.03832155466079712
1761378858155861000,3.270861083984375,-0.01209794171154499,0.010835337452590466,-0.033306289464235306
1761378858165917000,3.2809169921875,-0.0026138925459235907,-0.0010450243717059493,-0.019243203103542328
1761378858175972900,3.290972900390625,0.0028333370573818684,0.001219461439177394,-0.002326271263882518
1761378858186029000,3.301029052734375,0.0037289580795913935,0.006825149059295654,0.004107659682631493
1761378858196085000,3.3110849609375,-0.0018253305461257696,0.0009070726810023189,0.005823800805956125
1761378858206140200,3.32114013671875,-0.0014900385867804289,-0.0015329155139625072,-0.002225870033726096
1761378858216196000,3.331196044921875,-0.01079592201858759,-0.0018580874893814325,-0.01025769766420126
1761378858226252000,3.341251953125,-0.011910455301404,-0.0046426886692643166,-0.011826565489172935
1761378858236308200,3.35130810546875,-0.00765791954472661,-0.011354653164744377,0.0017478326335549355
1761378858246364000,3.361364013671875,-0.013034841977059841,-0.013218067586421967,0.015153919346630573
1761378858256418800,3.371418701171875,-0.026210565119981766,-0.0025768745690584183,0.023624636232852936
1761378858266475000,3.38147509765625,-0.02857491932809353,0.006580937188118696,0.011716044507920742
1761378858276531000,3.391531005859375,-0.02311836928129196,0.0173259936273098,0.0003968109958805144
1761378858286587000,3.4015869140625,-0.01209874078631401,0.012471850030124187,-0.013263074681162834
1761378858296643000,3.41164306640625,-0.0008279767935164273,0.003980094101279974,-0.014537929557263851
1761378858306699000,3.421698974609375,0.011946141719818115,0.003634682158008218,-0.006911968346685171
1761378858316754200,3.431754150390625,0.003365170443430543,0.00012969593808520585,0.003838680451735854
1761378858326809900,3.441809814453125,-0.003263703780248761,-0.0054123420268297195,0.016559002920985222
1761378858336865800,3.45186572265625,-0.0037092508282512426,-0.011743208393454552,0.019175825640559196
1761378858346922000,3.461921875,-0.0025486452504992485,-0.011806592345237732,0.023068035021424294
1761378858356978000,3.47197802734375,-0.0013049489352852106,-0.013668940402567387,0.021690381690859795
1761378858367033900,3.482033935546875,0.0024048343766480684,-0.00759906368330121,0.011037204414606094
1761378858377089000,3.492089111328125,0.006373210810124874,0.0009717874927446246,-0.004806206561625004
1761378858387145000,3.50214501953125,0.004727643448859453,0.009312541224062443,-0.018431471660733223
1761378858397201200,3.512201171875,-0.007999070920050144,0.009134909138083458,-0.026444656774401665
1761378858407257000,3.522257080078125,-0.008808937855064869,0.006099437829107046,-0.01937875710427761
1761378858417313000,3.53231298828125,-0.003632285399362445,0.012210327200591564,0.0010580739472061396
1761378858427368000,3.542367919921875,-0.0018911106744781137,0.00806218758225441,0.026611104607582092
1761378858437423900,3.552423828125,0.005562278442084789,0.0007723167072981596,0.052082110196352005
1761378858447480000,3.56247998046875,0.011048123240470886,0.0005542038124985993,0.06639846414327621
1761378858457536000,3.572535888671875,0.00752050057053566,-0.005948969163000584,0.07020039111375809
1761378858467592000,3.582592041015625,-0.003906857222318649,-0.002544117858633399,0.06881634891033173
1761378858477648100,3.592648193359375,-0.015625298023223877,-0.002288188086822629,0.05752481147646904
1761378858487703000,3.602703125,-0.02550402842462063,0.0031260184478014708,0.0426100455224514
1761378858497759000,3.612759033203125,-0.0287669338285923,0.01356614287942648,0.030883880332112312
1761378858507815000,3.62281494140625,-0.01311979629099369,0.01817154698073864,0.03050810843706131
1761378858517870800,3.632870849609375,0.004771851934492588,0.014511564746499062,0.03798173740506172
1761378858527927000,3.642927001953125,0.013733921572566032,0.00395639194175601,0.03767973557114601
1761378858537983000,3.65298291015625,0.018510567024350166,0.006059756502509117,0.04085422307252884
1761378858548038000,3.663037841796875,0.011491007171571255,0.006164685357362032,0.0484468936920166
1761378858558094000,3.673093994140625,0.0005105279851704836,0.002630137838423252,0.05434712767601013
1761378858568150000,3.68314990234375,-0.01606951467692852,0.008250206708908081,0.04249393194913864
1761378858578206000,3.6932060546875,-0.022422218695282936,0.013378123752772808,0.033547308295965195
1761378858588262100,3.70326220703125,-0.019282618537545204,0.01635979861021042,0.014404771849513054
1761378858598316800,3.71331689453125,-0.010965299792587757,0.01836116425693035,-0.008404670283198357
1761378858608373000,3.723373046875,-0.0018242653459310532,0.020191287621855736,-0.027638019993901253
1761378858618429000,3.733428955078125,0.005417136009782553,0.029093436896800995,-0.030701719224452972
1761378858628484900,3.74348486328125,-0.0020594224333763123,0.03394598141312599,-0.019944412633776665
1761378858638541000,3.753541015625,-0.0028541097417473793,0.02725772000849247,-0.006448578089475632
1761378858648597000,3.763596923828125,-0.00007350324449362233,0.011993279680609703,0.0017443705582991242
1761378858658652200,3.773652099609375,0.0017321199411526322,-0.01064838282763958,0.006514624692499638
1761378858668708000,3.7837080078125,0.0008958873804658651,-0.02141900546848774,0.005271727219223976
1761378858678764000,3.793763916015625,-0.0014202637830749154,-0.01571717858314514,0.004215251188725233
1761378858688820000,3.803820068359375,-0.011859322898089886,0.00007669904152862728,0.005791576579213142
1761378858698876000,3.8138759765625,-0.011033476330339909,0.01631239429116249,0.006743922829627991
1761378858708931800,3.823931884765625,-0.015219166874885559,0.0263607669621706,0.015905994921922684
1761378858718987000,3.833987060546875,-0.01600932702422142,0.04356638714671135,0.02502945251762867
1761378858729043000,3.84404296875,-0.014338991604745388,0.03892689198255539,0.023431289941072464
1761378858739099100,3.85409912109375,-0.010064352303743362,0.027351995930075645,0.01531823631376028
1761378858749155000,3.864155029296875,-0.008620386011898518,0.0049308426678180695,0.006109557580202818
1761378858759211000,3.8742109375,-0.004656270612031221,-0.020670391619205475,-0.0012319782981649041
1761378858769266200,3.88426611328125,-0.007822236977517605,-0.03201359137892723,-0.001567802974022925
1761378858779322000,3.894322021484375,-0.003629888640716672,-0.03061916120350361,-0.0027483822777867317
1761378858789378000,3.9043779296875,0.0005635248962789774,-0.020915668457746506,0.008388690650463104
1761378858799434200,3.914434326171875,0.0048738508485257626,-0.00509942090138793,0.02033456601202488
1761378858809490200,3.924490234375,0.000218645524000749,0.00854688324034214,0.029256954789161682
1761378858819546000,3.934546142578125,-0.011057711206376553,0.02714320458471775,0.03713538497686386
1761378858829601000,3.94460107421875,-0.023299729451537132,0.0377335287630558,0.035534024238586426
1761378858839657000,3.954656982421875,-0.021617677062749863,0.037822745740413666,0.019052254036068916
1761378858849713200,3.964713134765625,-0.019892748445272446,0.02196149155497551,-0.000020506340661086142
1761378858859769000,3.97476904296875,-0.011461179703474045,0.0019917781464755535,-0.013222594745457172
1761378858869825000,3.984824951171875,0.002123870886862278,-0.017616543918848038,-0.017949173226952553
1761378858879880200,3.994880126953125,0.007184143178164959,-0.02491813339293003,-0.010098440572619438
1761378858889936100,4.00493603515625,0.0036432044580578804,-0.024573519825935364,0.000737695605494082
1761378858899992300,4.014992431640625,-0.005317001137882471,-0.014569621533155441,0.011058510281145573
1761378858910045200,4.025045166015625,-0.01588016375899315,-0.00032623723382130265,0.020789435133337975
1761378858920101000,4.03510107421875,-0.01878034509718418,0.0055803875438869,0.03057308867573738
1761378858930157300,4.0451572265625,-0.021211013197898865,0.00948138628154993,0.03867815434932709
1761378858940213200,4.055213134765625,-0.020663732662796974,0.008870457299053669,0.02738448604941368
1761378858950268200,4.06526806640625,-0.01306120678782463,0.008591623976826668,0.010331999510526657
1761378858960324000,4.075323974609375,-0.005288239102810621,0.0013201289111748338,-0.011920575052499771
1761378858970380000,4.085380126953125,0.0007731156656518579,-0.0005648564547300339,-0.020020313560962677
1761378858980436000,4.09543603515625,0.0002564624010119587,-0.002800047630444169,-0.011547200381755829
1761378858990492200,4.1054921875,-0.005328719038516283,-0.0029137644451111555,0.00788801722228527
1761378859000547000,4.115547119140625,-0.010745322331786156,-0.010558102279901505,0.02816665731370449
1761378859010603300,4.125603271484375,-0.012417521327733994,-0.01690760999917984,0.050996605306863785
1761378859020659200,4.1356591796875,-0.011303787119686604,-0.020143084228038788,0.05994615703821182
1761378859030715100,4.145715087890625,-0.012491823174059391,-0.009069927968084812,0.05366695672273636
1761378859040771300,4.155771240234375,-0.017351826652884483,0.004224305972456932,0.03051529824733734
1761378859050827300,4.1658271484375,-0.023986559361219406,0.011166101321578026,-0.0031438616570085287
1761378859060882200,4.175882080078125,-0.022940469905734062,0.011196727864444256,-0.03524640575051308
1761378859070938000,4.185938232421875,-0.021694377064704895,0.009191367775201797,-0.05090206116437912
1761378859080994000,4.195994140625,-0.01474805362522602,-0.0010221211705356836,-0.03786935284733772
1761378859091050200,4.20605029296875,-0.0016769925132393837,-0.011094995774328709,-0.013074789196252823
1761378859101106200,4.216106201171875,0.004594219382852316,-0.014802115969359875,0.023936757817864418
1761378859111161300,4.226161376953125,0.008021974004805088,-0.014901984483003616,0.04464682936668396
1761378859121217300,4.23621728515625,0.005922603886574507,-0.013157613575458527,0.04605138301849365
1761378859131273200,4.246273193359375,0.0070456587709486485,-0.004367051646113396,0.02587367594242096
1761378859141329200,4.2563291015625,0.0014679343439638615,0.0033744913525879383,-0.0052048820070922375
1761378859151385000,4.266385009765625,-0.010022540576756,0.003019491909071803,-0.03790983185172081
1761378859161441000,4.27644091796875,-0.01684209704399109,0.008216384798288345,-0.06053125485777855
1761378859171496200,4.28649609375,-0.01284682285040617,0.005824865773320198,-0.06010248512029648
1761378859181552000,4.29655224609375,-0.009576727636158466,-0.004211256746202707,-0.03694843128323555
1761378859191608000,4.306608154296875,-0.004988633096218109,-0.002685797866433859,-0.00782436691224575
1761378859201664300,4.316664306640625,0.004446680191904306,0.00749093946069479,0.024050740525126457
1761378859211720200,4.32672021484375,0.009446232579648495,0.022767895832657814,0.04830468073487282
1761378859221776100,4.336776123046875,0.008766327053308487,0.03051156923174858,0.05295722559094429
1761378859231831000,4.3468310546875,0.0027169568929821253,0.015557387843728065,0.04084410145878792
1761378859241887000,4.356886962890625,0.00035926041891798377,-0.0026098978705704212,0.013088105246424675
1761378859251943200,4.366943115234375,-0.00504056503996253,-0.013009808026254177,-0.023576166480779648
1761378859261999000,4.3769990234375,-0.0075692362152040005,-0.020832311362028122,-0.05573703348636627
1761378859272055000,4.387054931640625,-0.009601227939128876,-0.01979580894112587,-0.07820478826761246
1761378859282111200,4.397111328125,-0.005682653281837702,-0.009799367748200893,-0.07506545633077621
1761378859292166100,4.407166259765625,-0.005627259146422148,0.006645385641604662,-0.04637761786580086
1761378859302222300,4.417222412109375,-0.010003898292779922,0.008636897429823875,-0.013492106460034847
1761378859312278300,4.4272783203125,-0.005915945861488581,0.014347247779369354,0.016687100753188133
1761378859322334000,4.437333984375,-0.0073593794368207455,0.007823036052286625,0.03383306413888931
1761378859332390100,4.44739013671875,-0.0028037759475409985,-0.0021499700378626585,0.02527819201350212
1761378859342445000,4.457445068359375,0.005853095557540655,-0.011444135569036007,0.01028672605752945
1761378859352501200,4.467501220703125,0.00980282947421074,-0.007321562618017197,-0.012055330909788609
1761378859362557200,4.47755712890625,0.00276063266210258,-0.0006199838826432824,-0.03855618089437485
1761378859372613000,4.487613037109375,-0.004221110139042139,0.005489041097462177,-0.058164503425359726
1761378859382669300,4.49766943359375,-0.011227354407310486,0.0070882695727050304,-0.06654653698205948
1761378859392725200,4.507725341796875,-0.011681423522531986,0.013951501809060574,-0.06162181869149208
1761378859402780200,4.5177802734375,-0.01312245987355709,0.01381115335971117,-0.04394109174609184
1761378859412836000,4.527836181640625,-0.010073672980070114,0.006177202332764864,-0.022242987528443336
1761378859422892000,4.53789208984375,-0.00027563716867007315,-0.003233610186725855,-0.0004159857635386288
1761378859432948200,4.5479482421875,0.004327636677771807,0.01131284236907959,0.016712933778762817
1761378859443004200,4.558004150390625,0.00036272252327762544,-0.001686579897068441,0.030460704118013382
1761378859453059000,4.56805908203125,-0.003032541600987315,0.004086886998265982,0.03519367426633835
1761378859463115300,4.578115234375,-0.01101696491241455,0.005331115797162056,0.03457874804735184
1761378859473171200,4.588171142578125,-0.00809228140860796,0.01278796698898077,0.0305698923766613
1761378859483227100,4.59822705078125,-0.009904029779136181,0.01738964207470417,0.01967623271048069
1761378859493283300,4.608283447265625,-0.009937318973243237,0.02058916538953781,0.00281948852352798
1761378859503339000,4.618339111328125,0.004314054735004902,0.01369131077080965,-0.007731422781944275
1761378859513394200,4.628394287109375,0.007289338391274214,0.0038717035204172134,-0.011929097585380077
1761378859523450000,4.6384501953125,0.004854409955441952,-0.0037521275226026773,-0.0009347695158794522
1761378859533506000,4.648506103515625,0.002675145398825407,-0.00444028852507472,0.014579741284251213
1761378859543562200,4.658562255859375,-0.005389705300331116,-0.008195345290005207,0.03497716039419174
1761378859553618200,4.6686181640625,-0.010145045816898346,-0.006298908498138189,0.053159892559051514
1761378859563674000,4.678674072265625,-0.01889166608452797,-0.0018825886072590947,0.06704055517911911
1761378859573729300,4.688729248046875,-0.024209199473261833,0.002264752285555005,0.06263461709022522
1761378859583785000,4.698784912109375,-0.028679847717285156,0.012970393523573875,0.04944797605276108
1761378859593841200,4.708841064453125,-0.021463479846715927,0.023029685020446777,0.027208717539906502
1761378859603897000,4.71889697265625,-0.013265205547213554,0.03287272900342941,0.008905344642698765
1761378859613953000,4.728953125,-0.004942294210195541,0.02653360553085804,0.010587663389742374
1761378859624008200,4.73900830078125,0.004977980628609657,0.016772855073213577,0.0075609805062413216
1761378859634064100,4.749064208984375,0.0022927154786884785,0.0048887645825743675,0.007848335430026054
1761378859644120300,4.759120361328125,-0.009403621777892113,-0.011666242964565754,0.010013485327363014
1761378859654176300,4.76917626953125,-0.012020177207887173,-0.01727033406496048,0.015168299898505211
1761378859664232200,4.779232177734375,-0.013939783908426762,-0.01798645779490471,0.018435733392834663
1761378859674288400,4.789288330078125,-0.009217200800776482,-0.009858756326138973,0.02130475640296936
1761378859684343000,4.799343017578125,-0.00046312372433021665,-0.003055444685742259,0.01872415281832218
1761378859694399200,4.809399169921875,0.003859453136101365,-0.0019497001776471734,0.015480955131351948
1761378859704455200,4.819455078125,0.007837150245904922,0.004792890977114439,0.01871403306722641
1761378859714511000,4.829510986328125,0.006983074825257063,0.002560895634815097,0.021831262856721878
1761378859724567300,4.8395673828125,0.00004234426160110161,0.002522812457755208,0.014502775855362415
1761378859734623200,4.849623291015625,-0.0073535204865038395,0.003055178327485919,0.008490157313644886
1761378859744678100,4.85967822265625,-0.0129336416721344,0.00538571085780859,0.0018192053539678454
1761378859754734300,4.869734375,-0.012714463286101818,-0.0011861718958243728,0.0013251889031380415
1761378859764790000,4.8797900390625,-0.010879811830818653,-0.00381471193395555,-0.0049550775438547134
1761378859774852000,4.88985205078125,-0.004988367203623056,-0.002400306984782219,-0.0033182986080646515
1761378859784908000,4.899907958984375,0.002159823663532734,0.0018722022650763392,0.012147476896643639
1761378859794963200,4.909963134765625,0.007901332341134548,-0.0018788601737469435,0.025978870689868927
1761378859805019100,4.92001904296875,-0.002776345470920205,0.002418150193989277,0.034935079514980316
1761378859815075000,4.930074951171875,-0.014659370295703411,0.0054879761300981045,0.032696425914764404
1761378859825131300,4.94013134765625,-0.013911820948123932,0.001169394003227353,0.0255181435495615
1761378859835187200,4.950187255859375,-0.015668708831071854,-0.0023065637797117233,0.01504206657409668
1761378859845243100,4.9602431640625,-0.006297843065112829,-0.0089404983446002,0.009307214990258217
1761378859855298000,4.970298095703125,0.0026341325137764215,-0.006581736262887716,0.004174771253019571
1761378859865354000,4.98035400390625,0.005629656370729208,0.0005225121858529747,0.013754960149526596
1761378859875410200,4.99041015625,0.006893858779221773,0.008134093135595322,0.028608474880456924
1761378859885466000,5.000466064453125,-0.002894589677453041,0.010892595164477825,0.03550100326538086
1761378859895522000,5.01052197265625,-0.009456885047256947,0.011240936815738678,0.030006900429725647
1761378859905578200,5.020578125,-0.01392726693302393,0.01293417438864708,0.02442065440118313
1761378859915633200,5.030633056640625,-0.015566176734864712,0.012563462369143963,0.017073258757591248
1761378859925689300,5.040689453125,-0.012016981840133667,0.00794447585940361,0.014668158255517483
1761378859935745300,5.050745361328125,-0.001439971150830388,0.0010301107540726662,0.02009381726384163
1761378859945801000,5.060801025390625,0.009631854481995106,-0.009148756973445415,0.022339394316077232
1761378859955857200,5.070857177734375,0.013556022197008133,-0.0007960188668221235,0.02365153282880783
1761378859965913000,5.0809130859375,0.0018194715958088636,0.00980282947421074,0.02255937084555626
1761378859975968000,5.090968017578125,-0.009051818400621414,0.017248760908842087,0.027634290978312492
1761378859986024200,5.101024169921875,-0.02208985574543476,0.022583872079849243,0.034620560705661774
1761378859996080000,5.111080078125,-0.019535085186362267,0.015807725489139557,0.03039678744971752
1761378860006136000,5.121135986328125,-0.014822355471551418,0.01158794667571783,0.0268864743411541
1761378860016192300,5.131192138671875,-0.0051289820112288,-0.0012389025650918484,0.018334798514842987
1761378860026247000,5.141246826171875,0.004927380476146936,-0.008346080780029297,0.009938917122781277
1761378860036303000,5.15130322265625,0.005941512528806925,-0.011652927845716476,-0.005875998642295599
1761378860046359000,5.161359130859375,0.0008809737046249211,-0.00818176381289959,-0.021080251783132553
1761378860056415000,5.1714150390625,0.0017212009988725185,-0.002650910522788763,-0.03093687631189823
1761378860066471200,5.18147119140625,0.007142597809433937,0.0046328348107635975,-0.03448154404759407
1761378860076527000,5.191527099609375,0.0036674391012638807,0.008264853619039059,-0.02875521592795849
1761378860086582300,5.201582275390625,-0.002672215923666954,0.008082959800958633,-0.020713800564408302
1761378860096638200,5.21163818359375,-0.0043769050389528275,0.002894856035709381,0.0027363980188965797
1761378860106694100,5.221694091796875,-0.009530654177069664,-0.006424875929951668,0.02805081009864807
1761378860116750300,5.231750244140625,-0.017487114295363426,-0.01091816183179617,0.048352085053920746
1761378860126806000,5.241805908203125,-0.02075108513236046,-0.015061773359775543,0.05200274661183357
1761378860136861200,5.251861083984375,-0.016951020807027817,-0.007123156916350126,0.035474903881549835
1761378860146917000,5.261917236328125,-0.008207329548895359,0.0018437063554301858,0.014795191586017609
1761378860156973000,5.27197314453125,0.0024146882351487875,0.020806211978197098,-0.010607902891933918
1761378860167029200,5.282029296875,0.007516239304095507,0.02822897396981716,-0.036678917706012726
1761378860177085200,5.292085205078125,0.011266502551734447,0.017907626926898956,-0.04631290212273598
1761378860187141000,5.30214111328125,0.004157727118581533,0.009036904200911522,-0.03236033767461777
1761378860197196000,5.312196044921875,-0.0016974988393485546,-0.008838232606649399,0.00047377636656165123
1761378860207252000,5.322251953125,-0.011862251907587051,-0.007847269997000694,0.02792484126985073
1761378860217308200,5.33230810546875,-0.016683638095855713,-0.001252484624274075,0.030051110312342644
1761378860227364000,5.342364013671875,-0.014771755784749985,0.0076065207831561565,0.01613263040781021
1761378860237420000,5.352419921875,-0.00896526500582695,0.00802996288985014,-0.003329217666760087
1761378860247476200,5.362476318359375,-0.00029294771957211196,0.011551727540791035,-0.010553840547800064
1761378860257531100,5.37253125,-0.0016980315558612347,0.01287638396024704,0.006828877609223127
1761378860267587000,5.382587158203125,-0.008641957305371761,0.010365555062890053,0.025721075013279915
1761378860277643300,5.392643310546875,-0.013117399998009205,0.008009989745914936,0.03863421082496643
1761378860287699200,5.40269921875,-0.01619335077702999,0.011276889592409134,0.034508708864450455
1761378860297755000,5.4127548828125,-0.018643992021679878,0.0187784805893898,0.019515378400683403
1761378860307810000,5.42281005859375,-0.01894945651292801,0.03449379652738571,0.005937517620623112
1761378860317866000,5.432865966796875,-0.02316071279346943,0.04950416833162308,0.040051545947790146
1761378860327922200,5.442922119140625,-0.025982864201068878,0.014154435135424137,0.05660229176282883
1761378860337978000,5.45297802734375,-0.01679202914237976,-0.022043250501155853,0.05314657464623451
1761378860348034000,5.463033935546875,-0.0037113812286406755,-0.0370059534907341,0.05861697345972061
1761378860358090200,5.47309033203125,0.006334328558295965,-0.03801822289824486,0.06396247446537018
1761378860368145200,5.483145263671875,0.018367554992437363,-0.02592320926487446,0.0335017666220665
1761378860378201000,5.493201171875,0.020564664155244827,-0.008464325219392776,-0.017726533114910126
1761378860388257000,5.503257080078125,0.00894076470285654,0.009797769598662853,-0.0778319463133812
1761378860398313000,5.51331298828125,-0.0059537626802921295,0.024999093264341354,-0.1004035696387291
1761378860408369200,5.523369140625,-0.02743162401020527,0.03994422033429146,-0.09183218330144882
1761378860418425000,5.533425048828125,-0.030614634975790977,0.04920988902449608,-0.06382531672716141
1761378860428480300,5.543480224609375,-0.02213459648191929,0.023728232830762863,-0.030881483107805252
1761378860438536200,5.5535361328125,-0.010276339948177338,0.016566991806030273,-0.0006378270918503404
1761378860448592100,5.563592041015625,0.005022721830755472,-0.008078432641923428,0.013186908327043056
