time,seconds_elapsed,z,y,x
1761378855009643000,0.12464306640625,0.020246276631951332,-0.007725979201495647,-0.015509847551584244
1761378855019699200,0.13469921875,0.02072111889719963,0.008671635761857033,-0.016194811090826988
1761378855029755100,0.144755126953125,0.018216926604509354,0.017949892207980156,-0.012353972531855106
1761378855039811000,0.15481103515625,0.01163146086037159,0.030447306111454964,-0.0035985643044114113
1761378855049867300,0.1648671875,0.0157485269010067,0.033878032118082047,0.002672963310033083
1761378855059922200,0.174922119140625,0.020479366183280945,0.027968212962150574,0.013644121587276459
1761378855069978000,0.18497802734375,0.012209800072014332,0.02011697366833687,0.0072893076576292515
1761378855080034000,0.195033935546875,0.006339926738291979,0.012628963217139244,-0.005102647002786398
1761378855090090000,0.205090087890625,0.010789090767502785,-0.004729549866169691,-0.014808179810643196
1761378855100146200,0.215146240234375,0.010050863027572632,-0.01995830237865448,-0.015466513112187386
1761378855110202000,0.2252021484375,0.005795076955109835,-0.0298384428024292,-0.015251345932483673
1761378855120257000,0.235257080078125,0.008349314332008362,-0.02605196088552475,-0.00964166410267353
1761378855130313200,0.245313232421875,0.019474588334560394,-0.022761385887861252,-0.008109833113849163
1761378855140369200,0.255369140625,0.020388584583997726,-0.012967346236109734,-0.02183336764574051
1761378855150425000,0.265425048828125,0.018682481721043587,-0.01976056396961212,-0.0484122708439827
1761378855160481300,0.275481201171875,0.029016345739364624,-0.021703606471419334,-0.08325333893299103
1761378855170537200,0.285537109375,0.03562134504318237,-0.025965478271245956,-0.11046433448791504
1761378855180592000,0.295592041015625,0.02861110493540764,-0.02304452285170555,-0.12297985702753067
1761378855190648000,0.30564794921875,0.025157365947961807,-0.023444075137376785,-0.12051207572221756
1761378855200704000,0.3157041015625,0.03166799619793892,-0.02147546596825123,-0.0961151272058487
1761378855210760200,0.32576025390625,0.03468552231788635,-0.027655810117721558,-0.06444264203310013
1761378855220816100,0.335816162109375,0.026037972420454025,-0.012012934312224388,-0.028121119365096092
1761378855230872000,0.3458720703125,0.031119581311941147,0.007080744951963425,-0.009654449298977852
1761378855240927200,0.35592724609375,0.031294550746679306,0.022482071071863174,-0.012080855667591095
1761378855250983200,0.365983154296875,0.033767297863960266,0.023351605981588364,-0.03346734121441841
1761378855261039000,0.3760390625,0.03648851439356804,0.01918615587055683,-0.0432715006172657
1761378855271095000,0.386094970703125,0.040179066359996796,0.011284730397164822,-0.03901208937168121
1761378855281151000,0.39615087890625,0.03684825077652931,-0.006038600113242865,-0.026396162807941437
1761378855291206100,0.4062060546875,0.03195362910628319,-0.01405604649335146,-0.011390315368771553
1761378855301262000,0.416261962890625,0.026391614228487015,-0.01949155703186989,-0.003100693691521883
1761378855311318300,0.426318359375,0.024025755003094673,-0.01256255991756916,-0.01172654889523983
1761378855321374200,0.436374267578125,0.028319038450717926,-0.02097362093627453,-0.02112457901239395
1761378855331430100,0.44643017578125,0.03466155380010605,0.0037292619235813618,-0.0329236276447773
1761378855341486300,0.456486328125,0.033011190593242645,0.013609323650598526,-0.03762863576412201
1761378855351541000,0.466541015625,0.026209130883216858,0.021197989583015442,-0.04228569567203522
1761378855361597200,0.47659716796875,0.02423998899757862,0.03669092804193497,-0.037522099912166595
1761378855371653000,0.486653076171875,0.016749350354075432,0.03426947444677353,-0.037559572607278824
1761378855381709000,0.496708984375,0.01081556174904108,0.036535292863845825,-0.03385058790445328
1761378855391765000,0.506764892578125,0.015749149024486542,0.025291454046964645,-0.025184910744428635
1761378855401821200,0.5168212890625,0.01875985413789749,0.013872085139155388,-0.004205059260129929
1761378855411876000,0.5268759765625,0.022350188344717026,-0.008250116370618343,0.022434739395976067
1761378855421932300,0.536932373046875,0.01984894648194313,-0.018692903220653534,0.04440182447433472
1761378855431988200,0.54698828125,0.014829052612185478,-0.0316307507455349,0.05221850797533989
1761378855442044000,0.5570439453125,0.010437766090035439,-0.032636892050504684,0.04235682263970375
1761378855452100000,0.56710009765625,0.0035539655946195126,-0.02842494659125805,0.014214321039617062
1761378855462156000,0.577156005859375,-0.0060408711433410645,-0.01729319803416729,-0.018538564443588257
1761378855472211200,0.587211181640625,-0.010636775754392147,-0.015881162136793137,-0.03598209470510483
1761378855482267100,0.59726708984375,-0.008797864429652691,-0.010987071320414543,-0.03559247404336929
1761378855492323000,0.607322998046875,-0.011007977649569511,-0.015561997890472412,-0.01328246295452118
1761378855502379300,0.617379150390625,-0.007080614101141691,-0.026666047051548958,0.009430039674043655
1761378855512435200,0.627435302734375,-0.012847457081079483,-0.02201978862285614,0.026149023324251175
1761378855522490000,0.637489990234375,-0.024068154394626617,-0.006396089680492878,0.01907113939523697
1761378855532546000,0.647546142578125,-0.039290886372327805,0.015545999631285667,-0.015249008312821388
1761378855542602000,0.65760205078125,-0.05618411675095558,0.013444764539599419,-0.06021035835146904
1761378855552658200,0.667658203125,-0.059968192130327225,-0.008577484637498856,-0.09594747424125671
1761378855562714000,0.677714111328125,-0.04789155349135399,-0.03265192732214928,-0.11815904080867767
1761378855572770000,0.68777001953125,-0.047468401491642,-0.04781828820705414,-0.104618139564991
1761378855582825200,0.6978251953125,-0.051787249743938446,-0.04903481900691986,-0.050924018025398254
1761378855592881200,0.707881103515625,-0.049562256783246994,-0.04337935522198677,0.009765674360096455
1761378855602937300,0.717937255859375,-0.04207345098257065,-0.0321703776717186,0.0495423823595047
1761378855612993300,0.7279931640625,-0.02432909421622753,-0.014979854226112366,0.06304999440908432
1761378855623049000,0.738049072265625,-0.013658074662089348,0.0023940755054354668,0.05088387429714203
1761378855633105200,0.748105224609375,-0.00834856927394867,0.0019217212684452534,0.032722074538469315
1761378855643160000,0.75816015625,-0.013856252655386925,0.0031963102519512177,0.012743571773171425
1761378855653216000,0.768216064453125,-0.01060061901807785,-0.0028831802774220705,-0.0035994674544781446
1761378855663272200,0.778272216796875,-0.0015139137394726276,-0.008061963133513927,-0.012014257721602917
1761378855673328000,0.788328125,0.0020285071805119514,-0.01199936680495739,-0.010703278705477715
1761378855683384000,0.798384033203125,-0.0009600920602679253,-0.019376588985323906,-0.0014210967347025871
1761378855693440300,0.808440185546875,-0.0006088442169129848,-0.009765973314642906,0.012749078683555126
1761378855703495000,0.818494873046875,-0.002830187324434519,-0.0075286515057086945,0.027095261961221695
1761378855713551000,0.828551025390625,-0.007174890022724867,-0.0010469709523022175,0.045893773436546326
1761378855723607000,0.83860693359375,-0.010445784777402878,-0.0028970688581466675,0.06437904387712479
1761378855733663000,0.8486630859375,-0.007512510754168034,-0.003226715140044689,0.07747182995080948
1761378855743719200,0.85871923828125,-0.012413525022566319,-0.00760708237066865,0.08335395157337189
1761378855753775000,0.868775146484375,-0.018115932121872902,-0.011212069541215897,0.09227453172206879
1761378855763830300,0.878830322265625,-0.02104008197784424,-0.003772795433178544,0.11205995082855225
1761378855773889500,0.8888896484375,-0.018602248281240463,-0.004560479428619146,0.1320054829120636
1761378855783945500,0.898945556640625,-0.007117365952581167,0.0064421044662594795,0.1375318020582199
1761378855794001700,0.909001708984375,0.002932280767709017,0.027320396155118942,0.12276666611433029
1761378855804057600,0.9190576171875,0.001805230975151062,0.04263756424188614,0.10782767087221146
1761378855814113500,0.929113525390625,-0.0007946868427097797,0.05237715691328049,0.09920988231897354
1761378855824168400,0.93916845703125,-0.00936207640916109,0.06945227831602097,0.10763531923294067
1761378855834224400,0.949224365234375,-0.031643252819776535,0.08065544068813324,0.11961795389652252
1761378855844280600,0.959280517578125,-0.05050242692232132,0.0817236378788948,0.1296394318342209
1761378855854336500,0.96933642578125,-0.058719929307699203,0.09194769710302353,0.12885697185993195
1761378855864392400,0.979392333984375,-0.07743503153324127,0.06866981089115143,0.13553085923194885
1761378855874447600,0.989447509765625,-0.06862926483154297,0.06342756003141403,0.14017163217067719
1761378855884503600,0.999503662109375,-0.04425948113203049,0.031198782846331596,0.12288451939821243
1761378855894559700,1.009559814453125,-0.021079568192362785,0.026336049661040306,0.07842221111059189
1761378855904615700,1.01961572265625,-0.009070044383406639,0.032052524387836456,0.011438118293881416
1761378855914671400,1.02967138671875,-0.00483572157099843,0.051822010427713394,-0.054624512791633606
1761378855924727600,1.0397275390625,0.00738179637119174,0.0685139000415802,-0.09964551031589508
1761378855934782500,1.049782470703125,0.019958551973104477,0.07925558090209961,-0.11687105149030685
1761378855944838400,1.05983837890625,0.039567671716213226,0.05602668970823288,-0.10904614627361298
1761378855954894600,1.06989453125,0.05205407738685608,0.03313816338777542,-0.10776156187057495
1761378855964950500,1.079950439453125,0.05495239794254303,0.013029433786869049,-0.11109823733568192
1761378855975006500,1.09000634765625,0.04527870565652847,0.0015305029228329659,-0.11099701374769211
1761378855985062700,1.100062744140625,0.026321526616811752,0.005366520490497351,-0.11017382889986038
1761378855995117300,1.110117431640625,0.0073534282855689526,0.00886431522667408,-0.10838072001934052
1761378856005173500,1.120173583984375,0.014184435829520226,0.03593801334500313,-0.09429126977920532
1761378856015229400,1.1302294921875,0.048899587243795395,0.08520928770303726,-0.08091959357261658
1761378856025285400,1.140285400390625,0.0571625791490078,0.044302068650722504,-0.07424810528755188
1761378856035341600,1.150341552734375,0.02227521315217018,-0.08471252024173737,-0.08708090335130692
1761378856045397500,1.1603974609375,-0.02636795863509178,-0.22324322164058685,-0.09923610091209412
1761378856055452700,1.17045263671875,-0.07465216517448425,-0.2351495921611786,-0.1077636256814003
1761378856065508600,1.180508544921875,-0.12570390105247498,-0.1914346069097519,-0.12042642384767532
1761378856075564500,1.190564453125,-0.15928767621517181,-0.13456818461418152,-0.1526179313659668
1761378856085620700,1.200620849609375,-0.16755971312522888,-0.11188285052776337,-0.20146270096302032
1761378856095676400,1.210676513671875,-0.15539908409118652,-0.11213666200637817,-0.2580374479293823
1761378856105732400,1.220732421875,-0.13168789446353912,-0.10583934932947159,-0.28082185983657837
1761378856115787500,1.23078759765625,-0.12229719012975693,-0.08707007765769958,-0.2604356110095978
1761378856125843500,1.240843505859375,-0.12781234085559845,-0.08023401349782944,-0.19638895988464355
1761378856135899600,1.250899658203125,-0.14661763608455658,-0.09579186886548996,-0.10887464135885239
1761378856145955600,1.26095556640625,-0.15726709365844727,-0.12147459387779236,-0.028538258746266365
1761378856156011500,1.271011474609375,-0.14477472007274628,-0.09562572836875916,0.010792473331093788
1761378856166067700,1.281067626953125,-0.10962526500225067,-0.011916982010006905,-0.015169085934758186
1761378856176122400,1.291122314453125,-0.044999975711107254,0.0572342574596405,-0.08356113731861115
1761378856186178600,1.301178466796875,0.01862666942179203,0.06209399178624153,-0.1573735773563385
1761378856196234500,1.311234375,0.027574358507990837,-0.07224037498235703,-0.22649459540843964
1761378856206290400,1.32129052734375,0.009173200465738773,-0.23581185936927795,-0.24587112665176392
1761378856216346600,1.3313466796875,-0.007984851486980915,-0.2889927327632904,-0.2150713950395584
1761378856226402600,1.341402587890625,-0.006694283336400986,-0.2209276705980301,-0.15624988079071045
1761378856236457500,1.35145751953125,-0.02357158064842224,-0.1012653037905693,-0.08671866357326508
1761378856246513700,1.361513671875,-0.05226341262459755,-0.02204318717122078,-0.05942126363515854
1761378856256569600,1.371569580078125,-0.06505589932203293,0.02761966735124588,-0.08131207525730133
1761378856266625500,1.38162548828125,-0.0406019501388073,0.035654958337545395,-0.1254800707101822
1761378856276681500,1.391681396484375,-0.018875258043408394,0.0064765531569719315,-0.1649104356765747
1761378856286737400,1.4017373046875,-0.0002480447292327881,-0.01862240768969059,-0.1549648642539978
1761378856296792600,1.41179248046875,-0.005649605765938759,-0.05722451210021973,-0.08029602468013763
1761378856306848500,1.4218486328125,-0.024143129587173462,-0.058113209903240204,0.01957118511199951
1761378856316904400,1.431904541015625,-0.05322526395320892,-0.03875982016324997,0.10698504745960236
1761378856326960600,1.441960693359375,-0.08310673385858536,-0.00639602355659008,0.1326746940612793
1761378856337016600,1.4520166015625,-0.10893940180540085,0.015758588910102844,0.11212670058012009
1761378856347071700,1.46207177734375,-0.10924699902534485,0.02794228494167328,0.09566677361726761
1761378856357127400,1.47212744140625,-0.09675881266593933,0.059775568544864655,0.10769613087177277
1761378856367183400,1.482183349609375,-0.09214035421609879,0.0824023112654686,0.1353277564048767
1761378856377239600,1.492239501953125,-0.07505133002996445,0.11626715213060379,0.1598680019378662
1761378856387295500,1.50229541015625,-0.04985116794705391,0.13899056613445282,0.17144262790679932
1761378856397351400,1.512351318359375,-0.00954915676265955,0.1584768146276474,0.15527667105197906
1761378856407406600,1.522406494140625,0.019673176109790802,0.1686657965183258,0.12162097543478012
1761378856417462500,1.532462646484375,0.03505396097898483,0.15712961554527283,0.08203297853469849
1761378856427518700,1.542518798828125,0.02630973979830742,0.146713986992836,0.04398972541093826
1761378856437574700,1.55257470703125,0.012088286690413952,0.07818366587162018,0.014112941920757294
1761378856447630600,1.562630615234375,0.023337746039032936,0.04395033419132233,0.0032605607993900776
1761378856457686500,1.5726865234375,0.03380557522177696,0.016803890466690063,0.008310817182064056
1761378856467741400,1.582741455078125,0.0513552762567997,0.0021602334454655647,0.028933804482221603
1761378856477797600,1.592797607421875,0.06442645937204361,-0.000738680362701416,0.0468471497297287
1761378856487853600,1.602853515625,0.07181619852781296,-0.008771306835114956,0.04980086162686348
1761378856497909500,1.612909423828125,0.06679307669401169,-0.012618938460946083,0.04665650427341461
1761378856507965400,1.62296533203125,0.04964897781610489,-0.009957375004887581,0.038422275334596634
1761378856518021600,1.633021728515625,0.03141259029507637,-0.00313796428963542,0.029098616912961006
1761378856528076500,1.64307666015625,0.011031151749193668,0.0005941898562014103,0.022179724648594856
1761378856538132500,1.653132568359375,0.0035119454842060804,0.005198887083679438,0.016654357314109802
1761378856548188400,1.6631884765625,-0.0031414302065968513,0.001966875046491623,0.0020288098603487015
1761378856558244400,1.673244384765625,0.002066429238766432,-0.003862661775201559,-0.012497753836214542
1761378856568300500,1.683300537109375,0.017088521271944046,-0.005950047168880701,-0.02034129574894905
1761378856578356500,1.6933564453125,0.031104877591133118,-0.019843894988298416,-0.025239285081624985
1761378856588411600,1.70341162109375,0.047337379306554794,-0.027920730412006378,-0.029012717306613922
1761378856598467600,1.713467529296875,0.04978989437222481,-0.032639093697071075,-0.026054374873638153
1761378856608523500,1.7235234375,0.03302369639277458,-0.037148624658584595,-0.013448835350573063
1761378856618579700,1.733579833984375,0.006708100903779268,-0.02892579324543476,0.006995759438723326
1761378856628635600,1.7436357421875,-0.014246184378862381,-0.01374817080795765,0.017759989947080612
1761378856638690600,1.753690673828125,-0.02897615358233452,-0.0038558051455765963,0.016870491206645966
1761378856648746500,1.76374658203125,-0.027997706085443497,0.0005591833032667637,0.008642655797302723
1761378856658802400,1.773802490234375,-0.016527831554412842,0.00407456886023283,-0.0063460045494139194
1761378856668858600,1.783858642578125,0.00028976378962397575,0.009383579716086388,-0.019475655630230904
1761378856678914600,1.79391455078125,0.02155957743525505,0.0012597930617630482,-0.024351388216018677
1761378856688970500,1.803970458984375,0.03978785127401352,-0.012473063543438911,-0.015858832746744156
1761378856699025700,1.814025634765625,0.05182060971856117,-0.021636148914694786,-0.0017737559974193573
1761378856709081600,1.82408154296875,0.04761414974927902,-0.022307265549898148,0.013297604396939278
1761378856719137500,1.834137451171875,0.03468702360987663,-0.018568040803074837,0.03620311990380287
1761378856729193500,1.844193359375,0.016221731901168823,-0.011952215805649757,0.047162026166915894
1761378856739249400,1.85424951171875,-0.006188363768160343,-0.011061535216867924,0.04086185246706009
1761378856749305600,1.8643056640625,-0.022660281509160995,-0.0013548459392040968,0.028275487944483757
1761378856759360500,1.874360595703125,-0.023659218102693558,0.012543102726340294,0.014602423645555973
1761378856769416400,1.88441650390625,-0.013235073536634445,0.018927231431007385,0.01536754984408617
1761378856779472600,1.89447265625,0.01337745226919651,0.009267118759453297,0.02994445338845253
1761378856789528600,1.904528564453125,0.035852666944265366,0.00414133258163929,0.03759384900331497
1761378856799584500,1.91458447265625,0.04005856439471245,0.008262948133051395,0.034292519092559814
1761378856809640400,1.924640380859375,0.03301689773797989,0.01545108575373888,0.02504841983318329
1761378856819695400,1.9346953125,0.0181112103164196,0.016921617090702057,0.002585962414741516
1761378856829751600,1.94475146484375,-0.0008987006731331348,0.019370924681425095,-0.03126068413257599
1761378856839807500,1.954807373046875,-0.008721527643501759,0.018554039299488068,-0.05215296521782875
1761378856849863400,1.964863525390625,-0.011717052198946476,0.01074165664613247,-0.05727715417742729
1761378856859919600,1.974919677734375,-0.0029264199547469616,-0.0014121569693088531,-0.041573937982320786
1761378856869974500,1.984974609375,0.005760012194514275,-0.016003882512450218,-0.01981218345463276
1761378856880030500,1.995030517578125,0.014440679922699928,-0.028687719255685806,0.0051026418805122375
1761378856890086400,2.00508642578125,0.008962025865912437,-0.03052263706922531,0.02081475965678692
1761378856900142300,2.015142333984375,-0.0015655211172997952,-0.025974292308092117,0.026894040405750275
1761378856910198500,2.025198486328125,-0.011406168341636658,-0.010927431285381317,0.02645062282681465
1761378856920254500,2.03525439453125,-0.012498258613049984,-0.013586531393229961,0.024623345583677292
1761378856930309600,2.0453095703125,-0.01313661877065897,-0.01345443818718195,0.024101631715893745
1761378856940365600,2.055365478515625,-0.010962625034153461,-0.008295814506709576,0.018000613898038864
1761378856950421500,2.06542138671875,-0.0019238563254475594,-0.002359362319111824,0.016785945743322372
1761378856960477700,2.075477783203125,0.002121537923812866,0.012161405757069588,0.020130852237343788
1761378856970533600,2.08553369140625,0.00217320304363966,0.013005627319216728,0.021367091685533524
1761378856980589300,2.09558935546875,0.0005529653280973434,0.007199547253549099,0.013943572528660297
1761378856990644500,2.10564453125,0.0045852577313780785,-0.0019579981453716755,0.004544478841125965
1761378857000700400,2.115700439453125,-0.0018187644891440868,-0.008384978398680687,-0.004437012132257223
1761378857010756600,2.125756591796875,-0.0013140956871211529,-0.007962601259350777,-0.008398463949561119
1761378857020812500,2.1358125,-0.00248139351606369,0.0004003634676337242,-0.010804173536598682
1761378857030868500,2.145868408203125,-0.00503882672637701,0.016005955636501312,-0.002588854171335697
1761378857040924700,2.155924560546875,-0.0017877654172480106,0.015436425805091858,0.009077456779778004
1761378857050979600,2.1659794921875,0.0029619820415973663,0.010262169875204563,0.021981272846460342
1761378857061035500,2.176035400390625,0.0029264558106660843,0.013104068115353584,0.025509700179100037
1761378857071091500,2.186091552734375,-0.0005188756622374058,0.01380714401602745,0.015510862693190575
1761378857081147400,2.1961474609375,-0.010381127707660198,0.012462353333830833,0.0059686810709536076
1761378857091203300,2.206203369140625,-0.0056383041664958,0.006301396060734987,-0.0030027092434465885
1761378857101258500,2.216258544921875,0.009383625350892544,0.001020827330648899,-0.014173377305269241
1761378857111314400,2.226314453125,0.012381013482809067,-0.005063696764409542,-0.022081367671489716
1761378857121370600,2.23637060546875,0.004451265558600426,-0.00011391984298825264,-0.031191222369670868
1761378857131426600,2.246426513671875,0.0011031394824385643,0.008878244087100029,-0.029485467821359634
1761378857141482500,2.256482421875,0.0049249641597270966,0.010159745812416077,-0.012655876576900482
1761378857151538700,2.26653857421875,0.009125301614403725,0.010520869866013527,0.0029084347188472748
1761378857161593300,2.27659326171875,0.0052687060087919235,0.018506290391087532,0.0037828348577022552
1761378857171649500,2.2866494140625,0.0023003462702035904,0.009976718574762344,-0.0006950045935809612
1761378857181705500,2.29670556640625,-0.0044579096138477325,0.011868760921061039,-0.007826738990843296
1761378857191761400,2.306761474609375,-0.020046722143888474,0.00739038921892643,-0.011304561048746109
1761378857201817600,2.316817626953125,-0.023332763463258743,-0.007294653449207544,-0.01654798351228237
1761378857211873500,2.32687353515625,-0.010686209425330162,-0.014573339372873306,-0.01864362508058548
1761378857221928700,2.3369287109375,-0.0014244862832129002,-0.018024127930402756,-0.01895447075366974
1761378857231984600,2.346984619140625,-0.00247723376378417,-0.006839650683104992,-0.018409322947263718
1761378857242040300,2.357040283203125,0.002562285400927067,0.004239283036440611,-0.008648363873362541
1761378857252096500,2.367096435546875,0.009214063175022602,0.004784699063748121,0.0065572201274335384
1761378857262152400,2.37715234375,0.007613609079271555,0.008864622563123703,0.004597923718392849
1761378857272208400,2.38720849609375,0.0077006942592561245,0.007484572008252144,0.002022647298872471
1761378857282263600,2.397263671875,0.0024202694185078144,0.000021571293473243713,-0.0020702704787254333
1761378857292319500,2.407319580078125,-0.003532427828758955,0.0027944548055529594,-0.00972712505608797
1761378857302375700,2.417375732421875,-0.00851724948734045,0.007869413122534752,-0.027840299531817436
1761378857312431600,2.427431640625,-0.011770833283662796,0.012562435120344162,-0.04308582842350006
1761378857322487600,2.437487548828125,-0.00686569744721055,0.0221137423068285,-0.041962578892707825
1761378857332542500,2.44754248046875,0.0034476604778319597,0.015302442014217377,-0.038351330906152725
1761378857342598400,2.457598388671875,0.01272519864141941,0.0037214988842606544,-0.027319815009832382
1761378857352654300,2.467654296875,0.02173440530896187,0.027820976451039314,-0.00014278851449489594
1761378857362710500,2.47771044921875,0.012491291388869286,-0.007932786829769611,0.02409675158560276
1761378857372766500,2.487766357421875,0.014434866607189178,-0.0050003803335130215,0.04222702234983444
1761378857382822400,2.497822509765625,0.0017535299994051456,-0.009931273758411407,0.04433407261967659
1761378857392877600,2.507877685546875,-0.006135552190244198,0.0003943336196243763,0.02826748788356781
1761378857402933500,2.51793359375,-0.015450258739292622,0.021397724747657776,0.008065739646553993
1761378857412989400,2.527989501953125,-0.015256115235388279,0.03020959347486496,-0.01187308132648468
1761378857423045400,2.53804541015625,-0.0023222649469971657,0.023638948798179626,-0.02215719223022461
1761378857433101300,2.548101318359375,0.010904591530561447,0.016353603452444077,-0.019232241436839104
1761378857443157500,2.558157470703125,0.020081762224435806,0.002660936675965786,-0.008106638677418232
1761378857453212400,2.56821240234375,0.023275958374142647,-0.014654138125479221,-0.001780566293746233
1761378857463268600,2.5782685546875,0.017896480858325958,-0.027160368859767914,0.003890656866133213
1761378857473324500,2.588324462890625,0.008440661244094372,-0.03237989917397499,0.006750359199941158
1761378857483380500,2.59838037109375,-0.005199555307626724,-0.030174709856510162,0.010150576010346413
1761378857493436700,2.608436767578125,-0.016166452318429947,-0.01390918716788292,0.01049598678946495
1761378857503492600,2.61849267578125,-0.023280855268239975,-0.001187436282634735,0.02112642303109169
1761378857513547500,2.628547607421875,-0.02908814325928688,0.0034078480675816536,0.02696700021624565
1761378857523603500,2.638603515625,-0.024480454623699188,0.009265044704079628,0.02296556904911995
1761378857533659400,2.648659423828125,-0.018201254308223724,0.005226095672696829,0.017809420824050903
1761378857543715600,2.658715576171875,-0.002824349794536829,-0.003384161274880171,0.008683288469910622
1761378857553771500,2.668771484375,0.008069310337305069,-0.007586096413433552,-0.0010849195532500744
1761378857563826700,2.67882666015625,0.008237171918153763,-0.0025428407825529575,-0.00191047927364707
1761378857573882600,2.688882568359375,-0.004322829190641642,0.008158805780112743,-0.003696395317092538
1761378857583938600,2.6989384765625,-0.013676416128873825,0.013787769712507725,-0.0052520232275128365
1761378857593994500,2.708994384765625,-0.02057453617453575,0.02107524499297142,-0.0011584782041609287
1761378857604050400,2.719050537109375,-0.015704670920968056,0.02078651636838913,0.0013766875490546227
1761378857614106400,2.7291064453125,-0.0013936413452029228,0.008545296266674995,0.01035446859896183
1761378857624161500,2.73916162109375,0.011481907218694687,-0.00873586256057024,0.015493999235332012
1761378857634217500,2.749217529296875,0.0166764035820961,-0.016845453530550003,0.016565922647714615
1761378857644273400,2.7592734375,0.01606394536793232,-0.01751703768968582,0.01584172248840332
1761378857654329600,2.76932958984375,0.0062211682088673115,-0.010541953146457672,0.01042858138680458
1761378857664385500,2.779385498046875,-0.001555470284074545,-0.0005960178095847368,0.0012202169746160507
1761378857674441500,2.78944140625,-0.0056013441644608974,0.011577291414141655,-0.008952525444328785
1761378857684496400,2.799496337890625,-0.00383203336969018,0.021393971517682076,-0.02040107548236847
1761378857694552300,2.80955224609375,0.0003379439003765583,0.021416075527668,-0.033001288771629333
1761378857704608500,2.8196083984375,0.011575314216315746,0.01149292103946209,-0.029551392421126366
1761378857714664400,2.82966455078125,0.015745291486382484,-0.0013403184711933136,-0.00911642424762249
1761378857724720400,2.839720458984375,0.012944236397743225,-0.014441380277276039,0.023808017373085022
1761378857734776600,2.849776611328125,0.0030079828575253487,-0.008127025328576565,0.05916227772831917
1761378857744831500,2.85983154296875,-0.005079921334981918,-0.011918114498257637,0.08259845525026321
1761378857754887700,2.8698876953125,-0.007212847471237183,-0.013593243435025215,0.08105435967445374
1761378857764943600,2.879943603515625,-0.009598791599273682,-0.004088072571903467,0.0594995878636837
1761378857774996000,2.889995849609375,-0.004842919763177633,-0.0011745744850486517,0.026396766304969788
1761378857785052200,2.90005224609375,0.0028648446314036846,0.0010524685494601727,-0.008012192323803902
1761378857795106800,2.91010693359375,0.0029439404606819153,0.00847816001623869,-0.0370052270591259
1761378857805163000,2.9201630859375,-0.00045966124162077904,0.007683456875383854,-0.04558245837688446
1761378857815219000,2.930218994140625,-0.0020844554528594017,-0.00856022723019123,-0.028271382674574852
1761378857825275000,2.94027490234375,-0.004361504223197699,-0.014388155192136765,-0.004821659065783024
1761378857835331000,2.9503310546875,-0.012502787634730339,-0.011275719851255417,0.018064215779304504
1761378857845387000,2.960386962890625,-0.013601850718259811,-0.0035851099528372288,0.027636121958494186
1761378857855442000,2.97044189453125,-0.01473609171807766,0.0013281558640301228,0.030413534492254257
1761378857865498000,2.980498046875,-0.015104581601917744,-0.0008655022829771042,0.028479667380452156
1761378857875554000,2.990553955078125,-0.005188034847378731,0.004924476146697998,0.02797153778374195
1761378857885610000,3.00060986328125,0.006453406997025013,0.0005277027375996113,0.018233079463243484
1761378857895666000,3.010666015625,0.01347829308360815,0.010805374011397362,-0.0013576662167906761
1761378857905721900,3.020721923828125,0.01261383481323719,0.020415406674146652,-0.02509652078151703
1761378857915777000,3.030777099609375,0.016793666407465935,0.024745173752307892,-0.045094992965459824
1761378857925833000,3.0408330078125,0.016866298392415047,0.01925766095519066,-0.055262062698602676
1761378857935889000,3.050888916015625,0.009756989777088165,0.012636243365705013,-0.037740856409072876
1761378857945945000,3.060945068359375,-0.005334888584911823,0.035831086337566376,-0.011294974014163017
1761378857956001000,3.0710009765625,-0.01647382602095604,0.0024731289595365524,0.013192791491746902
1761378857966057000,3.081056884765625,-0.011618420481681824,-0.0023416741751134396,0.03139635547995567
1761378857976111900,3.09111181640625,-0.0076756104826927185,-0.014019369147717953,0.04107135161757469
1761378857986167800,3.101167724609375,-0.00162556953728199,-0.010686296038329601,0.03872040659189224
1761378857996224000,3.11122412109375,0.0033896954264491796,-0.015073854476213455,0.018414337188005447
1761378858006280000,3.121280029296875,0.009481641463935375,-0.01871936023235321,-0.003132072975859046
1761378858016336000,3.1313359375,0.008199594914913177,-0.02111141011118889,-0.03459945321083069
1761378858026391000,3.14139111328125,0.0037024198099970818,-0.021362055093050003,-0.06500609964132309
1761378858036447000,3.151447021484375,-0.009090075269341469,-0.016194991767406464,-0.08356273919343948
1761378858046503200,3.161503173828125,-0.017825644463300705,-0.009364888072013855,-0.07233063131570816
1761378858056559000,3.17155908203125,-0.018269862979650497,-0.002076615346595645,-0.038126587867736816
1761378858066615000,3.181614990234375,-0.014532670378684998,-0.00253647705540061,0.007505372632294893
1761378858076671000,3.1916708984375,0.0018452364020049572,-0.00911475159227848,0.04178158938884735
1761378858086726000,3.201725830078125,0.015665676444768906,-0.0097452811896801,0.06079275533556938
1761378858096782000,3.211781982421875,0.022992564365267754,-0.0025012162514030933,0.04909748211503029
1761378858106838000,3.221838134765625,0.02147950790822506,0.0027633998543024063,0.027034161612391472
1761378858116894000,3.23189404296875,0.007975682616233826,0.010290292091667652,-0.003064884338527918
1761378858126950100,3.2419501953125,-0.0022102496586740017,0.011890200898051262,-0.02494787983596325
1761378858137006000,3.252006103515625,-0.008731530979275703,0.013970395550131798,-0.03516776114702225
1761378858147061000,3.26206103515625,-0.009934200905263424,0.009941007010638714,-0.04411611333489418
1761378858157117000,3.272116943359375,-0.00145629420876503,0.003696693107485771,-0.03731892630457878
1761378858167172900,3.2821728515625,0.007287938613444567,-0.006187670864164829,-0.0215984508395195
1761378858177228800,3.292228759765625,0.01054258830845356,-0.0019077046308666468,-0.007559063844382763
1761378858187285000,3.302284912109375,0.009916444309055805,0.0038365740329027176,-0.0019204290583729744
1761378858197341000,3.3123408203125,0.003547494765371084,-0.005793415941298008,-0.0015228190459311008
1761378858207396000,3.32239599609375,0.006376291159540415,-0.006206712685525417,-0.009576352313160896
1761378858217452000,3.3324521484375,-0.002677390817552805,-0.006833620835095644,-0.016622543334960938
1761378858227508000,3.342508056640625,-0.002983005717396736,-0.009100050665438175,-0.01659022457897663
1761378858237564200,3.352564208984375,-0.0026591653004288673,-0.015314537100493908,-0.002190512139350176
1761378858247620000,3.3626201171875,-0.007281843107193708,-0.016155654564499855,0.010327783413231373
1761378858257675000,3.372675048828125,-0.0181302297860384,-0.0064590852707624435,0.015138517133891582
1761378858267731000,3.38273095703125,-0.023042304441332817,0.005223548971116543,0.004034399054944515
1761378858277787000,3.392786865234375,-0.013321233913302422,0.01404633466154337,-0.007754083257168531
1761378858287843000,3.402843017578125,-0.001431192271411419,0.008376451209187508,-0.021388012915849686
1761378858297899000,3.41289892578125,0.006548970006406307,0.0006671329028904438,-0.019082780927419662
1761378858307955000,3.422954833984375,0.016667718067765236,0.001635244581848383,-0.01096291746944189
1761378858318010000,3.433010009765625,0.009547490626573563,-0.006702047772705555,-0.0018698200583457947
1761378858328066000,3.443066162109375,0.00443354994058609,-0.009608473628759384,0.008487945422530174
1761378858338122000,3.4531220703125,0.004635151010006666,-0.014835726469755173,0.016052121296525
1761378858348178000,3.463177978515625,0.00469689816236496,-0.01567738689482212,0.01796279288828373
1761378858358233900,3.47323388671875,0.004648694768548012,-0.01784786395728588,0.014277243986725807
1761378858368290000,3.4832900390625,0.00970741081982851,-0.010714470408856869,0.0025459309108555317
1761378858378345000,3.493344970703125,0.012990822084248066,-0.0017689124215394258,-0.01390388235449791
1761378858388401200,3.503401123046875,0.008277835324406624,0.003803177736699581,-0.024380121380090714
1761378858398457000,3.51345703125,-0.003630488645285368,0.006439440883696079,-0.031004734337329865
1761378858408513000,3.523512939453125,0.0003988156095147133,0.003089090809226036,-0.02285551093518734
1761378858418569000,3.53356884765625,0.004689168184995651,0.005370354745537043,-0.0011392957530915737
1761378858428624000,3.543623779296875,0.004976741969585419,0.002173630055040121,0.024086754769086838
1761378858438679800,3.5536796875,0.013965443708002567,-0.00294736260548234,0.050302911549806595
1761378858448736000,3.563736083984375,0.01943308673799038,-0.005863244645297527,0.06002599000930786
1761378858458792000,3.5737919921875,0.012460132129490376,-0.009046254679560661,0.06561862677335739
1761378858468847900,3.583847900390625,0.001943147275596857,-0.008482248522341251,0.060358576476573944
1761378858478904000,3.593904052734375,-0.010079161264002323,-0.007572246249765158,0.04940339922904968
1761378858488959000,3.603958984375,-0.018591955304145813,-0.001379065215587616,0.033108316361904144
1761378858499015200,3.61401513671875,-0.020834069699048996,0.0100307147949934,0.024463430047035217
1761378858509071000,3.624071044921875,-0.006147374399006367,0.013201526366174221,0.025852041319012642
1761378858519126800,3.634126708984375,0.01143241859972477,0.009626499377191067,0.03147637099027634
1761378858529183000,3.644182861328125,0.023980796337127686,-0.0004935101605951786,0.030822718515992165
1761378858539239000,3.654239013671875,0.026389094069600105,0.0014300909824669361,0.034796424210071564
1761378858549294000,3.664294189453125,0.01669512502849102,0.0012752520851790905,0.044054292142391205
1761378858559350000,3.67435009765625,0.005726630333811045,0.00013248994946479797,0.04847833514213562
1761378858569406000,3.684406005859375,-0.012296183034777641,0.003724188543856144,0.03603920340538025
1761378858579462100,3.694462158203125,-0.019526399672031403,0.009615899994969368,0.024046989157795906
1761378858589518000,3.70451806640625,-0.009043538942933083,0.012453379109501839,0.0073286620900034904
1761378858599573000,3.714572998046875,-0.0023209210485219955,0.014994567260146141,-0.016442712396383286
1761378858609629000,3.72462890625,0.00751385698094964,0.016582651063799858,-0.03362127020955086
1761378858619684900,3.734684814453125,0.01357734203338623,0.02188180759549141,-0.035708922892808914
1761378858629741000,3.744740966796875,0.006442651618272066,0.03250992298126221,-0.02460489235818386
1761378858639797000,3.754796875,0.004983505234122276,0.021903885528445244,-0.010396928526461124
1761378858649853000,3.76485302734375,0.006461454555392265,0.006266908720135689,-0.00301463739015162
1761378858659908000,3.774908203125,0.010900944471359253,-0.016459442675113678,-0.0017818599008023739
1761378858669964000,3.784964111328125,0.010568037629127502,-0.028804486617445946,-0.0006953943520784378
1761378858680020000,3.79502001953125,0.0058246818371117115,-0.016812004148960114,-0.00036383094266057014
1761378858690076200,3.805076171875,-0.004026500973850489,-0.002611578209325671,-0.0013403166085481644
1761378858700131800,3.8151318359375,-0.00817490741610527,0.015395386144518852,0.0018349704332649708
1761378858710188000,3.82518798828125,-0.006521988194435835,0.024671215564012527,0.010662558488547802
1761378858720243000,3.835242919921875,-0.008834943175315857,0.04208536073565483,0.02031891420483589
1761378858730299000,3.845298828125,-0.00629018759354949,0.03270886093378067,0.018411817029118538
1761378858740355000,3.85535498046875,-0.0018592202104628086,0.019577346742153168,0.010813551023602486
1761378858750411000,3.865410888671875,0.00030173687264323235,-0.004041642416268587,-0.0029258111026138067
1761378858760467000,3.875467041015625,-0.000055925920605659485,-0.025660652667284012,-0.0076164365746080875
1761378858770522000,3.885522216796875,0.0009792447090148926,-0.03704113885760307,-0.010661761276423931
1761378858780578000,3.895578125,0.008240261115133762,-0.035267461091279984,-0.009750017896294594
1761378858790634200,3.90563427734375,0.008920937776565552,-0.026054661720991135,0.002644290216267109
1761378858800690200,3.915690185546875,0.011227767914533615,-0.008295903913676739,0.013807995244860649
1761378858810746000,3.92574609375,0.005480058956891298,0.007340509444475174,0.022216210141777992
1761378858820802300,3.93580224609375,-0.004730766639113426,0.027606630697846413,0.031913045793771744
1761378858830857200,3.945857177734375,-0.015501606278121471,0.03360980004072189,0.02634405344724655
1761378858840913200,3.9559130859375,-0.015334093011915684,0.03132880479097366,0.010773084126412868
1761378858850969000,3.965968994140625,-0.010466800071299076,0.015766829252243042,-0.009705066680908203
1761378858861025000,3.97602490234375,-0.0032112840563058853,-0.004014864098280668,-0.02251034416258335
1761378858871081200,3.986081298828125,0.008578667417168617,-0.023064080625772476,-0.024912480264902115
1761378858881136000,3.99613623046875,0.010658063925802708,-0.03000720962882042,-0.015140276402235031
1761378858891192300,4.0061923828125,0.009023254737257957,-0.0264348853379488,-0.0036346300039440393
1761378858901248300,4.016248291015625,0.0018135448917746544,-0.017522085458040237,0.004391338210552931
1761378858911302100,4.02630224609375,-0.011204412207007408,-0.0007977371569722891,0.017353735864162445
1761378858921358000,4.036358154296875,-0.01512671634554863,0.0009298552758991718,0.026334445923566818
1761378858931414000,4.0464140625,-0.013799041509628296,0.005192216485738754,0.03224808722734451
1761378858941470200,4.05647021484375,-0.01442648097872734,0.00396316684782505,0.018285401165485382
1761378858951525000,4.066525146484375,-0.005414887797087431,0.0027019246481359005,-0.001591234002262354
1761378858961581300,4.076581298828125,0.0029871189035475254,-0.005130964331328869,-0.021709019318223
1761378858971637200,4.08663720703125,0.008176345378160477,-0.005595849826931953,-0.026493312790989876
1761378858981693200,4.096693115234375,0.004278542473912239,-0.009314155206084251,-0.015394588001072407
1761378858991749000,4.1067490234375,0.0017657107673585415,-0.009209878742694855,0.0006183995865285397
1761378859001804000,4.116803955078125,-0.0010306080803275108,-0.014698920771479607,0.025143450126051903
1761378859011860200,4.126860107421875,-0.004801540169864893,-0.022524137049913406,0.04488994926214218
1761378859021916200,4.136916259765625,-0.003736009355634451,-0.02218698151409626,0.05495670065283775
1761378859031972000,4.14697216796875,-0.004121784120798111,-0.012706995010375977,0.043415218591690063
1761378859042028300,4.1570283203125,-0.010120820254087448,-0.00020398711785674095,0.022557074204087257
1761378859052084200,4.167084228515625,-0.017487607896327972,0.004997035022825003,-0.01423561666160822
1761378859062139400,4.177139404296875,-0.014454534277319908,0.006919304374605417,-0.04352879151701927
1761378859072195000,4.187195068359375,-0.013188878074288368,0.003965458832681179,-0.05524280294775963
1761378859082251000,4.1972509765625,-0.006112591829150915,-0.005766530521214008,-0.04218452423810959
1761378859092307200,4.20730712890625,0.003625153098255396,-0.016785308718681335,-0.012258544564247131
1761378859102363100,4.217363037109375,0.013960614800453186,-0.01958801969885826,0.021764669567346573
1761378859112418000,4.22741796875,0.013474345207214355,-0.019046664237976074,0.040478404611349106
1761378859122474200,4.23747412109375,0.011797886341810226,-0.017444506287574768,0.03947626054286957
1761378859132530200,4.2475302734375,0.013522757217288017,-0.008308359421789646,0.014900295063853264
1761378859142586000,4.257586181640625,0.004577731713652611,-0.0018350137397646904,-0.015738308429718018
1761378859152642300,4.267642333984375,-0.004167856648564339,-0.0010271701030433178,-0.04813573509454727
1761378859162698200,4.2776982421875,-0.009494444355368614,0.002776090055704117,-0.06968311220407486
1761378859172753200,4.287753173828125,-0.008547740057110786,-0.0028797988779842854,-0.0631180927157402
1761378859182809000,4.29780908203125,-0.003865103702992201,-0.007850855588912964,-0.04053927958011627
1761378859192865000,4.307864990234375,0.0038487722631543875,-0.007222930435091257,-0.008087326772511005
1761378859202921200,4.317921142578125,0.011999908834695816,0.0014552460052073002,0.020930742844939232
1761378859212977200,4.32797705078125,0.015278627164661884,0.020272286608815193,0.0421060286462307
1761378859223033000,4.338033203125,0.013674605637788773,0.023241978138685226,0.044984109699726105
1761378859233088300,4.348088134765625,0.00610692473128438,0.011981749907135963,0.02988540381193161
1761378859243144200,4.358144287109375,0.0059806909412145615,-0.008008468896150589,0.0025978554040193558
1761378859253200100,4.3682001953125,0.0024147811345756054,-0.018480248749256134,-0.033207159489393234
1761378859263256000,4.378256103515625,-0.004580011125653982,-0.023102164268493652,-0.06855209916830063
1761378859273312000,4.38831201171875,-0.0014023156836628914,-0.02372698113322258,-0.08430007100105286
1761378859283367200,4.3983671875,0.004636135883629322,-0.011095342226326466,-0.07856175303459167
1761378859293423000,4.408423095703125,0.0018175155855715275,0.0026389104314148426,-0.04969610273838043
1761378859303479300,4.418479248046875,-0.0028219777159392834,0.003904178272932768,-0.015758376568555832
1761378859313538000,4.4285380859375,0.0009002992883324623,0.00933070108294487,0.01435454748570919
1761378859323594000,4.438593994140625,0.0006880452856421471,0.0018453546799719334,0.027436524629592896
1761378859333650200,4.448650146484375,0.0074439868330955505,-0.0072286734357476234,0.018673472106456757
1761378859343705000,4.458705078125,0.01146695762872696,-0.016608860343694687,0.001568786334246397
1761378859353761300,4.46876123046875,0.016281746327877045,-0.009645665064454079,-0.023088041692972183
1761378859363817200,4.478817138671875,0.008839275687932968,0.00017553986981511116,-0.04684557020664215
1761378859373873200,4.488873046875,0.0017339065670967102,0.0005901157855987549,-0.0671391412615776
1761378859383929300,4.498929443359375,-0.004275782965123653,0.006084216758608818,-0.07265880703926086
1761378859393984000,4.50898388671875,-0.00736594432964921,0.010602268390357494,-0.06550171971321106
1761378859404040200,4.519040283203125,-0.0052982657216489315,0.006991022266447544,-0.04978667199611664
1761378859414096100,4.52909619140625,-0.0006400253623723984,-0.0005007567815482616,-0.024149226024746895
1761378859424152000,4.539152099609375,0.008966529741883278,-0.003624644596129656,-0.0049683409743011
1761378859434208300,4.549208251953125,0.008758202195167542,0.004667853936553001,0.014033962041139603
1761378859444264200,4.55926416015625,0.008069775067269802,-0.005123523995280266,0.024894865229725838
1761378859454319400,4.5693193359375,0.005481503438204527,0.0015674815513193607,0.029861677438020706
1761378859464375300,4.579375244140625,-0.004884317982941866,0.004834913648664951,0.026766285300254822
1761378859474431200,4.58943115234375,-0.002549672033637762,0.005999449174851179,0.02436130866408348
1761378859484487200,4.599487060546875,-0.0029608639888465405,0.017063286155462265,0.012288401834666729
1761378859494543000,4.609543212890625,-0.00041898293420672417,0.0170686487108469,-0.0037621953524649143
1761378859504599000,4.61959912109375,0.010980146005749702,0.01140969805419445,-0.0156880971044302
1761378859514654200,4.629654296875,0.01219167374074459,-0.0006380937993526459,-0.014814294874668121
1761378859524710100,4.639710205078125,0.01001720316708088,-0.010031063109636307,-0.006050631403923035
1761378859534766000,4.64976611328125,0.006695084739476442,-0.00765629718080163,0.012598326429724693
1761378859544822300,4.659822265625,0.0018412075005471706,-0.012749859131872654,0.030831124633550644
1761378859554878200,4.669878173828125,-0.005293575115501881,-0.009136762470006943,0.0501793809235096
1761378859564933000,4.67993310546875,-0.01301833987236023,-0.0038708935026079416,0.0606786273419857
1761378859574989000,4.689989013671875,-0.016427267342805862,0.0019275802187621593,0.053423624485731125
1761378859585045000,4.700044921875,-0.02098073996603489,0.01067340187728405,0.03962977975606918
1761378859595101200,4.71010107421875,-0.014157291501760483,0.019916754215955734,0.016868315637111664
1761378859605157000,4.7201572265625,-0.005041823722422123,0.029897218570113182,0.002575929742306471
1761378859615213000,4.730213134765625,0.0022849244996905327,0.01990012265741825,0.0008085877634584904
1761378859625268200,4.740268310546875,0.012482168152928352,0.011000370606780052,0.0010256357491016388
1761378859635324200,4.75032421875,0.008610696531832218,-0.0013592529576271772,0.00017894059419631958
1761378859645380400,4.76038037109375,-0.001905327197164297,-0.019100699573755264,0.002961943857371807
1761378859655436300,4.770436279296875,-0.007594003342092037,-0.023876599967479706,0.007312445435672998
1761378859665492000,4.780491943359375,-0.004571315832436085,-0.024294715374708176,0.01380629651248455
1761378859675548200,4.790548095703125,0.001971644349396229,-0.01184447854757309,0.01660899817943573
1761378859685603000,4.80060302734375,0.009274831041693687,-0.010265223681926727,0.009794236160814762
1761378859695659300,4.8106591796875,0.007946562021970749,-0.004516070708632469,0.00906222965568304
1761378859705715200,4.820715087890625,0.013947995379567146,0.0010755020193755627,0.015187766402959824
1761378859715771100,4.830771240234375,0.013668026775121689,-0.0040532806888222694,0.014867471531033516
1761378859725827300,4.840827392578125,0.006037270650267601,-0.0017104977741837502,0.008399185724556446
1761378859735882200,4.85088232421875,-0.004216223489493132,0.00109797902405262,0.000599538441747427
1761378859745938200,4.860938232421875,-0.004541662055999041,0.0007469747215509415,-0.00517499353736639
1761378859755994000,4.870994140625,-0.00592954782769084,-0.004151549655944109,-0.00596308708190918
1761378859766050000,4.881050048828125,-0.002024554181843996,-0.0066061848774552345,-0.012662801891565323
1761378859776112000,4.891112060546875,0.0028543081134557724,-0.005446246825158596,-0.003943823277950287
1761378859786168000,4.90116796875,0.011265370063483715,-0.004871270153671503,0.00727474270388484
1761378859796223200,4.91122314453125,0.014204008504748344,-0.0063909078016877174,0.01810181513428688
1761378859806279200,4.921279052734375,0.002794227097183466,-0.00012102816253900528,0.02887963131070137
1761378859816335000,4.931335205078125,-0.008198192343115807,-0.0008663285989314318,0.025721296668052673
1761378859826391300,4.941391357421875,-0.010831793770194054,-0.0029334742575883865,0.018233023583889008
1761378859836447200,4.951447265625,-0.009099546819925308,-0.00597359286621213,0.007271651644259691
1761378859846503000,4.9615029296875,0.0018223435617983341,-0.014094369485974312,0.0017136340029537678
1761378859856558000,4.97155810546875,0.008776888251304626,-0.009851048700511456,-0.0025456349831074476
1761378859866614000,4.981614013671875,0.011312217451632023,-0.0018445211462676525,0.009270278736948967
1761378859876670200,4.991670166015625,0.012989649549126625,0.00436039175838232,0.024730868637561798
1761378859886726100,5.00172607421875,0.004368465393781662,0.0067079681903123856,0.030188485980033875
1761378859896782000,5.011781982421875,-0.004782848060131073,0.009367095306515694,0.0232101958245039
1761378859906837200,5.021837158203125,-0.010176814161241055,0.008304760791361332,0.016691310331225395
1761378859916893000,5.031892822265625,-0.008343993686139584,0.007261758670210838,0.011766403913497925
1761378859926949000,5.04194921875,-0.0038975803181529045,0.003554372116923332,0.008836393244564533
1761378859937005000,5.052005126953125,0.004766574129462242,-0.005634612403810024,0.015749283134937286
1761378859947061000,5.06206103515625,0.01762964203953743,-0.014445947483181953,0.01618657447397709
1761378859957117200,5.0721171875,0.0224411990493536,-0.0026721772737801075,0.014586519449949265
1761378859967172000,5.082172119140625,0.0070313503965735435,0.006521587260067463,0.01671438477933407
1761378859977228300,5.092228271484375,-0.006463156081736088,0.014933167956769466,0.02223934978246689
1761378859987284200,5.1022841796875,-0.015099520795047283,0.014622378163039684,0.026206394657492638
1761378859997340200,5.112340087890625,-0.012945044785737991,0.011726267635822296,0.023510534316301346
1761378860007396000,5.12239599609375,-0.004887385293841362,0.0061759743839502335,0.017950119450688362
1761378860017452300,5.132452392578125,0.0029655364342033863,-0.006210560444742441,0.012288019992411137
1761378860027507000,5.1425068359375,0.01199711486697197,-0.01551644504070282,0.00004280591383576393
1761378860037563100,5.152563232421875,0.011589059606194496,-0.01682148687541485,-0.01395028829574585
1761378860047619000,5.162619140625,0.009283028542995453,-0.012645117938518524,-0.028203526511788368
1761378860057675000,5.172675048828125,0.010295422747731209,-0.005763895343989134,-0.037792306393384933
1761378860067731200,5.182731201171875,0.012860845774412155,-0.0015800690744072199,-0.040933504700660706
1761378860077786000,5.1927861328125,0.009452125988900661,0.0060716052539646626,-0.035615239292383194
1761378860087842300,5.20284228515625,0.003698100568726659,0.004018041770905256,-0.023087462410330772
1761378860097898000,5.21289794921875,0.002058231271803379,-0.0013834219425916672,-0.0022018966265022755
1761378860107954000,5.222953857421875,-0.0031913919374346733,-0.011043505743145943,0.02479749545454979
1761378860118010000,5.233010009765625,-0.011582816950976849,-0.014425786212086678,0.04139892756938934
1761378860128066000,5.243066162109375,-0.01290907058864832,-0.018685512244701385,0.04443146660923958
1761378860138121200,5.253121337890625,-0.008886214345693588,-0.010457862168550491,0.027812983840703964
1761378860148177200,5.26317724609375,-0.0015460108406841755,-0.003430579323321581,0.008266446180641651
1761378860158233000,5.273233154296875,0.009843854233622551,0.021208282560110092,-0.020142510533332825
1761378860168289300,5.283289306640625,0.015178165398538113,0.022979017347097397,-0.04590832442045212
1761378860178345200,5.29334521484375,0.018547261133790016,0.013639789074659348,-0.05274268239736557
1761378860188401200,5.303401123046875,0.012567665427923203,0.0011346503160893917,-0.03522174805402756
1761378860198456000,5.3134560546875,0.0016261273995041847,-0.014181369915604591,-0.0009479094296693802
1761378860208512000,5.323511962890625,-0.0060043614357709885,-0.014060195535421371,0.022080177441239357
1761378860218568200,5.333568115234375,-0.008604208007454872,-0.004579121712595224,0.023989008739590645
1761378860228624100,5.3436240234375,-0.009157346561551094,0.003140050917863846,0.005998822394758463
1761378860238680000,5.35368017578125,0.0009439983405172825,0.00605361582711339,-0.010980399325489998
1761378860248735200,5.3637353515625,0.005976840388029814,0.009131964296102524,-0.014361015520989895
1761378860258791200,5.373791259765625,0.005019332282245159,0.009944547899067402,0.0024036229588091373
1761378860268847000,5.38384716796875,-0.002311018295586109,0.006357803009450436,0.02123989537358284
1761378860278903000,5.393903076171875,-0.006470299791544676,0.004004752263426781,0.03270658105611801
1761378860288959000,5.403958984375,-0.010127086192369461,0.005957115441560745,0.024171415716409683
1761378860299015200,5.41401513671875,-0.012651241384446621,0.01538606733083725,0.010036020539700985
1761378860309070000,5.424070068359375,-0.012936466373503208,0.03754090145230293,0.0037893103435635567
1761378860319126000,5.4341259765625,-0.016101669520139694,0.04075224697589874,0.036889929324388504
1761378860329182200,5.44418212890625,-0.01914965733885765,0.006833164021372795,0.04854338988661766
1761378860339238100,5.454238037109375,-0.006761901546269655,-0.031103460118174553,0.044246722012758255
1761378860349294000,5.464294189453125,0.0046896906569600105,-0.039414387196302414,0.05272063612937927
1761378860359349000,5.474348876953125,0.015444377437233925,-0.04274801164865494,0.0558665432035923
1761378860369405000,5.484405029296875,0.026232577860355377,-0.02699275128543377,0.023943763226270676
1761378860379461000,5.494461181640625,0.026578281074762344,-0.01128176599740982,-0.03374113515019417
1761378860389517000,5.50451708984375,0.013840646483004093,0.004814113490283489,-0.08824991434812546
1761378860399573000,5.514572998046875,-0.00204697297886014,0.023528413847088814,-0.10720229893922806
1761378860409629200,5.524629150390625,-0.023663317784667015,0.03639814257621765,-0.09577041864395142
1761378860419684000,5.53468408203125,-0.023529604077339172,0.04559370130300522,-0.06671296060085297
1761378860429740300,5.544740234375,-0.013345410116016865,0.020346134901046753,-0.03347564488649368
1761378860439796200,5.554796142578125,-0.003527976106852293,0.009065933525562286,-0.0020838105119764805
