time,seconds_elapsed,z,y,x
1761380578581069800,0.06206982421875,-0.134857177734375,-0.9390716552734375,0.157867431640625
1761380578591126000,0.0721259765625,-0.134674072265625,-0.9478912353515625,0.1735076904296875
1761380578601181000,0.082180908203125,-0.134765625,-0.959716796875,0.1884918212890625
1761380578611237000,0.092237060546875,-0.1388397216796875,-0.968292236328125,0.196533203125
1761380578621293000,0.10229296875,-0.1641387939453125,-0.97119140625,0.199737548828125
1761380578631349000,0.112348876953125,-0.195892333984375,-0.966827392578125,0.190582275390625
1761380578641404000,0.12240380859375,-0.2238006591796875,-0.9522552490234375,0.161529541015625
1761380578651459800,0.1324599609375,-0.2484893798828125,-0.9272308349609375,0.11602783203125
1761380578661516000,0.14251611328125,-0.2822418212890625,-0.9084320068359375,0.067779541015625
1761380578671572000,0.152572021484375,-0.3130950927734375,-0.908416748046875,0.0252838134765625
1761380578681627100,0.162627197265625,-0.3234710693359375,-0.912506103515625,-0.005859375
1761380578691683000,0.17268310546875,-0.3306732177734375,-0.9115447998046875,-0.030792236328125
1761380578701739000,0.182739013671875,-0.3331146240234375,-0.923126220703125,-0.063995361328125
1761380578711794000,0.1927939453125,-0.3228912353515625,-0.9461822509765625,-0.10174560546875
1761380578721849900,0.202849853515625,-0.3170013427734375,-0.971527099609375,-0.1351776123046875
1761380578731906000,0.212906005859375,-0.2869415283203125,-1.0032196044921875,-0.1634368896484375
1761380578741962000,0.2229619140625,-0.2676849365234375,-1.021728515625,-0.2039642333984375
1761380578752017000,0.233016845703125,-0.2813262939453125,-1.0545501708984375,-0.2714996337890625
1761380578762073000,0.243072998046875,-0.3246307373046875,-1.1029510498046875,-0.3365631103515625
1761380578772129000,0.25312890625,-0.3894195556640625,-1.13739013671875,-0.3798980712890625
1761380578782185000,0.26318505859375,-0.4743804931640625,-1.1720733642578125,-0.3864593505859375
1761380578792239900,0.273239990234375,-0.5482940673828125,-1.226715087890625,-0.360687255859375
1761380578802295800,0.2832958984375,-0.5823974609375,-1.2954254150390625,-0.3021087646484375
1761380578812352000,0.29335205078125,-0.6159515380859375,-1.3754425048828125,-0.2630615234375
1761380578822407000,0.303406982421875,-0.624298095703125,-1.4199981689453125,-0.29071044921875
1761380578832463000,0.313463134765625,-0.6640777587890625,-1.41827392578125,-0.356842041015625
1761380578842519000,0.32351904296875,-0.74725341796875,-1.4049835205078125,-0.4072113037109375
1761380578852575000,0.333574951171875,-0.828369140625,-1.352569580078125,-0.4210662841796875
1761380578862630000,0.3436298828125,-0.9060821533203125,-1.2602386474609375,-0.398956298828125
1761380578872685800,0.353685791015625,-0.9065704345703125,-1.1718292236328125,-0.34100341796875
1761380578882742000,0.363741943359375,-0.8433990478515625,-1.1079864501953125,-0.24017333984375
1761380578892798000,0.3737978515625,-0.7178955078125,-1.077239990234375,-0.107147216796875
1761380578902853000,0.38385302734375,-0.6097564697265625,-1.0831451416015625,0.009429931640625
1761380578912909000,0.393908935546875,-0.57073974609375,-1.121826171875,0.078948974609375
1761380578922965000,0.403965087890625,-0.570648193359375,-1.1392974853515625,0.113739013671875
1761380578933021200,0.414021240234375,-0.5002593994140625,-1.1262664794921875,0.1019744873046875
1761380578943075800,0.424075927734375,-0.3862762451171875,-1.115325927734375,0.0597991943359375
1761380578953132000,0.434132080078125,-0.2881317138671875,-1.1272430419921875,0.022247314453125
1761380578963188000,0.44418798828125,-0.2498321533203125,-1.146759033203125,0.003082275390625
1761380578973243000,0.454242919921875,-0.2079925537109375,-1.140869140625,-0.0134124755859375
1761380578983299000,0.464299072265625,-0.2034759521484375,-1.0918731689453125,-0.053924560546875
1761380578993355000,0.47435498046875,-0.2428436279296875,-1.027923583984375,-0.068572998046875
1761380579003411000,0.484410888671875,-0.2813873291015625,-0.9532012939453125,-0.0359954833984375
1761380579013465900,0.4944658203125,-0.31243896484375,-0.8880767822265625,0.015380859375
1761380579023521800,0.504521728515625,-0.39508056640625,-0.8809661865234375,0.057647705078125
1761380579033578000,0.514577880859375,-0.4285125732421875,-0.888946533203125,0.0775909423828125
1761380579043633000,0.5246328125,-0.4107666015625,-0.8425750732421875,0.0589141845703125
1761380579053689000,0.534689208984375,-0.395904541015625,-0.7756805419921875,0.0145416259765625
1761380579063745000,0.5447451171875,-0.3970794677734375,-0.7042999267578125,-0.008544921875
1761380579073801000,0.554801025390625,-0.3792572021484375,-0.6064300537109375,0.0118865966796875
1761380579083856100,0.564856201171875,-0.3227996826171875,-0.51531982421875,0.0587921142578125
1761380579093911800,0.574911865234375,-0.25091552734375,-0.4412994384765625,0.129852294921875
1761380579103968000,0.584968017578125,-0.2075042724609375,-0.384124755859375,0.2469329833984375
1761380579114024000,0.59502392578125,-0.193756103515625,-0.3717498779296875,0.4044189453125
1761380579124079000,0.6050791015625,-0.18450927734375,-0.3974151611328125,0.517852783203125
1761380579134135000,0.615135009765625,-0.1987152099609375,-0.4189605712890625,0.556182861328125
1761380579144191000,0.62519091796875,-0.161773681640625,-0.4088897705078125,0.5433502197265625
1761380579154247200,0.6352470703125,-0.17431640625,-0.3890533447265625,0.49517822265625
1761380579164302000,0.645302001953125,-0.2144012451171875,-0.419769287109375,0.43890380859375
1761380579174358000,0.65535791015625,-0.1732635498046875,-0.3790130615234375,0.4326629638671875
1761380579184414000,0.6654140625,-0.1808319091796875,-0.3159942626953125,0.433563232421875
1761380579194468900,0.67546875,-0.1925506591796875,-0.27423095703125,0.430419921875
1761380579204525000,0.685525146484375,-0.241485595703125,-0.2687225341796875,0.4201812744140625
1761380579214581000,0.6955810546875,-0.2120513916015625,-0.3275146484375,0.375701904296875
1761380579224637000,0.705636962890625,-0.12799072265625,-0.40557861328125,0.3204498291015625
1761380579234692000,0.715692138671875,-0.1582794189453125,-0.5691680908203125,0.251739501953125
1761380579244747800,0.725747802734375,-0.2488250732421875,-0.86480712890625,0.12628173828125
1761380579254804000,0.735803955078125,-0.4102783203125,-1.2172088623046875,-0.0649566650390625
1761380579264860000,0.74585986328125,-0.6534576416015625,-1.601409912109375,-0.1904754638671875
1761380579274915000,0.7559150390625,-0.89178466796875,-1.8412933349609375,-0.1006011962890625
1761380579284971000,0.765970947265625,-1.1834869384765625,-1.75128173828125,0.0409088134765625
1761380579295027000,0.77602685546875,-1.49261474609375,-1.5238189697265625,0.16839599609375
1761380579305082000,0.78608203125,-1.66693115234375,-1.556396484375,0.3163299560546875
1761380579315138000,0.796137939453125,-1.56243896484375,-1.6927947998046875,0.3603515625
1761380579325194000,0.806194091796875,-1.2841339111328125,-1.6855621337890625,0.2672882080078125
1761380579335250000,0.81625,-1.00958251953125,-1.5854949951171875,0.153961181640625
1761380579345305000,0.82630517578125,-0.7996063232421875,-1.467041015625,0.0917205810546875
1761380579355361000,0.836361083984375,-0.6804046630859375,-1.3533782958984375,0.038726806640625
1761380579365417000,0.8464169921875,-0.5962371826171875,-1.27069091796875,-0.0001220703125
1761380579375472000,0.85647216796875,-0.5458831787109375,-1.2122955322265625,-0.06329345703125
1761380579385528000,0.866528076171875,-0.5351409912109375,-1.110992431640625,-0.123565673828125
1761380579395584000,0.876583984375,-0.51214599609375,-0.9572906494140625,-0.1635894775390625
1761380579405640000,0.886639892578125,-0.4644012451171875,-0.80645751953125,-0.2322235107421875
1761380579415694800,0.89669482421875,-0.41845703125,-0.68621826171875,-0.28125
1761380579425751000,0.9067509765625,-0.3328399658203125,-0.5826568603515625,-0.275665283203125
1761380579435807000,0.916806884765625,-0.2136993408203125,-0.484710693359375,-0.30828857421875
1761380579445863000,0.92686279296875,-0.120269775390625,-0.3905792236328125,-0.418731689453125
1761380579455918000,0.93691796875,-0.0982208251953125,-0.294342041015625,-0.5171966552734375
1761380579465974000,0.94697412109375,-0.1524505615234375,-0.207733154296875,-0.510101318359375
1761380579476030200,0.9570302734375,-0.2261505126953125,-0.1596832275390625,-0.4144744873046875
1761380579486085000,0.967085205078125,-0.282073974609375,-0.1674041748046875,-0.2941131591796875
1761380579496141300,0.977141357421875,-0.3122100830078125,-0.177947998046875,-0.2296295166015625
1761380579506197200,0.987197265625,-0.2557373046875,-0.1888275146484375,-0.277618408203125
1761380579516253200,0.997253173828125,-0.1183929443359375,-0.2164306640625,-0.376617431640625
1761380579526308000,1.00730810546875,-0.003021240234375,-0.2843170166015625,-0.5013275146484375
1761380579536364000,1.017364013671875,0.027679443359375,-0.3813018798828125,-0.64837646484375
1761380579546420200,1.027420166015625,-0.0934600830078125,-0.468231201171875,-0.7218475341796875
1761380579556476200,1.03747607421875,-0.3590087890625,-0.5099334716796875,-0.6873626708984375
1761380579566531000,1.047531005859375,-0.6040802001953125,-0.5478363037109375,-0.6397705078125
1761380579576587300,1.057587158203125,-0.7908935546875,-0.6331329345703125,-0.635345458984375
1761380579586643200,1.067643310546875,-0.8582763671875,-0.6797027587890625,-0.665130615234375
1761380579596698000,1.077697998046875,-0.61724853515625,-0.63702392578125,-0.7181396484375
1761380579606754000,1.087754150390625,-0.4935150146484375,-0.57080078125,-0.6776580810546875
1761380579616810000,1.09781005859375,-0.5587158203125,-0.7597808837890625,-0.4530181884765625
1761380579626866200,1.1078662109375,-0.6090850830078125,-1.2238616943359375,-0.2304840087890625
1761380579636921000,1.117921142578125,-0.878021240234375,-1.6323699951171875,-0.0993804931640625
1761380579646977300,1.127977294921875,-1.3023834228515625,-2.0036773681640625,-0.0449371337890625
1761380579657033200,1.138033203125,-1.701995849609375,-2.1566314697265625,0.096923828125
1761380579667088100,1.148088134765625,-2.0255126953125,-2.1314544677734375,0.29852294921875
1761380579677144000,1.15814404296875,-2.0596771240234375,-2.082672119140625,0.31622314453125
1761380579687200000,1.168199951171875,-1.858306884765625,-1.882659912109375,0.1245574951171875
1761380579697256200,1.178256103515625,-1.489898681640625,-1.725341796875,-0.1105804443359375
1761380579707311000,1.18831103515625,-1.03509521484375,-1.62152099609375,-0.2861175537109375
1761380579717367300,1.1983671875,-0.785430908203125,-1.5404815673828125,-0.274566650390625
1761380579727423200,1.20842333984375,-0.662811279296875,-1.57489013671875,-0.0844573974609375
1761380579737479200,1.218479248046875,-0.5655059814453125,-1.58953857421875,0.110870361328125
1761380579747534000,1.2285341796875,-0.4817352294921875,-1.4733734130859375,0.2714691162109375
1761380579757590000,1.238590087890625,-0.3402557373046875,-1.2993621826171875,0.364288330078125
1761380579767646000,1.24864599609375,-0.2301177978515625,-1.116912841796875,0.38494873046875
1761380579777701000,1.258701171875,-0.1846771240234375,-0.93011474609375,0.3785858154296875
1761380579787757000,1.268757080078125,-0.123260498046875,-0.7404632568359375,0.3350677490234375
1761380579797813200,1.278813232421875,-0.06768798828125,-0.57379150390625,0.2482757568359375
1761380579807869200,1.288869140625,-0.029144287109375,-0.437103271484375,0.146209716796875
1761380579817924000,1.298924072265625,0.0284576416015625,-0.3210906982421875,0.074310302734375
1761380579827980000,1.30897998046875,0.1054840087890625,-0.2373504638671875,0.034454345703125
1761380579838036000,1.319035888671875,0.0969390869140625,-0.1945953369140625,0.0300750732421875
1761380579848091100,1.329091064453125,0.062896728515625,-0.1709442138671875,0.0776214599609375
1761380579858147000,1.33914697265625,0.01348876953125,-0.1404571533203125,0.17041015625
1761380579868203300,1.349203369140625,0.0119171142578125,-0.10577392578125,0.2935791015625
1761380579878259200,1.35925927734375,0.0656890869140625,-0.084808349609375,0.4189910888671875
1761380579888314000,1.369314208984375,0.1360015869140625,-0.079376220703125,0.54364013671875
1761380579898370000,1.3793701171875,0.1944122314453125,-0.103515625,0.6453094482421875
1761380579908426000,1.389426025390625,0.2024383544921875,-0.1656646728515625,0.71136474609375
1761380579918481200,1.399481201171875,0.1827392578125,-0.2194366455078125,0.7198486328125
1761380579928537000,1.409537109375,0.197052001953125,-0.252288818359375,0.6748199462890625
1761380579938593000,1.419593017578125,0.272247314453125,-0.32696533203125,0.6168975830078125
1761380579948649200,1.429649169921875,0.3209991455078125,-0.4614410400390625,0.57916259765625
1761380579958704000,1.4397041015625,0.245025634765625,-0.6753997802734375,0.602020263671875
1761380579968760000,1.449760009765625,-0.022705078125,-0.898406982421875,0.7155303955078125
1761380579978816000,1.45981591796875,-0.38604736328125,-1.1755828857421875,0.8453826904296875
1761380579988872000,1.469871826171875,-0.7428436279296875,-1.545074462890625,0.8495330810546875
1761380579998927000,1.479927001953125,-1.0499725341796875,-1.9004364013671875,0.758880615234375
1761380580008983000,1.489983154296875,-1.2773590087890625,-2.08056640625,0.66998291015625
1761380580019039200,1.500039306640625,-1.4251708984375,-2.01531982421875,0.4661712646484375
1761380580029094100,1.51009423828125,-1.4155120849609375,-1.8364715576171875,0.1883544921875
1761380580039150000,1.520150146484375,-1.420074462890625,-1.655517578125,0.0118408203125
1761380580049206000,1.5302060546875,-1.520050048828125,-1.5601348876953125,0.032562255859375
1761380580059262000,1.540261962890625,-1.6208038330078125,-1.524017333984375,0.085845947265625
1761380580069317000,1.550317138671875,-1.659881591796875,-1.4620361328125,0.0414886474609375
1761380580079373000,1.560373046875,-1.5836181640625,-1.4159393310546875,-0.0067901611328125
1761380580089429200,1.57042919921875,-1.42950439453125,-1.2970733642578125,-0.0724639892578125
1761380580099484200,1.580484130859375,-1.2098541259765625,-1.1214447021484375,-0.153533935546875
1761380580109540400,1.590540283203125,-0.9837188720703125,-1.01416015625,-0.227447509765625
1761380580119596000,1.600595947265625,-0.771575927734375,-0.963714599609375,-0.287078857421875
1761380580129652000,1.61065185546875,-0.565521240234375,-0.9124908447265625,-0.3291168212890625
1761380580139707100,1.62070703125,-0.3738861083984375,-0.8581390380859375,-0.3742218017578125
1761380580149763000,1.63076318359375,-0.196441650390625,-0.771331787109375,-0.4228973388671875
1761380580159819000,1.640819091796875,-0.0868682861328125,-0.6448516845703125,-0.4629058837890625
1761380580169874200,1.650874267578125,-0.0570068359375,-0.4980926513671875,-0.51031494140625
1761380580179930000,1.66093017578125,-0.0605010986328125,-0.3560943603515625,-0.583892822265625
1761380580189986300,1.670986328125,-0.0814056396484375,-0.2420501708984375,-0.6370697021484375
1761380580200042000,1.6810419921875,-0.0460662841796875,-0.1836090087890625,-0.6441802978515625
1761380580210097200,1.69109716796875,0.084228515625,-0.16162109375,-0.618682861328125
1761380580220153000,1.701153076171875,0.164398193359375,-0.1523590087890625,-0.5632171630859375
1761380580230209000,1.711208984375,0.1345672607421875,-0.143280029296875,-0.5071563720703125
1761380580240264200,1.72126416015625,0.0739288330078125,-0.158203125,-0.4979705810546875
1761380580250320100,1.731320068359375,-0.050262451171875,-0.1521148681640625,-0.549652099609375
1761380580260376300,1.741376220703125,-0.1853485107421875,-0.1407318115234375,-0.6400909423828125
1761380580270432300,1.751432373046875,-0.2724609375,-0.1596221923828125,-0.763641357421875
1761380580280487200,1.761487060546875,-0.31915283203125,-0.2201385498046875,-0.91015625
1761380580290543000,1.771543212890625,-0.2679290771484375,-0.220855712890625,-0.9917449951171875
1761380580300599000,1.78159912109375,-0.1536712646484375,-0.2224884033203125,-1.05474853515625
1761380580310654200,1.791654296875,-0.2496795654296875,-0.314697265625,-1.035919189453125
1761380580320710100,1.801710205078125,-0.5105133056640625,-0.5585479736328125,-1.007720947265625
1761380580330766000,1.81176611328125,-0.63702392578125,-0.8702239990234375,-1.0618743896484375
1761380580340822300,1.821822265625,-0.6416778564453125,-0.954132080078125,-1.0221405029296875
1761380580350877000,1.831876953125,-0.899749755859375,-1.0037994384765625,-0.716461181640625
1761380580360933000,1.84193310546875,-1.159759521484375,-1.417816162109375,-0.1911163330078125
1761380580370989000,1.851989013671875,-1.3907623291015625,-1.933868408203125,0.2710113525390625
1761380580381044200,1.862044189453125,-1.5541839599609375,-2.2385101318359375,0.49798583984375
1761380580391100200,1.87210009765625,-1.4074554443359375,-2.2605743408203125,0.7209625244140625
1761380580401156000,1.882156005859375,-1.261077880859375,-2.2398529052734375,0.872955322265625
1761380580411211000,1.8922109375,-1.099365234375,-2.143646240234375,0.757904052734375
1761380580421267000,1.902266845703125,-0.929168701171875,-1.9312896728515625,0.40948486328125
1761380580431323100,1.9123232421875,-0.6098785400390625,-1.665740966796875,0.003173828125
1761380580441378800,1.92237890625,-0.3013763427734375,-1.3654937744140625,-0.2611236572265625
1761380580451434000,1.93243408203125,-0.1310272216796875,-1.162994384765625,-0.2943878173828125
1761380580461489700,1.94248974609375,-0.019775390625,-1.1658172607421875,-0.1668853759765625
1761380580471545600,1.952545654296875,0.096343994140625,-1.243560791015625,0.02301025390625
1761380580481600800,1.962600830078125,0.116546630859375,-1.3032379150390625,0.1587371826171875
1761380580491656700,1.97265673828125,0.0159912109375,-1.2981109619140625,0.26116943359375
1761380580501713000,1.982712890625,-0.15997314453125,-1.17803955078125,0.3148193359375
1761380580511768800,1.992768798828125,-0.366424560546875,-1.0416412353515625,0.331207275390625
1761380580521824000,2.002823974609375,-0.420684814453125,-0.946441650390625,0.342315673828125
1761380580531880000,2.0128798828125,-0.350189208984375,-0.819061279296875,0.2925872802734375
1761380580541935600,2.022935546875,-0.263702392578125,-0.67816162109375,0.209014892578125
1761380580551990800,2.03299072265625,-0.1837615966796875,-0.5469512939453125,0.1615753173828125
1761380580562046700,2.043046630859375,-0.1256103515625,-0.41583251953125,0.1458282470703125
1761380580572103000,2.05310302734375,-0.074127197265625,-0.2832794189453125,0.187469482421875
1761380580582158800,2.063158935546875,0.0147705078125,-0.2095489501953125,0.296600341796875
1761380580592213800,2.0732138671875,0.1298675537109375,-0.1696929931640625,0.4474945068359375
1761380580602270000,2.08327001953125,0.2171478271484375,-0.159912109375,0.5931243896484375
1761380580612325600,2.09332568359375,0.306365966796875,-0.161407470703125,0.7142791748046875
1761380580622380800,2.103380859375,0.357757568359375,-0.21533203125,0.75592041015625
1761380580632436700,2.113436767578125,0.336517333984375,-0.307830810546875,0.761566162109375
1761380580642492700,2.12349267578125,0.3111419677734375,-0.371429443359375,0.732635498046875
1761380580652547800,2.1335478515625,0.31475830078125,-0.4178924560546875,0.57904052734375
1761380580662603800,2.143603759765625,0.2259368896484375,-0.3726348876953125,0.4526214599609375
1761380580672660000,2.153659912109375,0.014129638671875,-0.35498046875,0.55230712890625
1761380580682716000,2.1637158203125,-0.130889892578125,-0.4891204833984375,0.615966796875
1761380580692770800,2.173770751953125,-0.246368408203125,-0.69219970703125,0.57135009765625
1761380580702826800,2.18382666015625,-0.3501434326171875,-0.84625244140625,0.5146331787109375
1761380580712882700,2.193882568359375,-0.412628173828125,-0.981231689453125,0.5362548828125
1761380580722937900,2.203937744140625,-0.61395263671875,-1.3390045166015625,0.64190673828125
1761380580732993800,2.213993896484375,-0.8287200927734375,-2.0800018310546875,0.841552734375
1761380580743050000,2.224050048828125,-0.958648681640625,-2.377777099609375,0.7303466796875
1761380580753106000,2.23410595703125,-1.401763916015625,-1.8247833251953125,0.3693695068359375
1761380580763160800,2.244160888671875,-1.4714508056640625,-1.5367584228515625,0.117919921875
1761380580773216800,2.254216796875,-1.31988525390625,-1.7007904052734375,0.069366455078125
1761380580783272700,2.264272705078125,-1.24835205078125,-1.85638427734375,0.11383056640625
1761380580793327900,2.274327880859375,-1.0533905029296875,-1.8385467529296875,0.2008819580078125
1761380580803383800,2.2843837890625,-0.81671142578125,-1.8154144287109375,0.256134033203125
1761380580813439700,2.294439697265625,-0.743865966796875,-1.751190185546875,0.242767333984375
1761380580823496000,2.304495849609375,-0.6773681640625,-1.6577911376953125,0.2089385986328125
1761380580833550600,2.314550537109375,-0.606414794921875,-1.5225372314453125,0.1171417236328125
1761380580843606800,2.324606689453125,-0.534637451171875,-1.3699798583984375,-0.0123748779296875
1761380580853662700,2.334662841796875,-0.37164306640625,-1.2053070068359375,-0.0928955078125
1761380580863718000,2.3447177734375,-0.2009735107421875,-1.0452423095703125,-0.0961761474609375
1761380580873773800,2.35477392578125,-0.0124969482421875,-0.9177093505859375,-0.07635498046875
1761380580883829800,2.364829833984375,0.0938568115234375,-0.7981414794921875,-0.07684326171875
1761380580893885000,2.374885009765625,0.0376129150390625,-0.69549560546875,-0.0656585693359375
1761380580903940600,2.384940673828125,-0.015045166015625,-0.599609375,-0.0384368896484375
1761380580913996800,2.394996826171875,-0.0597686767578125,-0.492218017578125,-0.0725250244140625
1761380580924052700,2.405052734375,-0.117950439453125,-0.36907958984375,-0.1782379150390625
1761380580934108000,2.41510791015625,-0.0968475341796875,-0.197479248046875,-0.3197021484375
1761380580944163800,2.425163818359375,-0.0895538330078125,-0.0391082763671875,-0.4575958251953125
1761380580954219800,2.4352197265625,-0.112884521484375,0.0594024658203125,-0.5514068603515625
1761380580964275000,2.44527490234375,-0.118804931640625,0.1388092041015625,-0.6058349609375
1761380580974331000,2.455330810546875,-0.171234130859375,0.190887451171875,-0.644317626953125
1761380580984386600,2.465386474609375,-0.1847381591796875,0.21722412109375,-0.6521148681640625
1761380580994442800,2.47544287109375,-0.1139068603515625,0.21368408203125,-0.60589599609375
1761380581004497700,2.48549755859375,-0.0584259033203125,0.163421630859375,-0.5819091796875
1761380581014553900,2.495553955078125,-0.02252197265625,0.051513671875,-0.629669189453125
1761380581024609800,2.50560986328125,0.0128326416015625,-0.1170196533203125,-0.7210845947265625
1761380581034665000,2.5156650390625,0.0436248779296875,-0.32928466796875,-0.820556640625
1761380581044721000,2.525720947265625,-0.0968170166015625,-0.5843353271484375,-0.9221343994140625
1761380581054776600,2.535776611328125,-0.3312530517578125,-0.8135833740234375,-0.9237213134765625
1761380581064832800,2.545832763671875,-0.5302276611328125,-1.038421630859375,-0.909576416015625
1761380581074887700,2.5558876953125,-0.6017913818359375,-1.1207427978515625,-0.93511962890625
1761380581084944000,2.56594384765625,-0.7240142822265625,-1.220184326171875,-0.8753814697265625
1761380581094999800,2.575999755859375,-0.827789306640625,-1.7223052978515625,-0.7789154052734375
1761380581105055000,2.586054931640625,-0.91436767578125,-2.4306793212890625,-0.786895751953125
1761380581115111000,2.59611083984375,-1.2071533203125,-2.67864990234375,-0.8720245361328125
1761380581125166800,2.606166748046875,-1.5204925537109375,-2.5240325927734375,-0.7232666015625
1761380581135221800,2.6162216796875,-1.6664276123046875,-2.4476318359375,-0.4135894775390625
1761380581145277700,2.626277587890625,-1.71990966796875,-2.2840423583984375,-0.2340850830078125
1761380581155333600,2.636333740234375,-1.59869384765625,-1.9228973388671875,-0.152801513671875
1761380581165389800,2.646389892578125,-1.2479705810546875,-1.5559844970703125,-0.0240020751953125
1761380581175444700,2.65644482421875,-0.9084625244140625,-1.3882598876953125,0.141387939453125
1761380581185501000,2.6665009765625,-0.67156982421875,-1.3746185302734375,0.2872161865234375
1761380581195556900,2.676556884765625,-0.4326629638671875,-1.324127197265625,0.3860015869140625
1761380581205611800,2.68661181640625,-0.2039642333984375,-1.211151123046875,0.423858642578125
1761380581215667700,2.696667724609375,-0.105926513671875,-1.1064300537109375,0.448333740234375
1761380581225723600,2.7067236328125,-0.035888671875,-0.9962921142578125,0.47381591796875
1761380581235779800,2.71677978515625,-0.0013885498046875,-0.8355712890625,0.4935760498046875
1761380581245834800,2.726834716796875,0.0166473388671875,-0.69183349609375,0.5030517578125
1761380581255891000,2.736890869140625,0.0229034423828125,-0.5797882080078125,0.5032958984375
1761380581265947000,2.74694677734375,-0.00262451171875,-0.503814697265625,0.49755859375
1761380581276001800,2.757001708984375,-0.0038909912109375,-0.4267425537109375,0.4842376708984375
1761380581286057700,2.7670576171875,-0.0152587890625,-0.3301239013671875,0.4788055419921875
1761380581296113700,2.77711376953125,-0.0220184326171875,-0.2400360107421875,0.463409423828125
1761380581306169900,2.787169921875,0.001800537109375,-0.171295166015625,0.4397125244140625
1761380581316224800,2.797224853515625,0.0258331298828125,-0.127410888671875,0.453277587890625
1761380581326281000,2.807281005859375,0.0735015869140625,-0.1485137939453125,0.5044708251953125
1761380581336337000,2.8173369140625,0.12646484375,-0.187469482421875,0.577484130859375
1761380581346391600,2.8273916015625,0.153778076171875,-0.2182769775390625,0.62762451171875
1761380581356447700,2.83744775390625,0.1314239501953125,-0.2385711669921875,0.62933349609375
1761380581366503700,2.847503662109375,0.085968017578125,-0.2567291259765625,0.619964599609375
1761380581376558800,2.857558837890625,0.0676116943359375,-0.285430908203125,0.60247802734375
1761380581386614800,2.86761474609375,0.0870513916015625,-0.3028564453125,0.54730224609375
1761380581396670700,2.877670654296875,0.0793609619140625,-0.3965911865234375,0.479583740234375
1761380581406727000,2.887726806640625,0.0421295166015625,-0.494964599609375,0.48822021484375
1761380581416781800,2.89778173828125,-0.027435302734375,-0.5572357177734375,0.582733154296875
1761380581426837800,2.907837646484375,-0.1385040283203125,-0.6692047119140625,0.6926727294921875
1761380581436893700,2.917893798828125,-0.3093719482421875,-0.78961181640625,0.7509002685546875
1761380581446949000,2.92794921875,-0.46136474609375,-0.9439697265625,0.7744903564453125
1761380581457005000,2.938005126953125,-0.5401153564453125,-1.2188262939453125,0.771575927734375
1761380581467060700,2.948060791015625,-0.6325836181640625,-1.7398681640625,0.6378021240234375
1761380581477117000,2.958116943359375,-0.7263641357421875,-2.1905975341796875,0.2852325439453125
1761380581487171800,2.968171875,-0.852386474609375,-2.22564697265625,-0.11181640625
1761380581497228000,2.97822802734375,-1.0891571044921875,-2.1090087890625,-0.226654052734375
1761380581507284000,2.988283935546875,-1.3219451904296875,-2.0635223388671875,-0.079925537109375
1761380581517339000,2.9983388671875,-1.5223541259765625,-2.104095458984375,0.094818115234375
1761380581527395000,3.00839501953125,-1.60430908203125,-2.0309295654296875,0.2549896240234375
1761380581537450800,3.01845068359375,-1.5934295654296875,-1.9289703369140625,0.3524932861328125
1761380581547506000,3.028505859375,-1.4290313720703125,-1.8538818359375,0.3607940673828125
1761380581557561900,3.038561767578125,-1.17218017578125,-1.7074127197265625,0.267578125
1761380581567617800,3.04861767578125,-0.9145660400390625,-1.5446624755859375,0.1348114013671875
1761380581577674000,3.058674072265625,-0.6126556396484375,-1.43701171875,-0.0229949951171875
1761380581587729000,3.06872900390625,-0.2977752685546875,-1.3145751953125,-0.1634368896484375
1761380581597785000,3.07878515625,-0.1019439697265625,-1.133758544921875,-0.2415008544921875
1761380581607841000,3.088841064453125,-0.014862060546875,-0.939239501953125,-0.291229248046875
1761380581617896000,3.09889599609375,-0.00823974609375,-0.7354888916015625,-0.3457489013671875
1761380581627951900,3.108951904296875,-0.0444183349609375,-0.5343475341796875,-0.3890533447265625
1761380581638007800,3.1190078125,-0.0328216552734375,-0.344573974609375,-0.4195098876953125
1761380581648064000,3.12906396484375,0.0108184814453125,-0.1946563720703125,-0.4660186767578125
1761380581658119000,3.139118896484375,0.0521087646484375,-0.11309814453125,-0.517578125
1761380581668175000,3.149175048828125,0.0281219482421875,-0.06524658203125,-0.5437164306640625
1761380581678231000,3.15923095703125,-0.0010833740234375,0.0240936279296875,-0.5678863525390625
1761380581688286000,3.169285888671875,0.00299072265625,0.1156005859375,-0.632415771484375
1761380581698342000,3.179341796875,0.008331298828125,0.1844635009765625,-0.6871490478515625
1761380581708397800,3.189397705078125,0.0242462158203125,0.205596923828125,-0.715972900390625
1761380581718453800,3.199453857421875,0.0299835205078125,0.222381591796875,-0.737762451171875
1761380581728509000,3.209509033203125,0.070709228515625,0.212615966796875,-0.770172119140625
1761380581738564900,3.21956494140625,0.1587982177734375,0.133880615234375,-0.77447509765625
1761380581748621000,3.22962109375,0.2370452880859375,0.02978515625,-0.74761962890625
1761380581758675700,3.23967578125,0.2242279052734375,-0.0535125732421875,-0.718475341796875
1761380581768732000,3.24973193359375,0.1019287109375,-0.14495849609375,-0.7265625
1761380581778787800,3.259787841796875,-0.0107421875,-0.275909423828125,-0.7835845947265625
1761380581788843000,3.269843017578125,-0.10784912109375,-0.50164794921875,-0.845916748046875
1761380581798899000,3.27989892578125,-0.272308349609375,-0.830352783203125,-0.8592071533203125
1761380581808955000,3.289954833984375,-0.379730224609375,-1.15765380859375,-0.840179443359375
1761380581819011000,3.300010986328125,-0.486358642578125,-1.3111724853515625,-0.8405609130859375
1761380581829065700,3.310065673828125,-0.695281982421875,-1.5139312744140625,-0.7821502685546875
1761380581839122000,3.320121826171875,-0.8706817626953125,-2.054718017578125,-0.6769561767578125
1761380581849177900,3.330177734375,-1.1448516845703125,-2.71026611328125,-0.657073974609375
1761380581859233000,3.34023291015625,-1.51409912109375,-2.8625946044921875,-0.6312255859375
1761380581869289000,3.3502890625,-1.830963134765625,-2.550018310546875,-0.4930877685546875
1761380581879345000,3.360344970703125,-1.8374786376953125,-2.243743896484375,-0.4131622314453125
1761380581889400800,3.37040087890625,-1.702972412109375,-1.9448394775390625,-0.389068603515625
1761380581899456000,3.3804560546875,-1.5384521484375,-1.5746612548828125,-0.3580474853515625
1761380581909511700,3.39051171875,-1.09759521484375,-1.2233123779296875,-0.304656982421875
1761380581919568000,3.40056787109375,-0.8626251220703125,-1.02752685546875,-0.2353973388671875
1761380581929622800,3.410622802734375,-0.8848724365234375,-0.9781494140625,-0.0932159423828125
1761380581939679000,3.420678955078125,-0.9854888916015625,-0.9899139404296875,0.0821685791015625
1761380581949735000,3.43073486328125,-1.1624755859375,-0.948272705078125,0.2523651123046875
1761380581959790800,3.440790771484375,-1.2506561279296875,-0.808746337890625,0.408172607421875
1761380581969846000,3.450845947265625,-1.0326995849609375,-0.6328125,0.5027618408203125
1761380581979901700,3.460901611328125,-0.758758544921875,-0.455169677734375,0.5396881103515625
1761380581989958000,3.4709580078125,-0.5677642822265625,-0.316314697265625,0.5074310302734375
1761380582000012800,3.4810126953125,-0.4683074951171875,-0.2315826416015625,0.41943359375
1761380582010069000,3.491069091796875,-0.3879852294921875,-0.1703643798828125,0.3731842041015625
1761380582020125000,3.501125,-0.345947265625,-0.104827880859375,0.438262939453125
1761380582030180000,3.51118017578125,-0.3721160888671875,-0.097503662109375,0.53692626953125
1761380582040236000,3.521236083984375,-0.411346435546875,-0.1576690673828125,0.63116455078125
1761380582050292000,3.5312919921875,-0.35211181640625,-0.2273712158203125,0.68914794921875
1761380582060348000,3.541347900390625,-0.2179107666015625,-0.2633209228515625,0.724090576171875
1761380582070402800,3.55140283203125,-0.0909576416015625,-0.2237548828125,0.7591094970703125
1761380582080458800,3.561458740234375,-0.0340576171875,-0.1894683837890625,0.7910919189453125
1761380582090515000,3.571514892578125,0.0216827392578125,-0.1830291748046875,0.81427001953125
1761380582100569900,3.58156982421875,0.0934295654296875,-0.166168212890625,0.84320068359375
1761380582110626000,3.5916259765625,0.18280029296875,-0.14508056640625,0.884552001953125
1761380582120682000,3.601681884765625,0.2506256103515625,-0.148590087890625,0.8728485107421875
1761380582130738000,3.611738037109375,0.169677734375,-0.1941986083984375,0.8193359375
1761380582140792800,3.621792724609375,-0.0172576904296875,-0.3319854736328125,0.754669189453125
1761380582150848800,3.631848876953125,-0.1995697021484375,-0.5285186767578125,0.72015380859375
1761380582160905000,3.641905029296875,-0.2797698974609375,-0.6160430908203125,0.7063751220703125
1761380582170960000,3.6519599609375,-0.45074462890625,-0.6069488525390625,0.6437835693359375
1761380582181016000,3.66201611328125,-0.497467041015625,-0.5765228271484375,0.5841217041015625
1761380582191072000,3.672072021484375,-0.321929931640625,-0.576568603515625,0.5272064208984375
1761380582201127000,3.682126953125,-0.543121337890625,-0.9691314697265625,0.4807281494140625
1761380582211182800,3.692182861328125,-0.9979705810546875,-1.8729400634765625,0.4630584716796875
1761380582221238800,3.70223876953125,-1.2059478759765625,-2.651123046875,0.2441253662109375
1761380582231295000,3.712294921875,-1.1601409912109375,-2.593475341796875,-0.1746673583984375
1761380582241350000,3.722349853515625,-1.1494598388671875,-2.2723236083984375,-0.4096221923828125
1761380582251406000,3.732406005859375,-1.28424072265625,-2.1289520263671875,-0.422119140625
1761380582261462000,3.7424619140625,-1.3076171875,-1.9633026123046875,-0.4182891845703125
1761380582271516700,3.7525166015625,-1.145477294921875,-1.7229461669921875,-0.4573822021484375
1761380582281572900,3.76257275390625,-0.90966796875,-1.511749267578125,-0.4662933349609375
1761380582291628800,3.77262890625,-0.64593505859375,-1.3848724365234375,-0.4573516845703125
1761380582301684700,3.782684814453125,-0.326446533203125,-1.34259033203125,-0.440673828125
1761380582311740000,3.792739990234375,-0.07080078125,-1.3243255615234375,-0.450225830078125
1761380582321795800,3.8027958984375,0.005462646484375,-1.2585296630859375,-0.4873199462890625
1761380582331852000,3.81285205078125,0.01300048828125,-1.1949615478515625,-0.48663330078125
1761380582341907000,3.822906982421875,-0.03704833984375,-1.123046875,-0.45977783203125
1761380582351963000,3.832962890625,-0.1215972900390625,-0.9685516357421875,-0.4425201416015625
1761380582362018800,3.843018798828125,-0.204620361328125,-0.781341552734375,-0.4349822998046875
1761380582372074000,3.853073974609375,-0.2581787109375,-0.6217498779296875,-0.4296722412109375
1761380582382130000,3.8631298828125,-0.1962127685546875,-0.492584228515625,-0.4352874755859375
1761380582392185900,3.873185791015625,-0.0680999755859375,-0.39434814453125,-0.4356842041015625
1761380582402242000,3.883241943359375,0.03118896484375,-0.343109130859375,-0.422332763671875
1761380582412297000,3.893296875,0.0347747802734375,-0.3142242431640625,-0.384918212890625
1761380582422353000,3.903352783203125,-0.058258056640625,-0.3228302001953125,-0.3134918212890625
1761380582432408800,3.913408935546875,-0.176483154296875,-0.3526153564453125,-0.248931884765625
1761380582442467300,3.92346728515625,-0.2638397216796875,-0.3136138916015625,-0.202178955078125
1761380582452523500,3.9335234375,-0.2513427734375,-0.208648681640625,-0.2491912841796875
1761380582462579500,3.943579345703125,-0.136932373046875,-0.1152801513671875,-0.400238037109375
1761380582472635400,3.953635498046875,0.086669921875,-0.0703887939453125,-0.5975341796875
1761380582482690600,3.963690673828125,0.2281646728515625,-0.0241851806640625,-0.7819976806640625
1761380582492746500,3.97374658203125,0.1575927734375,0.0091094970703125,-0.88134765625
1761380582502802700,3.983802734375,0.05340576171875,0.006927490234375,-0.89739990234375
1761380582512857300,3.993857421875,0.032501220703125,-0.03094482421875,-0.894256591796875
1761380582522910700,4.00391064453125,0.0012969970703125,-0.1724853515625,-0.9034576416015625
1761380582532966700,4.013966552734375,-0.0807952880859375,-0.3280792236328125,-0.8506927490234375
1761380582543022600,4.024022705078125,-0.110198974609375,-0.4830322265625,-0.8111419677734375
1761380582553077500,4.034077392578125,-0.2012176513671875,-0.6436614990234375,-0.74725341796875
1761380582563133400,4.044133544921875,-0.4860992431640625,-1.00799560546875,-0.5248565673828125
1761380582573189400,4.054189453125,-0.7323455810546875,-1.69476318359375,-0.3596343994140625
1761380582583244500,4.06424462890625,-1.00360107421875,-2.415771484375,-0.4020843505859375
1761380582593300500,4.074300537109375,-1.172332763671875,-2.6655731201171875,-0.5374298095703125
1761380582603356700,4.084356689453125,-1.377777099609375,-2.470062255859375,-0.5249786376953125
1761380582613411300,4.094411376953125,-1.73114013671875,-2.200836181640625,-0.3547210693359375
1761380582623467500,4.104467529296875,-1.819366455078125,-1.955535888671875,-0.2449188232421875
1761380582633523500,4.1145234375,-1.579345703125,-1.726409912109375,-0.224273681640625
1761380582643579400,4.124579345703125,-1.1674957275390625,-1.4920196533203125,-0.1505584716796875
1761380582653634600,4.134634521484375,-0.86138916015625,-1.36376953125,-0.0025634765625
1761380582663690500,4.1446904296875,-0.721038818359375,-1.38140869140625,0.123291015625
1761380582673746700,4.15474658203125,-0.5830841064453125,-1.3714447021484375,0.1973876953125
1761380582683801600,4.164801513671875,-0.4020843505859375,-1.287628173828125,0.2293548583984375
1761380582693857500,4.174857421875,-0.2621917724609375,-1.177642822265625,0.26715087890625
1761380582703913500,4.18491357421875,-0.1865692138671875,-1.0770263671875,0.313995361328125
1761380582713969400,4.194969482421875,-0.1319580078125,-0.978485107421875,0.361358642578125
1761380582724024600,4.205024658203125,-0.08990478515625,-0.8731842041015625,0.369171142578125
1761380582734080500,4.21508056640625,-0.0309906005859375,-0.7549896240234375,0.3449249267578125
1761380582744136400,4.225136474609375,-0.02203369140625,-0.62139892578125,0.2870330810546875
1761380582754191600,4.235191650390625,-0.06976318359375,-0.5050201416015625,0.197265625
1761380582764247300,4.245247314453125,-0.080780029296875,-0.4119873046875,0.1104583740234375
1761380582774303500,4.255303466796875,-0.1060028076171875,-0.3202972412109375,0.0918121337890625
1761380582784358400,4.2653583984375,-0.17913818359375,-0.2405242919921875,0.1778411865234375
1761380582794414600,4.27541455078125,-0.244720458984375,-0.2098388671875,0.34344482421875
1761380582804470500,4.285470458984375,-0.2864837646484375,-0.2586517333984375,0.532562255859375
1761380582814526500,4.2955263671875,-0.2918701171875,-0.3343353271484375,0.6733551025390625
1761380582824581600,4.30558154296875,-0.262969970703125,-0.3703460693359375,0.7348785400390625
1761380582834637600,4.315637451171875,-0.189453125,-0.3655242919921875,0.75347900390625
1761380582844693500,4.325693603515625,-0.0676422119140625,-0.395172119140625,0.7278900146484375
1761380582854748400,4.33574853515625,0.1217041015625,-0.4295654296875,0.683074951171875
1761380582864804600,4.3458046875,0.294891357421875,-0.4170074462890625,0.63531494140625
1761380582874860500,4.355860595703125,0.3573760986328125,-0.386871337890625,0.5838470458984375
1761380582884916500,4.36591650390625,0.2893829345703125,-0.416015625,0.5643463134765625
1761380582894971600,4.3759716796875,0.1279754638671875,-0.52618408203125,0.5665435791015625
1761380582905027600,4.386027587890625,-0.11334228515625,-0.633270263671875,0.559234619140625
1761380582915083500,4.39608349609375,-0.3569793701171875,-0.7224884033203125,0.5679779052734375
1761380582925138400,4.406138427734375,-0.558441162109375,-0.8318328857421875,0.5691986083984375
1761380582935195400,4.4161953125,-0.5691986083984375,-0.8890228271484375,0.55841064453125
1761380582945251600,4.42625146484375,-0.4790496826171875,-0.9622039794921875,0.5718841552734375
1761380582955306500,4.436306396484375,-0.6498260498046875,-1.3861846923828125,0.60699462890625
1761380582965362400,4.446362548828125,-0.8322906494140625,-2.0843505859375,0.64630126953125
1761380582975418600,4.456418701171875,-0.7571258544921875,-2.412933349609375,0.4676055908203125
1761380582985474600,4.466474609375,-0.8061370849609375,-2.22467041015625,0.1131591796875
1761380582995529700,4.47652978515625,-0.8510284423828125,-2.0474700927734375,-0.049560546875
1761380583005585400,4.48658544921875,-1.0877227783203125,-1.9789581298828125,-0.1045074462890625
1761380583015641300,4.496641357421875,-1.30523681640625,-1.8294219970703125,-0.101898193359375
1761380583025696500,4.506696533203125,-1.2734222412109375,-1.6865997314453125,-0.118377685546875
1761380583035752400,4.51675244140625,-1.12969970703125,-1.572998046875,-0.2071533203125
1761380583045808600,4.52680859375,-0.964996337890625,-1.416961669921875,-0.2526397705078125
1761380583055864600,4.536864501953125,-0.77423095703125,-1.2828369140625,-0.2132110595703125
1761380583065919700,4.546919677734375,-0.5641632080078125,-1.230865478515625,-0.19207763671875
1761380583075975400,4.556975341796875,-0.406341552734375,-1.2185211181640625,-0.1901092529296875
1761380583086031400,4.56703125,-0.40252685546875,-1.1589813232421875,-0.1298980712890625
1761380583096086500,4.57708642578125,-0.4286651611328125,-1.0596466064453125,-0.066925048828125
1761380583106142500,4.587142578125,-0.4516143798828125,-0.9410552978515625,-0.0653533935546875
1761380583116198700,4.59719873046875,-0.459320068359375,-0.771942138671875,-0.124176025390625
1761380583126254600,4.607254638671875,-0.4119720458984375,-0.5803375244140625,-0.2310791015625
1761380583136309500,4.6173095703125,-0.333465576171875,-0.4002838134765625,-0.3533477783203125
1761380583146365700,4.62736572265625,-0.2563934326171875,-0.2235565185546875,-0.468536376953125
1761380583156421400,4.63742138671875,-0.1814117431640625,-0.0687713623046875,-0.542572021484375
1761380583166476500,4.6474765625,-0.16497802734375,0.00006103515625,-0.565399169921875
1761380583176532500,4.657532470703125,-0.20794677734375,-0.005401611328125,-0.5433197021484375
1761380583186588400,4.66758837890625,-0.17730712890625,-0.0109710693359375,-0.517791748046875
1761380583196643600,4.6776435546875,-0.0978546142578125,-0.012664794921875,-0.5303192138671875
1761380583206699500,4.687699462890625,-0.0006256103515625,-0.0206451416015625,-0.5609893798828125
1761380583216755700,4.697755615234375,0.0685272216796875,-0.03643798828125,-0.57012939453125
1761380583226811600,4.707811767578125,0.10235595703125,-0.072357177734375,-0.5430450439453125
1761380583236866600,4.717866455078125,0.10498046875,-0.1270599365234375,-0.503021240234375
1761380583246922500,4.727922607421875,0.102783203125,-0.185211181640625,-0.4933624267578125
1761380583256978400,4.737978515625,0.037384033203125,-0.2274017333984375,-0.5403289794921875
1761380583267033600,4.74803369140625,-0.025970458984375,-0.2863616943359375,-0.6151885986328125
1761380583277089500,4.758089599609375,-0.0597991943359375,-0.3671875,-0.681243896484375
1761380583287145700,4.768145751953125,-0.1107940673828125,-0.49798583984375,-0.7340087890625
1761380583297201700,4.77820166015625,-0.1416778564453125,-0.666717529296875,-0.763580322265625
1761380583307256600,4.788256591796875,-0.176513671875,-0.830047607421875,-0.7537689208984375
1761380583317312500,4.7983125,-0.4461669921875,-0.969268798828125,-0.6568603515625
1761380583327368400,4.808368408203125,-0.8775634765625,-1.25225830078125,-0.4768829345703125
1761380583337423600,4.818423583984375,-1.1583709716796875,-1.8102569580078125,-0.37371826171875
1761380583347479600,4.8284794921875,-1.194732666015625,-2.237548828125,-0.548675537109375
1761380583357535500,4.838535400390625,-1.3800811767578125,-2.2435150146484375,-0.8524017333984375
1761380583367591700,4.848591796875,-1.7705535888671875,-1.957489013671875,-0.7433013916015625
1761380583377646300,4.858646240234375,-1.94464111328125,-1.778045654296875,-0.460723876953125
1761380583387702500,4.86870263671875,-2.00579833984375,-1.689239501953125,-0.2847137451171875
1761380583397758500,4.878758544921875,-2.009307861328125,-1.5070037841796875,-0.205596923828125
1761380583407813600,4.888813720703125,-1.7257843017578125,-1.2574615478515625,-0.1147613525390625
1761380583417869600,4.89886962890625,-1.455657958984375,-1.1082305908203125,0.01397705078125
1761380583427925500,4.908925537109375,-1.3409423828125,-1.0570526123046875,0.099517822265625
1761380583437981700,4.918981689453125,-1.1363677978515625,-1.014190673828125,0.1886444091796875
1761380583448033300,4.929033203125,-0.8909759521484375,-0.989776611328125,0.2633209228515625
1761380583458089500,4.93908935546875,-0.7020416259765625,-0.953216552734375,0.309783935546875
1761380583468145200,4.949145263671875,-0.4796600341796875,-0.8205108642578125,0.3362274169921875
1761380583478200300,4.959200439453125,-0.3345947265625,-0.7189178466796875,0.30914306640625
1761380583488256300,4.96925634765625,-0.1616363525390625,-0.6476593017578125,0.3579254150390625
1761380583498312200,4.979312255859375,0.0552215576171875,-0.5319671630859375,0.363006591796875
1761380583508367400,4.989367431640625,0.1858673095703125,-0.4026336669921875,0.3304595947265625
1761380583518423300,4.99942333984375,0.2857666015625,-0.2810821533203125,0.3274078369140625
1761380583528479200,5.009479248046875,0.2989044189453125,-0.211212158203125,0.365142822265625
1761380583538535400,5.019535400390625,0.2525634765625,-0.1554718017578125,0.42657470703125
1761380583548590000,5.029590087890625,0.1768646240234375,-0.1167755126953125,0.4833526611328125
1761380583558646300,5.039646240234375,0.04730224609375,-0.1235504150390625,0.5188751220703125
1761380583568702200,5.0497021484375,-0.08282470703125,-0.1511383056640625,0.5623779296875
1761380583578757400,5.05975732421875,-0.1788482666015625,-0.176910400390625,0.6157989501953125
1761380583588813300,5.069813232421875,-0.238616943359375,-0.208709716796875,0.6660614013671875
1761380583598869200,5.079869140625,-0.2876129150390625,-0.2309417724609375,0.70404052734375
1761380583608925400,5.089925537109375,-0.2975006103515625,-0.254974365234375,0.7262115478515625
1761380583618980000,5.09997998046875,-0.2825775146484375,-0.2628936767578125,0.7122650146484375
1761380583629036300,5.110036376953125,-0.2635650634765625,-0.292449951171875,0.6622314453125
1761380583639092200,5.12009228515625,-0.27130126953125,-0.3452911376953125,0.6433258056640625
1761380583649147400,5.1301474609375,-0.3647308349609375,-0.439239501953125,0.6436767578125
1761380583659203300,5.140203369140625,-0.4652099609375,-0.6062469482421875,0.5785675048828125
1761380583669259300,5.15025927734375,-0.5215911865234375,-0.7892913818359375,0.502166748046875
1761380583679315500,5.1603154296875,-0.5172882080078125,-0.9415740966796875,0.447479248046875
1761380583689370000,5.1703701171875,-0.5184326171875,-1.1920318603515625,0.363525390625
1761380583699426000,5.180426025390625,-0.6723785400390625,-1.551849365234375,0.2796783447265625
1761380583709482200,5.190482177734375,-0.90374755859375,-1.847869873046875,0.2202606201171875
1761380583719537200,5.200537109375,-0.976409912109375,-1.9327850341796875,0.1385345458984375
1761380583729593300,5.21059326171875,-1.09417724609375,-1.7498779296875,-0.073638916015625
1761380583739649300,5.220649169921875,-1.21624755859375,-1.477935791015625,-0.1947479248046875
1761380583749705200,5.230705322265625,-1.269622802734375,-1.424774169921875,-0.177947998046875
1761380583759760100,5.240760009765625,-1.346343994140625,-1.4570770263671875,-0.1136016845703125
1761380583769816000,5.250816162109375,-1.30419921875,-1.385833740234375,0.00048828125
1761380583779872300,5.260872314453125,-1.1823883056640625,-1.317901611328125,0.110748291015625
1761380583789927200,5.27092724609375,-1.02984619140625,-1.3334197998046875,0.1051025390625
1761380583799983400,5.2809833984375,-0.8200531005859375,-1.3514556884765625,0.0374603271484375
1761380583810039300,5.291039306640625,-0.594085693359375,-1.32293701171875,-0.0353851318359375
1761380583820095200,5.30109521484375,-0.4704437255859375,-1.2465972900390625,-0.10113525390625
1761380583830150100,5.311150146484375,-0.4449920654296875,-1.173583984375,-0.1472930908203125
1761380583840206000,5.3212060546875,-0.5032501220703125,-1.0773773193359375,-0.19580078125
1761380583850262300,5.33126220703125,-0.5489349365234375,-0.921173095703125,-0.24005126953125
1761380583860317200,5.341317138671875,-0.5272674560546875,-0.78326416015625,-0.2994842529296875
1761380583870373400,5.351373291015625,-0.4041290283203125,-0.630767822265625,-0.392425537109375
1761380583880429300,5.36142919921875,-0.3094482421875,-0.46539306640625,-0.5064239501953125
1761380583890485200,5.3714853515625,-0.176971435546875,-0.300628662109375,-0.5870361328125
1761380583900540400,5.38154052734375,-0.0587310791015625,-0.1729278564453125,-0.619537353515625
1761380583910596000,5.39159619140625,-0.035400390625,-0.1473846435546875,-0.6193084716796875
1761380583920652000,5.401652099609375,-0.0414886474609375,-0.210205078125,-0.5901641845703125
1761380583930707200,5.411707275390625,-0.0528564453125,-0.280975341796875,-0.56072998046875
1761380583940763100,5.42176318359375,0.01226806640625,-0.3306732177734375,-0.57183837890625
1761380583950819300,5.4318193359375,0.13458251953125,-0.3499603271484375,-0.61187744140625
1761380583960875300,5.441875244140625,0.201873779296875,-0.301116943359375,-0.6399688720703125
1761380583970930400,5.451930419921875,0.1620330810546875,-0.221923828125,-0.64739990234375
1761380583980986400,5.461986328125,0.0644989013671875,-0.1734466552734375,-0.6625213623046875
1761380583991042000,5.4720419921875,-0.025115966796875,-0.149200439453125,-0.6933135986328125
1761380584001097200,5.48209716796875,-0.084747314453125,-0.176971435546875,-0.754180908203125
1761380584011153200,5.492153076171875,-0.156494140625,-0.2578582763671875,-0.8328399658203125
1761380584021209300,5.502209228515625,-0.2152862548828125,-0.3961181640625,-0.9155731201171875
1761380584031265300,5.512265380859375,-0.3446044921875,-0.5497283935546875,-0.9436798095703125
1761380584041320400,5.522320556640625,-0.5062255859375,-0.69415283203125,-0.9031524658203125
1761380584051376400,5.53237646484375,-0.524993896484375,-0.823577880859375,-0.84027099609375
1761380584061432000,5.54243212890625,-0.5149688720703125,-0.813629150390625,-0.7660064697265625
1761380584071487200,5.5524873046875,-0.892181396484375,-0.819610595703125,-0.5684814453125
1761380584081543200,5.562543212890625,-1.3069915771484375,-1.180938720703125,-0.251800537109375
1761380584091599000,5.57259912109375,-1.653167724609375,-1.946624755859375,-0.07269287109375
1761380584101655300,5.5826552734375,-1.89697265625,-2.424102783203125,-0.2197723388671875
1761380584111710200,5.592710205078125,-1.9912261962890625,-2.13055419921875,-0.3490447998046875
1761380584121766400,5.602766357421875,-1.902557373046875,-1.7812347412109375,-0.3329620361328125
1761380584131822300,5.612822265625,-1.7540130615234375,-1.69683837890625,-0.3438262939453125
1761380584141877200,5.622877197265625,-1.4664154052734375,-1.483612060546875,-0.349456787109375
1761380584151933200,5.63293310546875,-1.1439056396484375,-1.1620941162109375,-0.3394012451171875
1761380584161989000,5.642989013671875,-0.8576812744140625,-0.947113037109375,-0.2154541015625
1761380584172045300,5.65304541015625,-0.672454833984375,-0.9440460205078125,-0.0276031494140625
1761380584182100200,5.663100341796875,-0.5528564453125,-1.0114898681640625,0.1652069091796875
1761380584192156400,5.673156494140625,-0.4599151611328125,-1.0333709716796875,0.3470611572265625
1761380584202212400,5.68321240234375,-0.38543701171875,-1.041015625,0.4955902099609375
1761380584212267300,5.693267333984375,-0.32672119140625,-1.0482635498046875,0.616790771484375
1761380584222323200,5.7033232421875,-0.245849609375,-1.0278472900390625,0.6844329833984375
1761380584232379100,5.713379150390625,-0.1789398193359375,-0.93194580078125,0.689697265625
1761380584242434300,5.723434326171875,-0.15643310546875,-0.7911529541015625,0.6922149658203125
1761380584252490200,5.733490234375,-0.1019287109375,-0.6663360595703125,0.6812591552734375
1761380584262546200,5.743546142578125,-0.0470733642578125,-0.577545166015625,0.6327362060546875
1761380584272602400,5.753602294921875,0.025543212890625,-0.460357666015625,0.5816650390625
1761380584282657000,5.763656982421875,0.0760650634765625,-0.3448486328125,0.5466461181640625
1761380584292713200,5.773713134765625,0.1200408935546875,-0.2631378173828125,0.556640625
1761380584302769200,5.78376904296875,0.1370391845703125,-0.2397003173828125,0.610260009765625
1761380584312825000,5.7938251953125,0.1285400390625,-0.2861480712890625,0.68878173828125
1761380584322880300,5.80388037109375,0.0970611572265625,-0.3538970947265625,0.7767181396484375
1761380584332936200,5.813936279296875,0.0669097900390625,-0.39556884765625,0.833038330078125
1761380584342992400,5.823992431640625,0.0296478271484375,-0.39874267578125,0.8459930419921875
1761380584353047000,5.834047119140625,0.0109100341796875,-0.3800201416015625,0.825836181640625
1761380584363103200,5.844103271484375,0.0368499755859375,-0.3591156005859375,0.7647247314453125
1761380584373159200,5.8541591796875,0.1036376953125,-0.3406524658203125,0.6838226318359375
1761380584383215000,5.864215087890625,0.1331634521484375,-0.3510894775390625,0.5871429443359375
1761380584393270300,5.874270263671875,0.035980224609375,-0.3945159912109375,0.5155487060546875
1761380584403326200,5.884326171875,-0.0866546630859375,-0.468597412109375,0.49322509765625
1761380584413382400,5.89438232421875,-0.27752685546875,-0.6190032958984375,0.494842529296875
1761380584423437300,5.904437255859375,-0.493896484375,-0.8113555908203125,0.474578857421875
1761380584433493200,5.9144931640625,-0.5771942138671875,-0.9398956298828125,0.419708251953125
1761380584443549200,5.924549072265625,-0.5630645751953125,-1.05133056640625,0.348907470703125
1761380584453604900,5.93460498046875,-0.5383148193359375,-1.3252410888671875,0.2708587646484375
1761380584463659800,5.94465966796875,-0.66278076171875,-1.79595947265625,0.237060546875
1761380584473715700,5.9547158203125,-0.7334747314453125,-2.1672210693359375,0.3224945068359375
1761380584483772000,5.96477197265625,-0.791900634765625,-2.16748046875,0.31427001953125
1761380584493826800,5.974826904296875,-1.0793304443359375,-1.9352569580078125,0.172149658203125
1761380584503883000,5.984883056640625,-1.2912139892578125,-1.750335693359375,0.047637939453125
1761380584513939000,5.99493896484375,-1.3304290771484375,-1.61749267578125,-0.04290771484375
1761380584523993900,6.004993896484375,-1.333404541015625,-1.5150909423828125,-0.114410400390625
1761380584534049800,6.0150498046875,-1.2229156494140625,-1.384765625,-0.129852294921875
1761380584544105700,6.025105712890625,-1.0611572265625,-1.2811431884765625,-0.1049346923828125
1761380584554161700,6.03516162109375,-0.896270751953125,-1.271514892578125,-0.0914459228515625
1761380584564216800,6.045216796875,-0.687957763671875,-1.250244140625,-0.074859619140625
1761380584574272800,6.055272705078125,-0.5001678466796875,-1.2129974365234375,-0.0825958251953125
1761380584584329000,6.065328857421875,-0.4100799560546875,-1.2045745849609375,-0.0727691650390625
1761380584594385000,6.075385009765625,-0.4012908935546875,-1.19964599609375,-0.0052642822265625
1761380584604440000,6.085440185546875,-0.443878173828125,-1.138885498046875,0.0741729736328125
1761380584614495700,6.095495849609375,-0.5509490966796875,-1.0304412841796875,0.0803375244140625
1761380584624551700,6.1055517578125,-0.662841796875,-0.9016265869140625,0.014678955078125
1761380584634606800,6.11560693359375,-0.7063446044921875,-0.7085113525390625,-0.1381988525390625
1761380584644662800,6.125662841796875,-0.707305908203125,-0.4342041015625,-0.3683319091796875
1761380584654719000,6.135718994140625,-0.706939697265625,-0.1327972412109375,-0.5875091552734375
1761380584664775000,6.14577490234375,-0.65093994140625,0.0778045654296875,-0.75213623046875
1761380584674830000,6.155830078125,-0.557159423828125,0.1829833984375,-0.8123321533203125
1761380584684886000,6.165885986328125,-0.4658966064453125,0.2057342529296875,-0.811798095703125
1761380584694941700,6.175941650390625,-0.423736572265625,0.16229248046875,-0.8078155517578125
1761380584704996900,6.185996826171875,-0.304962158203125,0.08111572265625,-0.8233795166015625
1761380584715052800,6.196052734375,-0.0660247802734375,-0.02093505859375,-0.917877197265625
1761380584725108700,6.206108642578125,0.09222412109375,-0.1219329833984375,-1.0051422119140625
1761380584735165000,6.2161650390625,0.2401123046875,-0.1846466064453125,-1.0465240478515625
1761380584745219800,6.2262197265625,0.3349761962890625,-0.1842498779296875,-1.0226898193359375
1761380584755276000,6.236276123046875,0.2659149169921875,-0.2040863037109375,-0.940673828125
1761380584765332000,6.24633203125,0.084625244140625,-0.2591705322265625,-0.8213043212890625
1761380584775387000,6.256386962890625,-0.0407867431640625,-0.3331146240234375,-0.67535400390625
1761380584785442800,6.26644287109375,-0.2069549560546875,-0.469024658203125,-0.5658721923828125
1761380584795498800,6.276498779296875,-0.268310546875,-0.569000244140625,-0.50653076171875
1761380584805555000,6.286554931640625,-0.2297515869140625,-0.6416778564453125,-0.5746612548828125
1761380584815609900,6.29660986328125,-0.3820037841796875,-0.7853851318359375,-0.6624298095703125
1761380584825666000,6.306666015625,-0.61553955078125,-1.052154541015625,-0.619842529296875
1761380584835722000,6.316721923828125,-0.828643798828125,-1.5209808349609375,-0.46826171875
1761380584845777000,6.32677685546875,-1.1685943603515625,-2.0576629638671875,-0.3404693603515625
1761380584855832800,6.336832763671875,-1.416748046875,-2.1238861083984375,-0.180877685546875
1761380584865888800,6.346888671875,-1.5531158447265625,-1.8564910888671875,-0.010162353515625
1761380584875945000,6.356945068359375,-1.4994659423828125,-1.725189208984375,0.0490570068359375
1761380584885999900,6.366999755859375,-1.337554931640625,-1.6396026611328125,0.0679779052734375
1761380584896056000,6.37705615234375,-1.216033935546875,-1.5074615478515625,0.0807037353515625
1761380584906112000,6.387112060546875,-1.014923095703125,-1.4014892578125,0.097930908203125
1761380584916166700,6.397166748046875,-0.8214111328125,-1.3404693603515625,0.116241455078125
1761380584926222800,6.407222900390625,-0.662689208984375,-1.276336669921875,0.162200927734375
1761380584936278800,6.41727880859375,-0.516082763671875,-1.2222137451171875,0.2300872802734375
1761380584946334700,6.427334716796875,-0.4176177978515625,-1.1908721923828125,0.305023193359375
1761380584956390000,6.437389892578125,-0.34478759765625,-1.131134033203125,0.384246826171875
1761380584966445800,6.44744580078125,-0.3814849853515625,-1.0447235107421875,0.439453125
1761380584976502000,6.457501953125,-0.4067230224609375,-0.9639129638671875,0.4955902099609375
1761380584986556700,6.467556640625,-0.253814697265625,-0.83905029296875,0.4226531982421875
1761380584996612900,6.47761279296875,-0.068511962890625,-0.7176666259765625,0.3192596435546875
1761380585006668800,6.487668701171875,0.0244293212890625,-0.6007843017578125,0.2673492431640625
1761380585016724700,6.497724853515625,0.0301971435546875,-0.4744720458984375,0.26312255859375
1761380585026780000,6.50777978515625,-0.00701904296875,-0.3628082275390625,0.2793426513671875
1761380585036835800,6.5178359375,0.0096893310546875,-0.2732696533203125,0.3255615234375
1761380585046892000,6.52789208984375,0.0131072998046875,-0.2292327880859375,0.402008056640625
1761380585056946700,6.53794677734375,-0.0214385986328125,-0.242645263671875,0.500732421875
1761380585067003000,6.5480029296875,-0.055755615234375,-0.281585693359375,0.59161376953125
1761380585077058800,6.558058837890625,-0.074188232421875,-0.3096771240234375,0.663543701171875
1761380585087114800,6.56811474609375,-0.0926666259765625,-0.303863525390625,0.7401123046875
1761380585097170000,6.578169921875,-0.1116790771484375,-0.303466796875,0.796966552734375
1761380585107225900,6.588225830078125,-0.0856781005859375,-0.37286376953125,0.857452392578125
1761380585117281800,6.59828173828125,-0.097076416015625,-0.4982147216796875,0.9019775390625
1761380585127338000,6.608337890625,-0.21624755859375,-0.5817413330078125,0.9029693603515625
1761380585137392600,6.618392578125,-0.4359588623046875,-0.6067047119140625,0.8756561279296875
1761380585147448800,6.62844873046875,-0.669219970703125,-0.648101806640625,0.833282470703125
1761380585157504800,6.6385048828125,-0.858642578125,-0.6997833251953125,0.7944793701171875
1761380585167560000,6.648559814453125,-0.9933624267578125,-0.816558837890625,0.7528839111328125
1761380585177616000,6.658615966796875,-0.8830108642578125,-1.01153564453125,0.6390380859375
1761380585187671800,6.668671875,-0.7015228271484375,-1.1333770751953125,0.49200439453125
1761380585197728000,6.67872802734375,-0.711456298828125,-1.1680450439453125,0.3341064453125
1761380585207783000,6.688782958984375,-0.9010772705078125,-1.3638153076171875,0.2392578125
1761380585217838800,6.6988388671875,-1.124786376953125,-1.6859588623046875,0.1626739501953125
1761380585227894800,6.708894775390625,-1.29010009765625,-1.6948394775390625,-0.056121826171875
1761380585237950000,6.718949951171875,-1.3253021240234375,-1.4393463134765625,-0.320404052734375
1761380585248006000,6.729005859375,-1.404541015625,-1.279449462890625,-0.50152587890625
1761380585258061800,6.739061767578125,-1.486175537109375,-1.1657257080078125,-0.582427978515625
1761380585268118000,6.749117919921875,-1.4416961669921875,-1.0450286865234375,-0.645599365234375
1761380585278173000,6.7591728515625,-1.2970428466796875,-0.9250030517578125,-0.6696319580078125
1761380585288228900,6.769228759765625,-1.145751953125,-0.891021728515625,-0.6647491455078125
1761380585298284800,6.779284912109375,-0.967376708984375,-0.870269775390625,-0.602325439453125
1761380585308339700,6.789339599609375,-0.85272216796875,-0.8749542236328125,-0.5124664306640625
1761380585318396000,6.79939599609375,-0.7411346435546875,-0.9271392822265625,-0.449371337890625
1761380585328451800,6.809451904296875,-0.604736328125,-0.9583282470703125,-0.4166259765625
1761380585338507800,6.8195078125,-0.5610504150390625,-0.9189605712890625,-0.395050048828125
1761380585348563000,6.82956298828125,-0.5090789794921875,-0.844970703125,-0.381561279296875
1761380585358619000,6.839618896484375,-0.3878326416015625,-0.744537353515625,-0.40606689453125
1761380585368674800,6.8496748046875,-0.2596435546875,-0.597015380859375,-0.461090087890625
1761380585378729700,6.859729736328125,-0.207244873046875,-0.4332122802734375,-0.5255279541015625
1761380585388786000,6.869785888671875,-0.206512451171875,-0.2886810302734375,-0.5836029052734375
1761380585398841900,6.879841796875,-0.20751953125,-0.174072265625,-0.6285400390625
1761380585408897800,6.889897705078125,-0.1969146728515625,-0.0987091064453125,-0.6309967041015625
1761380585418953000,6.899952880859375,-0.170684814453125,-0.0785980224609375,-0.5809173583984375
1761380585429009000,6.9100087890625,-0.1847076416015625,-0.12353515625,-0.506988525390625
1761380585439065000,6.920065185546875,-0.209320068359375,-0.18841552734375,-0.4386444091796875
1761380585449121000,6.93012109375,-0.2587432861328125,-0.212738037109375,-0.4083404541015625
1761380585459176000,6.940176025390625,-0.275543212890625,-0.2035064697265625,-0.4261474609375
1761380585469232000,6.950232177734375,-0.2399749755859375,-0.184295654296875,-0.4587860107421875
1761380585479288000,6.9602880859375,-0.1533660888671875,-0.133941650390625,-0.4859161376953125
1761380585489343000,6.970343017578125,-0.080963134765625,-0.0897674560546875,-0.5159149169921875
1761380585499399000,6.98039892578125,-0.0399322509765625,-0.104644775390625,-0.542755126953125
1761380585509454800,6.990454833984375,-0.102691650390625,-0.210479736328125,-0.53961181640625
1761380585519511000,7.000510986328125,-0.23260498046875,-0.3932952880859375,-0.51239013671875
1761380585529566000,7.01056591796875,-0.422332763671875,-0.576080322265625,-0.47930908203125
1761380585539622100,7.0206220703125,-0.670867919921875,-0.740692138671875,-0.4222869873046875
1761380585549678000,7.030677978515625,-0.7135162353515625,-0.918060302734375,-0.3650360107421875
1761380585559733000,7.04073291015625,-0.6441650390625,-0.973052978515625,-0.30352783203125
1761380585569789000,7.050788818359375,-0.82196044921875,-1.0556640625,-0.2902679443359375
1761380585579844900,7.060844970703125,-1.1734466552734375,-1.345184326171875,-0.320404052734375
1761380585589901000,7.070901123046875,-1.561492919921875,-1.758880615234375,-0.3423614501953125
1761380585599956000,7.0809560546875,-1.611419677734375,-1.9080047607421875,-0.14215087890625
1761380585610012200,7.09101220703125,-1.6453857421875,-1.8644866943359375,0.10186767578125
1761380585620068000,7.101068115234375,-1.7153778076171875,-1.75457763671875,0.1621246337890625
1761380585630124000,7.1111240234375,-1.575469970703125,-1.5453033447265625,0.131500244140625
1761380585640179000,7.121178955078125,-1.414306640625,-1.3696136474609375,0.0598297119140625
1761380585650235000,7.13123486328125,-1.2238006591796875,-1.212615966796875,0.0013275146484375
1761380585660291000,7.141291015625,-1.0295257568359375,-1.0894317626953125,-0.024078369140625
1761380585670346000,7.151345947265625,-0.842803955078125,-1.031951904296875,0.001068115234375
1761380585680402000,7.16140185546875,-0.7057952880859375,-1.011260986328125,0.0505828857421875
1761380585690458000,7.1714580078125,-0.63299560546875,-0.9968719482421875,0.095428466796875
1761380585700514000,7.18151416015625,-0.54718017578125,-0.9843292236328125,0.1213226318359375
1761380585710569000,7.19156884765625,-0.451324462890625,-0.9572296142578125,0.1277008056640625
1761380585720625000,7.201625,-0.392486572265625,-0.8926544189453125,0.117584228515625
1761380585730680800,7.211680908203125,-0.373748779296875,-0.805206298828125,0.11541748046875
1761380585740736000,7.221736083984375,-0.382598876953125,-0.710662841796875,0.1159820556640625
1761380585750792000,7.2317919921875,-0.38720703125,-0.5990142822265625,0.09918212890625
1761380585760848100,7.24184814453125,-0.3171539306640625,-0.46270751953125,0.0735321044921875
1761380585770904000,7.251904052734375,-0.2008209228515625,-0.310455322265625,0.1016845703125
1761380585780959000,7.261958984375,-0.13714599609375,-0.2024383544921875,0.18377685546875
1761380585791015000,7.272014892578125,-0.119903564453125,-0.187042236328125,0.3295745849609375
1761380585801070800,7.28207080078125,-0.184051513671875,-0.242889404296875,0.4720916748046875
1761380585811127000,7.292126953125,-0.292205810546875,-0.291961669921875,0.556243896484375
1761380585821182000,7.302181884765625,-0.3646087646484375,-0.314483642578125,0.624481201171875
1761380585831238100,7.312238037109375,-0.32135009765625,-0.36663818359375,0.6708221435546875
1761380585841294000,7.322294189453125,-0.2331695556640625,-0.4618377685546875,0.699188232421875
1761380585851349000,7.332348876953125,-0.115142822265625,-0.5060272216796875,0.717010498046875
1761380585861405000,7.342405029296875,-0.0625457763671875,-0.4011383056640625,0.6566925048828125
1761380585871460900,7.3524609375,-0.0580596923828125,-0.2465972900390625,0.57122802734375
1761380585881517000,7.36251708984375,-0.025848388671875,-0.157684326171875,0.4896392822265625
1761380585891572000,7.372572021484375,-0.0444183349609375,-0.1095428466796875,0.41937255859375
1761380585901628000,7.3826279296875,-0.1714019775390625,-0.1342315673828125,0.3863677978515625
1761380585911684000,7.39268408203125,-0.3650970458984375,-0.280364990234375,0.3466339111328125
1761380585921740000,7.402739990234375,-0.5147247314453125,-0.463226318359375,0.29327392578125
1761380585931795000,7.412794921875,-0.612518310546875,-0.6835174560546875,0.17755126953125
1761380585941851000,7.422850830078125,-0.5865478515625,-1.0210723876953125,0.041961669921875
1761380585951906800,7.43290673828125,-0.32733154296875,-1.2807159423828125,0.01177978515625
1761380585961962000,7.4429619140625,-0.273468017578125,-1.29229736328125,-0.080841064453125
1761380585972018000,7.453017822265625,-0.7896575927734375,-1.4886627197265625,-0.1338653564453125
1761380585982074000,7.46307421875,-1.3998565673828125,-1.5753936767578125,0.074859619140625
1761380585992130000,7.473130126953125,-1.7944488525390625,-1.5790252685546875,0.1113739013671875
1761380586002185200,7.483185302734375,-1.77783203125,-1.44891357421875,0.017486572265625
1761380586012241000,7.493240966796875,-1.62542724609375,-1.208953857421875,-0.0342254638671875
1761380586022296800,7.503296875,-1.5979461669921875,-0.9950103759765625,0.0025787353515625
1761380586032353000,7.51335302734375,-1.430572509765625,-0.8189239501953125,0.1330108642578125
1761380586042408000,7.523407958984375,-1.2105712890625,-0.7926177978515625,0.2198944091796875
1761380586052464000,7.533464111328125,-1.12774658203125,-0.8314361572265625,0.1766815185546875
1761380586062520000,7.54352001953125,-1.0093231201171875,-0.8561859130859375,0.0720672607421875
1761380586072575000,7.553574951171875,-0.79052734375,-0.8642578125,0.0333404541015625
1761380586082631000,7.563630859375,-0.70703125,-0.8837127685546875,0.0353546142578125
1761380586092686800,7.573686767578125,-0.7758026123046875,-0.910003662109375,0.0399017333984375
1761380586102742800,7.58374267578125,-0.78179931640625,-0.9130859375,0.0220947265625
1761380586112798000,7.5937978515625,-0.7169342041015625,-0.8475494384765625,-0.03521728515625
1761380586122854000,7.60385400390625,-0.5892486572265625,-0.7258453369140625,-0.1130523681640625
1761380586132910000,7.61391015625,-0.5859832763671875,-0.6212921142578125,-0.1390838623046875
1761380586142966000,7.623966064453125,-0.5994873046875,-0.5619354248046875,-0.158355712890625
1761380586153021200,7.634021240234375,-0.4984588623046875,-0.49676513671875,-0.1930084228515625
1761380586163076900,7.644076904296875,-0.410430908203125,-0.427276611328125,-0.202423095703125
1761380586173132800,7.6541328125,-0.4337921142578125,-0.371551513671875,-0.2048797607421875
1761380586183188000,7.66418798828125,-0.562347412109375,-0.3607635498046875,-0.18359375
1761380586193244000,7.674243896484375,-0.581756591796875,-0.389892578125,-0.144927978515625
1761380586203300000,7.684300048828125,-0.467681884765625,-0.3773956298828125,-0.128875732421875
