time,seconds_elapsed,z,y,x
1761380578632605200,0.113605224609375,2.660979788696766,-0.8136205681741238,1.3362331141754984
1761380578642659800,0.123659912109375,2.4745015237957237,-0.7432102303862571,1.096114809827879
1761380578652716000,0.133716064453125,2.2873212481051683,-0.5536684862613678,0.6706204296674579
1761380578662772000,0.14377197265625,2.059768922276795,-0.37120530222058296,0.18451452708002178
1761380578672828000,0.153827880859375,1.7778829487144947,-0.3564771041661501,-0.26522183900922536
1761380578682883000,0.163883056640625,1.6669354333549737,-0.4337210873663425,-0.610578706485033
1761380578692939000,0.17393896484375,1.6488976723611355,-0.44357437286078927,-0.863570593996346
1761380578702995000,0.183994873046875,1.604984880876541,-0.5307417841821909,-1.1690014015361665
1761380578713049900,0.1940498046875,1.7343331453233957,-0.7597171285510063,-1.5278133783906698
1761380578723105800,0.204105712890625,1.8056641050875186,-1.0064677835851907,-1.8542703150853515
1761380578733162000,0.214161865234375,2.063136645144224,-1.3357090903013944,-2.1065938018158077
1761380578743218000,0.224218017578125,2.3663263957589864,-1.554350087660551,-2.4111887430533767
1761380578753273000,0.234273193359375,2.31587105076313,-1.8294751887857912,-2.997020254033804
1761380578763329000,0.2443291015625,1.9947399852663277,-2.3055285204470155,-3.641552668046951
1761380578773385000,0.254385009765625,1.4091589419156312,-2.688717690449953,-4.125479801823198
1761380578783441200,0.264441162109375,0.6076829850435257,-2.9996821667194364,-4.249271893447637
1761380578793495800,0.274495849609375,-0.21359598892927167,-3.462612981957197,-4.044029306843877
1761380578803552000,0.284552001953125,-0.671191288357973,-4.076661410379409,-3.443079137186706
1761380578813608000,0.29460791015625,-1.0348556736797094,-4.821791795173287,-2.8339988525658844
1761380578823663000,0.3046630859375,-1.2551052752792835,-5.363548309844732,-2.806344829703867
1761380578833719000,0.314718994140625,-1.4971215952679513,-5.398797317880391,-3.266395705591142
1761380578843775000,0.32477490234375,-2.3140353597685692,-5.291622891318798,-3.7083313713341948
1761380578853831200,0.3348310546875,-3.0737302764877676,-4.914717916151881,-3.8166698732391
1761380578863885800,0.3448857421875,-3.9148923470601438,-4.072977168908715,-3.593042027378082
1761380578873942000,0.35494189453125,-4.142051874178648,-3.163745770716667,-3.029267449904978
1761380578883998000,0.364998046875,-3.7128731064170597,-2.449245501986146,-2.0902847643107174
1761380578894054000,0.375053955078125,-2.6656553792923687,-2.0192764606297016,-0.7492379662431776
1761380578904109000,0.385109130859375,-1.5863047303259372,-1.9537848745435475,0.5413325901709497
1761380578914165000,0.3951650390625,-1.0424269857168198,-2.251214746457338,1.4374787352100014
1761380578924221000,0.405220947265625,-1.1611457195997237,-2.497565588518977,1.9561241311460733
1761380578934277000,0.415277099609375,-0.6757534817069768,-2.406782324787974,2.082793385642022
1761380578944331800,0.425331787109375,0.3197451640963554,-2.2600334282070396,1.8044487379483878
1761380578954388000,0.435387939453125,1.3890017045497893,-2.3197400011509655,1.4957567366555333
1761380578964444000,0.44544384765625,1.881321111357212,-2.5396950037181374,1.3472718100622296
1761380578974499000,0.4554990234375,2.2856682202011345,-2.5998563346922396,1.2819944512486456
1761380578984555000,0.465554931640625,2.5471461965069175,-2.2542203580141065,0.9736167766019701
1761380578994611000,0.47561083984375,2.312726322996616,-1.687205483445525,0.7490498963251709
1761380579004667100,0.485667236328125,1.9711402062311767,-1.0443220056831837,1.0072584955714643
1761380579014722000,0.49572216796875,1.8130577224701643,-0.3782908765673637,1.5221502380624412
1761380579024778000,0.505778076171875,1.1675345438539981,-0.22118542114496229,2.023404646475613
1761380579034834000,0.515833984375,0.7291366968482732,-0.41061435254514217,2.3626427388101816
1761380579044889000,0.52588916015625,0.9351391619086264,-0.16521628116369247,2.361091709975898
1761380579054945000,0.535945068359375,1.1880869180172682,0.42103637783825393,2.0298679972708222
1761380579065001000,0.5460009765625,1.2956482980698347,1.0161959813952446,1.7711635773316026
1761380579075057200,0.55605712890625,1.4372265140146017,1.8759113612681626,1.9015474684365092
1761380579085112000,0.566112060546875,1.9553046314567326,2.790699809065461,2.306884465100616
1761380579095168000,0.57616796875,2.7002760262966152,3.534770455673337,2.884774515557289
1761380579105224000,0.586223876953125,3.2251632392317053,4.161730972638726,3.8221255082964896
1761380579115280000,0.59627978515625,3.418094041272998,4.429809077861905,5.237782580059767
1761380579125335000,0.6063349609375,3.531800499951839,4.241670186272263,6.4284823109239335
1761380579135391000,0.616390869140625,3.455999701297283,4.017435314428806,6.8796963848829265
1761380579145447000,0.626447021484375,3.584977963387966,4.013932859265804,6.77135174549818
1761380579155503000,0.636503173828125,3.850093711674213,4.315557260259986,6.273908419805765
1761380579165558000,0.64655810546875,3.1812475251376626,4.072773755291104,5.59274284992218
1761380579175614000,0.656614013671875,3.5625025122076273,4.2905327091187235,5.328854013082385
1761380579185670000,0.666669921875,3.4641076044291257,5.009213478404283,5.295971734178066
1761380579195725000,0.67672509765625,3.317019685152173,5.513097066277266,5.19456478510201
1761380579205781000,0.686781005859375,2.7750848913043735,5.792143724760413,5.088998962780833
1761380579215837000,0.6968369140625,2.643390355992317,5.4014738436132665,4.674585802474618
1761380579225893000,0.70689306640625,3.405944753795862,4.766462706661224,4.051365056559443
1761380579235948000,0.716947998046875,3.307656521262228,3.5405987234354015,3.374289970859885
1761380579246004200,0.727004150390625,2.4024796591579913,0.9636632456034422,2.2094915739715097
1761380579256060000,0.737059814453125,1.1004413677901028,-2.3946651860147714,0.3381055811733007
1761380579266115800,0.74711572265625,-1.084029162171483,-6.199481832113862,-1.4053143953166902
1761380579276171000,0.7571708984375,-3.2642057943314313,-9.235559838816522,-1.2356731373175978
1761380579286227000,0.76722705078125,-5.779931893441081,-9.27290260426104,-0.03355726468958892
1761380579296283000,0.777282958984375,-8.874627508807182,-6.981123207703233,0.8676743760533631
1761380579306338000,0.787338134765625,-11.0634375292778,-6.566011543738842,2.085924815535545
1761380579316394000,0.79739404296875,-10.844179861325024,-7.975688956570625,2.683145151014626
1761380579326450200,0.8074501953125,-8.447232701852917,-8.212885601317883,1.8936757121481
1761380579336505900,0.817505859375,-5.789102457368373,-7.327941087642311,0.6142540339969098
1761380579346561000,0.82756103515625,-3.637528819358349,-6.106963122892379,-0.1581713310882449
1761380579356617000,0.837616943359375,-2.3717308851510284,-4.935910341784358,-0.7268406948655843
1761380579366673000,0.8476728515625,-1.5420862338930368,-3.988749902692437,-1.1472884591609238
1761380579376728000,0.85772802734375,-0.9529436986684798,-3.411964744737744,-1.6615256832659244
1761380579386784000,0.867783935546875,-0.7305144149422645,-2.5906232269227503,-2.298687276250124
1761380579396840200,0.877840087890625,-0.543570870617032,-1.1866595155626534,-2.651117150852084
1761380579406895900,0.887895751953125,-0.02119008754491806,0.31005729829669,-3.2204245202720165
1761380579416951000,0.897950927734375,0.4429968652337789,1.5488924067765473,-3.787356977254152
1761380579427007000,0.908007080078125,1.2263842077076434,2.5576193674653767,-3.7559564613401886
1761380579437063000,0.91806298828125,2.4052695821374654,3.5100182917326688,-3.8328830491542814
1761380579447119000,0.928119140625,3.5341771659553047,4.393533064866066,-4.710194875994325
1761380579457174000,0.938174072265625,4.0233056677669286,5.285462030601501,-5.781536406028271
1761380579467230200,0.948230224609375,3.787961372888088,6.112209791374206,-5.981808803004026
1761380579477286100,0.9582861328125,3.0934996835798025,6.6661810599744316,-5.194900300666689
1761380579487341000,0.968341064453125,2.6251795765191317,6.637058425864577,-4.031706708626449
1761380579497397200,0.978397216796875,2.2332664173126218,6.489464895153045,-3.1358143922179935
1761380579507453200,0.988453125,2.580443193691969,6.379823201695084,-3.32244258698374
1761380579517509000,0.998509033203125,3.8220769929796456,6.172149004030227,-4.116178597253561
1761380579527564000,1.00856396484375,5.135445656657218,5.594893305954336,-5.140958867120743
1761380579537620000,1.018619873046875,5.756072878947854,4.636059964725375,-6.451751542830467
1761380579547676200,1.02867626953125,5.0840813801229,3.6891263201266526,-7.318819623553752
1761380579557732000,1.038732177734375,2.793791929861903,3.0849183177173134,-7.07200993180871
1761380579567787300,1.048787353515625,0.2638186942130327,2.789338457584381,-6.416448174259066
1761380579577843200,1.05884326171875,-1.6569143900781869,1.984392778775096,-6.171338272169232
1761380579587899100,1.068899169921875,-2.886514637222886,1.431526256546378,-6.2499085355371236
1761380579597954000,1.0789541015625,-1.2873942644655705,1.644142586788535,-6.682023941272496
1761380579608010000,1.089010009765625,0.567810408860445,2.565070852515101,-6.637110448312759
1761380579618066200,1.099066162109375,-0.0908662658393383,1.6133505581617353,-4.79127449183464
1761380579628122000,1.1091220703125,-0.4816700024992227,-2.523586749482155,-2.451704877837002
1761380579638177300,1.11917724609375,-2.455771104362607,-6.831893015700579,-0.9629168111503124
1761380579648233200,1.129233154296875,-6.376546371981501,-10.590795467364787,-0.292026241038274
1761380579658289200,1.1392890625,-10.100098693323135,-13.065276532894373,0.7496048998594284
1761380579668344000,1.149343994140625,-13.671384815967082,-12.887562004685401,3.1990009162321686
1761380579678400000,1.15939990234375,-14.708007499319313,-12.771253839075564,4.137266977989674
1761380579688456000,1.1694560546875,-13.244459380090236,-11.02302485486865,3.0130227098077533
1761380579698512100,1.17951220703125,-10.261441932445765,-9.19613909805417,0.9321703752309083
1761380579708567000,1.189567138671875,-5.8052884530156845,-8.087028686118126,-0.8518369015827775
1761380579718623200,1.199623291015625,-2.9810937861055136,-7.063135135957598,-1.2080633919887245
1761380579728679200,1.20967919921875,-1.683134288483858,-7.0811296423316,0.4122624120131135
1761380579738735000,1.219735107421875,-0.77767013387084,-7.413904383870959,2.4092687347762287
1761380579748790000,1.2297900390625,-0.032398879301548,-6.533560057467222,4.071291407778859
1761380579758846000,1.239845947265625,1.1935960368275642,-4.873275898694992,5.175488913232088
1761380579768902100,1.249902099609375,2.4560896687924862,-3.091114834269881,5.513491618552804
1761380579778957000,1.25995703125,2.983744592875242,-1.2761328657388686,5.513882663697004
1761380579789013200,1.27001318359375,3.515698090934753,0.5911825166195631,5.232070632153749
1761380579799069200,1.280069091796875,4.11315837264955,2.2937463127166033,4.48670117790699
1761380579809125000,1.290125,4.5220542308390135,3.710272568529844,3.5120401529490946
1761380579819180000,1.300179931640625,4.926852006059884,4.899793903264403,2.713544088670611
1761380579829236000,1.310236083984375,5.779973394495248,5.830117773845791,2.226063500196487
1761380579839292200,1.320292236328125,5.8849488497078415,6.346344125941395,2.017306037339568
1761380579849347000,1.33034716796875,5.606565623569488,6.605358050221205,2.256748707447946
1761380579859403000,1.340403076171875,5.124829570096731,6.8947302878856656,2.954291996158659
1761380579869459200,1.350459228515625,4.936586633610725,7.273667645663022,3.994850265394151
1761380579879515100,1.36051513671875,5.311719338408112,7.567654683646559,5.1087248229920865
1761380579889570000,1.370570068359375,5.92217821790576,7.714411763533949,6.226504279074073
1761380579899626000,1.3806259765625,6.467967933616042,7.638697474119066,7.201563947960734
1761380579909682000,1.390681884765625,6.576550473409891,7.162409749180078,7.880514764404296
1761380579919737000,1.400737060546875,6.302768019065261,6.6178954602330915,8.08640441673994
1761380579929793000,1.41079296875,6.211054781007767,6.349061568206548,7.722492194136977
1761380579939849200,1.42084912109375,6.793795632496476,5.77687542847991,7.141467498916387
1761380579949905200,1.4309052734375,7.417939338475465,4.638014021402597,6.611445261180401
1761380579959960300,1.440960205078125,7.070007359814643,2.7174638924628494,6.538811402124166
1761380579970016000,1.45101611328125,4.923415601870417,0.5121516500025988,7.289398298758268
1761380579980072000,1.461072021484375,1.4279405070140958,-1.9539801048547027,8.548845987156033
1761380579990128000,1.471128173828125,-2.132649741831422,-5.402110972473025,8.903565433999896
1761380580000183000,1.48118310546875,-5.343742370134592,-9.05074336964786,8.098818492633104
1761380580010239200,1.4912392578125,-7.744459111273288,-11.379663871598243,7.291928109496832
1761380580020295200,1.501295166015625,-9.511144958668947,-11.278200223898887,5.680469064170122
1761380580030350300,1.511350341796875,-9.775927529478073,-9.62298386991024,2.9254975710898634
1761380580040406300,1.52140625,-9.68758990533352,-7.748705662801862,0.7001403194665908
1761380580050462000,1.5314619140625,-10.655614268755912,-6.470066367200016,0.2959846415415406
1761380580060518100,1.54151806640625,-11.819467493748665,-6.023941725334525,0.8199328200608491
1761380580070573000,1.551572998046875,-12.618491381293534,-5.407227877095341,0.4127811751902103
1761380580080629000,1.56162890625,-12.223708804130553,-4.873509122928977,-0.16038551827268674
1761380580090685200,1.571685302734375,-11.031506267488002,-3.9447739828437562,-0.7834215370044112
1761380580100740000,1.581739990234375,-9.107920716375112,-2.166981635022163,-1.5784288823843002
1761380580110796300,1.59179638671875,-6.984493560919165,-0.8712661169350147,-2.3423817488089202
1761380580120852200,1.601852294921875,-4.971219555574655,-0.25854981389939785,-2.9561940303876995
1761380580130908000,1.611907958984375,-3.010115882450342,0.24128595988750456,-3.3966055553033945
1761380580140963000,1.621963134765625,-1.1347709228932856,0.7758452565312385,-3.795909993804991
1761380580151019000,1.63201904296875,0.6723945266678929,1.514444778251648,-4.258014295090735
1761380580161075200,1.6420751953125,2.008682293640077,2.6560002467185257,-4.663770978471637
1761380580171130000,1.652130126953125,2.5018545178845524,4.058490962916612,-5.04504700832963
1761380580181186300,1.662186279296875,2.6125086032554505,5.448836483290791,-5.699092516097426
1761380580191242200,1.6722421875,2.4547514059260487,6.661307316458225,-6.284270239344239
1761380580201298000,1.6822978515625,2.6231083232030272,7.344034728831052,-6.415494819056987
1761380580211353000,1.69235302734375,3.722124626626074,7.643719686195253,-6.22341332732141
1761380580221409000,1.702408935546875,4.794292670612037,7.720063505685329,-5.744923708423972
1761380580231465200,1.71246533203125,4.674402262601256,7.858507515257597,-5.14381601011753
1761380580241520000,1.72252001953125,4.1712446509152645,7.734304797005653,-4.931652099817991
1761380580251576000,1.732576171875,3.123637047690153,7.721420765513181,-5.25407671225667
1761380580261632300,1.74263232421875,1.75094233481884,7.846286331588029,-6.02467822291553
1761380580271688200,1.752688232421875,0.7674655507206917,7.784490677410363,-6.973893256449699
1761380580281743000,1.7627431640625,0.20767507444769143,7.199626257896423,-8.294923833057284
1761380580291799000,1.772799072265625,0.3908487448453903,7.024003149008751,-9.018937780064343
1761380580301855000,1.78285498046875,1.597842023384571,7.0864902925819155,-9.563103693965077
1761380580311910100,1.79291015625,1.3625430289521812,6.456451683345437,-9.512363686808943
1761380580321966000,1.802966064453125,-1.021513961547613,4.439493436530232,-8.989047668713331
1761380580332022300,1.813022216796875,-2.772652111199498,1.2936083166748285,-9.388816217595338
1761380580342078200,1.823078125,-2.7610361999467012,-0.26157120754718777,-9.4231638928771
1761380580352133000,1.833133056640625,-4.605474564586579,-0.24598434683680534,-7.210846155568957
1761380580362189000,1.84318896484375,-7.521952670657634,-3.456684176430106,-2.46529471951127
1761380580372245000,1.853244873046875,-9.711731828421353,-8.591274677562714,2.456303896065056
1761380580382300200,1.863300048828125,-11.932428687018156,-12.261036372005938,5.148221551600098
1761380580392356000,1.873356201171875,-11.167512820780276,-12.976248003876208,7.238757660323381
1761380580402412300,1.883412353515625,-9.682164373153448,-12.731132256567477,9.333079717326164
1761380580412467000,1.893467041015625,-8.279033020964265,-12.097943074345588,9.13201938484311
1761380580422523100,1.903523193359375,-6.822413239693641,-10.226194093453884,6.396610085844993
1761380580432579000,1.9135791015625,-4.182728460220992,-7.739862431132793,2.591170339411497
1761380580442634800,1.923634765625,-1.0150161239609121,-4.819657121232152,-0.3684966277837753
1761380580452690000,1.93368994140625,0.8297273611053824,-2.3726538452148436,-1.1661141556620598
1761380580462745600,1.94374560546875,1.850222939390689,-1.9499375514656305,-0.26061156873479485
1761380580472801800,1.9538017578125,2.9891914601042866,-2.6238258238226173,1.543334626518935
1761380580482856700,1.963856689453125,3.5280490384638306,-3.2947768736839294,2.9346377398788928
1761380580492913000,1.973912841796875,2.888759785801172,-3.4598756659477945,3.963691449281573
1761380580502968800,1.98396875,1.4375377719208597,-2.5881109518408776,4.568091174870729
1761380580513024800,1.994024658203125,-0.5382499678552151,-1.1675193462848663,4.759259643414616
1761380580523080000,2.004079833984375,-1.4473805360212921,-0.22250760965943336,4.923420862567425
1761380580533136000,2.014135986328125,-0.9286761033743619,0.8987181874841451,4.644542546388506
1761380580543191600,2.024191650390625,-0.017886662085354325,2.2893834413319825,3.8408150111973285
1761380580553246700,2.034246826171875,0.7895531716272235,3.5812715100854633,3.2712139195278285
1761380580563302700,2.044302734375,1.4226511684343217,4.8666532656848425,3.024080694916844
1761380580573358800,2.05435888671875,1.8395716353863476,6.215214238774776,3.2067613211005925
1761380580583414800,2.064414794921875,2.6000112329930065,7.137648232889175,4.050309994548559
1761380580593470000,2.074469970703125,3.6196845351099967,7.609407082226872,5.362587355858087
1761380580603526000,2.08452587890625,4.539687210424244,7.80715668272674,6.670833854216337
1761380580613581800,2.094581787109375,5.267276970091462,7.8706983037889,7.803940058767795
1761380580623636700,2.10463671875,5.967493861925601,7.533900298082828,8.25056505137086
1761380580633692700,2.114692626953125,5.7874389080703255,6.669523940661549,8.17842452878952
1761380580643748900,2.124748779296875,5.585812173876166,5.965934942045807,7.8958321605235335
1761380580653803800,2.1348037109375,5.476451050925254,5.454779317343235,6.616981852519512
1761380580663860000,2.14485986328125,5.1452404899626965,5.646757933226227,4.751888530124724
1761380580673916000,2.154916015625,3.0727909498110413,6.1056678223848335,5.150371423110365
1761380580683971800,2.164971923828125,1.4772089803129433,5.1379193532943725,5.817988944634795
1761380580694026800,2.17502685546875,0.3115567430742085,3.19514628663063,5.352710689488053
1761380580704082700,2.185082763671875,-0.8356523672401904,1.4782622887581587,4.468621331337094
1761380580714138600,2.195138671875,-1.505343187907338,0.3040881607592106,4.291653237581253
1761380580724193800,2.20519384765625,-2.969607930973172,-2.4362451506376264,4.90584195125699
1761380580734249700,2.215249755859375,-5.565595315277577,-8.96859232518375,6.889737886425852
1761380580744306000,2.225305908203125,-6.291162921467423,-14.200669387078284,6.831129630112647
1761380580754361900,2.23536181640625,-10.246125120848417,-9.945341846853495,3.490916700899601
1761380580764416800,2.245416748046875,-12.241714416420459,-5.8287640211492775,0.4211698680248111
1761380580774472700,2.25547265625,-10.812082595318556,-6.674113022017479,-0.6455524047106505
1761380580784528600,2.265528564453125,-10.174332973313332,-8.622803788292407,-0.5478298432357609
1761380580794583800,2.275583740234375,-8.812686308678984,-8.686163038524985,0.05940890517160296
1761380580804639700,2.2856396484375,-6.415245812731981,-8.462625501295923,0.6245993407920003
1761380580814696000,2.295696044921875,-5.470870035922527,-7.9422104653388255,0.5209506041385233
1761380580824751900,2.305751953125,-5.012980137461423,-7.081617133587598,0.2242160210125148
1761380580834806800,2.315806884765625,-4.3423827233433725,-5.839543773838877,-0.47649172307848925
1761380580844862700,2.32586279296875,-3.8095425055772063,-4.327493197247386,-1.655732925208658
1761380580854918700,2.335918701171875,-2.50804138982594,-2.7206770092904566,-2.5288755035400388
1761380580864973800,2.345973876953125,-0.8550358437545597,-1.0560627123594284,-2.599624864023924
1761380580875029800,2.35602978515625,0.9094279436774552,0.27050387106537815,-2.306586651197821
1761380580885085700,2.366085693359375,2.356042463762313,1.4752175142347812,-2.1597573828570544
1761380580895140900,2.376140869140625,2.126981633067131,2.529179454922676,-2.051638807313144
1761380580905196500,2.386196533203125,1.5659205523364246,3.4728280865013597,-1.6609091588027773
1761380580915252700,2.396252685546875,1.2608346127115189,4.492513079056144,-1.6854807054795324
1761380580925308700,2.40630859375,0.6336088689386844,5.644395880270004,-2.444122459883988
1761380580935363800,2.41636376953125,0.7640040120899677,7.214744916573166,-3.64456675517112
1761380580945419800,2.426419677734375,0.9768331082999706,8.901499149119854,-4.895282271058857
1761380580955475700,2.436475830078125,0.8027706728577614,9.97343747600317,-5.831982983195782
1761380580965531000,2.44653076171875,0.7542059639140963,10.794003333270549,-6.313537834882736
1761380580975586800,2.4565869140625,0.3693091132104397,11.385759265863895,-6.632373482918739
1761380580985642800,2.466642822265625,0.002097264540195465,11.705081236112116,-6.749857706570625
1761380580995698700,2.47669873046875,0.5506923930600285,11.762696389734744,-6.347479851973056
1761380581005753900,2.48675390625,1.1600696148008107,11.411532005023956,-5.914888060897589
1761380581015809800,2.496809814453125,1.5098352386295795,10.471107596188784,-6.204242762905359
1761380581025865700,2.50686572265625,1.832428193372488,8.942604481968283,-7.009765949341654
1761380581035921000,2.5169208984375,2.2840067167297002,6.9734203782409425,-7.939290778499841
1761380581045976800,2.526976806640625,1.4859002362906932,4.508143194386363,-8.976046148321032
1761380581056033000,2.537032958984375,-0.6627519613146782,2.1701924137622117,-9.214736246496438
1761380581066088700,2.547088623046875,-2.6743466352701186,-0.11630348943471908,-8.87088247705996
1761380581076143600,2.5571435546875,-3.658298051142692,-1.3820932403355837,-9.029878276273609
1761380581086199800,2.56719970703125,-4.450962632788717,-1.8807295752048492,-8.58529501863122
1761380581096255700,2.577255859375,-5.754698083463311,-5.742960883918404,-7.503952903586626
1761380581106311000,2.587310791015625,-6.232129717740416,-12.75596976070404,-7.140256369560957
1761380581116366800,2.597366943359375,-8.460584935379028,-16.796360418784616,-8.011833452141284
1761380581126422800,2.6074228515625,-11.64524489930868,-15.70312679041624,-7.276555768319964
1761380581136477700,2.617477783203125,-13.298552204805612,-14.75887376320362,-4.302738695219159
1761380581146533600,2.62753369140625,-13.968582632690667,-13.646395336139202,-2.0923222614876926
1761380581156589800,2.63758984375,-13.301158003389835,-10.485726488649844,-1.241472032854706
1761380581166645800,2.647645751953125,-10.357904410856962,-6.665273882001638,-0.1788411576187238
1761380581176701000,2.657700927734375,-6.810649736663699,-4.410400613036751,1.371350750916451
1761380581186756900,2.6677568359375,-4.513177681422233,-4.060138730123639,2.8410318199425935
1761380581196812800,2.677812744140625,-2.3314988280057904,-3.7114451194405556,3.9661359198242425
1761380581206867700,2.68786767578125,-0.08319412377625704,-2.670102421829104,4.475521027722954
1761380581216923600,2.697923583984375,1.1305093199260532,-1.5607085167765617,4.731024605794251
1761380581226979800,2.707979736328125,1.7631340001329778,-0.5676338832497596,5.031331786710024
1761380581237035800,2.718035888671875,2.270101817756891,0.9174287331730127,5.249034041914343
1761380581247091000,2.728091064453125,2.4776895061820743,2.401012509214878,5.386916325950622
1761380581257147000,2.73814697265625,2.7325886886194346,3.550295941585302,5.397715367862582
1761380581267202800,2.748202880859375,2.578891580335796,4.351006759303808,5.356365704864263
1761380581277257700,2.7582578125,2.6243478018701074,5.02937948359847,5.227482719841599
1761380581287313700,2.768313720703125,2.661353882706165,5.917423132333159,5.1556379653364415
1761380581297369600,2.77836962890625,2.611832311429083,6.816673819258809,5.070854234281182
1761380581307425800,2.78842578125,2.878593781095743,7.5143509634822605,4.814050971788168
1761380581317480700,2.798480712890625,3.140755063490569,8.032018162035941,4.846206105461716
1761380581327537000,2.808536865234375,3.5759187508806582,7.973877523234486,5.244335654965043
1761380581337592800,2.8185927734375,4.11696302562952,7.570809348285198,5.9153276213586325
1761380581347647700,2.828647705078125,4.5104640385493635,7.254173256120085,6.471316075000167
1761380581357703700,2.83870361328125,4.414811707477272,7.010217784762382,6.5434560130596156
1761380581367759600,2.848759521484375,3.992899423587322,6.865206671759486,6.404321098613739
1761380581377814800,2.858814697265625,3.6991973400250076,6.568844721338152,6.224657189902663
1761380581387870700,2.86887060546875,3.8130949373617766,6.4450190197050565,5.708218071839213
1761380581397927000,2.878927001953125,3.8097123091861604,5.75581861192584,4.877689038962125
1761380581407982800,2.88898291015625,3.44825624756366,4.680023609614372,4.55969744053483
1761380581418038000,2.8990380859375,2.806262704378366,4.089154396727681,5.147057768517732
1761380581428093700,2.90909375,1.8251479732364415,3.1114018354952333,6.0773302011728285
1761380581438149600,2.919149658203125,0.21287351987361908,1.9419044671356678,6.650366820248961
1761380581448205000,2.929205078125,-1.4680121129006147,0.5578478177726268,6.844573049053549
1761380581458261000,2.939260986328125,-2.4513684854894877,-1.650552453830838,6.98179891500771
1761380581468316700,2.949316650390625,-3.2943826136693355,-6.207830558264255,6.212137900069355
1761380581478372900,2.959372802734375,-4.262347648119926,-11.318138266533612,3.369453929005563
1761380581488427800,2.969427734375,-5.115113062724471,-12.626895637023448,-0.762091748727858
1761380581498484000,2.97948388671875,-7.157191722270846,-11.625810715520382,-2.9029774039849636
1761380581508540000,2.989539794921875,-9.311118060886859,-10.941160226130485,-2.087875949603319
1761380581518595000,2.999594970703125,-11.440800185084342,-11.341513296902178,-0.6055602938011289
1761380581528651000,3.009651123046875,-12.558815203487873,-10.983016669607162,0.8270084575355052
1761380581538707000,3.01970703125,-12.848565042293071,-9.853101954573392,1.8563146803945303
1761380581548761900,3.029761962890625,-11.798107894855738,-9.114074562829732,2.1691291684448717
1761380581558817800,3.03981787109375,-9.579925649428366,-7.797896686950326,1.5402368066340684
1761380581568874000,3.0498740234375,-7.219273792174458,-6.072132632529735,0.41577129691690207
1761380581578930000,3.059929931640625,-4.595802773138881,-4.8401978049576275,-0.9426661233473569
1761380581588985000,3.069985107421875,-1.5059259562313556,-3.727503689315915,-2.27870130379796
1761380581599041000,3.080041015625,0.6207917652025818,-2.021463741540909,-3.0743156751602885
1761380581609097000,3.090096923828125,1.6534902608484028,-0.10823007309436797,-3.4668063419938084
1761380581619152000,3.10015185546875,1.8785571996018289,1.881393592071533,-3.8860377162367103
1761380581629207800,3.110207763671875,1.5632175769880412,3.874225113368034,-4.258390434926748
1761380581639263700,3.120263671875,1.579079016856104,5.776386183658242,-4.463932296738029
1761380581649320000,3.13031982421875,2.0059923239037394,7.36406980112195,-4.789601590186357
1761380581659374800,3.140374755859375,2.5370541338205337,8.338546117162704,-5.240674209848046
1761380581669431000,3.15043115234375,2.507442547149956,8.782278310933709,-5.509082569938898
1761380581679487000,3.160487060546875,2.172763725554943,9.561220364436506,-5.624779910174012
1761380581689542000,3.1705419921875,2.1820991246551276,10.481756415975093,-6.101556879934668
1761380581699597800,3.180597900390625,2.214196390661597,11.252473077446222,-6.6420625177621835
1761380581709653800,3.19065380859375,2.338318737153709,11.555481041753291,-6.900582521045208
1761380581719710000,3.2007099609375,2.376439355102926,11.718679553353786,-7.044280797883868
1761380581729764900,3.210764892578125,2.5812492493778465,11.759611283200979,-7.303122288206219
1761380581739821000,3.220821044921875,3.337360754652321,11.152595822155474,-7.421831669738888
1761380581749877000,3.230876953125,4.181882364785671,10.13085974228978,-7.1809975452721115
1761380581759932000,3.240931884765625,4.381460349756479,9.264928556641935,-6.8794543928205965
1761380581769987800,3.25098779296875,3.4121810178369283,8.402116379797459,-6.820019038033485
1761380581780043800,3.261043701171875,2.262423538213968,7.251473349511623,-7.280761403316259
1761380581790099000,3.271098876953125,1.4775854124099015,5.276463900631666,-7.899951286280155
1761380581800155000,3.28115478515625,0.08989259850159287,2.256882270699739,-8.110974209851026
1761380581810210800,3.2912109375,-1.1353694733083248,-1.1905717205703257,-7.8376646337151525
1761380581820267000,3.30126708984375,-1.8504954727217553,-3.1307337279528378,-7.725292638510465
1761380581830322000,3.311322021484375,-3.7080887947499748,-4.667016828525066,-7.314563135153055
1761380581840377900,3.3213779296875,-5.265850152158737,-9.127720226344465,-6.206289758563042
1761380581850433800,3.331433837890625,-7.3967743853718035,-15.939841789126396,-5.767289854010939
1761380581860489000,3.341489013671875,-10.52527290161848,-19.12453331723809,-5.695089125674962
1761380581870545000,3.351544921875,-13.735671702438593,-16.818897244763374,-4.407581171701848
1761380581880600800,3.361600830078125,-14.35303203188777,-13.750850566869973,-3.268088773244619
1761380581890657000,3.371656982421875,-12.743369806849955,-11.065970847147703,-2.8392075271248816
1761380581900712000,3.3817119140625,-11.346612665867804,-7.724115995946526,-2.467806410071254
1761380581910767900,3.391767822265625,-7.21984896171391,-4.199229805427789,-1.943332454112172
1761380581920823800,3.40182373046875,-3.8492683667659757,-1.941219407480955,-1.3218882163502275
1761380581930879000,3.41187890625,-3.5074025562763214,-1.2758622321039437,-0.1861408496402204
1761380581940935000,3.421934814453125,-4.178704903793335,-1.4325602757692337,1.5210748639158904
1761380581950990800,3.431990966796875,-5.556311354103684,-1.3645833026081322,3.1796383363753553
1761380581961047000,3.442047119140625,-6.857091169843077,-0.29032383930087086,4.845796940138936
1761380581971102000,3.45210205078125,-5.252510193592309,1.3264683837473392,5.9697653139889235
1761380581981158100,3.462158203125,-2.4408716413944958,3.0619641431093214,6.520525219327211
1761380581991213800,3.4722138671875,-0.35632512847483155,4.57407550997734,6.369483009466529
1761380582001268700,3.482268798828125,0.7239017188042401,5.5820583743005985,5.551199125656486
1761380582011325000,3.492324951171875,1.4059201061248778,6.27727351232469,4.773756955322623
1761380582021380900,3.502380859375,1.8267817119181156,7.046839834716915,5.084205883285403
1761380582031436000,3.51243603515625,1.5869173092663287,7.431995920878649,5.9215533640056845
1761380582041492000,3.522491943359375,0.9673445644646882,7.042686222168803,6.780803464454412
1761380582051548000,3.5325478515625,1.1056909588813781,6.453082499173283,7.398657714900374
1761380582061604000,3.54260400390625,2.136313817296922,6.047246028554439,7.704803977233171
1761380582071658800,3.55265869140625,3.3116660491645336,6.387111020615697,8.00063401273489
1761380582081715000,3.56271484375,3.825298877635598,6.914979295188188,8.275007418709993
1761380582091771000,3.57277099609375,4.10847752135694,7.095163428381085,8.452322133946419
1761380582101826000,3.582825927734375,4.605641445586085,7.32430653053224,8.610320738816261
1761380582111882000,3.592882080078125,5.19355765388608,7.630460976171493,8.919045911726355
1761380582121938000,3.60293798828125,5.855644429290295,7.76733963612318,8.858563678234814
1761380582131994000,3.612994140625,5.219485875868797,7.51509622889161,8.236181136709451
1761380582142048800,3.623048828125,3.4738656128555534,6.489131133154034,7.542637731289863
1761380582152105000,3.63310498046875,1.287413261426985,4.618924705529213,7.029041727697849
1761380582162161000,3.643160888671875,0.4054427951261401,3.388217958447337,6.933896761626005
1761380582172216000,3.653216064453125,-1.1648913358688353,3.421041785162687,6.447611958807706
1761380582182272000,3.66327197265625,-2.4097794607773424,3.652532327222824,5.837068323636054
1761380582192328000,3.673327880859375,-0.9246493320763111,4.023151938509941,5.316845010858774
1761380582202382800,3.6833828125,-1.9046978952914475,1.4951058715313672,4.7981391169071195
1761380582212438800,3.693438720703125,-6.513499266213178,-6.344544383043051,4.74647673420906
1761380582222494700,3.70349462890625,-9.26949074999094,-15.255474208331107,3.4207182522967456
1761380582232551000,3.713551025390625,-9.168023010638356,-16.683811897969246,-0.4526199952341616
1761380582242605800,3.723605712890625,-8.642192963895202,-13.418144214391708,-3.420678212547302
1761380582252662000,3.733662109375,-9.755535898834466,-11.682864728128909,-3.9575998544082043
1761380582262718000,3.743718017578125,-10.565642321407795,-10.248092621529102,-3.8758056605577464
1761380582272773000,3.753773193359375,-9.459476730751991,-7.9626132018983355,-4.297523006397485
1761380582282828800,3.763828857421875,-7.456048996639251,-5.685670139944553,-4.52017791557312
1761380582292884700,3.773884765625,-5.102974296641349,-4.191143529605865,-4.521481691648066
1761380582302941000,3.78394091796875,-2.2682686109803614,-3.5581811418771743,-4.396931475132703
1761380582312995800,3.793995849609375,0.5543962160140276,-3.411461471390724,-4.426754074205458
1761380582323052000,3.804052001953125,1.665353132599592,-2.8669682252317665,-4.80946802791208
1761380582333108000,3.81410791015625,1.9304737031914292,-2.207733916649222,-4.935969963017106
1761380582343163100,3.8241630859375,1.7241759084463117,-1.637801693329215,-4.698106671054661
1761380582353218800,3.83421875,1.0770302431948482,-0.3539180673331022,-4.469388808578253
1761380582363274800,3.844274658203125,0.3879758197575807,1.4533493812978266,-4.353867701692879
1761380582373330000,3.854329833984375,-0.1836133769892156,3.074451284238696,-4.261052055351436
1761380582383385900,3.8643857421875,0.20995850920975206,4.388250156027079,-4.2551966073215
1761380582393441800,3.87444189453125,1.4688514863342046,5.426768443867564,-4.295002255748212
1761380582403498000,3.884498046875,2.6252795297622677,6.026693069869279,-4.180488572339713
1761380582413553000,3.894552978515625,2.9560499457418916,6.339708633449673,-3.9112244722023606
1761380582423609000,3.904609130859375,2.208793362574279,6.389580625599622,-3.218893949703872
1761380582433664800,3.914664794921875,1.093934177853167,6.047327861618995,-2.4870424409389496
1761380582443723500,3.9247236328125,0.06424421637356281,6.230978794139623,-1.8105723353952168
1761380582453779500,3.934779541015625,-0.04598024540841579,7.130635139256715,-1.848698360171914
1761380582463835400,3.94483544921875,0.7882306908518075,8.162314520987868,-2.9606778978034853
1761380582473891600,3.9548916015625,2.7576763681247827,8.67054110650122,-4.70343312677443
1761380582483946500,3.964946533203125,4.536465618029236,9.1139687643677,-6.4568719545841216
1761380582494002700,3.975002685546875,4.202375702238083,9.514363336193561,-7.604590037333965
1761380582504058600,3.98505859375,2.9956793608188628,9.581302198478578,-7.824832040148973
1761380582514113500,3.995113525390625,2.5529066597297785,9.373975791338086,-7.766307370465993
1761380582524167400,4.00516748046875,2.3337030600517985,8.223011858534813,-7.932790310564637
1761380582534223600,4.0152236328125,1.5629820146664977,6.6896770863741635,-7.649650829809904
1761380582544279600,4.025279541015625,1.0556583693422377,5.169563614836335,-7.301691963142156
1761380582554334700,4.035334716796875,0.5950685642726719,3.7217023095607757,-7.045106142792105
1761380582564390400,4.045390380859375,-1.9669816252470016,0.8924795853555202,-5.311029602578282
1761380582574446300,4.0554462890625,-4.464850580626726,-5.150577174815536,-3.298656637726724
1761380582584501500,4.06550146484375,-6.980337025761604,-12.667087362158298,-3.2118747185915706
1761380582594557400,4.075557373046875,-8.724814548480511,-16.58321801884174,-4.453760446813702
1761380582604613600,4.085613525390625,-10.126651184684038,-15.474229187458752,-4.782153612267971
1761380582614668500,4.09566845703125,-13.331208273738621,-12.863929784685373,-3.208110397621989
1761380582624724700,4.105724853515625,-14.971943682432174,-10.456887347656489,-1.7248215128734707
1761380582634780700,4.11578076171875,-13.270753512775897,-8.230901735001803,-1.3358609198622404
1761380582644836400,4.12583642578125,-9.364545699691773,-5.899440900918841,-0.7986877143930643
1761380582654891500,4.1358916015625,-5.983879179537296,-4.257833385565877,0.5373462239485234
1761380582664947500,4.145947509765625,-4.35274658870846,-4.151154633566737,1.879444503830373
1761380582675003600,4.156003662109375,-3.1919051127523184,-4.257126698601246,2.7201658448979256
1761380582685058600,4.16605859375,-1.4934683334574101,-3.5299241846859455,3.0882883786723014
1761380582695114500,4.176114501953125,-0.0027481296643614766,-2.4894459949493406,3.418962348540127
1761380582705170700,4.186170654296875,0.8470031978160142,-1.4432090955555439,3.854753520178795
1761380582715225300,4.196225341796875,1.430761994175613,-0.50991117759943,4.359110278521478
1761380582725281500,4.206281494140625,1.8791349994897841,0.5096317761361598,4.571339363011718
1761380582735337500,4.21633740234375,2.5177815703347326,1.5844722542017697,4.423230283993482
1761380582745393400,4.226393310546875,2.8857918759062886,2.8523972635656594,3.962783102265
1761380582755448600,4.236448486328125,2.621540343233943,4.011255749011039,3.137973616078496
1761380582765504500,4.24650439453125,2.5398963715091347,4.910974637970328,2.200582583589852
1761380582775560700,4.256560791015625,2.5794296327352524,5.754963456401229,1.735384115681052
1761380582785615400,4.266615478515625,2.060810540284216,6.547027441805601,2.253960684164613
1761380582795671600,4.276671630859375,1.472479905964434,6.976030268478393,3.6445258386388417
1761380582805727500,4.2867275390625,1.0913032448276876,6.647149027246236,5.436340574333071
1761380582815783400,4.296783447265625,0.9781804312556982,5.876900567808747,6.925461526235938
1761380582825838600,4.306838623046875,1.2210761644273995,5.387097527736425,7.668591092601418
1761380582835894500,4.31689453125,1.7846248241901397,5.400640315398573,7.905173404842615
1761380582845950700,4.32695068359375,2.802005631455779,5.257645218393206,7.762884410279989
1761380582856005400,4.33700537109375,4.4381724170595405,4.876427056202292,7.334158062461018
1761380582866061600,4.3470615234375,6.190838506931066,4.93396563745737,6.87299484141767
1761380582876117500,4.357117431640625,7.006784303182363,5.287095769283175,6.339805664083361
1761380582886173400,4.36717333984375,6.535642124438286,5.260880547052621,6.000906302183866
1761380582896228600,4.377228515625,5.1018777335762975,4.339175451734662,5.955722175589203
1761380582906284500,4.387284423828125,2.8887516024947164,3.2308126432955264,5.819512793201207
1761380582916340500,4.397340576171875,0.4092570927172899,2.3591122265964746,5.765736779350042
1761380582926395400,4.4073955078125,-1.7703218658104538,1.3344079445749522,5.732863852795958
1761380582936451300,4.417451416015625,-2.6165514489054678,0.6363046838939189,5.5457630720824
1761380582946507500,4.427507568359375,-1.7971762627273797,0.26360709728896614,5.570908619254827
1761380582956562400,4.4375625,-2.9648250806108116,-2.6981302464395758,5.915764843732118
1761380582966618600,4.44761865234375,-5.332804796534776,-9.39974385432303,6.481658605316281
1761380582976674600,4.457674560546875,-4.934432085925341,-14.000539613443612,5.638201701804995
1761380582986730500,4.46773046875,-5.05345594023466,-13.049413777852058,2.2127963146053253
1761380582996785700,4.47778564453125,-5.433244361883402,-10.923977620661258,0.10436685832757502
1761380583006841300,4.48784130859375,-7.132558216273784,-10.199750323164462,-0.6007169454231858
1761380583016897500,4.4978974609375,-9.772643685501814,-8.969505348375439,-0.7957046799942851
1761380583026952400,4.507952392578125,-9.998058707040547,-7.398903214094043,-0.8168418683081865
1761380583037008600,4.518008544921875,-8.839860146808624,-6.288229206103086,-1.6529013550445437
1761380583047064600,4.528064697265625,-7.338690445193648,-4.833843467494845,-2.389335807685554
1761380583057120500,4.53812060546875,-5.604224028879404,-3.3512978023290634,-2.2124203208997844
1761380583067175700,4.54817578125,-3.616733284088969,-2.6298925765156747,-1.9465256971955298
1761380583077231600,4.558231689453125,-1.7710536872163414,-2.5078105036795137,-2.0157383496314285
1761380583087287600,4.56828759765625,-1.3378273976296187,-2.0964315965026614,-1.583266970065236
1761380583097342500,4.578342529296875,-1.5031725658699868,-1.204443009534478,-0.8510194477200508
1761380583107398400,4.5883984375,-1.5568009879440068,-0.16087152995765208,-0.6282303907707333
1761380583117454600,4.59845458984375,-1.5530404663667081,1.3142378477275372,-0.9710799516007304
1761380583127510500,4.608510498046875,-1.0756243219196795,3.1372002936184407,-1.8265142931535838
1761380583137565700,4.618565673828125,-0.17556465669870375,4.881083357575536,-2.9023700857415795
1761380583147621600,4.62862158203125,0.701266400887072,6.563284749123453,-3.9914004172012207
1761380583157677600,4.638677490234375,1.5763967920348048,8.146680898526311,-4.785782324159145
1761380583167732500,4.648732421875,2.045045984919369,9.03636471568346,-5.108499782064556
1761380583177788400,4.658788330078125,1.700743594932556,9.06372267820835,-4.979133397439122
1761380583187844600,4.6688447265625,1.8434096061140297,8.95775178221762,-4.686473224145174
1761380583197899500,4.6788994140625,2.5654367632180453,8.935694848710298,-4.732357315702736
1761380583207955700,4.688955810546875,3.568661034837365,8.85435687419474,-5.04726643794477
1761380583218011600,4.69901171875,4.344665865844488,8.723146323007345,-5.242910006076097
1761380583228067600,4.709067626953125,4.82861258110404,8.40589765190184,-5.0792286793947214
1761380583238122500,4.71912255859375,4.896500706937909,7.900642191153764,-4.67295849353373
1761380583248178400,4.729178466796875,4.980412915855646,7.291216746357083,-4.440906810459494
1761380583258234600,4.739234619140625,4.515072116866707,6.845605899232625,-4.717442362904548
1761380583268289500,4.74928955078125,3.8220655948027966,6.310961262392997,-5.383615530839562
1761380583278345500,4.759345458984375,3.5368688892573115,5.5569730328828095,-6.034150400137901
1761380583288401700,4.769401611328125,3.114964496412873,4.396057030385732,-6.58925330311656
1761380583298457600,4.77945751953125,2.8010405858159064,2.7583652271717787,-6.9898927896142
1761380583308512500,4.789512451171875,2.69262112762928,1.0803040041685104,-7.0729831607550375
1761380583318568400,4.799568359375,0.8030339999690651,-0.31568215244114395,-6.442358276063203
1761380583328624400,4.809624267578125,-3.3014234720915554,-2.4886627356171607,-4.7593002676859495
1761380583338679600,4.819679443359375,-6.548126342958212,-7.514968218597769,-3.282220174449682
1761380583348735500,4.829735595703125,-7.172409165146947,-12.58330783970952,-4.184112900316715
1761380583358791700,4.839791748046875,-7.962463564294576,-13.820108227491378,-7.436506676301359
1761380583368847600,4.84984765625,-11.479460462868213,-11.513960113841295,-7.593610378158092
1761380583378902500,4.859902587890625,-13.606270246499776,-9.416009929469228,-4.876918346850574
1761380583388958500,4.86995849609375,-14.103898281109332,-8.651865632125734,-2.915226060183346
1761380583399014400,4.880014404296875,-14.421518123614787,-7.219789340481162,-1.9576488564953207
1761380583409069600,4.890069580078125,-12.25823768119812,-4.805068623909354,-1.266078212453425
1761380583419125500,4.90012548828125,-9.261248991346358,-2.977397854197025,-0.038017002311116085
1761380583429181700,4.910181640625,-8.049818022620677,-2.2613152847111224,0.831514829044044
1761380583439237600,4.920237548828125,-6.516880140823125,-1.7689239817112683,1.6505707201398907
1761380583449289200,4.930289306640625,-4.164182457444071,-1.3722674273699522,2.434810441659391
1761380583459345400,4.940345458984375,-2.407193243676424,-1.03752109349668,2.9597593216538427
1761380583469401300,4.9504013671875,-0.47671968661546704,0.12958148868083952,3.3802304668247696
1761380583479456300,4.960456298828125,1.1304948530092835,1.430261935698986,3.151819478340447
1761380583489512200,4.97051220703125,2.3553858995497223,2.126560192784667,3.566915067952871
1761380583499568000,4.980568115234375,4.49603394665867,3.2471704883784054,3.83009809461087
1761380583509623300,4.990623291015625,5.824056866371631,4.536536929699778,3.602384148479998
1761380583519679200,5.00067919921875,6.835568489342927,5.832338372504711,3.4982059811249373
1761380583529735400,5.0107353515625,7.187057868224382,6.647314446941018,3.816395147950947
1761380583539791400,5.020791259765625,6.785688898408413,7.198216975620388,4.392575033488869
1761380583549846300,5.03084619140625,6.164201844418049,7.659078583368658,4.9902147634238005
1761380583559902200,5.040902099609375,5.012616564846039,7.696857986664772,5.3412511378407475
1761380583569958100,5.050958251953125,3.705527419829368,7.420504805049299,5.662049610382319
1761380583580013300,5.061013427734375,2.6883997105419635,7.179768295738101,6.119409932011366
1761380583590069200,5.0710693359375,2.0724787662461397,6.840604729944467,6.526409601190686
1761380583600125400,5.08112548828125,1.5724302264913916,6.616562750324607,6.893575272631645
1761380583610181400,5.091181396484375,1.354316760137677,6.357705477911233,7.076824638614058
1761380583620236000,5.101236083984375,1.4517898768961428,6.282127382096648,7.043844744554161
1761380583630292200,5.111292236328125,1.568626742555201,6.090292558598518,6.543641891020536
1761380583640348200,5.12134814453125,1.5663637660592793,5.655105490332842,6.216674374455213
1761380583650403300,5.1314033203125,0.8173124084293841,4.89075310319662,6.2224740006446835
1761380583660459300,5.141459228515625,-0.3087155282989144,3.444658223071694,5.752435983750224
1761380583670515200,5.15151513671875,-0.9539484917968512,1.5924673446089028,4.921891168782115
1761380583680571400,5.1615712890625,-1.1359820522487163,0.1211649579912424,4.404866359785199
1761380583690626000,5.1716259765625,-0.9950330741181969,-1.9713053336650133,3.744064363494515
1761380583700682200,5.18168212890625,-2.091282835437357,-5.356123712801933,2.952611787986755
1761380583710738200,5.19173828125,-4.34852312579453,-8.623775848194956,2.462007368403673
1761380583720793300,5.20179345703125,-5.341885928612947,-10.084456887555122,1.9345251705393194
1761380583730849300,5.211849365234375,-6.088556528586149,-9.004517040523886,0.11143749083355069
1761380583740905200,5.2219052734375,-7.451925779229402,-6.200524619165063,-1.5675712421528993
1761380583750961400,5.23196142578125,-7.970244719690084,-5.0982636347323655,-1.772898730561137
1761380583761016000,5.24201611328125,-8.829694142103195,-5.447098699712753,-1.3986829944781958
1761380583771072300,5.252072265625,-8.84943519988358,-4.960175014469027,-0.5731523544102907
1761380583781128200,5.262128173828125,-7.887402770352363,-4.075928419929743,0.5367688259193674
1761380583791183400,5.272183349609375,-6.581573854529857,-4.0203105776041745,0.7270207276076078
1761380583801239300,5.2822392578125,-4.793544774854183,-4.225519846460223,0.15171148742437363
1761380583811295200,5.292295166015625,-2.5175170741796493,-4.053667488282919,-0.4974079621180892
1761380583821351200,5.30235107421875,-1.0238953037261962,-3.3970401473283767,-1.0939750943854452
1761380583831406300,5.31240625,-0.4777960836753249,-2.6529829447239637,-1.4616846634447573
1761380583841462000,5.3224619140625,-0.8320186869129538,-1.8963912547171116,-1.844796676558256
1761380583851518200,5.332518310546875,-1.2766080820351837,-0.4808002339273691,-2.1865224940553305
1761380583861573000,5.342572998046875,-1.2237225872829556,0.8958692277938127,-2.625954068022966
1761380583871629300,5.35262939453125,-0.1118283898472786,2.2872177877306936,-3.373540321536362
1761380583881685200,5.362685302734375,0.9450924006462097,3.8917180999606846,-4.4088072063654655
1761380583891741200,5.3727412109375,2.085086026623845,5.508575789460539,-5.28022237638235
1761380583901796400,5.38279638671875,3.433956796315312,6.926735783955454,-5.675747880867124
1761380583911852300,5.392852294921875,3.8057393139019604,7.465832139506936,-5.751999930420517
1761380583921908200,5.402908203125,3.776540107424557,7.00330347532928,-5.520798142173886
1761380583931963100,5.412963134765625,3.6095223297968504,6.285355111971497,-5.135825011363625
1761380583942019300,5.423019287109375,4.002359910371899,5.7338224686950445,-5.071184489148855
1761380583952075300,5.4330751953125,5.194550756576657,5.43658548900485,-5.323157847267389
1761380583962131200,5.443131103515625,6.072706633025407,5.705765417990088,-5.580168615031242
1761380583972186400,5.453186279296875,5.962508474728465,6.497835248613357,-5.575662535783648
1761380583982242300,5.4632421875,5.05879145604372,7.02866704916656,-5.62827125942111
1761380583992298200,5.47329833984375,4.0805169167637825,7.367956871688365,-5.821650389751792
1761380584002353200,5.483353271484375,3.378172949773073,7.260220135068893,-6.326082843679189
1761380584012409000,5.4934091796875,2.6298040214493867,6.635245238962769,-7.067245493885874
1761380584022465300,5.50346533203125,1.9657392239704727,5.440805737048387,-7.919932582557201
1761380584032521200,5.513521240234375,0.9019120150893926,3.935229324907064,-8.398208850964904
1761380584042576400,5.523576416015625,-0.7688035213261842,2.53568109190166,-8.156878467413783
1761380584052632300,5.53363232421875,-1.4772913978993891,1.138770806184411,-7.585418888396024
1761380584062688300,5.543688232421875,-0.9596513796135783,0.9003197774618864,-7.024445047557354
1761380584072743200,5.5537431640625,-3.9057548086196183,1.2334879022330045,-5.575094965028763
1761380584082799000,5.563799072265625,-8.246641740447282,-1.1360323211312293,-2.631516086064279
1761380584092855300,5.573855224609375,-11.88260521018505,-8.02245304583311,-0.2545158822081983
1761380584102911200,5.5839111328125,-14.436210665833949,-14.222076916766166,-0.8873693296696991
1761380584112966400,5.59396630859375,-15.887167014515398,-13.0171458314538,-2.5718402005195617
1761380584123022300,5.604022216796875,-15.182766699516772,-8.918723255643249,-2.3974096624173225
1761380584133078300,5.614078369140625,-13.999010504180193,-7.8328434971690175,-2.361118013460934
1761380584143133200,5.62413330078125,-11.532914989680052,-6.200067523047328,-2.3385075377240776
1761380584153189000,5.634189208984375,-8.443380118077993,-3.089303985455632,-2.354563184989989
1761380584163245300,5.644245361328125,-5.617509042388201,-0.48402094953954217,-1.4698328985869884
1761380584173301200,5.65430126953125,-3.667635203808546,0.06236965467333793,0.24199681157059966
1761380584183356200,5.664356201171875,-2.486149876013398,-0.5584381848812103,2.0595403742179275
1761380584193412400,5.674412353515625,-1.6084592789888381,-0.8521154262632131,3.8197050031512974
1761380584203468300,5.68446826171875,-0.8539306589916348,-0.9043015405744314,5.284210569235682
1761380584213523200,5.694523193359375,-0.3185051009073853,-0.9877753580749035,6.495058769637346
1761380584223579100,5.7045791015625,0.445967697738111,-0.8808937769800425,7.27494014981687
1761380584233635000,5.714635009765625,1.21156365519464,-0.13980302296578884,7.408461316034197
1761380584243690200,5.724690185546875,1.405779820871353,1.1740040321290492,7.3321823784738775
1761380584253746200,5.73474609375,1.9472145562425254,2.5278052439600227,7.298101245173812
1761380584263802400,5.74480224609375,2.377553015433252,3.414758759370446,6.808663531282543
1761380584273858300,5.7548583984375,3.1209672439590093,4.506699425318837,6.267656958195567
1761380584283913200,5.764913330078125,3.6071962249368426,5.689644304272532,5.800445689159631
1761380584293969200,5.77496923828125,4.071428185901046,6.600196137413382,5.725186742296815
1761380584304025000,5.785025146484375,4.283401834325492,7.004952996101975,6.112630647134781
1761380584314081300,5.795081298828125,4.281692984580993,6.698363081654906,6.77965137180984
1761380584324136200,5.80513623046875,4.014308706840873,6.019564240902662,7.5942954378128045
1761380584334192400,5.8151923828125,3.7604309764057398,5.516792998185753,8.22456317963004
1761380584344248300,5.825248291015625,3.450498181271553,5.378101151332259,8.399939620280266
1761380584354303200,5.83530322265625,3.2560750948458907,5.517801882967353,8.286841648888588
1761380584364359200,5.845359130859375,3.42632323269695,5.694297098514437,7.771988923233747
1761380584374415000,5.8554150390625,4.081902525903284,5.887540035244822,7.035632796525955
1761380584384471300,5.86547119140625,4.602772904412448,5.868809615811705,6.133994337680935
1761380584394526200,5.875526123046875,3.9269104093730447,5.502454091709852,5.344871666425466
1761380584404582100,5.88558203125,2.7112434105128047,4.886671971362829,5.016307820579409
1761380584414638300,5.895638427734375,1.1154454601764678,3.62128144891262,4.999263162276148
1761380584424693200,5.905693359375,-1.164946280926466,1.746760665220022,4.883901922127604
1761380584434749200,5.915749267578125,-2.339909805737436,0.27527941490411756,4.366699418476224
1761380584444805000,5.92580517578125,-2.4438188007622954,-0.6749374891489743,3.6953707674741745
1761380584454860800,5.93586083984375,-2.093389160066843,-2.81798645991981,2.956325255551934
1761380584464915700,5.945915771484375,-2.9516686619177457,-7.108553071308136,2.468730831439793
1761380584474971600,5.9559716796875,-3.9075706258699294,-11.399518911147117,3.2053251508176324
1761380584485027800,5.96602783203125,-3.984698581475019,-12.411506334936618,3.680567166095972
1761380584495082800,5.976082763671875,-6.1692638039827346,-10.4582071980834,2.4745021083176133
1761380584505139000,5.986138916015625,-8.619623989212512,-8.50742851961851,1.1642106601282953
1761380584515195000,5.99619482421875,-9.11583163563013,-7.143536121883988,0.1470458702335134
1761380584525250000,6.00625,-9.24121508809924,-6.118377081832289,-0.6838242676988243
1761380584535306000,6.016305908203125,-8.47378753130138,-4.933552380481362,-1.1377299188293517
1761380584545361700,6.026361572265625,-6.940105553138256,-3.6942215974390504,-0.9906631884709
1761380584555417900,6.03641796875,-5.504821989884972,-3.399901966500282,-0.9267582870543003
1761380584565472800,6.04647265625,-3.597850012181699,-3.24706819704771,-0.7689858921557664
1761380584575529000,6.056529052734375,-1.7010051684781908,-2.8549989704966543,-0.82805329041332
1761380584585585000,6.0665849609375,-0.524637329827249,-2.6883465190500018,-0.8230795936539769
1761380584595640800,6.076640869140625,-0.20682547188103198,-2.7354800261467695,-0.30740473796129225
1761380584605696000,6.086696044921875,-0.3046744362145662,-2.370909047374129,0.553716417056322
1761380584615752000,6.096751953125,-0.9975307361528277,-1.4864590392172337,0.8415732817217707
1761380584625808000,6.106807861328125,-1.9065812248200178,-0.4072475064605474,0.41763124556988473
1761380584635862800,6.11686279296875,-2.303120290261507,1.1660077726781368,-0.7643307598263025
1761380584645918700,6.126918701171875,-2.1770669757068157,3.579799099445343,-2.818998851832747
1761380584655975000,6.136974853515625,-2.09069042250216,6.515017269560694,-4.980048174196481
1761380584666030800,6.14703076171875,-1.7363710808917878,8.86730111144185,-6.711557494270801
1761380584676086000,6.1570859375,-0.9043757748544216,10.173260960167646,-7.531783159798383
1761380584686142000,6.167141845703125,-0.13639175321757793,10.659719950509071,-7.573749493390321
1761380584696197600,6.17719775390625,0.1938876643747091,10.487312881058454,-7.504044089001416
1761380584706252800,6.187252685546875,0.8003259100541472,9.84706618154049,-7.51545220272243
1761380584716308700,6.197308837890625,2.80953836504817,8.98368000420034,-8.228262034147978
1761380584726365000,6.207364990234375,4.437941530913115,8.028219938796758,-9.190817026248574
1761380584736420900,6.2174208984375,5.696385010704398,7.360053551217913,-9.702951725116371
1761380584746476000,6.22747607421875,6.7113914900541305,7.272348379758,-9.702598673895
1761380584756532000,6.237531982421875,6.394642000642419,7.306269938582181,-9.02700359762013
1761380584766588000,6.247587890625,4.495938377329707,6.814378986319899,-7.996683813804387
1761380584776642800,6.257642822265625,3.088566903352737,6.254919641697406,-6.581241261574625
1761380584786698800,6.26769873046875,1.4273361113801597,5.052863235038519,-5.389245061159134
1761380584796755000,6.2777548828125,0.3485328671634197,3.93301807859838,-4.63503325202614
1761380584806811000,6.287810791015625,0.7069634434849024,3.2544775965213772,-5.006895264589787
1761380584816866000,6.297865966796875,-0.21461305701732633,2.0968623891353606,-6.049298284909129
1761380584826922000,6.307921875,-2.5742536914020775,-0.16925766550898552,-6.035428164988756
1761380584836978000,6.31797802734375,-4.513218305693567,-4.227511897060275,-4.740122689007222
1761380584847032800,6.32803271484375,-7.563819635528326,-9.773082076919078,-3.349813408990204
1761380584857088800,6.3380888671875,-10.26722869915366,-11.926500466012953,-1.9792808425888417
1761380584867144700,6.348144775390625,-11.779163540410995,-9.569895838323236,-0.09526095713432878
1761380584877201000,6.358200927734375,-11.66958439079523,-7.901953858274221,0.787303054612875
1761380584887255800,6.368255859375,-10.035759199881554,-7.173159691253304,1.1042867911718786
1761380584897312000,6.37831201171875,-8.751794325342773,-5.963840015593171,1.29866881493479
1761380584907368000,6.388367919921875,-6.988114674025773,-4.822997079309821,1.5312439373612403
1761380584917422800,6.3984228515625,-4.9514860965788365,-4.154454259634018,1.7670500045329331
1761380584927478800,6.408478759765625,-3.3851860434055325,-3.550292434453964,2.180879811993241
1761380584937534700,6.41853466796875,-1.8860609993606805,-2.964085368159413,2.8843855162397025
1761380584947591000,6.4285908203125,-0.8547156718894838,-2.6167297280818222,3.6650048553049563
1761380584957645800,6.438645751953125,0.0014887772530317305,-2.1938749026447533,4.534935339722037
1761380584967702000,6.448701904296875,-0.03601239362359047,-1.3189800738185644,5.23251603783369
1761380584977758000,6.458758056640625,-0.5688482274755835,-0.6330775385409593,5.976881867995858
1761380584987812900,6.468812744140625,0.6727367642343044,0.4772404956191778,5.702346549457311
1761380584997868800,6.478868896484375,2.609174782657623,1.66388364456892,4.694733687490224
1761380585007924700,6.4889248046875,3.9432238307923075,2.7354467083990572,4.090152760115266
1761380585017981000,6.49898095703125,4.284732206146419,3.9050481216549873,3.968542980965972
1761380585028035800,6.509035888671875,4.0744630235522985,4.999267838451266,4.078029483862221
1761380585038091800,6.519091796875,4.233009325432777,5.879118243858218,4.429621446335315
1761380585048148000,6.52914794921875,4.490096957825124,6.399011301767826,5.057307354965806
1761380585058203000,6.539202880859375,4.3265363349139685,6.344025327605009,5.929090773773193
1761380585068258800,6.5492587890625,4.070227285678684,5.94858574783802,6.788488173738122
1761380585078314800,6.559314697265625,3.9570185473889112,5.56562512589395,7.401442377182841
1761380585088370700,6.56937060546875,3.9215561888635158,5.502866179642081,8.033968127059936
1761380585098425900,6.57942578125,3.801296070757508,5.53474132733047,8.490828097951411
1761380585108481800,6.589481689453125,4.052619440534711,5.006277424952388,8.914636863112449
1761380585118538000,6.5995380859375,4.255817369568348,3.8072248762845993,9.27441359334588
1761380585128594000,6.609593994140625,3.3618975222766396,2.7827538184970617,9.25229411599636
1761380585138648800,6.61964892578125,1.4718711264163256,2.464374097535014,8.908491199964285
1761380585148704800,6.629704833984375,-0.9384107309252023,2.123381562748551,8.42894885714352
1761380585158760700,6.6397607421875,-2.83245922190845,1.648976582816243,7.9652657622337335
1761380585168815900,6.64981591796875,-4.506195567449927,0.7706593783259391,7.623113536018133
1761380585178871800,6.659871826171875,-4.071378501540422,-1.0442132846117018,6.760898740544915
1761380585188928000,6.669927978515625,-2.2507629110366105,-2.500530868065357,5.483869802749156
1761380585198984000,6.67998388671875,-1.8059984516084193,-2.8469273077219723,4.1373219230473035
1761380585209038800,6.690038818359375,-3.4326261322334406,-4.206145283904672,3.290024710720777
1761380585219094800,6.7000947265625,-5.526752082142234,-7.455129543706774,3.015183687233925
1761380585229150700,6.710150634765625,-7.341902977499365,-8.736061918681859,1.5262674641229212
1761380585239206000,6.720205810546875,-7.721927545991539,-6.581616524627805,-0.866790578956157
1761380585249261800,6.73026171875,-8.137552420175075,-4.83922399148941,-2.7993694377332923
1761380585259317800,6.74031787109375,-8.952415681886672,-3.809067289280891,-3.6903736898392436
1761380585269374000,6.7503740234375,-8.796724184915423,-2.7161305980324744,-4.388074214938283
1761380585279428900,6.760428955078125,-7.533040466383099,-1.417074537345767,-4.79026736061871
1761380585289485000,6.770485107421875,-6.124609838742018,-0.8164835563898086,-4.936288527446985
1761380585299540700,6.780540771484375,-4.539997883808613,-0.538695958057046,-4.576887060266733
1761380585309596000,6.790595947265625,-3.320388869324326,-0.35156069055199624,-3.7841087891131635
1761380585319651800,6.80065185546875,-2.492715225878358,-0.7085656179845332,-3.1371707752630114
1761380585329707800,6.810707763671875,-1.1604746884703636,-1.077947211909294,-2.7760008371055123
1761380585339764000,6.820763916015625,-0.5565379042178392,-0.8321966738283634,-2.5513953783839938
1761380585349819000,6.83081884765625,-0.20012860459089277,-0.16351766055226324,-2.342278434564918
1761380585359875000,6.840875,0.8840741605818271,0.7095622278064488,-2.4301677304200826
1761380585369931000,6.850930908203125,2.25333714543879,2.0078753611713647,-2.872702384969592
1761380585379986000,6.86098583984375,3.0405180349767207,3.582954933127761,-3.469028109696507
1761380585390041900,6.871041748046875,3.151033588659763,5.022855050265789,-4.051466763368249
1761380585400097800,6.881097900390625,3.177866066005826,6.218420925861596,-4.540547918906808
1761380585410154000,6.891154052734375,3.20872414560616,7.064281383383274,-4.747842761865258
1761380585420209000,6.901208984375,3.4673604687452313,7.452443081101775,-4.4259155775547026
1761380585430264800,6.911264892578125,3.3611627782613036,7.197353636789321,-3.798856276389956
1761380585440321000,6.921321044921875,3.082769030728936,6.594521014386415,-3.1495377971440552
1761380585450377000,6.931376953125,2.557943192592263,6.276698342785239,-2.7777836288690567
1761380585460432100,6.94143212890625,2.222268053436279,6.367026263964176,-2.857161116966605
1761380585470488000,6.951488037109375,2.343178452144563,6.5517357656270265,-3.1696251841440795
1761380585480544000,6.9615439453125,3.0814509338676928,7.002438382932543,-3.424773957428336
1761380585490599000,6.971598876953125,3.7736692281633615,7.536974883222579,-3.6934941599473357
1761380585500654800,6.98165478515625,4.266744714035093,7.604481900784373,-3.9883950979053973
1761380585510711000,6.9917109375,3.878704889130592,6.831365192434191,-4.0754169632762665
1761380585520767000,7.00176708984375,2.6841663107559084,5.193535442054271,-3.873946004165709
1761380585530822100,7.011822265625,1.0213327597618103,3.3389790035039186,-3.616276187971234
1761380585540878000,7.021878173828125,-1.4304583350539206,1.7430115418195724,-3.146626293611526
1761380585550934000,7.03193408203125,-2.5812662005126477,-0.03701835579574108,-2.6253192772507665
1761380585560989000,7.041989013671875,-1.7696785994708537,-0.8702934725105762,-2.0614451849259434
1761380585571044900,7.052044921875,-2.975352027583122,-1.2928940309256314,-1.8811049843885004
1761380585581101000,7.06210107421875,-6.135266841834783,-3.554380580550432,-2.199400095807016
1761380585591157000,7.072156982421875,-10.16601405777931,-7.572585710307956,-2.730390886314213
1761380585601212000,7.0822119140625,-11.547646110343932,-9.934708224636315,-1.5631303370960057
1761380585611268000,7.09226806640625,-11.354136631631851,-9.694586632353067,1.0252538787283003
1761380585621324000,7.102323974609375,-12.305580447131394,-8.936989564695955,1.9999010212913155
1761380585631380000,7.1123798828125,-11.234971323025226,-7.042062537312507,1.9269860072061418
1761380585641435000,7.122434814453125,-9.603540918293595,-5.227404978430271,1.3593027318567037
1761380585651490800,7.13249072265625,-7.767658785074949,-3.698513741675019,0.8516095956329256
1761380585661547000,7.142547119140625,-5.857870288646221,-2.367839138409495,0.5778210768736899
1761380585671602000,7.152601806640625,-3.984848219078779,-1.65323424026072,0.7918187784716486
1761380585681658000,7.162658203125,-2.479034491050243,-1.4008914643079042,1.284766107919067
1761380585691714000,7.172714111328125,-1.6692168222904205,-1.253466860422492,1.7698314519450067
1761380585701770000,7.18277001953125,-0.8724480201959609,-1.145678685876727,2.068482536216825
1761380585711825000,7.192824951171875,0.1195224514812231,-0.9589104981184006,2.1649369774520397
1761380585721880800,7.202880859375,0.8754699983656405,-0.44988779379129407,2.0427796474225817
1761380585731937000,7.21293701171875,1.2131702136084437,0.34310324333012104,1.9369157189376651
1761380585741992000,7.222991943359375,1.2367372594177721,1.2213503051936625,1.8718825441434979
1761380585752048000,7.233048095703125,1.1744675579875707,2.2373241682708263,1.6875106038719414
1761380585762104000,7.24310400390625,1.6884481769829986,3.492358131879568,1.2924962637796997
1761380585772160000,7.253159912109375,2.8574153839886187,4.968295777082443,1.2997881743535398
1761380585782215000,7.26321484375,3.6445769843041895,6.197035023483633,1.8401288308776913
1761380585792270800,7.273270751953125,3.987746863129735,6.570515284898876,2.9888296410545707
1761380585802327000,7.2833271484375,3.573513735565543,6.111546943551302,4.361943748381734
1761380585812383000,7.293383056640625,2.6428409054160116,5.517784347310662,5.193700861749052
1761380585822438000,7.30343798828125,1.7809341529786586,5.235875285133719,5.791138931632042
1761380585832494000,7.313494140625,2.029585088676214,4.7905303954690694,6.267247208350897
1761380585842550000,7.323550048828125,2.8548855732500553,3.903768603238463,6.51232028556168
1761380585852605200,7.333605224609375,3.9894051517307756,3.1964883488893507,6.780344614771008
1761380585862660900,7.343660888671875,4.722969017371535,3.9024937609970567,6.412637676060199
1761380585872716800,7.353716796875,4.710048161000013,5.477587361478805,5.610932002085447
1761380585882773000,7.36377294921875,4.941141228175163,6.568623187541961,4.87684148222208
1761380585892828000,7.373827880859375,4.9268391465783115,7.128664131444692,4.163258912858367
1761380585902884000,7.383884033203125,3.944101198148727,7.181472177046537,3.8369390465468167
1761380585912940000,7.39393994140625,2.0990414867401124,5.968893207329511,3.540428627565503
1761380585922996000,7.403995849609375,0.5337526564359665,4.193606120327114,3.137204969793558
1761380585933051100,7.414051025390625,-0.5358025747030973,2.170644833704829,2.258917283658683
1761380585943106800,7.42410693359375,-0.6592237871885299,-0.8981751666486263,0.8747305781751871
1761380585953163000,7.4341630859375,1.3783873715549706,-3.9883647027671336,0.37997356895729895
1761380585963218000,7.444218017578125,3.0434704550415277,-4.350385412535071,-0.18553923048526047
1761380585973274000,7.454274169921875,-0.8927250845491885,-5.75404751060009,-1.1702278745912014
1761380585983330000,7.464330078125,-7.016438266712426,-7.226122635155916,0.5405386633142829
1761380585993386000,7.474385986328125,-11.406738925528526,-7.408932440677285,1.6556148517869411
1761380586003441200,7.484441162109375,-12.135299868315457,-6.761860863575339,0.813421392340213
1761380586013496800,7.494496826171875,-10.309950235027074,-4.544363677802681,0.19750892361178993
1761380586023552800,7.504552734375,-9.84963690881133,-2.4871371334850787,0.19422303380891678
1761380586033609000,7.51460888671875,-8.694424086391924,-0.5247258848935366,1.28021940440014
1761380586043664000,7.524663818359375,-6.4285635594666,0.13554478099942208,2.2202722034439444
1761380586053720000,7.534719970703125,-5.432254181802272,-0.12755027511417866,2.045387637963891
1761380586063776000,7.54477587890625,-4.630841937816143,-0.36371991490125655,0.9395590241774916
1761380586073831200,7.5548310546875,-2.6747499553740024,-0.4120294800400734,0.33408202474564314
1761380586083887000,7.56488720703125,-1.354417882424593,-0.5259411059021949,0.3099675741866231
1761380586093942800,7.57494287109375,-1.879057258078456,-0.7823930707395076,0.4109887388154864
1761380586103999000,7.5849990234375,-2.1762088975727556,-0.9356202234238385,0.40140287208557124
1761380586114054000,7.595053955078125,-1.567393693628907,-0.5063526083350182,0.04907443029778078
1761380586124110000,7.605110107421875,-0.4997399121969938,0.5017255330562591,-0.6524152762174606
1761380586134166000,7.615166015625,0.2611222947359085,1.6963959211170672,-0.9310524771168828
1761380586144222000,7.625221923828125,-0.27941081562042236,2.2226590985804795,-1.0078586534217
1761380586154277000,7.635277099609375,0.7001964335680008,2.853237221521139,-1.3018500753194093
1761380586164333000,7.6453330078125,1.6243500910818576,3.498831711807847,-1.3954714850857852
1761380586174389000,7.655388916015625,1.805314560997486,4.103538311389088,-1.4252994909860193
1761380586184444000,7.66544384765625,0.6290308934986591,4.3395583135724065,-1.2473531998477876
1761380586194500000,7.6755,0.02824059057831764,4.0616625786900515,-0.8719706850077956
1761380586204556000,7.68555615234375,1.013788920253515,4.056274455910921,-0.5828133322030306
