time,seconds_elapsed,z,y,x
1761380578586098000,0.067097900390625,0.029319539666175842,0.8965081572532654,-0.39474812150001526
1761380578596153900,0.07715380859375,0.022552713751792908,0.8648684620857239,-0.49117451906204224
1761380578606209000,0.087208984375,0.020658940076828003,0.791190505027771,-0.6398137807846069
1761380578616265000,0.097264892578125,0.0332101508975029,0.6616394519805908,-0.7881731986999512
1761380578626321200,0.107321044921875,0.06801766902208328,0.5156998634338379,-0.8826232552528381
1761380578636375800,0.117375732421875,0.10336846858263016,0.39735907316207886,-0.9085440635681152
1761380578646432000,0.127431884765625,0.09519282728433609,0.34127211570739746,-0.8655039072036743
1761380578656488000,0.137488037109375,0.0467081181704998,0.2909468710422516,-0.7810004949569702
1761380578666543900,0.1475439453125,-0.010914166457951069,0.23529614508152008,-0.6597230434417725
1761380578676599000,0.15759912109375,-0.051004327833652496,0.16777408123016357,-0.5217979550361633
1761380578686655000,0.167655029296875,-0.08068765699863434,0.06737051904201508,-0.39279282093048096
1761380578696711200,0.177711181640625,-0.09205029904842377,-0.08064264804124832,-0.2988801896572113
1761380578706767000,0.18776708984375,-0.07171120494604111,-0.23154081404209137,-0.2658250331878662
1761380578716822000,0.197822021484375,-0.012679842300713062,-0.37347450852394104,-0.28429004549980164
1761380578726878000,0.2078779296875,0.07825671881437302,-0.42919105291366577,-0.30116650462150574
1761380578736934000,0.217933837890625,0.14928029477596283,-0.3972216546535492,-0.2919066846370697
1761380578746990000,0.227989990234375,0.17906269431114197,-0.29409128427505493,-0.2714917063713074
1761380578757045000,0.238044921875,0.1275334507226944,-0.22163093090057373,-0.21933475136756897
1761380578767101000,0.248100830078125,0.03110279142856598,-0.24835069477558136,-0.1108599379658699
1761380578777157000,0.2581572265625,-0.0505681037902832,-0.4493328034877777,0.07553363591432571
1761380578787211800,0.268211669921875,-0.033005885779857635,-0.8235934972763062,0.31948983669281006
1761380578797268000,0.27826806640625,0.10268297046422958,-1.2439918518066406,0.5580001473426819
1761380578807324000,0.288323974609375,0.3338107168674469,-1.6335164308547974,0.6936429142951965
1761380578817379800,0.2983798828125,0.546099841594696,-1.8042889833450317,0.6587139964103699
1761380578827435000,0.30843505859375,0.6282407641410828,-1.81199049949646,0.4460698962211609
1761380578837491000,0.318490966796875,0.5683372020721436,-1.7568016052246094,0.16078808903694153
1761380578847547100,0.328547119140625,0.3903544247150421,-1.695918321609497,-0.09008648246526718
1761380578857603000,0.33860302734375,0.15945303440093994,-1.7365472316741943,-0.15200577676296234
1761380578867658000,0.348657958984375,-0.07222253084182739,-1.8341046571731567,0.03755190223455429
1761380578877714000,0.3587138671875,-0.26128220558166504,-1.9563831090927124,0.3819313943386078
1761380578887769900,0.368769775390625,-0.35874003171920776,-2.0142529010772705,0.6864478588104248
1761380578897825000,0.378824951171875,-0.3262864947319031,-2.055990695953369,0.7797890305519104
1761380578907881000,0.388880859375,-0.17838412523269653,-2.18863582611084,0.6393759846687317
1761380578917937200,0.398937255859375,-0.05164561793208122,-2.411203622817993,0.4445958435535431
1761380578927993000,0.4089931640625,-0.03762301057577133,-2.5546963214874268,0.2833355665206909
1761380578938048000,0.419048095703125,-0.10443639755249023,-2.5469648838043213,0.13780634105205536
1761380578948104000,0.42910400390625,-0.1837834119796753,-2.4530863761901855,-0.055987901985645294
1761380578958160000,0.439159912109375,-0.24784068763256073,-2.3484344482421875,-0.3412601351737976
1761380578968216000,0.449216064453125,-0.3029817044734955,-2.104191780090332,-0.6728913187980652
1761380578978271000,0.45927099609375,-0.36036190390586853,-1.8146928548812866,-0.9834569096565247
1761380578988327000,0.469326904296875,-0.4037330746650696,-1.5868685245513916,-1.1960676908493042
1761380578998383000,0.479383056640625,-0.4323314428329468,-1.4347010850906372,-1.2702734470367432
1761380579008438000,0.48943798828125,-0.41417959332466125,-1.368533968925476,-1.2563304901123047
1761380579018494000,0.499493896484375,-0.27919408679008484,-1.4375107288360596,-1.2606762647628784
1761380579028550000,0.5095498046875,-0.0423533171415329,-1.4594557285308838,-1.2914650440216064
1761380579038605800,0.519605712890625,0.1851075440645218,-1.3180458545684814,-1.3059734106063843
1761380579048661000,0.529660888671875,0.34801629185676575,-0.9797559380531311,-1.2571033239364624
1761380579058717000,0.539717041015625,0.4028768837451935,-0.5802125334739685,-1.106781005859375
1761380579068773000,0.549773193359375,0.3113301992416382,-0.16751974821090698,-0.8511399030685425
1761380579078829000,0.5598291015625,0.12868234515190125,0.2471141815185547,-0.5351768732070923
1761380579088884000,0.569884033203125,-0.07757735252380371,0.6361149549484253,-0.24011406302452087
1761380579098940000,0.57993994140625,-0.27315324544906616,0.9303374886512756,-0.017976604402065277
1761380579108995800,0.589995849609375,-0.4043445587158203,1.1083415746688843,0.1243794783949852
1761380579119051000,0.600051025390625,-0.41283124685287476,1.2071363925933838,0.19202350080013275
1761380579129107000,0.61010693359375,-0.3525761663913727,1.1967782974243164,0.1990707516670227
1761380579139163100,0.6201630859375,-0.276531457901001,1.3140110969543457,0.17726825177669525
1761380579149219000,0.630218994140625,-0.27090898156166077,1.3811789751052856,0.20591828227043152
1761380579159274000,0.64027392578125,-0.21748438477516174,1.3803685903549194,0.3717983365058899
1761380579169330000,0.650329833984375,-0.1335064023733139,1.3854261636734009,0.6651015877723694
1761380579179385900,0.6603857421875,-0.057906974107027054,1.2848412990570068,0.9899805784225464
1761380579189441800,0.67044189453125,-0.04418130964040756,1.1185678243637085,1.2356680631637573
1761380579199497000,0.6804970703125,-0.11516919732093811,0.9027830958366394,1.349536657333374
1761380579209553000,0.690552978515625,-0.18860933184623718,0.8611344695091248,1.440848469734192
1761380579219609000,0.700609130859375,-0.2526586055755615,1.0506612062454224,1.5360321998596191
1761380579229664000,0.7106640625,-0.31119704246520996,1.2365772724151611,1.4949244260787964
1761380579239720200,0.72072021484375,-0.29812517762184143,1.4810280799865723,1.123679280281067
1761380579249775900,0.73077587890625,-0.20880594849586487,2.0053153038024902,0.22160430252552032
1761380579259831800,0.740831787109375,-0.14193663001060486,2.8295400142669678,-1.0065691471099854
1761380579269887000,0.750886962890625,-0.20916493237018585,3.815155506134033,-1.82982337474823
1761380579279943000,0.76094287109375,-0.4207301735877991,4.538156509399414,-1.770805835723877
1761380579289999000,0.7709990234375,-0.6989567279815674,4.619596481323242,-1.0113050937652588
1761380579300055000,0.781054931640625,-0.6747211813926697,4.200011730194092,-0.08689548075199127
1761380579310110200,0.791110107421875,-0.21170319616794586,3.760277271270752,0.6142045855522156
1761380579320166000,0.801165771484375,0.3260561227798462,3.4480581283569336,0.9675948619842529
1761380579330221800,0.811221923828125,0.6916495561599731,3.2262489795684814,1.061191439628601
1761380579340277000,0.821277099609375,0.8535167574882507,3.0094351768493652,0.9784672260284424
1761380579350333000,0.8313330078125,0.9173769354820251,2.6589574813842773,0.7308275699615479
1761380579360389000,0.84138916015625,0.9772077798843384,2.206697940826416,0.33845609426498413
1761380579370445000,0.851445068359375,1.0283969640731812,1.7735276222229004,-0.13446566462516785
1761380579380500000,0.8615,1.0637712478637695,1.4275832176208496,-0.5852022171020508
1761380579390556200,0.87155615234375,1.0535888671875,1.2553536891937256,-0.8369905352592468
1761380579400611800,0.88161181640625,1.0115623474121094,1.1774522066116333,-0.8464362025260925
1761380579410667800,0.891667724609375,1.0165293216705322,1.0273103713989258,-0.7158966064453125
1761380579420723000,0.901722900390625,1.0613762140274048,0.8041625022888184,-0.648396909236908
1761380579430779000,0.91177880859375,1.085135817527771,0.6616448163986206,-0.7554623484611511
1761380579440835000,0.9218349609375,1.0405430793762207,0.6251453757286072,-0.9940994381904602
1761380579450890000,0.931889892578125,0.8716115951538086,0.6633273959159851,-1.195993423461914
1761380579460946200,0.9419462890625,0.6375234723091125,0.6644871830940247,-1.2745548486709595
1761380579471002000,0.952002197265625,0.38082751631736755,0.5863167643547058,-1.2001532316207886
1761380579481058000,0.96205810546875,0.17108891904354095,0.3983308672904968,-0.965501070022583
1761380579491113200,0.97211328125,0.1587425023317337,0.029447637498378754,-0.5982064008712769
1761380579501169200,0.982169189453125,0.2897071838378906,-0.48024117946624756,-0.2735345959663391
1761380579511225300,0.992225341796875,0.4733792841434479,-0.9526816606521606,-0.17646397650241852
1761380579521281000,1.002281005859375,0.7096298933029175,-1.1948013305664062,-0.36183544993400574
1761380579531336200,1.012336181640625,0.8749224543571472,-1.138250708580017,-0.7101497650146484
1761380579541392100,1.02239208984375,0.8778242468833923,-0.9815647602081299,-0.9664877653121948
1761380579551448000,1.032447998046875,0.7607689499855042,-0.9973517060279846,-0.9725411534309387
1761380579561503200,1.042503173828125,0.5960487127304077,-1.1670416593551636,-0.6834571361541748
1761380579571559200,1.05255908203125,0.43186140060424805,-1.4033972024917603,-0.16956692934036255
1761380579581615000,1.062614990234375,0.3170309364795685,-1.6713045835494995,0.5462196469306946
1761380579591671300,1.07267138671875,0.10833526402711868,-1.5117566585540771,1.2613524198532104
1761380579601726000,1.082725830078125,-0.403812974691391,-1.4145281314849854,1.5447988510131836
1761380579611782100,1.0927822265625,-0.9744564890861511,-1.5493876934051514,1.3134115934371948
1761380579621838000,1.102838134765625,-1.3586115837097168,-1.6799837350845337,0.6610493063926697
1761380579631893200,1.112893310546875,-1.626227855682373,-1.9838733673095703,-0.44391486048698425
1761380579641949200,1.12294921875,-1.5300451517105103,-2.4122397899627686,-1.5517041683197021
1761380579652005000,1.133005126953125,-0.8964961767196655,-2.9800591468811035,-1.974108338356018
1761380579662061300,1.143061279296875,0.06787785142660141,-3.813933849334717,-1.5962079763412476
1761380579672116000,1.153115966796875,0.6612064242362976,-4.308426856994629,-0.7125148773193359
1761380579682172200,1.163172119140625,0.8549780249595642,-4.279711723327637,0.2704794406890869
1761380579692228000,1.17322802734375,0.8634029626846313,-3.661444664001465,1.0287789106369019
1761380579702284000,1.183283935546875,0.5362035036087036,-2.69034743309021,1.427929401397705
1761380579712339200,1.193339111328125,-0.0011430287268012762,-1.8350740671157837,1.338420033454895
1761380579722395100,1.20339501953125,-0.481852650642395,-1.42576003074646,1.0206037759780884
1761380579732451300,1.213451416015625,-0.8048080801963806,-1.362342119216919,0.6964160799980164
1761380579742506000,1.223506103515625,-0.9806286096572876,-1.4764127731323242,0.36383599042892456
1761380579752562000,1.23356201171875,-1.0468579530715942,-1.5751510858535767,0.03959667682647705
1761380579762618000,1.2436181640625,-1.0236879587173462,-1.6742199659347534,-0.2257755994796753
1761380579772674000,1.253674072265625,-0.9520774483680725,-1.8363195657730103,-0.3941105604171753
1761380579782729200,1.263729248046875,-0.889509379863739,-1.9635547399520874,-0.4300576448440552
1761380579792785200,1.27378515625,-0.8670852780342102,-2.0113089084625244,-0.3690853714942932
1761380579802841000,1.283841064453125,-0.8724023103713989,-1.9740833044052124,-0.26888391375541687
1761380579812896000,1.29389599609375,-0.9353207945823669,-1.7781774997711182,-0.19485284388065338
1761380579822952000,1.303951904296875,-1.0476531982421875,-1.326069951057434,-0.21498660743236542
1761380579833008000,1.314008056640625,-1.1753818988800049,-0.7956441640853882,-0.2842322587966919
1761380579843064000,1.32406396484375,-1.263925313949585,-0.29914700984954834,-0.2599157392978668
1761380579853119200,1.334119140625,-1.3025838136672974,0.03991172835230827,-0.08267544209957123
1761380579863175200,1.344175048828125,-1.2699238061904907,0.28178852796554565,0.20752203464508057
1761380579873231000,1.354231201171875,-1.1826133728027344,0.46069490909576416,0.5489259362220764
1761380579883287300,1.364287353515625,-1.0512751340866089,0.5811560750007629,0.8758897185325623
1761380579893342000,1.374342041015625,-0.8420830368995667,0.6717326045036316,1.1374627351760864
1761380579903398100,1.384398193359375,-0.5265706181526184,0.6588607430458069,1.2786661386489868
1761380579913454000,1.3944541015625,-0.15435601770877838,0.6114423274993896,1.2652193307876587
1761380579923509200,1.40450927734375,0.16654877364635468,0.6486033201217651,1.104252576828003
1761380579933565200,1.414565185546875,0.29303374886512756,0.9806550145149231,0.7888261675834656
1761380579943621000,1.42462109375,0.13042165338993073,1.594234585762024,0.40790945291519165
1761380579953677000,1.434677001953125,-0.21691712737083435,2.2186830043792725,0.13058410584926605
1761380579963732000,1.44473193359375,-0.43200919032096863,2.509660482406616,0.08331380039453506
1761380579973788000,1.454787841796875,-0.24231010675430298,2.430910587310791,0.22740545868873596
1761380579983844000,1.464843994140625,0.24958613514900208,2.1671504974365234,0.3571397662162781
1761380579993899000,1.47489892578125,0.8824527859687805,2.1421937942504883,0.3337169885635376
1761380580003955200,1.484955078125,1.4653798341751099,2.491921901702881,0.2514047920703888
1761380580014011100,1.49501123046875,1.7579827308654785,3.1106925010681152,0.32614800333976746
1761380580024067000,1.505067138671875,1.6042450666427612,4.021488666534424,0.6537826061248779
1761380580034122200,1.515122314453125,1.0953134298324585,4.797866344451904,1.1719138622283936
1761380580044178000,1.525177978515625,0.6042957305908203,5.137523174285889,1.5923601388931274
1761380580054234000,1.535234130859375,0.32268378138542175,4.98561429977417,1.7257044315338135
1761380580064289000,1.5452890625,0.3178200423717499,4.490170955657959,1.5883444547653198
1761380580074345200,1.55534521484375,0.5322540402412415,3.838289499282837,1.368287205696106
1761380580084401200,1.565401123046875,0.7405989766120911,3.215705633163452,1.232517123222351
1761380580094457000,1.57545703125,0.7895737290382385,2.7022600173950195,1.2055482864379883
1761380580104512300,1.58551220703125,0.7504420280456543,2.2483530044555664,1.2024036645889282
1761380580114568200,1.595568115234375,0.668419361114502,1.84857976436615,1.0709755420684814
1761380580124624100,1.6056240234375,0.5981829762458801,1.5121625661849976,0.7974385619163513
1761380580134679000,1.615678955078125,0.5745564699172974,1.2484889030456543,0.4108104407787323
1761380580144735000,1.62573486328125,0.5357462763786316,1.1077890396118164,-0.015607455745339394
1761380580154791200,1.635791259765625,0.493396133184433,1.0170174837112427,-0.4032265543937683
1761380580164847000,1.64584716796875,0.5229183435440063,0.9033226370811462,-0.6627374887466431
1761380580174902300,1.65590234375,0.5773248672485352,0.771240234375,-0.741866409778595
1761380580184958200,1.665958251953125,0.5996288061141968,0.6210406422615051,-0.6313343048095703
1761380580195014000,1.676013916015625,0.5636196732521057,0.5138009786605835,-0.37254586815834045
1761380580205069000,1.686069091796875,0.44352924823760986,0.5708988904953003,-0.07143929600715637
1761380580215125000,1.696125,0.2595658004283905,0.6488352417945862,0.10987803339958191
1761380580225181200,1.70618115234375,0.11004447937011719,0.6053524613380432,0.07335490733385086
1761380580235237000,1.716237060546875,0.0834384337067604,0.44210284948349,-0.08108127117156982
1761380580245292300,1.726292236328125,0.20711749792099,0.07556639611721039,-0.15888658165931702
1761380580255348200,1.73634814453125,0.46153512597084045,-0.6059280037879944,-0.0899842157959938
1761380580265404200,1.746404052734375,0.7764478325843811,-1.4993399381637573,-0.010516823269426823
1761380580275459000,1.756458984375,1.023694396018982,-2.514953136444092,-0.010396181605756283
1761380580285515000,1.766514892578125,0.9348891377449036,-3.303030490875244,-0.1534809023141861
1761380580295571200,1.7765712890625,0.44917061924934387,-3.6193463802337646,-0.38677701354026794
1761380580305627100,1.786627197265625,-0.18736669421195984,-3.7058262825012207,-0.6234697103500366
1761380580315682000,1.79668212890625,-0.5580523610115051,-3.7333638668060303,-0.7155666351318359
1761380580325738200,1.80673828125,-0.6576471328735352,-3.4122753143310547,-0.620011568069458
1761380580335794200,1.816794189453125,-0.9640776515007019,-2.6081576347351074,-0.4389408826828003
1761380580345849000,1.82684912109375,-1.4319238662719727,-2.276320219039917,-0.15032798051834106
1761380580355905000,1.836905029296875,-1.677842378616333,-2.289750814437866,0.20193418860435486
1761380580365961000,1.8469609375,-1.6805694103240967,-2.823787212371826,0.4389805495738983
1761380580376017200,1.85701708984375,-1.5525866746902466,-3.8966236114501953,0.5700610876083374
1761380580386072000,1.867072021484375,-1.0622673034667969,-4.787702560424805,0.6206853985786438
1761380580396128300,1.877128173828125,-0.23268038034439087,-5.495575428009033,0.5825681090354919
1761380580406184200,1.88718408203125,0.48580479621887207,-5.808705806732178,0.4672396183013916
1761380580416239000,1.897239013671875,0.935245156288147,-5.645143985748291,0.3841854929924011
1761380580426295000,1.907294921875,1.0112009048461914,-4.848897457122803,0.47041836380958557
1761380580436351000,1.91735107421875,0.5961808562278748,-3.726017951965332,0.6560422778129578
1761380580446406000,1.927406005859375,-0.08383417874574661,-2.7368993759155273,0.8141565918922424
1761380580456461600,1.937461669921875,-0.611492395401001,-2.0156288146972656,0.7811424136161804
1761380580466517800,1.947517822265625,-0.8906756043434143,-1.3266457319259644,0.385320782661438
1761380580476573700,1.95757373046875,-0.9467892050743103,-0.7440232634544373,-0.30351805686950684
1761380580486628900,1.96762890625,-0.7864375710487366,-0.27134203910827637,-0.975052535533905
1761380580496684800,1.977684814453125,-0.5402659177780151,0.09207826107740402,-1.2807646989822388
1761380580506740700,1.98774072265625,-0.17515237629413605,0.20061272382736206,-1.1313248872756958
1761380580516796000,1.9977958984375,0.20124682784080505,0.27866706252098083,-0.7692996263504028
1761380580526851800,2.007851806640625,0.37975025177001953,0.3841894865036011,-0.44884464144706726
1761380580536907800,2.01790771484375,0.32857733964920044,0.38705211877822876,-0.2407236546278
1761380580546963700,2.027963623046875,0.11382617056369781,0.24370932579040527,-0.0811220183968544
1761380580557019000,2.038018798828125,-0.20323461294174194,-0.09305138140916824,0.07981227338314056
1761380580567074800,2.04807470703125,-0.6047852635383606,-0.5212533473968506,0.2162659913301468
1761380580577130800,2.058130859375,-1.0602105855941772,-0.9242668151855469,0.31834283471107483
1761380580587186000,2.06818603515625,-1.5281052589416504,-1.165084719657898,0.3982318043708801
1761380580597241900,2.078241943359375,-1.8877787590026855,-1.2862346172332764,0.4660468101501465
1761380580607297800,2.0882978515625,-2.0773508548736572,-1.1998027563095093,0.5169456601142883
1761380580617353700,2.098353759765625,-2.033057928085327,-0.9524851441383362,0.4563824534416199
1761380580627408600,2.10840869140625,-1.8219773769378662,-0.6292492747306824,0.22797271609306335
1761380580637464800,2.11846484375,-1.5919077396392822,-0.1890793740749359,-0.016814399510622025
1761380580647520800,2.128520751953125,-1.356731653213501,0.5712502002716064,-0.11870134621858597
1761380580657576000,2.138575927734375,-1.3636045455932617,1.4901139736175537,-0.07710623741149902
1761380580667631900,2.1486318359375,-1.5735419988632202,2.1547532081604004,0.05339398235082626
1761380580677687800,2.158687744140625,-1.706026315689087,2.63677716255188,0.14132490754127502
1761380580687742700,2.16874267578125,-1.7188286781311035,3.150791645050049,0.11016538739204407
1761380580697798700,2.178798583984375,-1.5573254823684692,3.658600330352783,0.15172135829925537
1761380580707854800,2.188854736328125,-1.1761318445205688,3.9490010738372803,0.23586392402648926
1761380580717910800,2.198910888671875,-0.560751736164093,3.72383713722229,-0.013084642589092255
1761380580727966000,2.208966064453125,0.5147554874420166,3.503401517868042,-0.585939884185791
1761380580738022000,2.21902197265625,1.3009110689163208,4.103013038635254,-1.1480629444122314
1761380580748077800,2.229077880859375,0.8818996548652649,4.397839069366455,-1.2057139873504639
1761380580758132700,2.2391328125,0.013785320334136486,4.611319541931152,-0.5958572626113892
1761380580768188700,2.249188720703125,-0.6075860857963562,4.678454875946045,0.20881526172161102
1761380580778244600,2.25924462890625,-0.8602087497711182,4.553859710693359,0.620003879070282
1761380580788300800,2.26930078125,-0.8896260261535645,4.461214542388916,0.6310861110687256
1761380580798355700,2.279355712890625,-0.6402630805969238,4.382566928863525,0.5091577768325806
1761380580808412000,2.289411865234375,-0.15712571144104004,4.079863548278809,0.3534590005874634
1761380580818467800,2.2994677734375,0.39659422636032104,3.7409567832946777,0.19902893900871277
1761380580828522800,2.309522705078125,0.905642032623291,3.495596170425415,0.10303477197885513
1761380580838578700,2.31957861328125,1.3186272382736206,3.2209653854370117,0.1859363168478012
1761380580848634600,2.329634521484375,1.582739233970642,3.0007433891296387,0.32903382182121277
1761380580858690800,2.33969091796875,1.6628221273422241,2.827214241027832,0.23484580218791962
1761380580868745700,2.349745849609375,1.560935378074646,2.781303882598877,-0.1354409158229828
1761380580878802000,2.359802001953125,1.3655481338500977,2.700591564178467,-0.5467656254768372
1761380580888857900,2.36985791015625,1.2552143335342407,2.4230618476867676,-0.8087045550346375
1761380580898912800,2.379912841796875,1.2861409187316895,2.1178386211395264,-0.8883383870124817
1761380580908968700,2.38996875,1.4118192195892334,1.7801088094711304,-0.822040319442749
1761380580919024600,2.400024658203125,1.577277660369873,1.3687641620635986,-0.726542055606842
1761380580929079800,2.410079833984375,1.6439200639724731,1.0610851049423218,-0.6374022960662842
1761380580939135700,2.4201357421875,1.5997891426086426,0.8216003775596619,-0.534604012966156
1761380580949192000,2.43019189453125,1.47328782081604,0.6566900014877319,-0.41796210408210754
1761380580959248000,2.440247802734375,1.2656673192977905,0.5615530610084534,-0.256462424993515
1761380580969302800,2.450302734375,1.0141171216964722,0.334471732378006,-0.09132245928049088
1761380580979358700,2.460358642578125,0.7790926098823547,0.004369981121271849,0.0685787945985794
1761380580989414700,2.47041455078125,0.5496066808700562,-0.3360917270183563,0.2251468300819397
1761380580999469800,2.4804697265625,0.30505019426345825,-0.6793116927146912,0.3056720495223999
1761380581009525800,2.49052587890625,0.08165944367647171,-1.040282130241394,0.27475035190582275
1761380581019581700,2.500581787109375,-0.06457766145467758,-1.4342224597930908,0.10193754732608795
1761380581029638000,2.510637939453125,-0.13473251461982727,-1.7402117252349854,-0.24911554157733917
1761380581039692800,2.52069287109375,-0.12423699349164963,-2.143221139907837,-0.6818246245384216
1761380581049749000,2.5307490234375,-0.03259602561593056,-2.6324760913848877,-0.9854137897491455
1761380581059804700,2.5408046875,0.17120769619941711,-3.084723949432373,-0.9987490773200989
1761380581069859800,2.55085986328125,0.31068968772888184,-3.3427364826202393,-0.7073896527290344
1761380581079915800,2.560915771484375,0.267488956451416,-3.810849189758301,-0.41628509759902954
1761380581089971700,2.5709716796875,0.18337808549404144,-4.1253275871276855,-0.5183307528495789
1761380581100027000,2.58102685546875,-0.17137761414051056,-4.113003730773926,-1.115073800086975
1761380581110082800,2.591082763671875,-0.7344945073127747,-4.234835147857666,-1.6878515481948853
1761380581120139000,2.601138916015625,-1.0275505781173706,-4.3876471519470215,-1.876450538635254
1761380581130195000,2.61119482421875,-1.0815908908843994,-4.372642993927002,-1.6606301069259644
1761380581140249900,2.621249755859375,-1.1472793817520142,-4.284299850463867,-1.1870158910751343
1761380581150305800,2.631305908203125,-1.2895742654800415,-3.9467787742614746,-0.5886036157608032
1761380581160361700,2.64136181640625,-1.4219002723693848,-3.266159772872925,0.10763964056968689
1761380581170417000,2.6514169921875,-1.361339807510376,-2.6382129192352295,0.7827962636947632
1761380581180472800,2.661472900390625,-1.0132728815078735,-2.249368906021118,1.270649790763855
1761380581190528800,2.67152880859375,-0.5495174527168274,-1.9134716987609863,1.433159589767456
1761380581200585000,2.6815849609375,-0.1958102434873581,-1.5126161575317383,1.2427313327789307
1761380581210639600,2.6916396484375,-0.014707040973007679,-1.2736788988113403,0.801262617111206
1761380581220695800,2.70169580078125,0.03508847951889038,-1.1172983646392822,0.26109230518341064
1761380581230751700,2.711751708984375,-0.03376275673508644,-1.0617491006851196,-0.2537963092327118
1761380581240807000,2.721806884765625,-0.16537430882453918,-1.027359962463379,-0.6529223918914795
1761380581250862800,2.73186279296875,-0.30317986011505127,-1.0011563301086426,-0.921193540096283
1761380581260918800,2.741918701171875,-0.35686543583869934,-1.0288898944854736,-1.0717518329620361
1761380581270975000,2.75197509765625,-0.33079150319099426,-1.0350884199142456,-1.1154732704162598
1761380581281029600,2.762029541015625,-0.2707444131374359,-1.0008503198623657,-1.098427414894104
1761380581291085800,2.7720859375,-0.20375418663024902,-0.970140814781189,-0.9989530444145203
1761380581301141800,2.782141845703125,-0.20245590806007385,-0.962735652923584,-0.7989957332611084
1761380581311197000,2.792197021484375,-0.32617998123168945,-1.0325759649276733,-0.5399811863899231
1761380581321252900,2.8022529296875,-0.4974135160446167,-1.105223298072815,-0.32660794258117676
1761380581331308800,2.812308837890625,-0.6334259510040283,-1.0886067152023315,-0.22476893663406372
1761380581341363700,2.82236376953125,-0.6990630030632019,-0.9436831474304199,-0.20964616537094116
1761380581351419600,2.832419677734375,-0.6690497398376465,-0.6835082769393921,-0.20790418982505798
1761380581361475600,2.8424755859375,-0.5782124996185303,-0.30413511395454407,-0.12715262174606323
1761380581371531800,2.85253173828125,-0.5054866075515747,0.2247103452682495,0.07234024256467819
1761380581381586700,2.862586669921875,-0.5310601592063904,0.9372846484184265,0.3033854365348816
1761380581391643000,2.872642822265625,-0.6627295017242432,1.72672700881958,0.4686470925807953
1761380581401698800,2.88269873046875,-0.8452966213226318,2.5087363719940186,0.5013291239738464
1761380581411754000,2.89275390625,-0.9718015789985657,3.1241164207458496,0.42161300778388977
1761380581421809700,2.9028095703125,-0.9371245503425598,3.4747650623321533,0.27713465690612793
1761380581431865600,2.912865478515625,-0.6658880114555359,3.475876808166504,0.1755654364824295
1761380581441922000,2.922922119140625,-0.007950068451464176,2.9600718021392822,0.33032384514808655
1761380581451977000,2.93297705078125,0.86664879322052,2.2106785774230957,0.5358077883720398
1761380581462033000,2.943032958984375,1.5942907333374023,1.6917003393173218,0.4521336555480957
1761380581472088800,2.9530888671875,1.7255264520645142,2.087312698364258,-0.23476004600524902
1761380581482144000,2.96314404296875,0.9581331610679626,3.330282211303711,-1.358272910118103
1761380581492200000,2.973199951171875,-0.08297264575958252,4.438112258911133,-1.9472085237503052
1761380581502255900,2.983255859375,-0.7910478115081787,5.248945713043213,-1.787918210029602
1761380581512311800,2.993311767578125,-0.9196054935455322,5.584251403808594,-1.135713815689087
1761380581522367000,3.003366943359375,-0.5858808159828186,5.283514499664307,-0.23254376649856567
1761380581532423000,3.0134228515625,0.010845989920198917,4.304744720458984,0.6717104911804199
1761380581542478800,3.023478759765625,0.7188412547111511,3.1277222633361816,1.3578689098358154
1761380581552533800,3.03353369140625,1.3018572330474854,2.1521170139312744,1.698177456855774
1761380581562590000,3.04358984375,1.6382882595062256,1.4943430423736572,1.7130011320114136
1761380581572646000,3.05364599609375,1.7855677604675293,1.197348952293396,1.5550676584243774
1761380581582701000,3.063701171875,1.7654858827590942,1.230224609375,1.3171457052230835
1761380581592757000,3.073757080078125,1.6328942775726318,1.4006507396697998,0.9950373768806458
1761380581602813000,3.08381298828125,1.4931052923202515,1.5546218156814575,0.57211834192276
1761380581612869000,3.093869140625,1.378247618675232,1.5224874019622803,0.13179823756217957
1761380581622923800,3.103923828125,1.2829666137695312,1.2416990995407104,-0.23001882433891296
1761380581632980000,3.11397998046875,1.1767488718032837,0.9032148122787476,-0.4648773968219757
1761380581643036000,3.124035888671875,1.0245212316513062,0.6736679077148438,-0.5921410918235779
1761380581653091000,3.134091064453125,0.8595442771911621,0.5954527258872986,-0.5944593548774719
1761380581663147000,3.14414697265625,0.7795557379722595,0.5369065999984741,-0.4909207224845886
1761380581673203000,3.154202880859375,0.7928766012191772,0.4945436716079712,-0.32295355200767517
1761380581683259100,3.164259033203125,0.81830894947052,0.45640507340431213,-0.14246633648872375
1761380581693313800,3.174313720703125,0.810315728187561,0.3122401833534241,0.03665974363684654
1761380581703369700,3.18436962890625,0.7506210207939148,0.017660485580563545,0.2371523678302765
1761380581713426000,3.194426025390625,0.550072968006134,-0.4746333658695221,0.4016331732273102
1761380581723480800,3.204480712890625,0.2575063705444336,-1.1183574199676514,0.4844018220901489
1761380581733537000,3.214537109375,-0.011571168899536133,-1.6685521602630615,0.3876148462295532
1761380581743593000,3.224593017578125,-0.24281370639801025,-1.9948112964630127,0.10808199644088745
1761380581753649000,3.23464892578125,-0.44605177640914917,-2.2725768089294434,-0.2241465449333191
1761380581763703800,3.244703857421875,-0.5432238578796387,-2.5967772006988525,-0.5355497002601624
1761380581773759700,3.254759765625,-0.5345691442489624,-2.829519271850586,-0.8000457882881165
1761380581783816000,3.26481591796875,-0.38232100009918213,-2.858684778213501,-1.0204391479492188
1761380581793870800,3.274870849609375,-0.05390850454568863,-2.8610706329345703,-1.1295366287231445
1761380581803927000,3.284927001953125,0.312690794467926,-2.695237398147583,-1.06801176071167
1761380581813983000,3.29498291015625,0.3449177145957947,-2.6153905391693115,-0.9982765913009644
1761380581824038000,3.305037841796875,-0.006885070353746414,-2.8434011936187744,-1.2157196998596191
1761380581834093800,3.31509375,-0.4352457523345947,-3.0039563179016113,-1.9170035123825073
1761380581844149800,3.325149658203125,-0.827565610408783,-3.2515971660614014,-2.8952693939208984
1761380581854206000,3.3352060546875,-1.0528210401535034,-3.9515042304992676,-3.5417072772979736
1761380581864260900,3.3452607421875,-1.0399495363235474,-4.918365478515625,-3.70802903175354
1761380581874317000,3.355317138671875,-1.0095436573028564,-5.60939359664917,-3.6178789138793945
1761380581884373000,3.365373046875,-1.1625651121139526,-5.901741981506348,-3.5103464126586914
1761380581894428000,3.375427978515625,-1.4158512353897095,-5.643704891204834,-3.3760783672332764
1761380581904483800,3.38548388671875,-1.6253037452697754,-4.399198055267334,-3.088042736053467
1761380581914539800,3.395539794921875,-1.678021788597107,-2.9911844730377197,-2.681425094604492
1761380581924595700,3.405595703125,-1.5530660152435303,-1.95460844039917,-2.381352663040161
1761380581934651000,3.41565087890625,-1.261981725692749,-1.4461153745651245,-2.2511022090911865
1761380581944706800,3.425706787109375,-0.9878625869750977,-1.52894926071167,-2.215657949447632
1761380581954763000,3.435762939453125,-0.840651273727417,-1.9335154294967651,-2.015265941619873
1761380581964818000,3.44581787109375,-0.7904033064842224,-2.054965019226074,-1.510986566543579
1761380581974874000,3.4558740234375,-0.770409345626831,-1.7432303428649902,-0.7755236625671387
1761380581984929800,3.4659296875,-0.7813988924026489,-1.1092270612716675,0.042944006621837616
1761380581994985000,3.47598486328125,-0.8394856452941895,-0.42094963788986206,0.7896666526794434
1761380582005041000,3.486041015625,-0.9566380977630615,0.11143012344837189,1.385500192642212
1761380582015096800,3.496096923828125,-1.0825281143188477,0.39530470967292786,1.7274484634399414
1761380582025153000,3.506153076171875,-1.1297565698623657,0.3677343428134918,1.8225533962249756
1761380582035208000,3.5162080078125,-1.0927938222885132,0.046485211700201035,1.8063135147094727
1761380582045264100,3.52626416015625,-0.953915536403656,-0.22970056533813477,1.821387767791748
1761380582055320000,3.536320068359375,-0.755472719669342,-0.2547356188297272,1.9354363679885864
1761380582065375000,3.546375,-0.553726315498352,0.008285094052553177,2.0962111949920654
1761380582075431000,3.556430908203125,-0.358195960521698,0.48221856355667114,2.1983537673950195
1761380582085486800,3.56648681640625,-0.23462049663066864,1.0413670539855957,2.2788445949554443
1761380582095542800,3.576542724609375,-0.20126546919345856,1.6042808294296265,2.349548578262329
1761380582105598000,3.586597900390625,-0.2545667588710785,2.1982338428497314,2.3896327018737793
1761380582115654000,3.59665380859375,-0.3317001760005951,2.7303123474121094,2.38192081451416
1761380582125710000,3.6067099609375,-0.3299539387226105,2.9959306716918945,2.210404872894287
1761380582135764700,3.6167646484375,-0.12177810072898865,2.8332343101501465,1.8329174518585205
1761380582145821000,3.626821044921875,0.32545480132102966,2.542471408843994,1.3180104494094849
1761380582155876900,3.636876953125,0.7366591095924377,2.532161235809326,0.857530951499939
1761380582165932800,3.646932861328125,0.9117223024368286,2.4559268951416016,0.7414749264717102
1761380582175988000,3.656988037109375,0.954294741153717,2.25730299949646,1.11060631275177
1761380582186044000,3.6670439453125,0.8571724891662598,2.4311366081237793,1.6595202684402466
1761380582196100000,3.67710009765625,0.7784358263015747,2.289031982421875,1.7359719276428223
1761380582206154800,3.68715478515625,1.140093445777893,1.9986320734024048,0.975516676902771
1761380582216211000,3.6972109375,1.6512458324432373,2.10127592086792,-0.17477872967720032
1761380582226267000,3.707266845703125,1.6068789958953857,2.760124683380127,-0.8194748759269714
1761380582236322000,3.717322021484375,1.171354055404663,3.758342742919922,-0.6685229539871216
1761380582246378000,3.7273779296875,0.7471194863319397,4.508073806762695,-0.02184990420937538
1761380582256434000,3.737433837890625,0.4987480044364929,4.754058837890625,0.8113858103752136
1761380582266489900,3.74748974609375,0.3924066722393036,4.493128776550293,1.5530455112457275
1761380582276544800,3.757544677734375,0.28781819343566895,3.8796210289001465,1.953336477279663
1761380582286600700,3.7676005859375,0.12443540245294571,3.0708611011505127,1.9338823556900024
1761380582296657000,3.777656982421875,0.004387291613966227,2.4195609092712402,1.5334547758102417
1761380582306711800,3.7877119140625,-0.03747813403606415,1.9373372793197632,0.8683987855911255
1761380582316768000,3.79776806640625,-0.046296391636133194,1.503472924232483,0.0219095591455698
1761380582326824000,3.807823974609375,0.012251339852809906,1.1918418407440186,-0.8055431246757507
1761380582336879000,3.817879150390625,0.16566060483455658,0.9863179326057434,-1.3620473146438599
1761380582346934800,3.827934814453125,0.3309808671474457,0.7915641665458679,-1.5326638221740723
1761380582356990700,3.83799072265625,0.423909455537796,0.588401734828949,-1.414457082748413
1761380582367047000,3.848046875,0.4314557909965515,0.3540896475315094,-1.1722489595413208
1761380582377101800,3.858101806640625,0.3519356846809387,0.22068551182746887,-0.9297534823417664
1761380582387158000,3.868157958984375,0.21772326529026031,0.29426679015159607,-0.7113236784934998
1761380582397214000,3.8782138671875,0.1102740466594696,0.4909878373146057,-0.4702785611152649
1761380582407269000,3.88826904296875,0.11144929379224777,0.5466470718383789,-0.18726550042629242
1761380582417325000,3.898324951171875,0.34178051352500916,0.34674757719039917,-0.025058481842279434
1761380582427380700,3.908380615234375,0.7238381505012512,-0.13671976327896118,-0.020135894417762756
1761380582437437000,3.91843701171875,1.0083731412887573,-0.7602760195732117,-0.10167203098535538
1761380582447495400,3.928495361328125,1.0952290296554565,-1.3548283576965332,-0.1333865523338318
1761380582457551400,3.93855126953125,1.097902774810791,-1.7741010189056396,-0.00809228140860796
1761380582467607600,3.948607666015625,1.1023327112197876,-1.758939266204834,0.23046623170375824
1761380582477662500,3.958662353515625,1.0178252458572388,-1.5187472105026245,0.48167529702186584
1761380582487718700,3.96871875,0.7641394734382629,-1.444661021232605,0.6157068610191345
1761380582497774600,3.978774658203125,0.3730553388595581,-1.5904827117919922,0.6199349164962769
1761380582507829500,3.98882958984375,-0.16782309114933014,-1.7533304691314697,0.5182367563247681
1761380582517885400,3.998885498046875,-0.7668457627296448,-1.8256053924560547,0.3251064419746399
1761380582527938600,4.0089384765625,-1.3621448278427124,-1.7926493883132935,0.10796907544136047
1761380582537994500,4.018994384765625,-1.8065792322158813,-1.5656020641326904,0.03812900930643082
1761380582548049400,4.02904931640625,-1.9444169998168945,-1.6142524480819702,0.17627888917922974
1761380582558105300,4.039105224609375,-1.6650452613830566,-2.1571755409240723,0.21203050017356873
1761380582568161500,4.04916162109375,-1.0190346240997314,-2.8649187088012695,-0.2617064416408539
1761380582578217500,4.059217529296875,-0.4547469913959503,-3.508488893508911,-1.3415021896362305
1761380582588272600,4.069272705078125,-0.3358357846736908,-3.855045795440674,-2.3513896465301514
1761380582598328600,4.07932861328125,-0.33768215775489807,-4.095422267913818,-2.6942875385284424
1761380582608384500,4.089384521484375,-0.2948097884654999,-4.604883670806885,-2.416236400604248
1761380582618439400,4.099439453125,-0.30445098876953125,-4.891097545623779,-1.8610332012176514
1761380582628495400,4.109495361328125,-0.4818324148654938,-4.5689826011657715,-1.2227294445037842
1761380582638551600,4.119551513671875,-0.7825145125389099,-3.729640483856201,-0.5643488764762878
1761380582648606500,4.1296064453125,-1.009130835533142,-2.9498300552368164,0.030055636540055275
1761380582658662700,4.13966259765625,-0.9769428372383118,-2.419645071029663,0.37139883637428284
1761380582668718600,4.149718505859375,-0.7819429636001587,-1.9982949495315552,0.4382380545139313
1761380582678774500,4.1597744140625,-0.6172655820846558,-1.650423526763916,0.3721669018268585
1761380582688829400,4.169829345703125,-0.5261215567588806,-1.4046462774276733,0.25581979751586914
1761380582698885400,4.179885498046875,-0.4169010818004608,-1.264752745628357,0.07671714574098587
1761380582708941600,4.189941650390625,-0.29095301032066345,-1.211632251739502,-0.1845266968011856
1761380582718996500,4.19999658203125,-0.166227325797081,-1.2185876369476318,-0.4779338240623474
1761380582729052400,4.210052490234375,-0.09864374995231628,-1.1092060804367065,-0.800001859664917
1761380582739108600,4.220108642578125,-0.11621901392936707,-0.8900361657142639,-1.1611888408660889
1761380582749163500,4.23016357421875,-0.2151794135570526,-0.6449768543243408,-1.4996968507766724
1761380582759219700,4.2402197265625,-0.3907323479652405,-0.3049471080303192,-1.6880114078521729
1761380582769275400,4.250275390625,-0.5864506959915161,0.006791327148675919,-1.661197304725647
1761380582779331300,4.260331298828125,-0.7120030522346497,0.18839308619499207,-1.4694933891296387
1761380582789386500,4.270386474609375,-0.787671685218811,0.25418728590011597,-1.2184686660766602
1761380582799442400,4.2804423828125,-0.8171550035476685,0.12436243146657944,-0.9417513012886047
1761380582809498600,4.29049853515625,-0.7809653282165527,-0.1545483022928238,-0.6281337141990662
1761380582819553500,4.300553466796875,-0.7029056549072266,-0.4966505169868469,-0.2779964506626129
1761380582829609700,4.310609619140625,-0.620831310749054,-0.7716378569602966,0.09888636320829391
1761380582839665700,4.320665771484375,-0.4608626961708069,-0.8746710419654846,0.45930367708206177
1761380582849721300,4.330721435546875,-0.25179868936538696,-0.6354286074638367,0.8087495565414429
1761380582859776500,4.340776611328125,-0.08182269334793091,-0.10382972657680511,1.130030632019043
1761380582869832400,4.35083251953125,0.020379040390253067,0.5819627642631531,1.2977077960968018
1761380582879888600,4.360888671875,0.062311310321092606,1.3138593435287476,1.1578651666641235
1761380582889943600,4.370943603515625,0.07183317840099335,1.960638403892517,0.7758616209030151
1761380582899999700,4.380999755859375,0.11747176945209503,2.492222547531128,0.3432028889656067
1761380582910055700,4.3910556640625,0.12059459090232849,2.990527391433716,0.13618287444114685
1761380582920111400,4.401111328125,0.0951872318983078,3.2364280223846436,0.43851450085639954
1761380582930167600,4.41116748046875,0.22290818393230438,3.2108631134033203,1.3486000299453735
1761380582940223500,4.421223388671875,0.5773245692253113,3.0829732418060303,2.2351717948913574
1761380582950279400,4.431279541015625,1.1620042324066162,2.6640002727508545,2.2066962718963623
1761380582960334600,4.44133447265625,1.8050378561019897,2.430919885635376,1.2536066770553589
1761380582970390500,4.451390625,1.9966059923171997,2.739818811416626,0.27269038558006287
1761380582980446500,4.461446533203125,1.6709426641464233,3.1227574348449707,-0.23511052131652832
1761380582990501600,4.471501708984375,1.1951851844787598,3.6660993099212646,-0.3139835000038147
1761380583000557300,4.481557373046875,0.7663584351539612,3.889694929122925,-0.21279563009738922
1761380583010613500,4.491613525390625,0.5117466449737549,3.8429651260375977,0.07131226360797882
1761380583020669400,4.50166943359375,0.4641415774822235,3.726835012435913,0.5397018194198608
1761380583030724600,4.511724609375,0.3968416154384613,3.601097583770752,0.9224228262901306
1761380583040780500,4.521780517578125,0.18589796125888824,3.368807315826416,0.992251992225647
1761380583050836500,4.53183642578125,0.007320763543248177,3.0784459114074707,0.7854546308517456
1761380583060891600,4.5418916015625,0.005850432440638542,2.825385570526123,0.4087880253791809
1761380583070947600,4.551947509765625,0.1914762258529663,2.613006830215454,-0.10179959982633591
1761380583081003500,4.56200341796875,0.4401068091392517,2.24592661857605,-0.7058995962142944
1761380583091059500,4.5720595703125,0.6782978177070618,1.793595790863037,-1.269461989402771
1761380583101114600,4.582114501953125,0.9175745844841003,1.3141014575958252,-1.6316457986831665
1761380583111170600,4.592170654296875,1.1275323629379272,0.859693706035614,-1.7626004219055176
1761380583121226500,4.6022265625,1.2614177465438843,0.5075700283050537,-1.7079211473464966
1761380583131281700,4.61228173828125,1.261894702911377,0.29801809787750244,-1.5674407482147217
1761380583141337600,4.622337646484375,1.0783487558364868,0.24881167709827423,-1.4165045022964478
1761380583151393500,4.6323935546875,0.7583795785903931,0.30004051327705383,-1.2038915157318115
1761380583161448400,4.642448486328125,0.41242191195487976,0.3289989233016968,-0.9547584056854248
1761380583171504400,4.65250439453125,0.1272844523191452,0.187560573220253,-0.7188534736633301
1761380583181560600,4.662560546875,-0.06119384989142418,0.03719610348343849,-0.5289948582649231
1761380583191616500,4.672616455078125,-0.18307341635227203,-0.018329206854104996,-0.4203336238861084
1761380583201671700,4.682671630859375,-0.2404690682888031,0.031155789270997047,-0.3633025884628296
1761380583211727600,4.6927275390625,-0.2410280555486679,0.12159807235002518,-0.3382273018360138
1761380583221783600,4.702783447265625,-0.18766017258167267,0.09689405560493469,-0.34272804856300354
1761380583231838500,4.71283837890625,-0.08134918659925461,-0.14260615408420563,-0.3600386083126068
1761380583241894400,4.722894287109375,0.03710981830954552,-0.5466276407241821,-0.3386949598789215
1761380583251950600,4.73295068359375,0.04424149543046951,-1.0669883489608765,-0.34468895196914673
1761380583262006500,4.743006591796875,-0.131016343832016,-1.5242615938186646,-0.4097510278224945
1761380583272061700,4.753061767578125,-0.4396253228187561,-1.7619057893753052,-0.5547358989715576
1761380583282117600,4.76311767578125,-0.7715936899185181,-1.7727349996566772,-0.7286259531974792
1761380583292173600,4.773173583984375,-1.0205163955688477,-1.4033918380737305,-0.8837577700614929
1761380583302228500,4.783228515625,-1.1399011611938477,-0.8416696786880493,-0.8081935048103333
1761380583312284400,4.793284423828125,-1.0986818075180054,-0.9726029634475708,-0.4753707945346832
1761380583322340600,4.803340576171875,-0.7431082129478455,-1.808019995689392,-0.3741626739501953
1761380583332396500,4.813396484375,-0.31071794033050537,-2.371718645095825,-0.9173471331596375
1761380583342451500,4.823451416015625,-0.4861070513725281,-1.9929709434509277,-1.9071985483169556
1761380583352507600,4.833507568359375,-1.3346506357192993,-1.5063941478729248,-2.77325701713562
1761380583362563600,4.8435634765625,-1.990116834640503,-1.5530601739883423,-3.0530002117156982
1761380583372618500,4.853618408203125,-2.108128547668457,-1.8595468997955322,-2.7191507816314697
1761380583382674400,4.86367431640625,-1.9772429466247559,-2.186447858810425,-2.098778486251831
1761380583392730400,4.87373046875,-1.812799334526062,-2.339017629623413,-1.3553351163864136
1761380583402786600,4.88378662109375,-1.7991969585418701,-2.083662271499634,-0.45755502581596375
1761380583412841500,4.893841552734375,-1.8208884000778198,-1.6703295707702637,0.43362388014793396
1761380583422897700,4.903897705078125,-1.7447271347045898,-1.59037184715271,1.1379806995391846
1761380583432953600,4.91395361328125,-1.590155839920044,-1.7292191982269287,1.577594518661499
1761380583443008500,4.924008544921875,-1.3627437353134155,-1.9296878576278687,1.784397006034851
1761380583453061400,4.934061279296875,-1.076165795326233,-2.141247272491455,1.845460057258606
1761380583463117000,4.944116943359375,-0.8216555118560791,-2.1365251541137695,1.7929619550704956
1761380583473173200,4.95417333984375,-0.6525090932846069,-2.1726279258728027,1.668640375137329
1761380583483228200,4.964228271484375,-0.509650468826294,-2.1254470348358154,1.5387563705444336
1761380583493284400,4.974284423828125,-0.35585370659828186,-1.967087984085083,1.3847510814666748
1761380583503340300,4.98434033203125,-0.24202248454093933,-1.733204960823059,1.1279735565185547
1761380583513395200,4.994395263671875,-0.16302940249443054,-1.343275547027588,0.7594422101974487
1761380583523451400,5.004451416015625,-0.07789400219917297,-0.8856747150421143,0.37005501985549927
1761380583533507300,5.01450732421875,-0.03223410248756409,-0.4578530490398407,0.09406870603561401
1761380583543562200,5.024562255859375,-0.06124631315469742,-0.036734044551849365,-0.04478504881262779
1761380583553618200,5.0346181640625,-0.18824394047260284,0.29968684911727905,-0.11448636651039124
1761380583563674000,5.044674072265625,-0.36824166774749756,0.5215577483177185,-0.1845828890800476
1761380583573730300,5.054730224609375,-0.5131048560142517,0.6677793860435486,-0.26532408595085144
1761380583583785200,5.06478515625,-0.5454614758491516,0.748526930809021,-0.30014702677726746
1761380583593841400,5.07484130859375,-0.4629356861114502,0.7259383201599121,-0.2176087498664856
1761380583603897300,5.0848974609375,-0.27969157695770264,0.7289151549339294,0.011611382476985455
1761380583613952300,5.0949521484375,-0.03542430326342583,0.8235915899276733,0.33494842052459717
1761380583624008200,5.10500830078125,0.18474721908569336,1.0602715015411377,0.6097123622894287
1761380583634064100,5.115064208984375,0.3014914095401764,1.3576414585113525,0.6972514986991882
1761380583644120300,5.125120361328125,0.3436228930950165,1.5145210027694702,0.5388426780700684
1761380583654175200,5.13517529296875,0.41023892164230347,1.5282752513885498,0.27987906336784363
1761380583664231400,5.1452314453125,0.51188725233078,1.3269588947296143,0.19882893562316895
1761380583674287400,5.155287353515625,0.7233712673187256,1.1134231090545654,0.352782279253006
1761380583684342300,5.16534228515625,1.1109623908996582,1.078914999961853,0.4601742625236511
1761380583694398200,5.175398193359375,1.6356120109558105,1.217668056488037,0.10135458409786224
1761380583704454100,5.1854541015625,2.092195749282837,1.479009985923767,-0.5969123840332031
1761380583714510000,5.195510009765625,2.1373744010925293,2.12723708152771,-1.0669832229614258
1761380583724565200,5.205565185546875,1.701546549797058,2.8812813758850098,-1.0812172889709473
1761380583734621200,5.21562109375,1.0181763172149658,3.519183397293091,-0.6384473443031311
1761380583744677400,5.225677490234375,0.4367181956768036,4.012378692626953,-0.01924799755215645
1761380583754732000,5.23573193359375,0.13305045664310455,4.161337852478027,0.49785134196281433
1761380583764788200,5.245788330078125,0.006785734556615353,3.9255573749542236,0.9115846157073975
1761380583774844200,5.25584423828125,0.10673656314611435,3.246692419052124,1.2560991048812866
1761380583784900000,5.265900146484375,0.44310206174850464,2.389039993286133,1.2801079750061035
1761380583794955300,5.275955322265625,0.8239849805831909,1.636549711227417,0.9678955078125
1761380583805011200,5.28601123046875,1.1637835502624512,1.151410460472107,0.4977831542491913
1761380583815067400,5.2960673828125,1.376084566116333,0.8764809370040894,-0.03279469907283783
1761380583825122300,5.306122314453125,1.4559768438339233,0.7931916117668152,-0.5538008809089661
1761380583835178200,5.31617822265625,1.405365228652954,0.7453740239143372,-0.9427459836006165
1761380583845234200,5.326234130859375,1.26751708984375,0.6266431212425232,-1.0519214868545532
1761380583855290000,5.3362900390625,1.122549057006836,0.37695419788360596,-0.9157518744468689
1761380583865345300,5.34634521484375,0.9650627374649048,0.20181727409362793,-0.6520214676856995
1761380583875401200,5.356401123046875,0.8100103139877319,0.044314201921224594,-0.35417166352272034
1761380583885457200,5.36645703125,0.5977611541748047,0.06330174207687378,-0.10118307918310165
1761380583895512300,5.37651220703125,0.30791789293289185,0.18330910801887512,0.12275175005197525
1761380583905568000,5.386568115234375,0.10794936865568161,0.24242515861988068,0.2610662281513214
1761380583915624200,5.396624267578125,0.125545933842659,0.1252111792564392,0.27462756633758545
1761380583925680000,5.40668017578125,0.32458287477493286,-0.1562657654285431,0.16356469690799713
1761380583935735300,5.4167353515625,0.5816380977630615,-0.3989929258823395,-0.022847792133688927
1761380583945791200,5.426791259765625,0.8007196187973022,-0.4557821750640869,-0.1753518432378769
1761380583955847200,5.43684716796875,0.8962565064430237,-0.378592312335968,-0.23868846893310547
1761380583965902300,5.44690234375,0.829292356967926,-0.35933154821395874,-0.1938863843679428
1761380583975958300,5.456958251953125,0.6145204305648804,-0.5211427807807922,-0.0022985744290053844
1761380583986014200,5.46701416015625,0.21569180488586426,-0.8547455668449402,0.32136496901512146
1761380583996070100,5.477070068359375,-0.3333390951156616,-1.2842748165130615,0.636886715888977
1761380584006125300,5.487125244140625,-0.8154556751251221,-1.750473976135254,0.7460805773735046
1761380584016181200,5.49718115234375,-1.088206171989441,-2.0666279792785645,0.5939855575561523
1761380584026237200,5.5072373046875,-1.1971585750579834,-2.2552032470703125,0.3182845115661621
1761380584036292400,5.517292236328125,-1.1609821319580078,-2.255643367767334,0.05058887600898743
1761380584046348300,5.527348388671875,-1.1246891021728516,-1.7325111627578735,-0.014079599641263485
1761380584056404500,5.537404541015625,-1.2689001560211182,-1.0146404504776,0.3177444040775299
1761380584066460200,5.547460205078125,-1.4133720397949219,-1.1325467824935913,0.8016586303710938
1761380584076515000,5.55751513671875,-1.314361572265625,-1.901179552078247,0.9196361303329468
1761380584086571300,5.5675712890625,-1.0063382387161255,-2.809896469116211,0.31951966881752014
1761380584096627200,5.577627197265625,-0.8784045577049255,-3.8469138145446777,-0.5535145998001099
1761380584106682400,5.587682373046875,-0.9613761305809021,-4.736217975616455,-1.043966293334961
1761380584116738300,5.59773828125,-0.9741374254226685,-5.255418300628662,-0.8996592164039612
1761380584126794200,5.607794189453125,-0.9687253832817078,-5.3061089515686035,-0.43965408205986023
1761380584136849200,5.61784912109375,-1.0126478672027588,-4.594269752502441,0.04974997788667679
1761380584146905000,5.627905029296875,-1.134194254875183,-3.4878928661346436,0.5748960375785828
1761380584156961300,5.637961181640625,-1.266976237297058,-2.4300484657287598,1.0518397092819214
1761380584167017200,5.648017333984375,-1.2847344875335693,-1.6606346368789673,1.2429732084274292
1761380584177072400,5.658072265625,-1.2410825490951538,-1.201847791671753,1.078330397605896
1761380584187128300,5.66812841796875,-1.2062002420425415,-1.0003608465194702,0.7291473746299744
1761380584197184300,5.678184326171875,-1.1230098009109497,-0.9811428785324097,0.3914359509944916
1761380584207240400,5.688240478515625,-0.9657695293426514,-1.0114845037460327,0.13080622255802155
1761380584217295000,5.698295166015625,-0.8142684102058411,-0.9610962271690369,-0.015958460047841072
1761380584227351300,5.708351318359375,-0.7627344131469727,-0.8893274664878845,-0.059717390686273575
1761380584237407200,5.7184072265625,-0.7711135149002075,-0.8770537972450256,-0.02618579752743244
1761380584247462400,5.72846240234375,-0.8097668886184692,-0.9021857380867004,0.04574352130293846
1761380584257518300,5.738518310546875,-0.8128985166549683,-0.8908321857452393,0.11685418337583542
1761380584267574300,5.74857421875,-0.7830508351325989,-0.8088328838348389,0.15531527996063232
1761380584277629200,5.758629150390625,-0.7406471967697144,-0.6991761922836304,0.17771673202514648
1761380584287685000,5.76868505859375,-0.7063262462615967,-0.5691524147987366,0.1793718934059143
1761380584297741000,5.778740966796875,-0.7102988958358765,-0.4579941928386688,0.10962290316820145
1761380584307797200,5.78879736328125,-0.7112176418304443,-0.399697870016098,-0.023915452882647514
1761380584317852200,5.79885205078125,-0.6604501008987427,-0.40009814500808716,-0.1843796968460083
1761380584327908400,5.808908447265625,-0.5899703502655029,-0.4120829105377197,-0.3538728654384613
1761380584337964300,5.81896435546875,-0.48930203914642334,-0.3776141405105591,-0.5251692533493042
1761380584348020200,5.829020263671875,-0.30771467089653015,-0.2703113853931427,-0.6413195729255676
1761380584358075100,5.8390751953125,-0.012569587677717209,-0.011561048217117786,-0.6269134283065796
1761380584368131000,5.849131103515625,0.36616572737693787,0.5346961617469788,-0.4776829481124878
1761380584378187300,5.859187255859375,0.708993673324585,1.296635389328003,-0.25046631693840027
1761380584388242200,5.8692421875,0.903627872467041,1.9544541835784912,-0.045349106192588806
1761380584398298400,5.87929833984375,0.942409873008728,2.5204262733459473,0.07102543860673904
1761380584408354300,5.889354248046875,0.8985324501991272,2.8654534816741943,0.0828823670744896
1761380584418410200,5.89941015625,0.8311176896095276,2.9582247734069824,0.08999540656805038
1761380584428465200,5.909465087890625,0.7239822149276733,2.8947670459747314,0.27624383568763733
1761380584438521000,5.91952099609375,0.7235260009765625,2.7843923568725586,0.5256392955780029
1761380584448577000,5.929576904296875,0.9882500767707825,2.6280531883239746,0.528776228427887
1761380584458631700,5.939631591796875,1.5323858261108398,2.4224579334259033,-0.05227465555071831
1761380584468688000,5.94968798828125,2.0570640563964844,2.6083083152770996,-0.9469684362411499
1761380584478743800,5.959743896484375,2.171053409576416,3.0292575359344482,-1.6291743516921997
1761380584488799700,5.9697998046875,1.803457498550415,3.175337314605713,-1.8483778238296509
1761380584498855000,5.97985498046875,1.32212495803833,3.2450671195983887,-1.5722978115081787
1761380584508910800,5.989910888671875,0.9151907563209534,3.4291434288024902,-1.0233763456344604
1761380584518967000,5.999967041015625,0.6139997839927673,3.639270544052124,-0.4380282163619995
1761380584529022000,6.01002197265625,0.4236831068992615,3.759563684463501,0.14768320322036743
1761380584539077600,6.02007763671875,0.4046127200126648,3.510516881942749,0.6812672019004822
1761380584549133800,6.0301337890625,0.4914935529232025,2.9688549041748047,1.0036265850067139
1761380584559189800,6.040189697265625,0.5556129217147827,2.4048850536346436,1.0042530298233032
1761380584569245000,6.050244873046875,0.599530041217804,2.0261178016662598,0.673119306564331
1761380584579300900,6.06030078125,0.6469643712043762,1.8242599964141846,0.011830028146505356
1761380584589356800,6.070356689453125,0.7353850603103638,1.7791281938552856,-0.8866558074951172
1761380584599412000,6.080411865234375,0.8575189709663391,1.829017996788025,-1.8082735538482666
1761380584609468000,6.090468017578125,1.0546303987503052,1.8467613458633423,-2.506977081298828
1761380584619523800,6.10052392578125,1.3837385177612305,1.8241169452667236,-2.8231427669525146
1761380584629579800,6.110579833984375,1.7677134275436401,1.8623565435409546,-2.664959192276001
1761380584639635000,6.120635009765625,2.043088674545288,1.9784692525863647,-2.0732128620147705
1761380584649691000,6.13069091796875,2.0133414268493652,1.945938229560852,-1.1879916191101074
1761380584659746800,6.140746826171875,1.663149356842041,1.6627960205078125,-0.12133388221263885
1761380584669802000,6.150802001953125,1.1232656240463257,1.191288948059082,0.888617217540741
1761380584679858000,6.16085791015625,0.5595309138298035,0.568067193031311,1.6869196891784668
1761380584689913900,6.170913818359375,0.1392281949520111,-0.2659328877925873,2.1891727447509766
1761380584699969800,6.1809697265625,-0.08771494030952454,-0.9460229873657227,2.3184738159179688
1761380584710025000,6.19102490234375,-0.19125758111476898,-1.1665740013122559,2.181487560272217
1761380584720081000,6.201080810546875,-0.3224049508571625,-1.170877456665039,1.9462878704071045
1761380584730136800,6.21113671875,-0.44914504885673523,-0.8823404312133789,1.7049999237060547
1761380584740192000,6.22119189453125,-0.5726741552352905,-0.47238433361053467,1.5534192323684692
1761380584750248000,6.231248046875,-0.6011995673179626,-0.3221335709095001,1.525722861289978
1761380584760303900,6.241303955078125,-0.4872508943080902,-0.4353908896446228,1.4884265661239624
1761380584770359800,6.25135986328125,-0.36274412274360657,-0.6431206464767456,1.3366024494171143
1761380584780414700,6.261414794921875,-0.2808292806148529,-0.9581888318061829,1.037000060081482
1761380584790471000,6.271470947265625,-0.37515443563461304,-1.1310242414474487,0.6208710074424744
1761380584800526800,6.28152685546875,-0.6228982210159302,-1.1338187456130981,0.2994104027748108
1761380584810582000,6.29158203125,-0.8940767049789429,-1.4381567239761353,0.1379522830247879
1761380584820638000,6.301637939453125,-1.0217299461364746,-1.9040679931640625,-0.004373176954686642
1761380584830694000,6.31169384765625,-0.9830316305160522,-2.1954431533813477,-0.3186213970184326
1761380584840750000,6.32175,-0.9547861218452454,-2.7584731578826904,-0.7065699100494385
1761380584850804700,6.3318046875,-1.002861499786377,-3.4616663455963135,-1.0438514947891235
1761380584860861000,6.34186083984375,-0.9231778383255005,-4.004190921783447,-1.293892502784729
1761380584870916900,6.351916748046875,-0.7520614862442017,-4.142393589019775,-1.3093631267547607
1761380584880972000,6.361971923828125,-0.5796894431114197,-3.8100223541259766,-1.1434357166290283
1761380584891028000,6.372028076171875,-0.42921048402786255,-3.354748249053955,-0.8391687273979187
1761380584901084000,6.382083984375,-0.28152889013290405,-2.7799506187438965,-0.4685474932193756
1761380584911139800,6.392139892578125,-0.1612117886543274,-2.261993885040283,-0.15128806233406067
1761380584921194800,6.40219482421875,-0.10265181213617325,-1.920026421546936,0.042607381939888
1761380584931250700,6.412250732421875,-0.05769285559654236,-1.757734775543213,0.07553363591432571
1761380584941307000,6.422306884765625,0.026313629001379013,-1.7634869813919067,-0.03701847046613693
1761380584951361800,6.43236181640625,0.16419240832328796,-1.8957892656326294,-0.2596547305583954
1761380584961418000,6.44241796875,0.2593735158443451,-2.3379757404327393,-0.46941596269607544
1761380584971474000,6.452473876953125,0.23870472609996796,-2.7634963989257812,-0.7189610600471497
1761380584981529900,6.46252978515625,0.05398706719279289,-2.818899154663086,-1.0436850786209106
1761380584991584800,6.472584716796875,-0.2262943834066391,-2.5679171085357666,-1.3486098051071167
1761380585001640700,6.482640625,-0.4818076491355896,-2.2535452842712402,-1.5770978927612305
1761380585011697000,6.49269677734375,-0.6716686487197876,-1.9435893297195435,-1.7240217924118042
1761380585021751800,6.502751708984375,-0.7907066345214844,-1.653114914894104,-1.7554652690887451
1761380585031808000,6.51280810546875,-0.8506565093994141,-1.2861270904541016,-1.6694475412368774
1761380585041864000,6.522864013671875,-0.8993518948554993,-0.871131181716919,-1.5070098638534546
1761380585051920000,6.532919921875,-0.9212135076522827,-0.41353458166122437,-1.3380024433135986
1761380585061974800,6.542974853515625,-0.9162927865982056,0.09873057156801224,-1.2181354761123657
1761380585072030700,6.55303076171875,-0.8735405206680298,0.6622879505157471,-1.1531513929367065
1761380585082087000,6.5630869140625,-0.7705116271972656,1.2388935089111328,-1.1556246280670166
1761380585092142800,6.573142822265625,-0.6101176738739014,1.806949496269226,-1.1612151861190796
1761380585102197800,6.58319775390625,-0.3755936026573181,2.437108039855957,-1.0503782033920288
1761380585112254000,6.59325390625,-0.07924262434244156,2.9654836654663086,-0.7682242393493652
1761380585122310000,6.603309814453125,0.2525502145290375,3.262105703353882,-0.38890939950942993
1761380585132364800,6.61336474609375,0.4993400275707245,3.2436435222625732,-0.08205758780241013
1761380585142420700,6.623420654296875,0.634043276309967,2.9226067066192627,0.09800006449222565
1761380585152476700,6.6334765625,0.7272690534591675,2.3751323223114014,0.16583770513534546
1761380585162532900,6.643532958984375,0.8364746570587158,1.5994646549224854,0.21978162229061127
1761380585172587800,6.653587890625,1.1277648210525513,0.8460561633110046,0.5085462927818298
1761380585182644000,6.66364404296875,1.6792786121368408,0.4285662770271301,0.8488924503326416
1761380585192700000,6.673699951171875,2.4703783988952637,0.15683434903621674,0.8795089721679688
1761380585202755000,6.683755126953125,3.386429786682129,0.08927927911281586,0.3435240685939789
1761380585212810800,6.693810791015625,4.037787437438965,0.12078447639942169,-0.4664191007614136
1761380585222866700,6.70386669921875,3.992424726486206,0.2777133584022522,-1.2442046403884888
1761380585232923000,6.7139228515625,3.4059598445892334,0.821444571018219,-1.7431025505065918
1761380585242977800,6.723977783203125,2.7330451011657715,1.5049797296524048,-1.7440648078918457
1761380585253034000,6.734033935546875,2.165198802947998,2.129063606262207,-1.2357767820358276
1761380585263090000,6.74408984375,1.69608736038208,2.7437098026275635,-0.3581613302230835
1761380585273145000,6.75414501953125,1.276990532875061,3.1497206687927246,0.673809826374054
1761380585283201000,6.764200927734375,0.9658768773078918,3.2207658290863037,1.5657373666763306
1761380585293256700,6.774256591796875,0.7554045915603638,3.093867778778076,2.0718390941619873
1761380585303313000,6.78431298828125,0.6189814805984497,2.631458282470703,2.1633591651916504
1761380585313367800,6.794367919921875,0.5807286500930786,2.0569610595703125,1.8987067937850952
1761380585323423700,6.804423828125,0.6260021328926086,1.5790609121322632,1.382583498954773
1761380585333480000,6.81447998046875,0.6855117678642273,1.1016719341278076,0.7397553324699402
1761380585343534800,6.824534912109375,0.7451388835906982,0.6622312068939209,0.15674060583114624
1761380585353591000,6.834591064453125,0.7873095273971558,0.3903411030769348,-0.240495964884758
1761380585363647000,6.84464697265625,0.7723654508590698,0.3695780336856842,-0.4704950749874115
1761380585373702700,6.85470263671875,0.6700223088264465,0.4484933614730835,-0.5677281618118286
1761380585383757800,6.8647578125,0.526538610458374,0.5525047183036804,-0.5128042101860046
1761380585393813800,6.874813720703125,0.3326924741268158,0.6847418546676636,-0.27778369188308716
1761380585403870000,6.884869873046875,0.06016720086336136,0.8074813485145569,0.10580845177173615
1761380585413926000,6.89492578125,-0.1920005977153778,0.875243067741394,0.495715469121933
1761380585423981000,6.90498095703125,-0.3661588132381439,0.8003334403038025,0.7586730718612671
1761380585434037000,6.915037109375,-0.43025630712509155,0.5884504914283752,0.8836714625358582
1761380585444092700,6.9250927734375,-0.3966725170612335,0.2173517644405365,0.8848667144775391
1761380585454148000,6.935148193359375,-0.32636985182762146,-0.2304595708847046,0.7797259092330933
1761380585464204000,6.9452041015625,-0.2843150794506073,-0.6493359208106995,0.6448980569839478
1761380585474260000,6.955260009765625,-0.31182926893234253,-0.9519661068916321,0.5614340305328369
1761380585484316200,6.965316162109375,-0.4494006931781769,-1.1162227392196655,0.5197587609291077
1761380585494370800,6.975370849609375,-0.6730676293373108,-1.140498161315918,0.48135891556739807
1761380585504427000,6.985427001953125,-0.8953710198402405,-1.1261951923370361,0.3602122366428375
1761380585514483000,6.99548291015625,-1.0437812805175781,-1.1042368412017822,0.19286265969276428
1761380585524538000,7.0055380859375,-1.0900403261184692,-1.128098487854004,-0.01435097586363554
1761380585534594000,7.015593994140625,-1.0706703662872314,-1.232765555381775,-0.21060171723365784
1761380585544650000,7.02564990234375,-1.087203860282898,-1.1782785654067993,-0.046600259840488434
1761380585554706200,7.0357060546875,-1.267362356185913,-0.9894348978996277,0.4672079384326935
1761380585564760800,7.0457607421875,-1.474913239479065,-0.9752693176269531,0.9000602960586548
1761380585574817000,7.055817138671875,-1.697439193725586,-0.8224896192550659,0.7232727408409119
1761380585584873000,7.065873046875,-2.14009690284729,-0.9927809238433838,0.0968642309308052
1761380585594929000,7.075928955078125,-2.411236047744751,-1.226401925086975,-0.49743402004241943
1761380585604984000,7.085984130859375,-2.137610912322998,-1.8222095966339111,-0.8307374119758606
1761380585615040000,7.0960400390625,-1.567632794380188,-2.646817684173584,-1.0033289194107056
1761380585625096200,7.10609619140625,-1.0602731704711914,-3.1728508472442627,-1.0021131038665771
1761380585635150800,7.11615087890625,-0.6847541332244873,-3.341655969619751,-0.8470562100410461
1761380585645207000,7.12620703125,-0.44519931077957153,-3.1508095264434814,-0.5864675045013428
1761380585655263000,7.136262939453125,-0.3367316722869873,-2.7233541011810303,-0.3195934295654297
1761380585665319000,7.14631884765625,-0.3710366487503052,-2.201003313064575,-0.13982075452804565
1761380585675374000,7.1563740234375,-0.48621436953544617,-1.7554417848587036,-0.08305547386407852
1761380585685430000,7.166429931640625,-0.6203229427337646,-1.4806655645370483,-0.15220551192760468
1761380585695486000,7.17648583984375,-0.7307466268539429,-1.279994249343872,-0.3292250335216522
1761380585705540900,7.186540771484375,-0.7995808124542236,-1.0140761137008667,-0.5434161424636841
1761380585715596800,7.1965966796875,-0.8302239775657654,-0.6645745635032654,-0.7182401418685913
1761380585725653000,7.206653076171875,-0.8520986437797546,-0.3178357481956482,-0.7900145053863525
1761380585735709000,7.216708984375,-0.9142914414405823,-0.05676101893186569,-0.7601929306983948
1761380585745764000,7.22676416015625,-1.0110864639282227,0.05047329515218735,-0.6573078036308289
1761380585755820000,7.236820068359375,-1.1326773166656494,0.06331798434257507,-0.5118680596351624
1761380585765876000,7.2468759765625,-1.3128888607025146,0.10410642623901367,-0.36806830763816833
1761380585775932200,7.25693212890625,-1.4937260150909424,0.1158328577876091,-0.27790752053260803
1761380585785986800,7.26698681640625,-1.5722671747207642,0.15871134400367737,-0.2879748046398163
1761380585796043000,7.27704296875,-1.4689210653305054,0.21795150637626648,-0.4076407551765442
1761380585806099000,7.287098876953125,-1.190551519393921,0.27449867129325867,-0.6151795387268066
1761380585816154000,7.297154052734375,-0.8385695219039917,0.3593294024467468,-0.7926970720291138
1761380585826210000,7.3072099609375,-0.4247952401638031,0.5627552270889282,-0.7918347716331482
1761380585836266000,7.317265869140625,0.1189492866396904,0.8471989631652832,-0.5624313950538635
1761380585846322200,7.327322265625,0.725426435470581,1.1869099140167236,-0.15962322056293488
1761380585856376800,7.337376953125,1.1939054727554321,1.3577569723129272,0.2674069404602051
1761380585866433000,7.34743310546875,1.4634053707122803,1.3817470073699951,0.5663774013519287
1761380585876489000,7.357489013671875,1.5494660139083862,1.3858450651168823,0.640557587146759
1761380585886545000,7.367544921875,1.4837700128555298,1.3669531345367432,0.504640519618988
1761380585896600000,7.37760009765625,1.345348834991455,1.2080581188201904,0.2256232649087906
1761380585906656000,7.387656005859375,1.2272237539291382,0.8361992835998535,-0.07520101219415665
1761380585916712000,7.3977119140625,1.1307790279388428,0.48106303811073303,-0.3735554814338684
1761380585926767000,7.40776708984375,1.0395992994308472,0.43229976296424866,-0.6477137804031372
1761380585936822800,7.41782275390625,0.9786539077758789,0.619857668876648,-0.5666783452033997
1761380585946879000,7.42787890625,1.0496561527252197,1.1122790575027466,0.14908961951732635
1761380585956935000,7.437934814453125,1.4383925199508667,1.8964396715164185,0.7219555377960205
1761380585966990000,7.447989990234375,1.889960765838623,2.3278489112854004,0.3663678765296936
1761380585977046000,7.4580458984375,2.1206305027008057,2.4471182823181152,-0.8506051301956177
1761380585987102000,7.46810205078125,2.039102554321289,2.0241029262542725,-1.8824580907821655
1761380585997157000,7.4781572265625,1.7595012187957764,1.5940147638320923,-2.0897018909454346
1761380586007212800,7.488212890625,1.35531485080719,1.7131768465042114,-1.7657655477523804
1761380586017269000,7.49826904296875,0.7977917194366455,1.9270018339157104,-1.0322686433792114
1761380586027325000,7.508324951171875,0.3203639090061188,1.9874223470687866,0.008322644978761673
1761380586037380000,7.518380126953125,0.1701805144548416,2.1481006145477295,0.8239356875419617
1761380586047436000,7.52843603515625,0.2068338692188263,2.0844547748565674,1.1514182090759277
1761380586057492000,7.538491943359375,0.29303932189941406,1.707653284072876,1.1411389112472534
1761380586067548200,7.548548095703125,0.44358834624290466,1.3771637678146362,0.9659423828125
1761380586077603000,7.55860302734375,0.6417651176452637,1.0223294496536255,0.6357620358467102
1761380586087659000,7.568658935546875,0.8340328335762024,0.49482038617134094,0.16408294439315796
1761380586097715000,7.57871484375,0.9907294511795044,0.008527974598109722,-0.2990359663963318
1761380586107769900,7.588769775390625,1.0753101110458374,-0.28016242384910583,-0.6470677256584167
1761380586117826000,7.598825927734375,1.0451793670654297,-0.3029305636882782,-0.6930801868438721
1761380586127882000,7.608882080078125,0.8801688551902771,-0.3053782880306244,-0.6626935601234436
1761380586137938000,7.61893798828125,0.659672737121582,-0.3492181897163391,-0.5917810201644897
1761380586147993000,7.6289931640625,0.5331443548202515,-0.32993635535240173,-0.4206843674182892
1761380586158049000,7.639049072265625,0.43735337257385254,-0.1478283405303955,-0.18970948457717896
1761380586168105000,7.64910498046875,0.3164170980453491,-0.03405517339706421,-0.09847064316272736
1761380586178161000,7.659160888671875,0.21490778028964996,-0.13725319504737854,-0.15287689864635468
1761380586188216000,7.669216064453125,0.14370949566364288,-0.26329928636550903,-0.1576889604330063
1761380586198272000,7.67927197265625,0.026821227744221687,-0.18303373456001282,0.03622911125421524
1761380586208328000,7.689327880859375,-0.07549262791872025,-0.23714357614517212,0.24271969497203827
