time,seconds_elapsed,z,y,x
1761380578632605200,0.113605224609375,0.09972204267978668,0.4312964379787445,-0.9124666452407837
1761380578642659800,0.123659912109375,0.10905444622039795,0.35087722539901733,-0.8940053582191467
1761380578652716000,0.133716064453125,0.07277979701757431,0.3060213625431061,-0.8219926357269287
1761380578662772000,0.14377197265625,0.014796003699302673,0.25186073780059814,-0.7147509455680847
1761380578672828000,0.153827880859375,-0.03228495270013809,0.1905883252620697,-0.5797433257102966
1761380578682883000,0.163883056640625,-0.06572792679071426,0.10617802292108536,-0.44673097133636475
1761380578692939000,0.17393896484375,-0.0850353091955185,-0.03048049286007881,-0.3363485336303711
1761380578702995000,0.183994873046875,-0.08226517587900162,-0.1785019189119339,-0.27556100487709045
1761380578713049900,0.1940498046875,-0.03457381948828697,-0.33068934082984924,-0.2796204686164856
1761380578723105800,0.204105712890625,0.05096828565001488,-0.4280184209346771,-0.3063887059688568
1761380578733162000,0.214161865234375,0.13693299889564514,-0.42302951216697693,-0.3047705590724945
1761380578743218000,0.224218017578125,0.18065129220485687,-0.34359997510910034,-0.2869495451450348
1761380578753273000,0.234273193359375,0.1624629646539688,-0.24251782894134521,-0.24933798611164093
1761380578763329000,0.2443291015625,0.07514263689517975,-0.225498229265213,-0.16543425619602203
1761380578773385000,0.254385009765625,-0.019768694415688515,-0.3560788929462433,-0.010376494377851486
1761380578783441200,0.264441162109375,-0.04789811000227928,-0.6721293926239014,0.2177257388830185
1761380578793495800,0.274495849609375,0.04598657414317131,-1.0901256799697876,0.47054868936538696
1761380578803552000,0.284552001953125,0.24988651275634766,-1.503891110420227,0.6539204120635986
1761380578813608000,0.29460791015625,0.4845602810382843,-1.7744821310043335,0.6892216801643372
1761380578823663000,0.3046630859375,0.6223168969154358,-1.8179023265838623,0.5364015102386475
1761380578833719000,0.314718994140625,0.61236971616745,-1.7898839712142944,0.25784897804260254
1761380578843775000,0.32477490234375,0.47525113821029663,-1.7100858688354492,-0.012326277792453766
1761380578853831200,0.3348310546875,0.2559201419353485,-1.7196083068847656,-0.16517974436283112
1761380578863885800,0.3448857421875,0.016941431909799576,-1.797080636024475,-0.06436967849731445
1761380578873942000,0.35494189453125,-0.19077366590499878,-1.916993498802185,0.23928074538707733
1761380578883998000,0.364998046875,-0.3290146291255951,-2.0001885890960693,0.5862764716148376
1761380578894054000,0.375053955078125,-0.34996360540390015,-2.04610276222229,0.7685341835021973
1761380578904109000,0.385109130859375,-0.2343912124633789,-2.124307155609131,0.7053893804550171
1761380578914165000,0.3951650390625,-0.08295854926109314,-2.333376169204712,0.5083218812942505
1761380578924221000,0.405220947265625,-0.020613176748156548,-2.5230164527893066,0.3326374292373657
1761380578934277000,0.415277099609375,-0.06978898495435715,-2.573089838027954,0.1890546828508377
1761380578944331800,0.425331787109375,-0.1498810052871704,-2.4962024688720703,0.01795920357108116
1761380578954388000,0.435387939453125,-0.21700145304203033,-2.398758888244629,-0.233109250664711
1761380578964444000,0.44544384765625,-0.27280357480049133,-2.2158594131469727,-0.5534198880195618
1761380578974499000,0.4554990234375,-0.33396944403648376,-1.9262614250183105,-0.8796102404594421
1761380578984555000,0.465554931640625,-0.3809187114238739,-1.6644701957702637,-1.1364465951919556
1761380578994611000,0.47561083984375,-0.4166940152645111,-1.4919852018356323,-1.2637544870376587
1761380579004667100,0.485667236328125,-0.4227699637413025,-1.379992961883545,-1.2714393138885498
1761380579014722000,0.49572216796875,-0.33889344334602356,-1.409045934677124,-1.261045217514038
1761380579024778000,0.505778076171875,-0.12744657695293427,-1.4706295728683472,-1.2859188318252563
1761380579034834000,0.515833984375,0.11396577209234238,-1.398608922958374,-1.3114324808120728
1761380579044889000,0.52588916015625,0.3045099377632141,-1.1271483898162842,-1.2947373390197754
1761380579054945000,0.535945068359375,0.4062296450138092,-0.7368155121803284,-1.1808363199234009
1761380579065001000,0.5460009765625,0.3676769435405731,-0.3238092362880707,-0.96441650390625
1761380579075057200,0.55605712890625,0.2107275277376175,0.08103438466787338,-0.6618981957435608
1761380579085112000,0.566112060546875,0.00989275798201561,0.49685752391815186,-0.3552386164665222
1761380579095168000,0.57616796875,-0.19555707275867462,0.8307995200157166,-0.09580464661121368
1761380579105224000,0.586223876953125,-0.3608001470565796,1.0470467805862427,0.07462963461875916
1761380579115280000,0.59627978515625,-0.4170951247215271,1.1784430742263794,0.16879048943519592
1761380579125335000,0.6063349609375,-0.3756096065044403,1.2107511758804321,0.19415432214736938
1761380579135391000,0.616390869140625,-0.2937166094779968,1.2383720874786377,0.176921546459198
1761380579145447000,0.626447021484375,-0.2647305727005005,1.3795305490493774,0.1783324033021927
1761380579155503000,0.636503173828125,-0.23582223057746887,1.36225163936615,0.2871454358100891
1761380579165558000,0.64655810546875,-0.1594679206609726,1.3939058780670166,0.5398238897323608
1761380579175614000,0.656614013671875,-0.08008947223424911,1.3243322372436523,0.8668672442436218
1761380579185670000,0.666669921875,-0.03178229182958603,1.1857993602752686,1.1521633863449097
1761380579195725000,0.67672509765625,-0.07725390791893005,0.9808591604232788,1.3096667528152466
1761380579205781000,0.686781005859375,-0.16126748919487,0.8372260332107544,1.399183750152588
1761380579215837000,0.6968369140625,-0.22007913887500763,0.9637240767478943,1.4965617656707764
1761380579225893000,0.70689306640625,-0.2892434000968933,1.1643341779708862,1.529199481010437
1761380579235948000,0.716947998046875,-0.3091944754123688,1.360255241394043,1.3065671920776367
1761380579246004200,0.727004150390625,-0.24404393136501312,1.7695798873901367,0.6176959872245789
1761380579256060000,0.737059814453125,-0.1466321498155594,2.489358425140381,-0.5572235584259033
1761380579266115800,0.74711572265625,-0.1616252362728119,3.4409916400909424,-1.621052622795105
1761380579276171000,0.7571708984375,-0.3132035732269287,4.332546234130859,-1.8989849090576172
1761380579286227000,0.76722705078125,-0.6015398502349854,4.66044282913208,-1.3544930219650269
1761380579296283000,0.777282958984375,-0.7378945350646973,4.38079309463501,-0.4294262230396271
1761380579306338000,0.787338134765625,-0.40772998332977295,3.9006237983703613,0.38758397102355957
1761380579316394000,0.79739404296875,0.14153845608234406,3.5489561557769775,0.8637433052062988
1761380579326450200,0.8074501953125,0.5854555368423462,3.29375958442688,1.0428674221038818
1761380579336505900,0.817505859375,0.8210914731025696,3.0975847244262695,1.0232397317886353
1761380579346561000,0.82756103515625,0.9029285311698914,2.8025660514831543,0.8363649249076843
1761380579356617000,0.837616943359375,0.9587990045547485,2.375908851623535,0.49068260192871094
1761380579366673000,0.8476728515625,1.0179048776626587,1.9236369132995605,0.042963337153196335
1761380579376728000,0.85772802734375,1.0655968189239502,1.5359203815460205,-0.4378989040851593
1761380579386784000,0.867783935546875,1.0715649127960205,1.2947709560394287,-0.7832868099212646
1761380579396840200,0.877840087890625,1.0307444334030151,1.2048606872558594,-0.8719596862792969
1761380579406895900,0.887895751953125,1.0148996114730835,1.0897307395935059,-0.7736577391624451
1761380579416951000,0.897950927734375,1.050291895866394,0.8813309669494629,-0.6617692708969116
1761380579427007000,0.908007080078125,1.0862609148025513,0.6957835555076599,-0.6996769309043884
1761380579437063000,0.91806298828125,1.078622817993164,0.6250752806663513,-0.9055137038230896
1761380579447119000,0.928119140625,0.9523570537567139,0.636587917804718,-1.137940526008606
1761380579457174000,0.938174072265625,0.7354476451873779,0.6721616387367249,-1.2689998149871826
1761380579467230200,0.948230224609375,0.4847753345966339,0.6139012575149536,-1.2492420673370361
1761380579477286100,0.9582861328125,0.24111953377723694,0.4860053062438965,-1.0835708379745483
1761380579487341000,0.968341064453125,0.14213639497756958,0.18531636893749237,-0.7462632060050964
1761380579497397200,0.978397216796875,0.24129173159599304,-0.2864583432674408,-0.38430255651474
1761380579507453200,0.988453125,0.40442365407943726,-0.7997698187828064,-0.18098169565200806
1761380579517509000,0.998509033203125,0.6301084160804749,-1.1430753469467163,-0.2745968699455261
1761380579527564000,1.00856396484375,0.836758553981781,-1.1907529830932617,-0.584449291229248
1761380579537620000,1.018619873046875,0.9016744494438171,-1.0384948253631592,-0.8993673324584961
1761380579547676200,1.02867626953125,0.8216544985771179,-0.9711192846298218,-1.0115264654159546
1761380579557732000,1.038732177734375,0.6637181639671326,-1.1060969829559326,-0.8303009867668152
1761380579567787300,1.048787353515625,0.5021327137947083,-1.3062671422958374,-0.3949819803237915
1761380579577843200,1.05884326171875,0.3612288534641266,-1.5999469757080078,0.25271397829055786
1761380579587899100,1.068899169921875,0.22453050315380096,-1.6213852167129517,1.0165598392486572
1761380579597954000,1.0789541015625,-0.17826035618782043,-1.4113829135894775,1.4972419738769531
1761380579608010000,1.089010009765625,-0.7654646039009094,-1.5082013607025146,1.4468059539794922
1761380579618066200,1.099066162109375,-1.224348545074463,-1.6123054027557373,0.9518994688987732
1761380579628122000,1.1091220703125,-1.5433006286621094,-1.8643087148666382,0.007988879457116127
1761380579638177300,1.11917724609375,-1.6352678537368774,-2.2927346229553223,-1.1836047172546387
1761380579648233200,1.129233154296875,-1.180031657218933,-2.6933271884918213,-1.9406911134719849
1761380579658289200,1.1392890625,-0.2831977605819702,-3.53969669342041,-1.809417486190796
1761380579668344000,1.149343994140625,0.508757472038269,-4.164697170257568,-1.0943726301193237
1761380579678400000,1.15939990234375,0.8147171139717102,-4.365286827087402,-0.0778045728802681
1761380579688456000,1.1694560546875,0.8952072262763977,-3.9651408195495605,0.7676778435707092
1761380579698512100,1.17951220703125,0.7089670300483704,-3.0632803440093994,1.3310421705245972
1761380579708567000,1.189567138671875,0.21038399636745453,-2.1218671798706055,1.410728931427002
1761380579718623200,1.199623291015625,-0.3123449981212616,-1.5352091789245605,1.1371519565582275
1761380579728679200,1.20967919921875,-0.6957539916038513,-1.357108473777771,0.8140847682952881
1761380579738735000,1.219735107421875,-0.9230023622512817,-1.4357662200927734,0.4845556318759918
1761380579748790000,1.2297900390625,-1.0241025686264038,-1.5461499691009521,0.15159231424331665
1761380579758846000,1.239845947265625,-1.0341740846633911,-1.6332651376724243,-0.1416848748922348
1761380579768902100,1.249902099609375,-0.9751887321472168,-1.7777855396270752,-0.34902092814445496
1761380579778957000,1.25995703125,-0.9024194478988647,-1.932299256324768,-0.4368272125720978
1761380579789013200,1.27001318359375,-0.8655735850334167,-2.013671875,-0.40345436334609985
1761380579799069200,1.280069091796875,-0.858095645904541,-1.9916330575942993,-0.3123404383659363
1761380579809125000,1.290125,-0.8975938558578491,-1.892590045928955,-0.21999195218086243
1761380579819180000,1.300179931640625,-0.9937722682952881,-1.5187031030654907,-0.2019578218460083
1761380579829236000,1.310236083984375,-1.1244755983352661,-1.0042275190353394,-0.26819610595703125
1761380579839292200,1.320292236328125,-1.23260498046875,-0.46968770027160645,-0.2967771291732788
1761380579849347000,1.33034716796875,-1.2860032320022583,-0.07878132164478302,-0.17249511182308197
1761380579859403000,1.340403076171875,-1.2819440364837646,0.19689472019672394,0.08285807818174362
1761380579869459200,1.350459228515625,-1.2133132219314575,0.39610788226127625,0.4147724509239197
1761380579879515100,1.36051513671875,-1.101138710975647,0.5340718626976013,0.7498161792755127
1761380579889570000,1.370570068359375,-0.923958420753479,0.6454179883003235,1.0425684452056885
1761380579899626000,1.3806259765625,-0.6491782665252686,0.67093825340271,1.2377618551254272
1761380579909682000,1.390681884765625,-0.2869541645050049,0.6166382431983948,1.2839038372039795
1761380579919737000,1.400737060546875,0.07076482474803925,0.6102104783058167,1.1762257814407349
1761380579929793000,1.41079296875,0.2847733497619629,0.8122814893722534,0.9160320162773132
1761380579939849200,1.42084912109375,0.233603373169899,1.337598443031311,0.54208904504776
1761380579949905200,1.4309052734375,-0.07793121039867401,2.0028862953186035,0.20370620489120483
1761380579959960300,1.440960205078125,-0.3844219148159027,2.4434213638305664,0.06561117619276047
1761380579970016000,1.45101611328125,-0.3521445691585541,2.4955320358276367,0.15522363781929016
1761380579980072000,1.461072021484375,0.04631546884775162,2.2554571628570557,0.3169659376144409
1761380579990128000,1.471128173828125,0.6450189352035522,2.098438024520874,0.3554339110851288
1761380580000183000,1.48118310546875,1.277510643005371,2.32175874710083,0.27042633295059204
1761380580010239200,1.4912392578125,1.7013932466506958,2.8384971618652344,0.2631050646305084
1761380580020295200,1.501295166015625,1.725521445274353,3.662370204925537,0.49030226469039917
1761380580030350300,1.511350341796875,1.3124439716339111,4.547266006469727,0.9667608737945557
1761380580040406300,1.52140625,0.7758108973503113,5.056647300720215,1.4551323652267456
1761380580050462000,1.5314619140625,0.406730592250824,5.098733425140381,1.7064216136932373
1761380580060518100,1.54151806640625,0.2927912473678589,4.692869186401367,1.6538023948669434
1761380580070573000,1.551572998046875,0.44463881850242615,4.082197189331055,1.4409654140472412
1761380580080629000,1.56162890625,0.6868836879730225,3.4320285320281982,1.2609498500823975
1761380580090685200,1.571685302734375,0.7932651042938232,2.8806893825531006,1.2005772590637207
1761380580100740000,1.581739990234375,0.7825405597686768,2.4073569774627686,1.2053674459457397
1761380580110796300,1.59179638671875,0.709076464176178,1.9881350994110107,1.1318413019180298
1761380580120852200,1.601852294921875,0.6244475841522217,1.6246652603149414,0.9093486070632935
1761380580130908000,1.611907958984375,0.5887269973754883,1.3287104368209839,0.559056282043457
1761380580140963000,1.621963134765625,0.5621470212936401,1.1407922506332397,0.13814152777194977
1761380580151019000,1.63201904296875,0.5114185214042664,1.0510506629943848,-0.2719321846961975
1761380580161075200,1.6420751953125,0.5088626742362976,0.9426695108413696,-0.5919134020805359
1761380580171130000,1.652130126953125,0.5679022669792175,0.8231449127197266,-0.7428756952285767
1761380580181186300,1.662186279296875,0.6054996848106384,0.6736214756965637,-0.7006577253341675
1761380580191242200,1.6722421875,0.5911506414413452,0.537858784198761,-0.48661863803863525
1761380580201298000,1.6822978515625,0.5054788589477539,0.5299363732337952,-0.1871456652879715
1761380580211353000,1.69235302734375,0.3389420509338379,0.6287641525268555,0.0608120821416378
1761380580221409000,1.702408935546875,0.162825345993042,0.6315908432006836,0.10135392099618912
1761380580231465200,1.71246533203125,0.0839519053697586,0.5161035656929016,-0.026458151638507843
1761380580241520000,1.72252001953125,0.15035703778266907,0.24416176974773407,-0.1560760736465454
1761380580251576000,1.732576171875,0.3659214377403259,-0.31994712352752686,-0.1345890909433365
1761380580261632300,1.74263232421875,0.6642841696739197,-1.1437273025512695,-0.04306076839566231
1761380580271688200,1.752688232421875,0.9611788988113403,-2.1487832069396973,0.0015084818005561829
1761380580281743000,1.7627431640625,1.0257411003112793,-3.057021379470825,-0.09499062597751617
1761380580291799000,1.772799072265625,0.6726661920547485,-3.555159091949463,-0.29836559295654297
1761380580301855000,1.78285498046875,0.050692956894636154,-3.690593957901001,-0.5498737692832947
1761380580311910100,1.79291015625,-0.4650629758834839,-3.7252399921417236,-0.7198705077171326
1761380580321966000,1.802966064453125,-0.6192336678504944,-3.6182825565338135,-0.6717919111251831
1761380580332022300,1.813022216796875,-0.8005651831626892,-2.902639150619507,-0.5290467739105225
1761380580342078200,1.823078125,-1.2592406272888184,-2.3412435054779053,-0.2757418155670166
1761380580352133000,1.833133056640625,-1.6149779558181763,-2.255082130432129,0.06673087179660797
1761380580362189000,1.84318896484375,-1.691789150238037,-2.542184591293335,0.36281126737594604
1761380580372245000,1.853244873046875,-1.6177175045013428,-3.4848837852478027,0.5196664929389954
1761380580382300200,1.863300048828125,-1.295574426651001,-4.48476505279541,0.6096698641777039
1761380580392356000,1.873356201171875,-0.5458795428276062,-5.267282485961914,0.5982104539871216
1761380580402412300,1.883412353515625,0.25412389636039734,-5.741782188415527,0.5065636038780212
1761380580412467000,1.893467041015625,0.8041028380393982,-5.804261207580566,0.40358680486679077
1761380580422523100,1.903523193359375,1.044703483581543,-5.210716247558594,0.4080233573913574
1761380580432579000,1.9135791015625,0.8144689798355103,-4.160874366760254,0.5800508856773376
1761380580442634800,1.923634765625,0.17669597268104553,-3.068981885910034,0.7550035119056702
1761380580452690000,1.93368994140625,-0.4356013834476471,-2.283961772918701,0.828144371509552
1761380580462745600,1.94374560546875,-0.8072969317436218,-1.5859813690185547,0.5714020729064941
1761380580472801800,1.9538017578125,-0.9484995007514954,-0.9532343149185181,-0.034507866948843
1761380580482856700,1.963856689453125,-0.8557698130607605,-0.4400913715362549,-0.7560572624206543
1761380580492913000,1.973912841796875,-0.6348374485969543,-0.03199443221092224,-1.2283917665481567
1761380580502968800,1.98396875,-0.3169787526130676,0.17040181159973145,-1.2383387088775635
1761380580513024800,1.994024658203125,0.08036147058010101,0.24437271058559418,-0.9149217009544373
1761380580523080000,2.004079833984375,0.3516736626625061,0.33944886922836304,-0.563610851764679
1761380580533136000,2.014135986328125,0.37849515676498413,0.39334985613822937,-0.31451618671417236
1761380580543191600,2.024191650390625,0.2144353687763214,0.31793683767318726,-0.14385975897312164
1761380580553246700,2.034246826171875,-0.06973671913146973,0.0498838946223259,0.013417625799775124
1761380580563302700,2.044302734375,-0.4399222433567047,-0.37071794271469116,0.1591484546661377
1761380580573358800,2.05435888671875,-0.8786661028862,-0.7897720336914062,0.2761603891849518
1761380580583414800,2.064414794921875,-1.351334571838379,-1.0966817140579224,0.36242470145225525
1761380580593470000,2.074469970703125,-1.764406681060791,-1.2538789510726929,0.4341232478618622
1761380580603526000,2.08452587890625,-2.0277204513549805,-1.2699357271194458,0.49812328815460205
1761380580613581800,2.094581787109375,-2.0692460536956787,-1.0537383556365967,0.493375688791275
1761380580623636700,2.10463671875,-1.9044207334518433,-0.7726308107376099,0.3231605589389801
1761380580633692700,2.114692626953125,-1.6672427654266357,-0.36689719557762146,0.058799341320991516
1761380580643748900,2.124748779296875,-1.435896396636963,0.21638061106204987,-0.10256638377904892
1761380580653803800,2.1348037109375,-1.3097784519195557,1.1776936054229736,-0.1126907542347908
1761380580663860000,2.14485986328125,-1.4872565269470215,1.9281671047210693,-0.0030292340088635683
1761380580673916000,2.154916015625,-1.6632049083709717,2.456627607345581,0.11474165320396423
1761380580683971800,2.164971923828125,-1.7215478420257568,2.948378086090088,0.12345631420612335
1761380580694026800,2.17502685546875,-1.6342418193817139,3.4744338989257812,0.11279082298278809
1761380580704082700,2.185082763671875,-1.3368669748306274,3.8743834495544434,0.21847009658813477
1761380580714138600,2.195138671875,-0.8214384913444519,3.903843402862549,0.12590892612934113
1761380580724193800,2.20519384765625,0.06751109659671783,3.441718101501465,-0.35665905475616455
1761380580734249700,2.215249755859375,1.146941900253296,3.8757033348083496,-0.9744847416877747
1761380580744306000,2.225305908203125,1.1570512056350708,4.332607746124268,-1.2754719257354736
1761380580754361900,2.23536181640625,0.34220585227012634,4.524583339691162,-0.8918639421463013
1761380580764416800,2.245416748046875,-0.4194939136505127,4.683890342712402,-0.07588022202253342
1761380580774472700,2.25547265625,-0.7835153937339783,4.599658966064453,0.5219552516937256
1761380580784528600,2.265528564453125,-0.900686502456665,4.479008674621582,0.6453056931495667
1761380580794583800,2.275583740234375,-0.7597497701644897,4.428272247314453,0.5570324063301086
1761380580804639700,2.2856396484375,-0.34986186027526855,4.213446140289307,0.40555551648139954
1761380580814696000,2.295696044921875,0.19602636992931366,3.856235980987549,0.2497655153274536
1761380580824751900,2.305751953125,0.7304219007492065,3.575599431991577,0.11521143466234207
1761380580834806800,2.315806884765625,1.182653546333313,3.323296070098877,0.12855857610702515
1761380580844862700,2.32586279296875,1.5112735033035278,3.0725111961364746,0.2815888524055481
1761380580854918700,2.335918701171875,1.6590923070907593,2.878403663635254,0.3033294081687927
1761380580864973800,2.345973876953125,1.6259725093841553,2.781738758087158,0.017079012468457222
1761380580875029800,2.35602978515625,1.4425246715545654,2.750797986984253,-0.4123145639896393
1761380580885085700,2.366085693359375,1.2864972352981567,2.533716917037964,-0.7375659346580505
1761380580895140900,2.376140869140625,1.2652370929718018,2.232450246810913,-0.8901584148406982
1761380580905196500,2.386196533203125,1.365341305732727,1.9377013444900513,-0.8675833344459534
1761380580915252700,2.396252685546875,1.523186445236206,1.5041868686676025,-0.7658619284629822
1761380580925308700,2.40630859375,1.6444276571273804,1.164844274520874,-0.678153395652771
1761380580935363800,2.41636376953125,1.634083867073059,0.9016291499137878,-0.5788053274154663
1761380580945419800,2.426419677734375,1.5354970693588257,0.7005863189697266,-0.4712357223033905
1761380580955475700,2.436475830078125,1.3628387451171875,0.6053910255432129,-0.33074742555618286
1761380580965531000,2.44653076171875,1.1162958145141602,0.43833357095718384,-0.15767207741737366
1761380580975586800,2.4565869140625,0.8708822727203369,0.12969057261943817,-0.0006461646407842636
1761380580985642800,2.466642822265625,0.6451346278190613,-0.21375946700572968,0.1646847277879715
1761380580995698700,2.47669873046875,0.40214303135871887,-0.5514864325523376,0.2796594798564911
1761380581005753900,2.48675390625,0.1653081178665161,-0.9051539301872253,0.2937089800834656
1761380581015809800,2.496809814453125,-0.01364881731569767,-1.294562816619873,0.18217018246650696
1761380581025865700,2.50686572265625,-0.11421483755111694,-1.627945065498352,-0.1054389700293541
1761380581035921000,2.5169208984375,-0.13091915845870972,-1.9830658435821533,-0.5275021195411682
1761380581045976800,2.526976806640625,-0.0730031281709671,-2.4425532817840576,-0.9057820439338684
1761380581056033000,2.537032958984375,0.09249982237815857,-2.9345738887786865,-1.039942741394043
1761380581066088700,2.547088623046875,0.2921532690525055,-3.2617344856262207,-0.8462750315666199
1761380581076143600,2.5571435546875,0.29263365268707275,-3.6136393547058105,-0.5058906078338623
1761380581086199800,2.56719970703125,0.2412535548210144,-4.051106929779053,-0.42254191637039185
1761380581096255700,2.577255859375,0.005886462517082691,-4.136697292327881,-0.8573604226112366
1761380581106311000,2.587310791015625,-0.5212852358818054,-4.150432109832764,-1.5227409601211548
1761380581116366800,2.597366943359375,-0.9566622972488403,-4.359555721282959,-1.859398365020752
1761380581126422800,2.6074228515625,-1.0627251863479614,-4.386554718017578,-1.7905620336532593
1761380581136477700,2.617477783203125,-1.105616807937622,-4.344141960144043,-1.3905925750732422
1761380581146533600,2.62753369140625,-1.2213809490203857,-4.120446681976318,-0.8303250670433044
1761380581156589800,2.63758984375,-1.376499056816101,-3.553685426712036,-0.16639545559883118
1761380581166645800,2.647645751953125,-1.4149316549301147,-2.842161178588867,0.5374737977981567
1761380581176701000,2.657700927734375,-1.1613541841506958,-2.386366844177246,1.1153935194015503
1761380581186756900,2.6677568359375,-0.7121151089668274,-2.053321361541748,1.4092137813568115
1761380581196812800,2.677812744140625,-0.29881373047828674,-1.659800410270691,1.3461767435073853
1761380581206867700,2.68786767578125,-0.057965975254774094,-1.3472651243209839,0.9804201722145081
1761380581216923600,2.697923583984375,0.038006458431482315,-1.1729772090911865,0.4613948464393616
1761380581226979800,2.707979736328125,0.011126639321446419,-1.0773169994354248,-0.07726916670799255
1761380581237035800,2.718035888671875,-0.10572832077741623,-1.050925850868225,-0.5258662700653076
1761380581247091000,2.728091064453125,-0.2501651346683502,-1.009385108947754,-0.8386363983154297
1761380581257147000,2.73814697265625,-0.3395209312438965,-1.0257823467254639,-1.0385571718215942
1761380581267202800,2.748202880859375,-0.34200912714004517,-1.0452524423599243,-1.1143049001693726
1761380581277257700,2.7582578125,-0.28557679057121277,-1.0186930894851685,-1.1183217763900757
1761380581287313700,2.768313720703125,-0.2205924689769745,-0.9883000254631042,-1.0561684370040894
1761380581297369600,2.77836962890625,-0.18194445967674255,-0.9576756358146667,-0.8929497599601746
1761380581307425800,2.78842578125,-0.26191839575767517,-1.0049936771392822,-0.6439867615699768
1761380581317480700,2.798480712890625,-0.42389562726020813,-1.0874004364013672,-0.4008559584617615
1761380581327537000,2.808536865234375,-0.5794777274131775,-1.1175788640975952,-0.2576071619987488
1761380581337592800,2.8185927734375,-0.6756250262260437,-1.0154345035552979,-0.21533752977848053
1761380581347647700,2.828647705078125,-0.6852784156799316,-0.7989112138748169,-0.21834424138069153
1761380581357703700,2.83870361328125,-0.6087172627449036,-0.46792080998420715,-0.17847225069999695
1761380581367759600,2.848759521484375,-0.5195474624633789,-0.0046391733922064304,-0.015699315816164017
1761380581377814800,2.858814697265625,-0.5045344829559326,0.6485317349433899,0.2151576578617096
1761380581387870700,2.86887060546875,-0.5985416769981384,1.423056960105896,0.41159239411354065
1761380581397927000,2.878927001953125,-0.767375111579895,2.2235374450683594,0.4995288550853729
1761380581407982800,2.88898291015625,-0.9332807064056396,2.9082493782043457,0.45293790102005005
1761380581418038000,2.8990380859375,-0.9651468992233276,3.380793333053589,0.32991737127304077
1761380581428093700,2.90909375,-0.8029127717018127,3.526266574859619,0.18651200830936432
1761380581438149600,2.919149658203125,-0.29445865750312805,3.208648920059204,0.2377575933933258
1761380581448205000,2.929205078125,0.540539562702179,2.480792760848999,0.4705442190170288
1761380581458261000,2.939260986328125,1.366774320602417,1.817084789276123,0.5293179154396057
1761380581468316700,2.949316650390625,1.787678599357605,1.7866939306259155,0.10135701298713684
1761380581478372900,2.959372802734375,1.330931544303894,2.846292018890381,-0.9553029537200928
1761380581488427800,2.969427734375,0.29584789276123047,4.0435614585876465,-1.82985520362854
1761380581498484000,2.97948388671875,-0.5838724374771118,4.987466335296631,-1.9213591814041138
1761380581508540000,2.989539794921875,-0.9292972087860107,5.517268180847168,-1.4294596910476685
1761380581518595000,2.999594970703125,-0.7449455261230469,5.477324485778809,-0.5881552696228027
1761380581528651000,3.009651123046875,-0.2299777865409851,4.7200188636779785,0.3422728478908539
1761380581538707000,3.01970703125,0.46305474638938904,3.5510072708129883,1.1328176259994507
1761380581548761900,3.029761962890625,1.1197340488433838,2.477025032043457,1.6060526371002197
1761380581558817800,3.03981787109375,1.5434528589248657,1.7003023624420166,1.731095790863037
1761380581568874000,3.0498740234375,1.7557345628738403,1.249563455581665,1.6199947595596313
1761380581578930000,3.059929931640625,1.7950748205184937,1.1869878768920898,1.4103636741638184
1761380581588985000,3.069985107421875,1.6958601474761963,1.3289074897766113,1.1213412284851074
1761380581599041000,3.080041015625,1.549554467201233,1.50438392162323,0.7319959402084351
1761380581609097000,3.090096923828125,1.4221504926681519,1.5628645420074463,0.2840102016925812
1761380581619152000,3.10015185546875,1.3257924318313599,1.3638572692871094,-0.11361908167600632
1761380581629207800,3.110207763671875,1.2300925254821777,1.0230118036270142,-0.3983309864997864
1761380581639263700,3.120263671875,1.092848300933838,0.7331550717353821,-0.5649794936180115
1761380581649320000,3.13031982421875,0.9220249056816101,0.6136875748634338,-0.6153201460838318
1761380581659374800,3.140374755859375,0.8056402206420898,0.5515834093093872,-0.5455200672149658
1761380581669431000,3.15043115234375,0.7889233231544495,0.5020720958709717,-0.39473506808280945
1761380581679487000,3.160487060546875,0.8188790678977966,0.470308780670166,-0.21192994713783264
1761380581689542000,3.1705419921875,0.8207659125328064,0.3787759244441986,-0.040322765707969666
1761380581699597800,3.180597900390625,0.7936318516731262,0.14022089540958405,0.15585185587406158
1761380581709653800,3.19065380859375,0.6512254476547241,-0.2641127109527588,0.3405916094779968
1761380581719710000,3.2007099609375,0.37594664096832275,-0.8766134977340698,0.4656614363193512
1761380581729764900,3.210764892578125,0.08989915251731873,-1.494579553604126,0.44286078214645386
1761380581739821000,3.220821044921875,-0.1509186029434204,-1.8974007368087769,0.2217206060886383
1761380581749877000,3.230876953125,-0.37004294991493225,-2.162752866744995,-0.10602210462093353
1761380581759932000,3.240931884765625,-0.5113999843597412,-2.4752037525177,-0.4313085079193115
1761380581769987800,3.25098779296875,-0.5420843958854675,-2.7727746963500977,-0.71333247423172
1761380581780043800,3.261043701171875,-0.45202913880348206,-2.864583730697632,-0.9528135657310486
1761380581790099000,3.271098876953125,-0.19144177436828613,-2.8723647594451904,-1.1136983633041382
1761380581800155000,3.28115478515625,0.20068341493606567,-2.7865681648254395,-1.1141245365142822
1761380581810210800,3.2912109375,0.3946598172187805,-2.597041606903076,-1.0124748945236206
1761380581820267000,3.30126708984375,0.16235046088695526,-2.7620654106140137,-1.085261344909668
1761380581830322000,3.311322021484375,-0.27421993017196655,-2.9508583545684814,-1.6069620847702026
1761380581840377900,3.3213779296875,-0.6795665621757507,-3.1302714347839355,-2.5419528484344482
1761380581850433800,3.331433837890625,-0.9946041107177734,-3.639335870742798,-3.3677425384521484
1761380581860489000,3.341489013671875,-1.0572882890701294,-4.564162731170654,-3.696866512298584
1761380581870545000,3.351544921875,-0.9971575736999512,-5.414799213409424,-3.6691744327545166
1761380581880600800,3.361600830078125,-1.0780752897262573,-5.8207621574401855,-3.5520386695861816
1761380581890657000,3.371656982421875,-1.3142145872116089,-5.877934455871582,-3.4403164386749268
1761380581900712000,3.3817119140625,-1.5522936582565308,-4.9374589920043945,-3.229407787322998
1761380581910767900,3.391767822265625,-1.671892523765564,-3.4888057708740234,-2.8349268436431885
1761380581920823800,3.40182373046875,-1.6157515048980713,-2.2834088802337646,-2.4855422973632812
1761380581930879000,3.41187890625,-1.3767788410186768,-1.5818995237350464,-2.2849302291870117
1761380581940935000,3.421934814453125,-1.0700608491897583,-1.4310848712921143,-2.240556001663208
1761380581950990800,3.431990966796875,-0.8738378882408142,-1.7934566736221313,-2.131613254547119
1761380581961047000,3.442047119140625,-0.7981817126274109,-2.0674543380737305,-1.7403937578201294
1761380581971102000,3.45210205078125,-0.7683311700820923,-1.911698818206787,-1.0744333267211914
1761380581981158100,3.462158203125,-0.7645567655563354,-1.3714920282363892,-0.2696477770805359
1761380581991213800,3.4722138671875,-0.8066213726997375,-0.6742873191833496,0.5167525410652161
1761380582001268700,3.482268798828125,-0.8933598399162292,-0.06360997259616852,1.179157018661499
1761380582011325000,3.492324951171875,-1.0317806005477905,0.3112392723560333,1.6275427341461182
1761380582021380900,3.502380859375,-1.1191731691360474,0.4176255464553833,1.8011037111282349
1761380582031436000,3.51243603515625,-1.1090995073318481,0.17925822734832764,1.809004545211792
1761380582041492000,3.522491943359375,-1.0117994546890259,-0.15328697860240936,1.7988765239715576
1761380582051548000,3.5325478515625,-0.8260374069213867,-0.2884080708026886,1.8739845752716064
1761380582061604000,3.54260400390625,-0.6204966306686401,-0.12396916002035141,2.0338187217712402
1761380582071658800,3.55265869140625,-0.42018142342567444,0.2833499014377594,2.1616146564483643
1761380582081715000,3.56271484375,-0.2646433115005493,0.8226126432418823,2.241478443145752
1761380582091771000,3.57277099609375,-0.1952333301305771,1.389525055885315,2.317239999771118
1761380582101826000,3.582825927734375,-0.2237967550754547,1.9651025533676147,2.3716886043548584
1761380582111882000,3.592882080078125,-0.3021749258041382,2.553966760635376,2.393134593963623
1761380582121938000,3.60293798828125,-0.3365020155906677,2.9265096187591553,2.2892067432403564
1761380582131994000,3.612994140625,-0.2253163903951645,2.9465320110321045,1.9936240911483765
1761380582142048800,3.623048828125,0.1508486568927765,2.6056036949157715,1.5112560987472534
1761380582152105000,3.63310498046875,0.6153550744056702,2.5213706493377686,0.9989275336265564
1761380582162161000,3.643160888671875,0.8754777312278748,2.5128538608551025,0.7165001034736633
1761380582172216000,3.653216064453125,0.9567464590072632,2.2599267959594727,0.9208636283874512
1761380582182272000,3.66327197265625,0.9135187864303589,2.3391778469085693,1.4619534015655518
1761380582192328000,3.673327880859375,0.7819107174873352,2.407737970352173,1.7943981885910034
1761380582202382800,3.6833828125,0.9488129615783691,2.0706920623779297,1.3463870286941528
1761380582212438800,3.693438720703125,1.5105865001678467,1.9981005191802979,0.23285499215126038
1761380582222494700,3.70349462890625,1.7015023231506348,2.45002818107605,-0.6826338171958923
1761380582232551000,3.713551025390625,1.3557878732681274,3.3743040561676025,-0.813260018825531
1761380582242605800,3.723605712890625,0.8964672088623047,4.280257225036621,-0.30457803606987
1761380582252662000,3.733662109375,0.5732284784317017,4.714075565338135,0.4857991635799408
1761380582262718000,3.743718017578125,0.43163231015205383,4.637227535247803,1.296730637550354
1761380582272773000,3.753773193359375,0.3370738625526428,4.135238170623779,1.8460091352462769
1761380582282828800,3.763828857421875,0.196968212723732,3.374825954437256,1.983761191368103
1761380582292884700,3.773884765625,0.04617124795913696,2.623739004135132,1.7154784202575684
1761380582302941000,3.78394091796875,-0.021706849336624146,2.1104562282562256,1.1408957242965698
1761380582312995800,3.793995849609375,-0.04074126482009888,1.653725028038025,0.34292367100715637
1761380582323052000,3.804052001953125,-0.014895816333591938,1.2870335578918457,-0.5197352170944214
1761380582333108000,3.81410791015625,0.10960469394922256,1.054572343826294,-1.206141710281372
1761380582343163100,3.8241630859375,0.27872350811958313,0.8630097508430481,-1.516638994216919
1761380582353218800,3.83421875,0.4062180817127228,0.6652223467826843,-1.4879904985427856
1761380582363274800,3.844274658203125,0.4437275826931,0.4353165328502655,-1.2733230590820312
1761380582373330000,3.854329833984375,0.39706528186798096,0.2476087063550949,-1.0224649906158447
1761380582383385900,3.8643857421875,0.27828794717788696,0.23880378901958466,-0.796398937702179
1761380582393441800,3.87444189453125,0.14996805787086487,0.4189290702342987,-0.5821353793144226
1761380582403498000,3.884498046875,0.09910071641206741,0.5474234223365784,-0.2916414439678192
1761380582413553000,3.894552978515625,0.2311309278011322,0.450616717338562,-0.07421430945396423
1761380582423609000,3.904609130859375,0.5884779691696167,0.07362398505210876,-0.010336487554013729
1761380582433664800,3.914664794921875,0.9301519393920898,-0.527675986289978,-0.07657595723867416
1761380582443723500,3.9247236328125,1.091818928718567,-1.1462301015853882,-0.14165350794792175
1761380582453779500,3.934779541015625,1.1035780906677246,-1.6657977104187012,-0.0808413028717041
1761380582463835400,3.94483544921875,1.1129924058914185,-1.8162193298339844,0.12421011179685593
1761380582473891600,3.9548916015625,1.0751025676727295,-1.6094273328781128,0.3875999450683594
1761380582483946500,3.964946533203125,0.8809961676597595,-1.4377321004867554,0.5759387612342834
1761380582494002700,3.975002685546875,0.5457828044891357,-1.5254669189453125,0.6244951486587524
1761380582504058600,3.98505859375,0.05160832032561302,-1.7028204202651978,0.5584955811500549
1761380582514113500,3.995113525390625,-0.5301251411437988,-1.8150947093963623,0.40036049485206604
1761380582524167400,4.00516748046875,-1.1426024436950684,-1.8285424709320068,0.17822447419166565
1761380582534223600,4.0152236328125,-1.6554300785064697,-1.6681854724884033,0.02961156889796257
1761380582544279600,4.025279541015625,-1.9338784217834473,-1.5363428592681885,0.10206954181194305
1761380582554334700,4.035334716796875,-1.8195116519927979,-1.9164214134216309,0.23162807524204254
1761380582564390400,4.045390380859375,-1.2700753211975098,-2.5973832607269287,-0.00810507033020258
1761380582574446300,4.0554462890625,-0.6137075424194336,-3.3053817749023438,-0.9008269906044006
1761380582584501500,4.06550146484375,-0.33003324270248413,-3.7650201320648193,-2.0394198894500732
1761380582594557400,4.075557373046875,-0.33909571170806885,-3.977764368057251,-2.653926372528076
1761380582604613600,4.085613525390625,-0.304535448551178,-4.411149024963379,-2.5803515911102295
1761380582614668500,4.09566845703125,-0.2774582803249359,-4.8412322998046875,-2.0897557735443115
1761380582624724700,4.105724853515625,-0.3838784098625183,-4.7833027839660645,-1.4693822860717773
1761380582634780700,4.11578076171875,-0.6624570488929749,-4.067731857299805,-0.8185908794403076
1761380582644836400,4.12583642578125,-0.9423697590827942,-3.2167487144470215,-0.17994436621665955
1761380582654891500,4.1358916015625,-1.0133681297302246,-2.6050631999969482,0.27248409390449524
1761380582664947500,4.145947509765625,-0.850752055644989,-2.150949478149414,0.43223097920417786
1761380582675003600,4.156003662109375,-0.6659462451934814,-1.771933674812317,0.4009023606777191
1761380582685058600,4.16605859375,-0.554108202457428,-1.486861228942871,0.29895326495170593
1761380582695114500,4.176114501953125,-0.4571433365345001,-1.3119317293167114,0.14723990857601166
1761380582705170700,4.186170654296875,-0.33556312322616577,-1.2237814664840698,-0.08375760912895203
1761380582715225300,4.196225341796875,-0.2048216462135315,-1.223097562789917,-0.3732677400112152
1761380582725281500,4.206281494140625,-0.10510700941085815,-1.167715072631836,-0.6818521618843079
1761380582735337500,4.21633740234375,-0.09088359773159027,-0.9855974912643433,-1.0287270545959473
1761380582745393400,4.226393310546875,-0.15965792536735535,-0.7474403381347656,-1.392289400100708
1761380582755448600,4.236448486328125,-0.3098098933696747,-0.4485939145088196,-1.6482692956924438
1761380582765504500,4.24650439453125,-0.5111562609672546,-0.09793015569448471,-1.7060009241104126
1761380582775560700,4.256560791015625,-0.6664156317710876,0.1272507756948471,-1.559661626815796
1761380582785615400,4.266615478515625,-0.7525488138198853,0.23993748426437378,-1.3218700885772705
1761380582795671600,4.276671630859375,-0.8055753111839294,0.1958123743534088,-1.053903341293335
1761380582805727500,4.2867275390625,-0.7945423126220703,-0.04547595605254173,-0.7530753016471863
1761380582815783400,4.296783447265625,-0.724037766456604,-0.3726445138454437,-0.41958069801330566
1761380582825838600,4.306838623046875,-0.6491909623146057,-0.6839395761489868,-0.048912838101387024
1761380582835894500,4.31689453125,-0.5250769853591919,-0.8753681182861328,0.32022765278816223
1761380582845950700,4.32695068359375,-0.3250482976436615,-0.7701742053031921,0.6690707802772522
1761380582856005400,4.33700537109375,-0.13089130818843842,-0.33138546347618103,1.0150076150894165
1761380582866061600,4.3470615234375,-0.0019601513631641865,0.3146857023239136,1.2625590562820435
1761380582876117500,4.357117431640625,0.061306435614824295,1.0352460145950317,1.239050269126892
1761380582886173400,4.36717333984375,0.07343040406703949,1.7294909954071045,0.9300596714019775
1761380582896228600,4.377228515625,0.10211770981550217,2.294691324234009,0.4896186888217926
1761380582906284500,4.387284423828125,0.13564562797546387,2.810305118560791,0.16365830600261688
1761380582916340500,4.397340576171875,0.10786937922239304,3.186134099960327,0.2404220700263977
1761380582926395400,4.4073955078125,0.14960825443267822,3.227837085723877,0.9522026181221008
1761380582936451300,4.417451416015625,0.43134805560112,3.1514642238616943,1.9665905237197876
1761380582946507500,4.427507568359375,0.9196937680244446,2.841378927230835,2.3448448181152344
1761380582956562400,4.4375625,1.6011412143707275,2.4342212677001953,1.6622670888900757
1761380582966618600,4.44761865234375,2.0042777061462402,2.6136765480041504,0.5905421376228333
1761380582976674600,4.457674560546875,1.8332767486572266,2.9432687759399414,-0.11356484889984131
1761380582986730500,4.46773046875,1.3864703178405762,3.4688313007354736,-0.32432329654693604
1761380582996785700,4.47778564453125,0.9161210060119629,3.853093147277832,-0.2668813169002533
1761380583006841300,4.48784130859375,0.59290611743927,3.8739664554595947,-0.07452802360057831
1761380583016897500,4.4978974609375,0.47401222586631775,3.760807514190674,0.3525753617286682
1761380583026952400,4.507952392578125,0.4424632489681244,3.656860828399658,0.7987337708473206
1761380583037008600,4.518008544921875,0.281029611825943,3.4605042934417725,1.002052903175354
1761380583047064600,4.528064697265625,0.06576225161552429,3.1871960163116455,0.8784935474395752
1761380583057120500,4.53812060546875,-0.012763982638716698,2.901639938354492,0.5601776242256165
1761380583067175700,4.54817578125,0.11284008622169495,2.7021172046661377,0.0964893251657486
1761380583077231600,4.558231689453125,0.3505181670188904,2.399900436401367,-0.48085176944732666
1761380583087287600,4.56828759765625,0.5933697819709778,1.966639518737793,-1.0833911895751953
1761380583097342500,4.578342529296875,0.8363129496574402,1.489781141281128,-1.5307564735412598
1761380583107398400,4.5883984375,1.0631153583526611,1.0163969993591309,-1.7451997995376587
1761380583117454600,4.59845458984375,1.2317153215408325,0.6213186383247375,-1.7482080459594727
1761380583127510500,4.608510498046875,1.2846362590789795,0.35323500633239746,-1.6304726600646973
1761380583137565700,4.618565673828125,1.1773306131362915,0.2519161105155945,-1.4857324361801147
1761380583147621600,4.62862158203125,0.8950779438018799,0.26764819025993347,-1.2997922897338867
1761380583157677600,4.638677490234375,0.5429366827011108,0.3330242931842804,-1.0563315153121948
1761380583167732500,4.648732421875,0.23030711710453033,0.24644680321216583,-0.808322012424469
1761380583177788400,4.658788330078125,0.005213819444179535,0.08937542140483856,-0.5967836976051331
1761380583187844600,4.6688447265625,-0.13746263086795807,-0.017813032492995262,-0.46185868978500366
1761380583197899500,4.6788994140625,-0.2188301980495453,0.0002586464397609234,-0.38475725054740906
1761380583207955700,4.688955810546875,-0.2424597591161728,0.08385811001062393,-0.3513281047344208
1761380583218011600,4.69901171875,-0.20732493698596954,0.1247730553150177,-0.34410029649734497
1761380583228067600,4.709067626953125,-0.1189018040895462,-0.03626327961683273,-0.3615381717681885
1761380583238122500,4.71912255859375,0.003152470337226987,-0.38248488306999207,-0.3529263138771057
1761380583248178400,4.729178466796875,0.07016997039318085,-0.8678418397903442,-0.34455105662345886
1761380583258234600,4.739234619140625,-0.0399424210190773,-1.3834333419799805,-0.38357406854629517
1761380583268289500,4.74928955078125,-0.30911901593208313,-1.6989634037017822,-0.5002328753471375
1761380583278345500,4.759345458984375,-0.646584153175354,-1.8105155229568481,-0.6652955412864685
1761380583288401700,4.769401611328125,-0.9376064538955688,-1.6004588603973389,-0.8434491157531738
1761380583298457600,4.77945751953125,-1.103136658668518,-1.0223302841186523,-0.8815981149673462
1761380583308512500,4.789512451171875,-1.1377613544464111,-0.8120489120483398,-0.612362802028656
1761380583318568400,4.799568359375,-0.9060036540031433,-1.476857304573059,-0.3521815240383148
1761380583328624400,4.809624267578125,-0.43306681513786316,-2.25805401802063,-0.6434330344200134
1761380583338679600,4.819679443359375,-0.3047642409801483,-2.229621171951294,-1.5240657329559326
1761380583348735500,4.829735595703125,-0.973871648311615,-1.6349667310714722,-2.501296281814575
1761380583358791700,4.839791748046875,-1.8099801540374756,-1.4876691102981567,-3.0359654426574707
1761380583368847600,4.84984765625,-2.100982666015625,-1.7355356216430664,-2.9043240547180176
1761380583378902500,4.859902587890625,-2.0313823223114014,-2.077939033508301,-2.3504505157470703
1761380583388958500,4.86995849609375,-1.854707956314087,-2.3277409076690674,-1.6572096347808838
1761380583399014400,4.880014404296875,-1.782378077507019,-2.2281341552734375,-0.8109262585639954
1761380583409069600,4.890069580078125,-1.8117501735687256,-1.8122007846832275,0.10909543931484222
1761380583419125500,4.90012548828125,-1.7749418020248413,-1.583022952079773,0.8984050154685974
1761380583429181700,4.910181640625,-1.6517200469970703,-1.6762559413909912,1.4364079236984253
1761380583439237600,4.920237548828125,-1.4537873268127441,-1.844462513923645,1.7210639715194702
1761380583449289200,4.930289306640625,-1.1752551794052124,-2.0838491916656494,1.832517385482788
1761380583459345400,4.940345458984375,-0.901175856590271,-2.164670467376709,1.8147304058074951
1761380583469401300,4.9504013671875,-0.698160707950592,-2.1507883071899414,1.7135307788848877
1761380583479456300,4.960456298828125,-0.5617628693580627,-2.166914939880371,1.5807583332061768
1761380583489512200,4.97051220703125,-0.4044159948825836,-2.0336437225341797,1.4480923414230347
1761380583499568000,4.980568115234375,-0.27296584844589233,-1.8452988862991333,1.234086275100708
1761380583509623300,4.990623291015625,-0.1896682232618332,-1.512664794921875,0.8994021415710449
1761380583519679200,5.00067919921875,-0.10249391198158264,-1.0593901872634888,0.49961745738983154
1761380583529735400,5.0107353515625,-0.03260068595409393,-0.6252235770225525,0.174546480178833
1761380583539791400,5.020791259765625,-0.03307659551501274,-0.19773323833942413,-0.009779952466487885
1761380583549846300,5.03084619140625,-0.12887698411941528,0.18429657816886902,-0.09610418230295181
1761380583559902200,5.040902099609375,-0.28984349966049194,0.44721370935440063,-0.16229785978794098
1761380583569958100,5.050958251953125,-0.46180111169815063,0.6145474910736084,-0.2443189173936844
1761380583580013300,5.061013427734375,-0.5404200553894043,0.726436197757721,-0.3047875761985779
1761380583590069200,5.0710693359375,-0.5018050074577332,0.7374647259712219,-0.26816657185554504
1761380583600125400,5.08112548828125,-0.34991055727005005,0.711842954158783,-0.09979061782360077
1761380583610181400,5.091181396484375,-0.12277822941541672,0.7730116248130798,0.2039576768875122
1761380583620236000,5.101236083984375,0.1192072406411171,0.9520929455757141,0.5178386569023132
1761380583630292200,5.111292236328125,0.2746591866016388,1.244164228439331,0.6846145391464233
1761380583640348200,5.12134814453125,0.3396152853965759,1.478299617767334,0.6172046065330505
1761380583650403300,5.1314033203125,0.38590866327285767,1.5335490703582764,0.366172194480896
1761380583660459300,5.141459228515625,0.4732874929904938,1.420087218284607,0.18777050077915192
1761380583670515200,5.15151513671875,0.632164716720581,1.1678086519241333,0.2724567651748657
1761380583680571400,5.1615712890625,0.9522362351417542,1.0680447816848755,0.4484429955482483
1761380583690626000,5.1716259765625,1.438073754310608,1.1502560377120972,0.29363229870796204
1761380583700682200,5.18168212890625,1.9599502086639404,1.3422398567199707,-0.34001174569129944
1761380583710738200,5.19173828125,2.180828094482422,1.8472892045974731,-0.9487591981887817
1761380583720793300,5.20179345703125,1.9193780422210693,2.6031882762908936,-1.139997124671936
1761380583730849300,5.211849365234375,1.2852998971939087,3.2800307273864746,-0.8507254123687744
1761380583740905200,5.2219052734375,0.6294896602630615,3.861192464828491,-0.2564908266067505
1761380583750961400,5.23196142578125,0.22149528563022614,4.137537479400635,0.31811749935150146
1761380583761016000,5.24201611328125,0.040869034826755524,4.063297748565674,0.7558636665344238
1761380583771072300,5.252072265625,0.042503196746110916,3.5330631732940674,1.145374059677124
1761380583781128200,5.262128173828125,0.3072243332862854,2.7117066383361816,1.3116422891616821
1761380583791183400,5.272183349609375,0.6918433308601379,1.8881053924560547,1.1032154560089111
1761380583801239300,5.2822392578125,1.0496610403060913,1.301709532737732,0.6757685542106628
1761380583811295200,5.292295166015625,1.3237072229385376,0.9485520124435425,0.1649651676416397
1761380583821351200,5.30235107421875,1.4496227502822876,0.8110026717185974,-0.3721475601196289
1761380583831406300,5.31240625,1.445098638534546,0.7602232098579407,-0.8304367065429688
1761380583841462000,5.3224619140625,1.3335145711898804,0.6883032321929932,-1.0539438724517822
1761380583851518200,5.332518310546875,1.1821444034576416,0.4631213843822479,-0.9944422841072083
1761380583861573000,5.342572998046875,1.0334104299545288,0.25924786925315857,-0.7682405710220337
1761380583871629300,5.35262939453125,0.8760177493095398,0.0890650600194931,-0.4677749276161194
1761380583881685200,5.362685302734375,0.6948269009590149,0.025601398199796677,-0.20026810467243195
1761380583891741200,5.3727412109375,0.4236815571784973,0.13749925792217255,0.04317617043852806
1761380583901796400,5.38279638671875,0.16876858472824097,0.2252509593963623,0.21635088324546814
1761380583911852300,5.392852294921875,0.10150957107543945,0.18816030025482178,0.2786537706851959
1761380583921908200,5.402908203125,0.24114762246608734,-0.0449879989027977,0.2115253359079361
1761380583931963100,5.412963134765625,0.49324092268943787,-0.3316851854324341,0.040893714874982834
1761380583942019300,5.423019287109375,0.7331158518791199,-0.4597081243991852,-0.13385625183582306
1761380583952075300,5.4330751953125,0.8881075382232666,-0.4200427234172821,-0.23375360667705536
1761380583962131200,5.443131103515625,0.8769920468330383,-0.3492436707019806,-0.23449556529521942
1761380583972186400,5.453186279296875,0.718598484992981,-0.44282495975494385,-0.10011452436447144
1761380583982242300,5.4632421875,0.39458292722702026,-0.7212563753128052,0.18383491039276123
1761380583992298200,5.47329833984375,-0.11672976613044739,-1.1190237998962402,0.5307410359382629
1761380584002353200,5.483353271484375,-0.6479488611221313,-1.5882301330566406,0.7305926084518433
1761380584012409000,5.4934091796875,-1.0027713775634766,-1.9767537117004395,0.6704999208450317
1761380584022465300,5.50346533203125,-1.167814016342163,-2.202263832092285,0.41881605982780457
1761380584032521200,5.513521240234375,-1.180704951286316,-2.2932398319244385,0.135389506816864
1761380584042576400,5.523576416015625,-1.1136646270751953,-2.012901782989502,-0.04005661979317665
1761380584052632300,5.53363232421875,-1.1915663480758667,-1.227504849433899,0.1473694145679474
1761380584062688300,5.543688232421875,-1.3699440956115723,-0.9860643148422241,0.6248297095298767
1761380584072743200,5.5537431640625,-1.382140874862671,-1.574375867843628,0.9485780000686646
1761380584082799000,5.563799072265625,-1.1136422157287598,-2.482393503189087,0.6105285286903381
1761380584092855300,5.573855224609375,-0.87737637758255,-3.4220223426818848,-0.2465357929468155
1761380584102911200,5.5839111328125,-0.9265042543411255,-4.4766082763671875,-0.938508152961731
1761380584112966400,5.59396630859375,-0.974510669708252,-5.096430778503418,-1.0202064514160156
1761380584123022300,5.604022216796875,-0.9585629105567932,-5.377805709838867,-0.6283747553825378
1761380584133078300,5.614078369140625,-0.979608952999115,-4.94252872467041,-0.14108237624168396
1761380584143133200,5.62413330078125,-1.0703399181365967,-3.9198076725006104,0.3672056198120117
1761380584153189000,5.634189208984375,-1.219163417816162,-2.802981376647949,0.8882512450218201
1761380584163245300,5.644245361328125,-1.2817729711532593,-1.9185433387756348,1.2123643159866333
1761380584173301200,5.65430126953125,-1.2497761249542236,-1.3436602354049683,1.1666275262832642
1761380584183356200,5.664356201171875,-1.2164263725280762,-1.0527961254119873,0.8595830798149109
1761380584193412400,5.674412353515625,-1.1566897630691528,-0.9765759110450745,0.5032460689544678
1761380584203468300,5.68446826171875,-1.027106523513794,-1.016865849494934,0.2117055505514145
1761380584213523200,5.694523193359375,-0.8567227125167847,-0.998437225818634,0.021446213126182556
1761380584223579100,5.7045791015625,-0.7662039995193481,-0.901393473148346,-0.06079752743244171
1761380584233635000,5.714635009765625,-0.7529224157333374,-0.8938501477241516,-0.05463175103068352
1761380584243690200,5.724690185546875,-0.7901672720909119,-0.8876513838768005,0.0117238350212574
1761380584253746200,5.73474609375,-0.8097318410873413,-0.9184943437576294,0.08591648191213608
1761380584263802400,5.74480224609375,-0.7919310331344604,-0.8468726277351379,0.13668538630008698
1761380584273858300,5.7548583984375,-0.7492337226867676,-0.7499436140060425,0.1635390818119049
1761380584283913200,5.764913330078125,-0.711013913154602,-0.6229294538497925,0.18298254907131195
1761380584293969200,5.77496923828125,-0.699682891368866,-0.5017241835594177,0.13853797316551208
1761380584304025000,5.785025146484375,-0.7091618776321411,-0.41671130061149597,0.025655098259449005
1761380584314081300,5.795081298828125,-0.6773021817207336,-0.4015471041202545,-0.12980271875858307
1761380584324136200,5.80513623046875,-0.6111758947372437,-0.4149742126464844,-0.2940627634525299
1761380584334192400,5.8151923828125,-0.5286455750465393,-0.40328067541122437,-0.46979662775993347
1761380584344248300,5.825248291015625,-0.3822771906852722,-0.3269382119178772,-0.6148962378501892
1761380584354303200,5.83530322265625,-0.12870235741138458,-0.14237847924232483,-0.6563889384269714
1761380584364359200,5.845359130859375,0.22581817209720612,0.2813778221607208,-0.5527376532554626
1761380584374415000,5.8554150390625,0.6033694744110107,1.0068687200546265,-0.34209775924682617
1761380584384471300,5.86547119140625,0.8591383695602417,1.722190022468567,-0.11725958436727524
1761380584394526200,5.875526123046875,0.950154185295105,2.3134615421295166,0.033031512051820755
1761380584404582100,5.88558203125,0.9280036091804504,2.768684148788452,0.08264247328042984
1761380584414638300,5.895638427734375,0.8662967681884766,2.9430007934570312,0.0646350309252739
1761380584424693200,5.905693359375,0.7690058946609497,2.930091619491577,0.17685025930404663
1761380584434749200,5.915749267578125,0.7019914984703064,2.8212673664093018,0.4330887198448181
1761380584444805000,5.92580517578125,0.8584170341491699,2.699085235595703,0.5772160887718201
1761380584454860800,5.93586083984375,1.3168596029281616,2.474210023880005,0.2278357297182083
1761380584464915700,5.945915771484375,1.8969160318374634,2.471010446548462,-0.6143956184387207
1761380584474971600,5.9559716796875,2.1997573375701904,2.8824310302734375,-1.4227880239486694
1761380584485027800,5.96602783203125,1.9817644357681274,3.1525886058807373,-1.8337689638137817
1761380584495082800,5.976082763671875,1.5040608644485474,3.1954727172851562,-1.7284932136535645
1761380584505139000,5.986138916015625,1.0648329257965088,3.350656509399414,-1.249151349067688
1761380584515195000,5.99619482421875,0.7200034260749817,3.554549217224121,-0.6598339676856995
1761380584525250000,6.00625,0.4851802885532379,3.7418065071105957,-0.08102038502693176
1761380584535306000,6.016305908203125,0.3977738916873932,3.6495680809020996,0.49025365710258484
1761380584545361700,6.026361572265625,0.4695732295513153,3.1804065704345703,0.9090918898582458
1761380584555417900,6.03641796875,0.5385574102401733,2.60286283493042,1.0353662967681885
1761380584565472800,6.04647265625,0.5939189195632935,2.1396067142486572,0.830532431602478
1761380584575529000,6.056529052734375,0.6272227764129639,1.8767673969268799,0.29192915558815
1761380584585585000,6.0665849609375,0.7019146084785461,1.7750452756881714,-0.5410522222518921
1761380584595640800,6.076640869140625,0.8143686652183533,1.8033112287521362,-1.4837201833724976
1761380584605696000,6.086696044921875,0.9722331166267395,1.842385172843933,-2.2889368534088135
1761380584615752000,6.096751953125,1.253212571144104,1.8262646198272705,-2.7599282264709473
1761380584625808000,6.106807861328125,1.6321649551391602,1.8292489051818848,-2.7849819660186768
1761380584635862800,6.11686279296875,1.9748975038528442,1.9333335161209106,-2.345026969909668
1761380584645918700,6.126918701171875,2.0717597007751465,1.9884628057479858,-1.5544761419296265
1761380584655975000,6.136974853515625,1.8311353921890259,1.786576747894287,-0.5334745049476624
1761380584666030800,6.14703076171875,1.3456770181655884,1.3832274675369263,0.5244779586791992
1761380584676086000,6.1570859375,0.7704912424087524,0.8226281404495239,1.4076520204544067
1761380584686142000,6.167141845703125,0.2790807783603668,0.05188111960887909,2.0381102561950684
1761380584696197600,6.17719775390625,-0.019492153078317642,-0.7442889213562012,2.3054661750793457
1761380584706252800,6.187252685546875,-0.14594915509223938,-1.122968316078186,2.246546745300293
1761380584716308700,6.197308837890625,-0.26424267888069153,-1.205888271331787,2.031831741333008
1761380584726365000,6.207364990234375,-0.39832964539527893,-1.0349761247634888,1.78767728805542
1761380584736420900,6.2174208984375,-0.5187144875526428,-0.6253589391708374,1.58627188205719
1761380584746476000,6.22747607421875,-0.6050504446029663,-0.3354640305042267,1.5242993831634521
1761380584756532000,6.237531982421875,-0.5325528979301453,-0.3880060613155365,1.505780577659607
1761380584766588000,6.247587890625,-0.40164974331855774,-0.5498865842819214,1.4023051261901855
1761380584776642800,6.257642822265625,-0.29074162244796753,-0.8467646837234497,1.1607398986816406
1761380584786698800,6.26769873046875,-0.31148526072502136,-1.1057815551757812,0.7710620760917664
1761380584796755000,6.2777548828125,-0.5060775876045227,-1.1240464448928833,0.39152297377586365
1761380584806811000,6.287810791015625,-0.7948670387268066,-1.280522346496582,0.17851749062538147
1761380584816866000,6.297865966796875,-0.98908931016922,-1.7533624172210693,0.05424840748310089
1761380584826922000,6.307921875,-1.0026072263717651,-2.0842089653015137,-0.18504194915294647
1761380584836978000,6.31797802734375,-0.942460298538208,-2.507894515991211,-0.5713086128234863
1761380584847032800,6.32803271484375,-0.984001874923706,-3.2084600925445557,-0.9268619418144226
1761380584857088800,6.3380888671875,-0.9642636775970459,-3.831341028213501,-1.2311015129089355
1761380584867144700,6.348144775390625,-0.8127173185348511,-4.161427974700928,-1.335986614227295
1761380584877201000,6.358200927734375,-0.6325101256370544,-3.971545934677124,-1.226325273513794
1761380584887255800,6.368255859375,-0.4765903651714325,-3.5361976623535156,-0.9737696647644043
1761380584897312000,6.37831201171875,-0.3292821943759918,-3.0072124004364014,-0.6140732765197754
1761380584907368000,6.388367919921875,-0.19497205317020416,-2.439535140991211,-0.26468625664711
1761380584917422800,6.3984228515625,-0.11620117723941803,-2.0332748889923096,-0.017862899228930473
1761380584927478800,6.408478759765625,-0.07036204636096954,-1.7952889204025269,0.07466330379247665
1761380584937534700,6.41853466796875,-0.009075814858078957,-1.7582616806030273,0.01396297849714756
1761380584947591000,6.4285908203125,0.12374427914619446,-1.823968529701233,-0.1740679144859314
1761380584957645800,6.438645751953125,0.24035608768463135,-2.1265430450439453,-0.40789681673049927
1761380584967702000,6.448701904296875,0.26928842067718506,-2.652601957321167,-0.6182020902633667
1761380584977758000,6.458758056640625,0.1514032781124115,-2.840970277786255,-0.9267033338546753
1761380584987812900,6.468812744140625,-0.11118654906749725,-2.6909401416778564,-1.247627854347229
1761380584997868800,6.478868896484375,-0.38628318905830383,-2.373924732208252,-1.5102916955947876
1761380585007924700,6.4889248046875,-0.5996796488761902,-2.0560176372528076,-1.6835126876831055
1761380585017981000,6.49898095703125,-0.7445400357246399,-1.7735217809677124,-1.765871286392212
1761380585028035800,6.509035888671875,-0.8269467353820801,-1.4362351894378662,-1.7191804647445679
1761380585038091800,6.519091796875,-0.8758783340454102,-1.0349018573760986,-1.5812052488327026
1761380585048148000,6.52914794921875,-0.9097111225128174,-0.5937334895133972,-1.4084872007369995
1761380585058203000,6.539202880859375,-0.9164232611656189,-0.1034967303276062,-1.2643959522247314
1761380585068258800,6.5492587890625,-0.8887860178947449,0.4387393593788147,-1.1768170595169067
1761380585078314800,6.559314697265625,-0.8104099631309509,1.0213936567306519,-1.154476284980774
1761380585088370700,6.56937060546875,-0.6698168516159058,1.5829038619995117,-1.1694824695587158
1761380585098425900,6.57942578125,-0.46512484550476074,2.1899688243865967,-1.1213533878326416
1761380585108481800,6.589481689453125,-0.19201424717903137,2.7904040813446045,-0.8961977362632751
1761380585118538000,6.5995380859375,0.13704347610473633,3.175245761871338,-0.5379639267921448
1761380585128594000,6.609593994140625,0.4296087920665741,3.2931106090545654,-0.18852472305297852
1761380585138648800,6.61964892578125,0.5994629263877869,3.058251142501831,0.03913592919707298
1761380585148704800,6.629704833984375,0.6988851428031921,2.6071579456329346,0.14937400817871094
1761380585158760700,6.6397607421875,0.7932765483856201,1.9016622304916382,0.1737617701292038
1761380585168815900,6.64981591796875,0.9961249828338623,1.0979704856872559,0.36920955777168274
1761380585178871800,6.659871826171875,1.4477707147598267,0.5443088412284851,0.7268052101135254
1761380585188928000,6.669927978515625,2.1591718196868896,0.24549315869808197,0.9241028428077698
1761380585198984000,6.67998388671875,3.056298017501831,0.08086656779050827,0.5963413715362549
1761380585209038800,6.690038818359375,3.8650102615356445,0.10719351470470428,-0.1663893312215805
1761380585219094800,6.7000947265625,4.106360912322998,0.17651699483394623,-0.977207362651825
1761380585229150700,6.710150634765625,3.6625850200653076,0.5781781077384949,-1.6133543252944946
1761380585239206000,6.720205810546875,2.9837265014648438,1.2446050643920898,-1.8101540803909302
1761380585249261800,6.73026171875,2.365248918533325,1.903159737586975,-1.4966485500335693
1761380585259317800,6.74031787109375,1.8761235475540161,2.515472173690796,-0.7206677794456482
1761380585269374000,6.7503740234375,1.430953860282898,3.038729429244995,0.27960509061813354
1761380585279428900,6.760428955078125,1.0754485130310059,3.2144601345062256,1.264743685722351
1761380585289485000,6.770485107421875,0.8322317004203796,3.1674253940582275,1.9216173887252808
1761380585299540700,6.780540771484375,0.6682628989219666,2.837846279144287,2.167112112045288
1761380585309596000,6.790595947265625,0.587769627571106,2.2577290534973145,2.0296850204467773
1761380585319651800,6.80065185546875,0.6125094294548035,1.7448843717575073,1.5929491519927979
1761380585329707800,6.810707763671875,0.6718976497650146,1.2795406579971313,0.9777851700782776
1761380585339764000,6.820763916015625,0.7314811944961548,0.8076001405715942,0.3499530851840973
1761380585349819000,6.83081884765625,0.7810237407684326,0.4615008234977722,-0.11730809509754181
1761380585359875000,6.840875,0.7939361929893494,0.35215941071510315,-0.40752050280570984
1761380585369931000,6.850930908203125,0.7199751734733582,0.4130280911922455,-0.5552960634231567
1761380585379986000,6.86098583984375,0.593206524848938,0.5010397434234619,-0.561779260635376
1761380585390041900,6.871041748046875,0.4208296835422516,0.6345112323760986,-0.3922821283340454
1761380585400097800,6.881097900390625,0.17369528114795685,0.7531662583351135,-0.0551307238638401
1761380585410154000,6.891154052734375,-0.09899244457483292,0.8594844341278076,0.35357075929641724
1761380585420209000,6.901208984375,-0.30450788140296936,0.8412892818450928,0.6734362840652466
1761380585430264800,6.911264892578125,-0.414711594581604,0.6836474537849426,0.8451084494590759
1761380585440321000,6.921321044921875,-0.41160279512405396,0.3628924787044525,0.8936966061592102
1761380585450377000,6.931376953125,-0.34309855103492737,-0.05658627301454544,0.8233206868171692
1761380585460432100,6.94143212890625,-0.2866648733615875,-0.5072583556175232,0.688021183013916
1761380585470488000,6.951488037109375,-0.28419825434684753,-0.8572424650192261,0.5811951160430908
1761380585480544000,6.9615439453125,-0.3799802362918854,-1.0758235454559326,0.5248085856437683
1761380585490599000,6.971598876953125,-0.5771145820617676,-1.1438922882080078,0.49542728066444397
1761380585500654800,6.98165478515625,-0.8070791363716125,-1.1351919174194336,0.4095947742462158
1761380585510711000,6.9917109375,-0.9935475587844849,-1.117672324180603,0.25541186332702637
1761380585520767000,7.00176708984375,-1.0770339965820312,-1.1075092554092407,0.06247770041227341
1761380585530822100,7.011822265625,-1.0686975717544556,-1.194454312324524,-0.1644880771636963
1761380585540878000,7.021878173828125,-1.0554248094558716,-1.2393865585327148,-0.17093096673488617
1761380585550934000,7.03193408203125,-1.1808857917785645,-1.0430428981781006,0.250029057264328
1761380585560989000,7.041989013671875,-1.3980203866958618,-0.9874549508094788,0.7823384404182434
1761380585571044900,7.052044921875,-1.5819827318191528,-0.8886079788208008,0.867016077041626
1761380585581101000,7.06210107421875,-1.9535787105560303,-0.8820882439613342,0.3437557518482208
1761380585591157000,7.072156982421875,-2.3581526279449463,-1.1444567441940308,-0.31005004048347473
1761380585601212000,7.0822119140625,-2.2910096645355225,-1.5323481559753418,-0.7386872172355652
1761380585611268000,7.09226806640625,-1.779360294342041,-2.3630268573760986,-0.9630835652351379
1761380585621324000,7.102323974609375,-1.2277404069900513,-3.0186517238616943,-1.0300484895706177
1761380585631380000,7.1123798828125,-0.8022822737693787,-3.3345186710357666,-0.9283189177513123
1761380585641435000,7.122434814453125,-0.5106222033500671,-3.2603182792663574,-0.6982486248016357
1761380585651490800,7.13249072265625,-0.3534057140350342,-2.9100215435028076,-0.4208071827888489
1761380585661547000,7.142547119140625,-0.3400367498397827,-2.402745008468628,-0.19808636605739594
1761380585671602000,7.152601806640625,-0.42942121624946594,-1.9062964916229248,-0.09279482811689377
1761380585681658000,7.162658203125,-0.563768744468689,-1.5762135982513428,-0.11763332039117813
1761380585691714000,7.172714111328125,-0.688453733921051,-1.3612191677093506,-0.26222458481788635
1761380585701770000,7.18277001953125,-0.7738959789276123,-1.1324234008789062,-0.4683409035205841
1761380585711825000,7.192824951171875,-0.8125041127204895,-0.8073331117630005,-0.6686321496963501
1761380585721880800,7.202880859375,-0.8354498147964478,-0.4405362010002136,-0.7820326089859009
1761380585731937000,7.21293701171875,-0.88167804479599,-0.1423383355140686,-0.7866529226303101
1761380585741992000,7.222991943359375,-0.9679566025733948,0.021463891491293907,-0.7094660997390747
1761380585752048000,7.233048095703125,-1.0732009410858154,0.053230877965688705,-0.5766667723655701
1761380585762104000,7.24310400390625,-1.2311408519744873,0.08691509813070297,-0.42430493235588074
1761380585772160000,7.253159912109375,-1.4235960245132446,0.10463391244411469,-0.3081897795200348
1761380585782215000,7.26321484375,-1.552267074584961,0.13745060563087463,-0.2756330966949463
1761380585792270800,7.273270751953125,-1.5247480869293213,0.18905387818813324,-0.35588160157203674
1761380585802327000,7.2833271484375,-1.3006986379623413,0.24972712993621826,-0.5397316217422485
1761380585812383000,7.293383056640625,-0.9673203229904175,0.31294071674346924,-0.7466413974761963
1761380585822438000,7.30343798828125,-0.5870025157928467,0.4736364483833313,-0.8261371850967407
1761380585832494000,7.313494140625,-0.0911908894777298,0.7242321968078613,-0.6789506673812866
1761380585842550000,7.323550048828125,0.5086216926574707,1.0597575902938843,-0.3273701071739197
1761380585852605200,7.333605224609375,1.0503849983215332,1.3197375535964966,0.11109592020511627
1761380585862660900,7.343660888671875,1.3911616802215576,1.3728607892990112,0.4707329571247101
1761380585872716800,7.353716796875,1.5430138111114502,1.380637764930725,0.635003924369812
1761380585882773000,7.36377294921875,1.5340251922607422,1.3766303062438965,0.5700082778930664
1761380585892828000,7.373827880859375,1.4072920083999634,1.2891308069229126,0.33209848403930664
1761380585902884000,7.383884033203125,1.2734460830688477,0.9860131740570068,0.026082631200551987
1761380585912940000,7.39393994140625,1.1733365058898926,0.590284526348114,-0.2647992670536041
1761380585922996000,7.403995849609375,1.0806316137313843,0.4042428433895111,-0.5675070285797119
1761380585933051100,7.414051025390625,1.001235008239746,0.5268725752830505,-0.6779395341873169
1761380585943106800,7.42410693359375,1.0014522075653076,0.8690201044082642,-0.17519691586494446
1761380585953163000,7.4341630859375,1.2660164833068848,1.609110713005066,0.5914930701255798
1761380585963218000,7.444218017578125,1.744229793548584,2.221302032470703,0.6160424947738647
1761380585973274000,7.454274169921875,2.077880382537842,2.4369845390319824,-0.34826788306236267
1761380585983330000,7.464330078125,2.11134672164917,2.2437593936920166,-1.5964081287384033
1761380585993386000,7.474385986328125,1.8837083578109741,1.6800074577331543,-2.10351824760437
1761380586003441200,7.484441162109375,1.5318269729614258,1.6189881563186646,-1.9354547262191772
1761380586013496800,7.494496826171875,1.0258610248565674,1.8732342720031738,-1.3670642375946045
1761380586023552800,7.504552734375,0.47287803888320923,1.9542404413223267,-0.39008116722106934
1761380586033609000,7.51460888671875,0.20224042236804962,2.0819175243377686,0.5663555860519409
1761380586043664000,7.524663818359375,0.18747223913669586,2.1511662006378174,1.0763037204742432
1761380586053720000,7.534719970703125,0.261301726102829,1.8569210767745972,1.1647942066192627
1761380586063776000,7.54477587890625,0.383052259683609,1.4786231517791748,1.0404964685440063
1761380586073831200,7.5548310546875,0.5719811916351318,1.1687473058700562,0.7729517221450806
1761380586083887000,7.56488720703125,0.7718015909194946,0.6994338035583496,0.34495222568511963
1761380586093942800,7.57494287109375,0.9437546730041504,0.16673392057418823,-0.1420656144618988
1761380586103999000,7.5849990234375,1.059023380279541,-0.20221379399299622,-0.539034366607666
1761380586114054000,7.595053955078125,1.0896075963974,-0.3268159329891205,-0.7509018778800964
1761380586124110000,7.605110107421875,0.9575026631355286,-0.28647303581237793,-0.6718030571937561
1761380586134166000,7.615166015625,0.7407256364822388,-0.3484996557235718,-0.6312670707702637
1761380586144222000,7.625221923828125,0.578409731388092,-0.35434490442276,-0.5090571045875549
1761380586154277000,7.635277099609375,0.47852545976638794,-0.23051507771015167,-0.2764858603477478
1761380586164333000,7.6453330078125,0.3706600069999695,-0.06383057683706284,-0.10842297226190567
1761380586174389000,7.655388916015625,0.25323402881622314,-0.08332091569900513,-0.13715048134326935
1761380586184444000,7.66544384765625,0.1755494922399521,-0.24063660204410553,-0.1797652691602707
1761380586194500000,7.6755,0.07795529067516327,-0.22050230205059052,-0.05996908247470856
1761380586204556000,7.68555615234375,-0.04207383468747139,-0.18893323838710785,0.17213523387908936
