time,seconds_elapsed,z,y,x
1761378779601936100,0.11793603515625,0.08062646524533629,0.09842705648243427,-0.03839183610603213
1761378779611992000,0.127991943359375,0.18118951084315776,0.1439303320288658,-0.08692425021529197
1761378779622047200,0.138047119140625,0.1919505588322878,0.15017828650772572,-0.08382131576389074
1761378779632103000,0.14810302734375,0.13386018891334533,0.1567874755144119,-0.07808087241575122
1761378779642158000,0.158157958984375,0.03192366300523281,0.10223755468130111,-0.0574986876361072
1761378779652214000,0.168214111328125,-0.0645323856651783,0.013704115703701973,0.02718859730735421
1761378779662269200,0.178269287109375,-0.13226912032961843,-0.044426001703739164,0.09024886459335685
1761378779672325000,0.1883251953125,-0.12449614824056625,-0.08783142818808555,0.10366408035308122
1761378779682380300,0.19838037109375,-0.11166180110871791,-0.05940145251750946,0.10794994097873568
1761378779692438800,0.208438720703125,-0.08822378850653767,-0.013093874850869177,0.09199483147785067
1761378779702495000,0.218494873046875,-0.06867196968793869,-0.024848610052466392,0.05070113645046949
1761378779712550000,0.2285498046875,0.001765256106853485,-0.016028759258985517,0.037162732702493664
1761378779722605800,0.238605712890625,0.0488899223100394,0.026776363244652747,0.03534750225736061
1761378779732660700,0.24866064453125,0.0655335985969752,0.019307927060127256,0.03397299903376261
1761378779742716700,0.258716552734375,0.10800327860116958,0.009040215545892715,0.006219312906265258
1761378779752771800,0.268771728515625,0.0976508844781667,0.03358078256249428,0.012453528837428894
1761378779762827800,0.278827880859375,0.04017484706528485,0.04284545451402664,0.033246287627832494
1761378779772883000,0.288883056640625,0.047371407505869864,0.020236147820949554,0.015903379313647745
1761378779782939000,0.29893896484375,-0.009454057043790817,-0.052176177439093585,-0.001793313157558441
1761378779792995000,0.3089951171875,-0.07721877569369971,-0.10367664757370948,-0.012667614546103868
1761378779803049700,0.3190498046875,-0.07517419118881224,-0.03899579334855079,-0.03182780141532421
1761378779813106000,0.32910595703125,-0.0794984110634774,0.042587680360674854,-0.0428492539063096
1761378779823160800,0.339160888671875,0.008853168541193009,0.07022329078316689,-0.024428923335671423
1761378779833217000,0.349217041015625,0.09715973996035754,0.08507073130309581,-0.01955269331814488
1761378779843272000,0.35927197265625,0.16382738408856093,0.06983399920463562,-0.0041414791523246095
1761378779853328000,0.369327880859375,0.1705658254981041,0.040837037301063535,0.0035559389159083364
1761378779863383800,0.3793837890625,0.1493763224750757,0.034948563784360884,-0.014611001415550709
1761378779873438700,0.389438720703125,0.08373575637228786,0.010044424152374267,-0.0033759107404621315
1761378779883495000,0.399494873046875,0.044587914267182345,0.008836801928281783,-0.007056348252296447
1761378779893549800,0.4095498046875,0.06329553734660148,0.08966331979036331,-0.03600011866390705
1761378779903606000,0.41960595703125,0.13062259523160755,0.1403700091987848,-0.04625307556700427
1761378779913660700,0.42966064453125,0.13479315891452132,0.11299509553909301,-0.027816086122510023
1761378779923716900,0.439716796875,0.14204590652175247,0.05275894576311111,-0.0043960475684376435
1761378779933771800,0.449771728515625,0.09564831248410045,0.039459903728961944,0.007102520915004424
1761378779943828000,0.459827880859375,0.04113930818326771,0.009430676168203353,0.01699584615889471
1761378779953884000,0.4698837890625,-0.017814473631978033,-0.02322831537425518,0.01266162091344595
1761378779963939000,0.47993896484375,-0.03225749806948006,-0.04808160160183906,0.0030155529954703523
1761378779973995000,0.4899951171875,0.01743329229466617,-0.0856990923345089,-0.005472143234196119
1761378779984050000,0.5000498046875,0.05557458770573139,-0.12456161469221115,-0.017380466128885746
1761378779994105900,0.51010595703125,0.0008324322361499071,-0.13475626097023485,-0.04345000084501225
1761378780004160800,0.520160888671875,-0.09540748946554958,-0.06779401780962943,-0.058080574610712934
1761378780014217000,0.530217041015625,-0.1267465575158596,-0.024244214418530464,-0.035881899111717935
1761378780024273000,0.54027294921875,-0.19110183304846284,-0.060246671169996255,0.02945946484878659
1761378780034328000,0.550328125,-0.15401223864741623,-0.025344284614920616,0.09030585547760128
1761378780044383700,0.5603837890625,-0.03025309944450855,0.057259179791808126,0.08629384335726499
1761378780054439000,0.57043896484375,0.10613565809838474,0.11067805076837539,0.06762246520158369
1761378780064494800,0.580494873046875,0.24489830516576766,0.1834136166334152,0.03279036283716559
1761378780074550000,0.590550048828125,0.29001586933024226,0.21841595643162726,0.007733804555865935
1761378780084606000,0.60060595703125,0.2728987303126603,0.1960012955278158,-0.009188254847610369
1761378780094660900,0.610660888671875,0.12943944986164568,0.1359919402450323,0.0007101940959692001
1761378780104716800,0.620716796875,-0.03226085907034576,0.10575228480398655,0.041099921454372815
1761378780114772700,0.630772705078125,-0.12391856754831969,0.08477262513935566,0.032795472837123085
1761378780124828000,0.640827880859375,-0.13119528055302798,0.09772095403969287,0.01553848239085637
1761378780134883800,0.6508837890625,-0.07026654540300369,0.07111877831816672,0.0216980370670557
1761378780144939000,0.66093896484375,0.057931453030183905,0.028857261171936988,0.043340686118486335
1761378780154995000,0.670994873046875,0.1650146941769868,0.05235562565922737,0.022131747742625885
1761378780165049900,0.6810498046875,0.2160568991500884,0.05135083253085613,-0.0157230588772567
1761378780175105800,0.691105712890625,0.17062376623041928,0.011716156756877899,-0.018155254460242576
1761378780185161700,0.70116162109375,0.06716163819022476,-0.026247955456376076,-0.013812695211288518
1761378780195217000,0.711216796875,-0.06270100551955402,-0.09546996024250984,0.018601235528918913
1761378780205272800,0.72127294921875,-0.10813187341690063,-0.11496551882922648,0.06633622021675109
1761378780215328000,0.731327880859375,-0.05377426028549671,-0.06118132167160511,0.04823372342363
1761378780225383700,0.7413837890625,0.034710663375258445,0.011891513323783874,-0.004194967471808195
1761378780235438800,0.75143896484375,0.1420879190325737,0.07343523856699466,-0.027078707192093134
1761378780245494800,0.761494873046875,0.23038930281996725,0.09039747928380966,-0.049939504428207875
1761378780255550000,0.771550048828125,0.2378068125348538,0.07746551699638367,-0.07677066660001873
1761378780265606000,0.78160595703125,0.15461999528221784,0.03866729204654693,-0.07877981446534395
1761378780275661800,0.791661865234375,0.029596608297154305,0.01223112054169178,-0.048618188129994085
1761378780285716700,0.801716796875,-0.09635434186160564,0.012854220876097678,-0.024082740246504544
1761378780295772700,0.811772705078125,-0.1348375095129013,0.03458674473464489,-0.008064063990116119
1761378780305827800,0.821827880859375,-0.13728366055600344,-0.02668868496119976,0.021663837969931772
1761378780315883800,0.8318837890625,-0.06682130031995474,-0.08478256201148032,0.043795151887717654
1761378780325939000,0.84193896484375,0.027242300255969167,-0.05996785422861576,0.026565200145426206
1761378780335995000,0.851994873046875,0.06085866558849811,-0.04636193820238113,-0.039589959849417204
1761378780346051000,0.862051025390625,0.11420797846019268,0.04120294800400734,-0.09972352603375911
1761378780356105700,0.872105712890625,0.10785590601973236,0.06527531298696994,-0.12640183573141694
1761378780366162000,0.882161865234375,0.07970840055234729,0.003188566908240318,-0.09000321926921606
1761378780376216800,0.892216796875,-0.007138108251616359,0.0012134674429893494,-0.014688309002039022
1761378780386273000,0.90227294921875,-0.0517617514193058,-0.015841127732396126,0.03800649005025625
1761378780396328000,0.912327880859375,-0.11192015978395939,-0.056153848898410796,0.0946272258080542
1761378780406383900,0.9223837890625,-0.08861936369538306,-0.03253624194562435,0.11995061376541852
1761378780416439800,0.932439697265625,-0.062353799517080186,0.009305588483810424,0.13135858135595918
1761378780426494700,0.94249462890625,0.02888246867842972,0.0214759187489748,0.12247297184988856
1761378780436551000,0.952551025390625,0.11690613150298594,0.02326104860007763,0.11395926439613104
1761378780446605800,0.962605712890625,0.24052841951847076,0.031015315988659857,0.05589373665750026
1761378780456662000,0.972662109375,0.25225926238782703,0.04060556663274765,-0.0012137619872228242
1761378780466716700,0.982716552734375,0.13497779476642607,-0.02598375156223774,-0.027007833912968633
1761378780476772900,0.99277294921875,-0.0023597148686647414,-0.054065352186560625,-0.009751140294224024
1761378780486828800,1.002828857421875,-0.12490531356334686,-0.020855156502127645,0.007705167549848556
1761378780496884000,1.012884033203125,-0.18627770082764328,-0.017087328401207923,0.02651844067753991
1761378780506940000,1.02293994140625,-0.0865652807097882,-0.015281155762076377,0.048939095214009284
1761378780516995000,1.0329951171875,0.053834539105370637,-0.005176525855064392,0.050449499776959415
1761378780527051000,1.043051025390625,0.19131350303776562,0.014824644166231155,-0.0124734071482555
1761378780537106000,1.05310595703125,0.2779484149176627,0.026865210571885106,-0.07503419819623232
1761378780547161900,1.063161865234375,0.3007237258274108,0.0803875419229269,-0.133647276815027
1761378780557217800,1.0732177734375,0.21226737067401408,0.12493921583294867,-0.1559185837253928
1761378780567273000,1.08327294921875,0.07530746217966079,0.11399813510179518,-0.14010405173897741
1761378780577329000,1.093328857421875,-0.06490355706512928,0.07193360183238982,-0.10070873767882585
1761378780587384000,1.103384033203125,-0.11643033068478106,0.07812076603472233,-0.06361921634301543
1761378780597439700,1.113439697265625,-0.11844459311664103,0.07893617407083511,-0.03771744397580623
1761378780607495000,1.123494873046875,-0.10695106613449752,0.031058570608496663,-0.0036278373916284177
1761378780617550800,1.13355078125,-0.11439553692154586,-0.06315466757118701,0.03959448989406228
1761378780627606800,1.143606689453125,-0.1109130285680294,-0.07593290060162544,0.08712138022258878
1761378780637662000,1.153661865234375,-0.05584463681876659,0.00165828860104084,0.09671338443234562
1761378780647718000,1.1637177734375,0.0546720859080553,0.06401099213957787,0.08158288918733596
1761378780657772800,1.173772705078125,0.1856581076245755,0.09755611886680125,0.034333066801098176
1761378780667828700,1.183828857421875,0.2761754869610071,0.09355214392244815,-0.0088720193721354
1761378780677884000,1.1938837890625,0.2542944945424795,0.02426350364089012,-0.04473214504346251
1761378780687939800,1.20393994140625,0.13917108173780143,0.020504443368315695,-0.03428468848157208
1761378780697992400,1.213992431640625,0.025855668203160164,0.0553694205224514,-0.024064615501346996
1761378780708047400,1.22404736328125,-0.0785007052630186,0.007726794859766959,-0.026373043140769003
1761378780718103300,1.234103271484375,-0.13911854783296584,-0.032059272083640095,-0.022041151416301728
1761378780728158200,1.244158203125,-0.10263218002207576,-0.031117022797465324,0.008321550449100323
1761378780738214100,1.254214111328125,-0.05931845040917396,-0.04163724776804447,0.03787190388515591
1761378780748269300,1.264269287109375,0.03205686093084514,-0.08845102139115334,0.058248779917624775
1761378780758325200,1.2743251953125,0.09766359782926738,-0.058214288559556,0.07294555992048699
1761378780768381400,1.28438134765625,0.15571955402195453,0.033193829071521755,0.04138327300697565
1761378780778436400,1.294436279296875,0.1459392606984824,0.06443535503149032,-0.024965509863826445
1761378780788492500,1.304492431640625,0.10413257464766502,0.043650925678014756,-0.08503755968585609
1761378780798547200,1.314547119140625,0.003983589743450284,0.03814706756472588,-0.08745426543876528
1761378780808603400,1.324603271484375,-0.10808569618761539,0.03578267652094364,-0.07964680655822158
1761378780818658300,1.334658203125,-0.13466047244556248,0.04946165778338909,-0.061567832204583096
1761378780828714500,1.344714599609375,-0.13286832833178341,0.025705519142746925,-0.045933625221136025
1761378780838770400,1.3547705078125,-0.08744447469711303,0.03247778975665569,-0.020807371837645767
1761378780848825300,1.364825439453125,0.021465981876850126,0.08209668392837047,0.007576280473172665
1761378780858881300,1.37488134765625,0.08401924948878586,0.06029577100872993,0.031009320072713308
1761378780868936200,1.384936279296875,0.08400931261666118,0.034551673421263696,0.060320759319514035
1761378780878992400,1.394992431640625,0.050886795215681194,0.08605272807776927,0.048605182517948556
1761378780889047300,1.40504736328125,0.04044781878776848,0.14396832595169543,0.005482520781026687
1761378780899103500,1.415103515625,0.025095935877040027,0.12078560328483581,-0.02985796493036905
1761378780909159400,1.425159423828125,0.004565700480341911,0.0809539436340332,-0.012155132696032524
1761378780919214300,1.43521435546875,0.04231237055063247,0.050934652945399284,-0.015953063674271104
1761378780929270300,1.445270263671875,0.09026588879339396,0.04226268619000911,-0.04089300070542376
1761378780939325400,1.455325439453125,0.10820610769689082,0.012575988456606865,-0.0641293578222394
1761378780949381400,1.46538134765625,0.10618826506845652,0.006047463470697402,-0.051931988853099756
1761378780959436500,1.4754365234375,0.08851648784279822,-0.006486439409852027,-0.027374329137802123
1761378780969492500,1.485492431640625,0.02539104636609554,-0.07255027242600917,0.014892302574962376
1761378780979548200,1.495548095703125,-0.08221709543764591,-0.14100421544909478,0.06562763355597853
1761378780989603300,1.505603271484375,-0.15395020626187322,-0.1402051740258932,0.06685439887195825
1761378780999659300,1.5156591796875,-0.18112923202328382,-0.06334522170722484,0.02309021979452809
1761378781009714400,1.52571435546875,-0.1110176579862833,0.031574703437089915,-0.013833733432739971
1761378781019770400,1.535770263671875,-0.011134995868057012,0.04211655571758747,-0.02961553675991017
1761378781029826300,1.545826416015625,0.11697510508596896,-0.008439911565184593,-0.021727701552957297
1761378781039881200,1.555881103515625,0.22190204498171806,0.019873159727454185,-0.02864434907361865
1761378781049937200,1.565937255859375,0.23558694452829657,0.09040273998081684,-0.04549012380391359
1761378781059992300,1.575992431640625,0.20685067938752472,0.08442425009310245,-0.008237523144169244
1761378781070048300,1.58604833984375,0.09950615695603192,0.051914311632514,0.02825914686502656
1761378781080103400,1.596103515625,-0.024257000834867357,-0.0026180735439062116,0.04863105217814445
1761378781090159400,1.606159423828125,-0.16811426762752235,-0.02875380079746246,0.07755041880086064
1761378781100215600,1.616215576171875,-0.18376776383332907,-0.021543723288178444,0.07833060939311981
1761378781110270200,1.626270263671875,-0.18547164514176545,-0.038781273815035815,0.060412090864777564
1761378781120326400,1.636326416015625,-0.12713058839738367,-0.02699497443139553,0.03651990475431084
1761378781130381300,1.64638134765625,-0.023113091496750712,0.07845569707751274,-0.001914603732957039
1761378781140437200,1.656437255859375,0.11631401082873344,0.08933481848835945,-0.04282835724875331
1761378781150492400,1.666492431640625,0.1873101126153022,0.0812590640604496,-0.0448427658110857
1761378781160548400,1.67654833984375,0.20996143181920052,0.10900690268576145,-0.03216083276197314
1761378781170604300,1.686604248046875,0.15297639279365538,0.04954056823849678,-0.013559592666476964
1761378781180659200,1.6966591796875,0.06882628346681595,0.013146481820940971,-0.0076468614913523195
1761378781190715400,1.70671533203125,-0.004805354455113411,0.023102643167972562,0.020740736342221497
1761378781200770300,1.716770263671875,-0.06233100316338241,-0.023820436048507688,0.09470321365371345
1761378781210826500,1.726826416015625,-0.02323817918114364,-0.01979191118478775,0.10656710831820965
1761378781220881200,1.736881103515625,0.04785546469576656,0.05440612844824791,0.052223962103575466
1761378781230937300,1.746937255859375,0.10682020629644394,0.05625029501020908,0.036194472192227836
1761378781240993300,1.7569931640625,0.18334230496287346,0.03159516170322895,0.02358531211838126
1761378781251048400,1.76704833984375,0.17850947797894476,0.04001636856794357,-0.03219020498692989
1761378781261104400,1.7771044921875,0.1364793584357947,0.027858897784352302,-0.05455941931381821
1761378781271159300,1.7871591796875,0.09753916773200035,0.012377251014113426,-0.019686112722754476
1761378781281215500,1.797215576171875,0.07201302374415099,0.015901333487033844,0.01869900366483489
1761378781291270100,1.807270263671875,0.09022672582678497,-0.014223755663633346,0.03751885494707385
1761378781301326300,1.817326416015625,0.12072598205208777,-0.008161679145693778,0.06402560518682003
1761378781311382300,1.82738232421875,0.11895020455121993,0.01657470270395279,0.09386135600209236
1761378781321437400,1.8374375,0.1557780062109232,0.05538578713536262,0.05852993037998676
1761378781331493400,1.847493408203125,0.14742694197297096,0.11275953321754932,-0.001787175677716732
1761378781341548500,1.857548583984375,0.06513268964588642,0.054074704536795616,-0.020811463490873573
1761378781351604200,1.867604248046875,0.0034942718565464017,-0.011236264285445212,0.016579963400959966
1761378781361659400,1.877659423828125,-0.0539186371922493,-0.0020358897417783735,0.055165860774368046
1761378781371715300,1.88771533203125,-0.08534362996034324,-0.04012158250808716,0.07965016755908727
1761378781381771300,1.897771240234375,-0.11176116982996463,-0.1061854155242443,0.08814253996387124
1761378781391826400,1.907826416015625,-0.0857288298856467,-0.10210486821234226,0.06469809762090444
1761378781401882400,1.91788232421875,-0.001311009533330798,-0.09440086970627308,0.00629544574075262
1761378781411937300,1.927937255859375,0.030331498442962766,-0.12310147901177405,-0.027875264397263524
1761378781421993200,1.9379931640625,0.01779116582162678,-0.11647416982650756,-0.055107116324454544
1761378781432049200,1.948049072265625,0.009479776006937026,-0.037494741135835646,-0.0899346840776503
1761378781442104300,1.958104248046875,0.028080431580543515,0.016092472144961355,-0.09850582080706953
1761378781452160300,1.96816015625,0.040557562772557135,0.010981412741541862,-0.08911635343208908
1761378781462215400,1.97821533203125,0.056280105626583095,0.016852935123443602,-0.09640826400592922
1761378781472271400,1.988271240234375,0.06126848849840462,0.023847324055433272,-0.11371347294151782
1761378781482326300,1.998326171875,0.02201141386516392,0.05538754070103168,-0.10231266574412584
1761378781492382200,2.00838232421875,-0.009363967607542873,0.07081424241364002,-0.09395926341861485
1761378781502438400,2.0184384765625,-0.017303016978502273,0.0735685095578432,-0.07493950565010309
1761378781512493300,2.028493408203125,-0.01571545552611351,0.08487608551383018,-0.055707566435635084
1761378781522549500,2.038549560546875,-0.02169628350138664,0.05442658671438694,-0.018258710268139838
1761378781532604200,2.048604248046875,-0.03489069611728191,0.032923779958486554,0.027237989407032728
1761378781542660400,2.058660400390625,-0.011195347753167151,0.02573532975912094,0.057720075301826
1761378781552715300,2.06871533203125,0.0030500352203845977,0.06458207002580166,0.05020020119100809
1761378781562771200,2.078771240234375,0.010790858605504034,0.11311492252647876,0.024766923118382692
1761378781572827400,2.088827392578125,0.05967208615243434,0.1511281345784664,0.005421732787787914
1761378781582882300,2.09888232421875,0.08682605053782462,0.10765139642357825,-0.03696881756559014
1761378781592938500,2.1089384765625,0.09302074045948684,0.03615852409601211,-0.06264233413487673
1761378781602993200,2.1189931640625,0.032029972923919556,0.0323468568533659,-0.009110209758894051
1761378781613049300,2.12904931640625,0.00386785440929234,-0.0038747956067323682,0.04244476475864649
1761378781623104300,2.139104248046875,-0.01231989480368793,-0.058895256561040873,0.06199819101244211
1761378781633160400,2.149160400390625,-0.004137245935201645,-0.052090837243199344,0.056228375439345835
1761378781643216400,2.15921630859375,0.04749824875593185,-0.035894320201873775,0.0256216402515769
1761378781653271600,2.169271484375,0.10664251164197922,0.027379005312919615,-0.042990562073141336
1761378781663327200,2.1793271484375,0.1445458335787058,0.07290741530060768,-0.08081292772814631
1761378781673382400,2.18938232421875,0.1497960822571069,0.06314706878662109,-0.05465367346853017
1761378781683438300,2.199438232421875,0.12242584477253257,0.032094343397021295,-0.017419046856893692
1761378781693494800,2.209494873046875,0.05597388922162354,0.03971300170719623,-0.02117766873805085
1761378781703549700,2.2195498046875,-0.007396028535440564,0.031709143471717834,-0.008744152925477828
1761378781713605600,2.229605712890625,-0.050560558935999866,-0.026615035203099248,0.019213965166360137
1761378781723660800,2.239660888671875,-0.06170563780665397,-0.03158171769976616,0.02080591053292155
1761378781733716700,2.249716796875,-0.05755662836842239,0.0032949498921632766,0.038447365685552355
1761378781743772000,2.25977197265625,-0.049656815029308195,-0.004956745624542236,0.04610255661383271
1761378781753827800,2.269827880859375,0.020236220886185763,0.02290624381303787,0.05834609824568033
1761378781763883500,2.279883544921875,0.0357715706050396,0.06276596051454544,0.018979425758123395
1761378781773938700,2.289938720703125,0.0793945122975856,0.09308452641069888,-0.04870017189159989
1761378781783994600,2.29999462890625,0.035765213929489253,0.1432815127313137,-0.0930117534354329
1761378781794049800,2.3100498046875,0.0057827481199055905,0.14266075048446655,-0.09750117380917071
1761378781804105700,2.320105712890625,-0.05604330119602382,0.12669745767712592,-0.06594955898672342
1761378781814161700,2.33016162109375,-0.0328167393874377,0.08757949925363064,-0.04289265465661883
1761378781824216600,2.340216552734375,-0.01711122073344886,0.07732347817718982,0.011741140501084737
1761378781834272500,2.3502724609375,0.040382279270887375,0.10035247158706187,0.05446604194194078
1761378781844327700,2.36032763671875,0.07696991549916565,0.08869009084403515,0.07359846630468964
1761378781854383600,2.370383544921875,0.0671213792450726,0.04043722432851791,0.09363836090117693
1761378781864438800,2.380438720703125,0.027341595911979672,0.010247253248095512,0.08525821669921278
1761378781874494700,2.39049462890625,-0.004862564535066485,0.021551906594634056,0.07437558815702795
1761378781884551000,2.400551025390625,-0.05798983215391636,-0.0016080197185277937,0.043943186622858045
1761378781894605600,2.41060546875,-0.03768697577230632,-0.013707038313150404,0.011582152830378617
1761378781904661800,2.420661865234375,0.012650734193250536,0.008377367722988128,0.003624770934996195
1761378781914716700,2.430716552734375,0.058896352539584036,-0.03490297107696533,0.0029337199309142307
1761378781924772900,2.44077294921875,0.06896196561045945,-0.11860592115819453,0.014009964499191846
1761378781934828800,2.450828857421875,0.0817120685249567,-0.12931494669914245,0.016163345424085856
1761378781944883700,2.4608837890625,0.09121580992937088,-0.07676292168498039,-0.02961377862766385
1761378781954939600,2.470939697265625,0.11250650830455124,0.013614683854579925,-0.09114961282536387
1761378781964994600,2.48099462890625,0.08319098197109996,0.03815057469606399,-0.09971753468438982
1761378781975050800,2.49105078125,0.059686187743023034,0.015592705929279327,-0.06108253747224807
1761378781985105700,2.501105712890625,0.02546827632077038,0.02987316021621227,-0.009596098146273288
1761378781995161900,2.511161865234375,0.005769157985970378,0.006912555867433548,-0.001128414941462688
1761378782005217800,2.5212177734375,0.024625322690606116,0.027490064471960066,-0.004862637600302696
1761378782015272700,2.531272705078125,-0.0000046761751174926755,0.03656242872178554,0.024680267748236655
1761378782025328600,2.54132861328125,-0.03561784134805202,0.010339023184776306,0.07399857153818011
1761378782035383800,2.5513837890625,-0.011826631394028663,0.009727028766274452,0.09229133020639418
1761378782045439700,2.561439697265625,-0.044558615107461806,0.02425707390010357,0.07724339867830277
1761378782055495000,2.571494873046875,-0.020999533408880233,0.05346037203073501,0.048237376685440536
1761378782065550800,2.58155078125,-0.0024970775127410886,0.05346797081530094,0.05097001651972532
1761378782075606800,2.591606689453125,0.022098946018144487,0.06692483375966549,0.02541545472156722
1761378782085661700,2.60166162109375,0.07998707136325538,0.10100479801595211,0.013280926422146148
1761378782095717600,2.611717529296875,0.14598090788312257,0.12795534878373147,-0.016044838177529164
1761378782105772800,2.621772705078125,0.20093239525444803,0.10851064360141753,-0.06331526952695567
1761378782115828700,2.631828857421875,0.21887831324636936,0.08966390431225299,-0.07488616802766919
1761378782125884700,2.641884765625,0.1828869624108076,0.06070201372206211,-0.040166590693593025
1761378782135939600,2.651939697265625,0.0668985302746296,0.019017419680953024,0.014400281274318694
1761378782145995500,2.66199560546875,-0.0901425546746701,-0.10002864646017551,0.05916763919505756
1761378782156050700,2.67205078125,-0.20582352829687295,-0.17566636350750922,0.034276943566533734
1761378782166106600,2.682106689453125,-0.22450609000027177,-0.15158055452108382,0.022170915275812147
1761378782176161800,2.692161865234375,-0.16699556579589842,-0.14088263489603994,-0.006036065293848514
1761378782186217700,2.7022177734375,0.002749664034321904,-0.10501754078865051,-0.05451996408626437
1761378782196274000,2.71227392578125,0.17638474090993403,0.010420271727442742,-0.11180194023177027
1761378782206328600,2.72232861328125,0.30290457699783147,0.052530397704243656,-0.10676263089030981
1761378782216384800,2.732384765625,0.3222656955499202,0.035516719061136244,-0.08533610424101352
1761378782226439700,2.742439697265625,0.22156185324192046,0.011415127983689308,-0.04100947125852108
1761378782236495600,2.75249560546875,0.011899769695475697,-0.004583236137032509,0.004422928725497331
1761378782246551800,2.7625517578125,-0.1678156500071287,-0.027843700215220448,0.03593874386548996
1761378782256606700,2.772606689453125,-0.26858371665775777,-0.013089198675751685,0.02679521407559514
1761378782266662700,2.78266259765625,-0.27558979602754113,-0.024700141492486,0.0348325361892581
1761378782276717600,2.792717529296875,-0.22651048862524328,-0.0004033201038837433,0.0435731888332637
1761378782286773800,2.802773681640625,-0.06867489229738712,0.023894670328497885,0.050535424494743346
1761378782296828700,2.81282861328125,0.0887093800663948,0.14062661430835724,-0.014431553195416927
1761378782306884900,2.822884765625,0.26089601169936355,0.20376842239797113,-0.06603767566159367
1761378782316940800,2.83294091796875,0.313760755924508,0.17409692223370074,-0.04739361933767795
1761378782326995700,2.84299560546875,0.2339648962844163,0.11774199780523777,-0.037427961793227583
1761378782337051600,2.8530517578125,0.08300795355439186,0.173018479347229,0.004590250399708748
1761378782347106800,2.86310693359375,-0.05947977845072746,0.164556940472126,0.031043373039364813
1761378782357162800,2.873162841796875,-0.11545476365089416,0.09315116190612316,0.046302170839160675
1761378782367218700,2.88321875,-0.10753858369886875,0.09148235191106796,0.06298398717939853
1761378782377273900,2.89327392578125,-0.07709843724966049,0.05500935503840446,0.044361850426346064
1761378782387329800,2.903329833984375,0.013811083209514618,-0.010675707793235779,0.02940802692249417
1761378782397384700,2.913384765625,0.05296762007772922,-0.03229834153652191,0.006249123522639274
1761378782407440600,2.923440673828125,0.06748020262010396,-0.05952887828946113,0.004408461808727588
1761378782417495800,2.933495849609375,0.049295726631954306,-0.08396656945347786,0.029808714394585694
1761378782427551700,2.9435517578125,0.015666355687379837,-0.101236268684268,0.045470688451081515
1761378782437607700,2.953607666015625,-0.0045019875943660735,-0.08870645745694637,0.03400105380117893
1761378782447662600,2.96366259765625,-0.0194803610175848,-0.049320203486084936,0.010331132139265536
1761378782457718500,2.973718505859375,0.0039221418797969814,-0.0007458499312400817,-0.009746756380051375
1761378782467773700,2.983773681640625,-0.00874678555727005,0.03695172030031681,-0.032540187468379736
1761378782477829600,2.99382958984375,0.009091068950295447,0.0371089566886425,-0.03649813131392002
1761378782487885800,3.0038857421875,0.039382162317633626,0.08227204049527645,-0.03096490097567439
1761378782497940700,3.013940673828125,0.060929977259039876,0.07797931173741816,-0.01249488604441285
1761378782507996700,3.02399658203125,0.04614800319075584,0.019448796835541723,0.032968934274464845
1761378782518051600,3.034051513671875,0.02784720734655857,-0.01409983702301979,0.0667041767463088
1761378782528107500,3.044107421875,0.015023381608724594,0.021036358287930487,0.087541505330801
1761378782538162700,3.05416259765625,0.037214682085439564,0.042567222094535825,0.09521379352435469
1761378782548218600,3.064218505859375,0.02340951716005802,0.016642507243156433,0.05278232663869858
1761378782558274800,3.07427490234375,0.004054828348755837,-0.027191958308219907,-0.0036124914087355135
1761378782568329700,3.084329833984375,-0.012986907345056533,0.015252514189481734,-0.03185907333642244
1761378782578385700,3.0943857421875,-0.024127310040593146,0.07767594487667083,-0.05825038278624415
1761378782588440600,3.104440673828125,0.01462890239842236,0.05079553673565387,-0.07651143570852
1761378782598496800,3.114496826171875,0.059120918543078,0.003821604114770889,-0.055804163244483056
1761378782608552700,3.124552734375,0.09638532152175902,0.02559855163693428,-0.017982231414318085
1761378782618607900,3.13460791015625,0.08551208186242729,0.015866846695542336,0.015559968136879614
1761378782628663800,3.144663818359375,0.040512043130397794,-0.05239654219150543,0.053151452212035655
1761378782638718700,3.15471875,-0.01935183926708996,-0.031741292175650596,0.06310367260288913
1761378782648774700,3.164774658203125,-0.06876900032162665,0.019040216034650802,0.045121144361048936
1761378782658829600,3.17482958984375,-0.02801613417267799,0.06882160729169845,-0.008623597569018602
1761378782668885800,3.1848857421875,0.001508066475391388,0.09014964200258255,-0.05521744483113288
1761378782678941700,3.194941650390625,0.033126645586825904,0.04650397702157497,-0.07047624719750602
1761378782688996900,3.204996826171875,0.03460362280420959,0.030057869133353232,-0.031312540802988224
1761378782699055600,3.2150556640625,0.004223170652985573,0.05551262838542461,0.015173311473429202
1761378782709110800,3.22511083984375,-0.0028618191719055174,0.08154372622072696,0.05354103605151176
1761378782719166700,3.235166748046875,0.008658522751927375,0.06638765814304351,0.061843584972620005
1761378782729222700,3.24522265625,0.016179565906524657,0.04175707475543022,0.042282413803786036
1761378782739277600,3.255277587890625,-0.003964227455854416,0.060948681959509844,0.021387802074104546
1761378782749333500,3.26533349609375,-0.021147417446970938,0.033460955575108524,-0.006994535062462091
1761378782759388700,3.275388671875,-0.04814005379080772,-0.00893324804008007,-0.04470452638417482
1761378782769444600,3.285444580078125,-0.07963475079424678,-0.009290390914678573,-0.04380815749976318
1761378782779499800,3.295499755859375,-0.05294299709312617,0.0033440497308969497,-0.03764306813192088
1761378782789555700,3.3055556640625,-0.009261712809465824,0.0338104996651411,-0.018474841803428715
1761378782799612000,3.31561181640625,0.0781739575266838,0.024839257702231405,0.011624386820197105
1761378782809666600,3.32566650390625,0.17409750675559044,0.06493570576906203,-0.0026318098083138466
1761378782819722800,3.33572265625,0.2388660757968202,0.14031097248792648,-0.05323080562513787
1761378782829777700,3.345777587890625,0.20078330563995986,0.12368950803279875,-0.04164616629343945
1761378782839833900,3.355833740234375,0.09195873725116252,0.045403322303295135,-0.004439297621697187
1761378782849889800,3.365889892578125,0.03237615601308644,0.011050970846414565,-0.0338546356343897
1761378782859944700,3.37594482421875,-0.027611571959778664,0.023372107759118077,-0.03212065144863445
1761378782870000600,3.386000732421875,-0.04812997078821063,0.012307108387351036,-0.026864489052677524
1761378782880055600,3.3960556640625,-0.03051313862018287,-0.04433656985461712,-0.03384879041549284
1761378782890111700,3.40611181640625,-0.016923077750205993,-0.07612228569388389,-0.007634148140251636
1761378782900167700,3.416167724609375,0.02310505432076752,-0.02218260571360588,0.013330017127725295
1761378782910222800,3.426222900390625,0.0868090263377875,0.04770049332976341,0.001010496783372946
1761378782920278800,3.43627880859375,0.12894903599619864,0.01977496004998684,-0.01731952972188592
1761378782930333700,3.446333740234375,0.12418700922615826,-0.012421674677729606,-0.008252722996589728
1761378782940389600,3.4563896484375,0.07015081006884574,0.021654197925329206,-0.0008997253187000751
1761378782950444800,3.46644482421875,0.04399002143926918,-0.01753974834382534,-0.017446667799470014
1761378782960500700,3.476500732421875,-0.04727729948163032,-0.07038637239038943,-0.026294717207551
1761378782970556700,3.486556640625,-0.0698299075514078,-0.025642390778660772,-0.019453473010659215
1761378782980611800,3.49661181640625,-0.05638122791349887,0.034759763213992115,-0.009656593878567219
1761378782990667800,3.506667724609375,-0.01936236066110432,-0.02065115836262703,0.07370178511526901
1761378783000722700,3.51672265625,0.05561261816117912,-0.03545417521893978,0.14172858420088885
1761378783010778600,3.526778564453125,0.11409918432347475,0.04478431362211704,0.165591105825454
1761378783020834600,3.53683447265625,0.15450900918841362,0.07430383809506892,0.11542816790491342
1761378783030889700,3.5468896484375,0.1411941850632429,0.050773324903845785,0.034130087008327245
1761378783040945700,3.556945556640625,0.06209777892939746,0.05013911865353584,-0.00453661594975274
1761378783051000600,3.56700048828125,-0.039055414581298825,0.02778407898247242,-0.005343699115514755
1761378783061056500,3.577056396484375,-0.06936397054009139,0.062465516263246534,-0.012896457149204798
1761378783071112700,3.58711279296875,-0.060281157961487766,0.08561199857294559,-0.008858575368672609
1761378783081167600,3.597167724609375,-0.006188917768001556,0.010318564918637274,0.029349720863997935
1761378783091223800,3.607223876953125,0.06092712771482765,-0.0078688336789608,0.04914513461354654
1761378783101278700,3.61727880859375,0.10149053570628165,0.0031751229047775266,0.02807619379684329
1761378783111335000,3.6273349609375,0.15836455210540443,0.03491524603664875,-0.019268476399150677
1761378783121390800,3.637390869140625,0.1683956053195521,0.05637362912893295,-0.03989260519095696
1761378783131445800,3.64744580078125,0.10518650414738803,0.03394493969976902,-0.00912921357017476
1761378783141501700,3.657501708984375,0.01649875139091164,0.0009159458011388778,0.03688902576107066
1761378783151556600,3.667556640625,-0.025496333371475336,-0.06107552320957183,0.06758081801694352
1761378783161612800,3.67761279296875,-0.05291157904155552,-0.07358429164886474,0.07176891735654789
1761378783171667700,3.687667724609375,-0.031790392014384265,-0.009096329647302627,0.052268385767191644
1761378783181723600,3.6977236328125,-0.00220247848033905,0.03401742041409016,0.04403583334237337
1761378783191779600,3.707779541015625,0.029930479894019663,0.04703647646307945,0.042335016207280564
1761378783201834800,3.717834716796875,0.05123626624047756,0.04055938940346241,0.03652998775690794
1761378783211890700,3.727890625,0.06703589291870593,0.04269581691026687,0.024349282228201628
1761378783221945900,3.73794580078125,0.04243278205990791,0.042380759611725806,-0.02863382767960429
1761378783232001800,3.748001708984375,0.003633315001055598,0.030996611288189885,-0.06027004747900646
1761378783242057700,3.7580576171875,-0.03178217217531055,0.0637567251175642,-0.06007511856195051
1761378783252112600,3.768112548828125,-0.03652030661311,0.07553542571663856,-0.05919029855143744
1761378783262168600,3.77816845703125,-0.013162811901234089,0.039403205105662344,-0.038750883243349375
1761378783272223700,3.7882236328125,0.00799852447323501,0.058168111330270764,-0.0009250013238517567
1761378783282279700,3.79827978515625,-0.01577270213868469,0.05046002117097378,-0.0007135596634121611
1761378783292335900,3.8083359375,-0.06710303987078368,0.008992284750938415,-0.0023699485683115196
1761378783302390800,3.818390869140625,-0.09961012878715991,0.05018178875148296,-0.001218143618106842
1761378783312446700,3.82844677734375,-0.08583528593480587,0.048616439130902286,-0.010576923593878745
1761378783322501600,3.838501708984375,-0.02209551195204258,0.019797756403684613,0.0008893500551581383
1761378783332557600,3.8485576171875,0.06372169033680111,0.05527180536687374,0.032607549049588846
1761378783342613800,3.85861376953125,0.14775836588442326,0.057118310016393656,0.029114304672926663
1761378783352668700,3.868668701171875,0.17197971088401973,0.036108255213499064,0.0459076231301995
1761378783362724900,3.878724853515625,0.13256781101524828,-0.00846446148455143,0.07971811822876333
1761378783372779500,3.888779541015625,0.042132264743372796,-0.04073766857981682,0.07888575905784964
1761378783382835700,3.898835693359375,-0.0214279879540205,0.0016255553752183914,0.03627411329969764
1761378783392890600,3.908890625,-0.029612901844829318,0.0827232913941145,-0.012468883953476324
1761378783402946800,3.91894677734375,0.009153612792491913,0.0616916092813015,-0.06554463144764304
1761378783413002800,3.929002685546875,0.07051672077178954,0.0235889653801918,-0.07385521754473448
1761378783423058000,3.939057861328125,0.1550801601398736,0.034029110851883884,-0.06327201490711887
1761378783433113900,3.94911376953125,0.17067513109147547,0.018773089531064033,-0.05304653053283691
1761378783443168800,3.959168701171875,0.09438450309336185,-0.016433248406648636,-0.02371580663025379
1761378783453224700,3.969224609375,0.04198094663918018,-0.052951253464818,0.029669454337656498
1761378783463280600,3.97928076171875,-0.021690511347725986,-0.07982698543071746,0.07450784080114681
1761378783473335800,3.989335693359375,-0.08360993803553282,-0.07055471469461917,0.08935571514591574
1761378783483391700,3.999391845703125,-0.03731711954660714,0.004462240105867385,0.05344620194148737
1761378783493447000,4.009447021484375,-0.0063625207692384715,0.06317804844677448,0.006287409706413745
1761378783503502600,4.019502685546875,0.01247252808213234,0.05917348898053169,-0.0060306584663689135
1761378783513558500,4.02955859375,0.010462357303500175,0.03599018179178238,0.022740093465894458
1761378783523613700,4.03961376953125,0.024995325046777723,0.06335808118879795,0.046318683582544325
1761378783533669600,4.049669677734375,0.014045987943932412,0.11030687936842441,0.022750473296013658
1761378783543724800,4.059724853515625,-0.03485737836956978,0.08737959276735782,0.008615852653980254
1761378783553780700,4.06978076171875,-0.04187975128702819,0.02332417696416378,0.04788388250607531
1761378783563837000,4.0798369140625,-0.07166114156655967,-0.03243628870248794,0.07303059872228186
1761378783573891600,4.0898916015625,-0.030351299121975896,-0.006902618995308875,0.058467386537790295
1761378783583947800,4.09994775390625,0.01604680637232959,0.029561025527119634,0.02632540917333681
1761378783594002700,4.110002685546875,0.06107954179756343,0.04547580301761627,0.003589699621615
1761378783604058600,4.12005859375,0.09800210906863212,0.020465280401706695,0.017395517567545173
1761378783614114800,4.13011474609375,0.10951127201132475,-0.00896422770023346,0.01432824808456935
1761378783624169700,4.140169677734375,0.1051794533520937,-0.009097498691082,-0.01664937537536025
1761378783634225700,4.1502255859375,0.05634973679669201,0.030161329507827756,-0.03133184372507967
1761378783644280600,4.160280517578125,0.01519004341252148,0.04389408678412437,-0.021462191617721692
1761378783654336800,4.170336669921875,-0.0006732961516827345,0.011430325552821159,0.02077916408989113
1761378783664392700,4.180392822265625,0.0023825842875987288,-0.03312544001042843,0.050748770417901684
1761378783674448000,4.19044775390625,0.017685367359593508,-0.04297697193920612,0.05009965885940473
1761378783684503800,4.20050390625,0.03844692729413509,-0.0004489128112792969,0.024469109215587377
1761378783694555400,4.210555419921875,0.04074241782017052,0.07257657591104508,-0.003488138943281956
1761378783704611300,4.220611328125,0.01446465174742043,0.06627952159345149,-0.012473993953433819
1761378783714666200,4.230666259765625,0.008299553246423601,0.07522972076833248,-0.029553563739871603
1761378783724722200,4.24072216796875,0.02309796699285507,0.09898176775574684,-0.047558746771514414
1761378783734778000,4.250778076171875,-0.03695866149775684,0.048664954447746274,-0.01769129021030385
1761378783744833300,4.260833251953125,-0.04069382943809032,0.015994856989383698,0.04155629148632288
1761378783754889200,4.27088916015625,-0.050013446447253224,0.02505903793275356,0.04366027802824974
1761378783764944400,4.2809443359375,-0.04371398097686469,-0.00419803621172905,0.02815874838060699
1761378783775000000,4.291,-0.04935410575568676,-0.054366965481638906,0.010604103861749172
1761378783785056000,4.301055908203125,-0.08201368182003498,-0.015718962657451627,-0.01753887156099081
1761378783795111200,4.311111083984375,-0.08501045248322188,0.0360240840613842,-0.021771257566893472
1761378783805167000,4.3211669921875,-0.030740517635270952,0.062192544540762895,-0.019228002824867144
1761378783815222300,4.33122216796875,-0.0011303922694176434,0.042190789997577666,-0.03867869935655035
1761378783825278200,4.3412783203125,0.06775025173313916,0.06461129612028599,-0.0397396065863315
1761378783835334400,4.35133447265625,0.09118373429067432,0.10295300947427749,-0.055449363024020565
1761378783845389000,4.36138916015625,0.08845343254394829,0.07000058794319629,-0.030389448308432473
1761378783855445200,4.3714453125,0.07294665133245289,0.03850654852688312,0.02564179712361656
1761378783865500200,4.381500244140625,0.07112761921174823,0.04995207164883613,0.04177372449613176
1761378783875556400,4.391556396484375,0.08747611194439232,0.07632102313637733,0.037461560385441406
1761378783885612300,4.4016123046875,0.09263210646808147,0.05583060829341411,0.01904883773252368
1761378783895667200,4.411667236328125,0.10928389299623667,0.06241875451207161,-0.060939320476120336
1761378783905723100,4.42172314453125,0.1089829372882843,0.08818389488756656,-0.09915361719131469
1761378783915778000,4.431778076171875,0.046153848409652705,0.030192893689870832,-0.09387012383043765
1761378783925835000,4.4418349609375,-0.00928739523999393,-0.0516483541727066,-0.06565277713038958
1761378783935891200,4.45189111328125,-0.06537877336144447,-0.007401800689101219,-0.01433072316944599
1761378783945946000,4.461946044921875,-0.06666530604064465,-0.03282558028101921,0.03409077791124582
1761378783956002300,4.472002197265625,-0.03842588450610637,-0.08875789538323879,0.07371332485601305
1761378783966057200,4.48205712890625,0.012857216550782322,-0.05149287135004997,0.09408331905654631
1761378783976113400,4.492113525390625,0.07364858905673026,-0.06112988374531269,0.07442541864812374
1761378783986169000,4.502169189453125,0.07326046652197837,-0.08278291262686252,0.039832244172692294
1761378783996224300,4.512224365234375,0.03039864539504051,-0.022755437165498733,-0.00219356452152133
1761378784006280200,4.5222802734375,-0.01940488462857902,-0.03976210154592991,-0.05425854580425657
1761378784016335400,4.53233544921875,-0.07233816404528916,-0.058063481912016865,-0.062269692297047
1761378784026391300,4.542391357421875,-0.08484459439702331,0.00509469279050827,-0.050592990767722945
1761378784036447200,4.552447265625,-0.06276479147076607,0.0751852971047163,-0.04485664820596576
1761378784046502100,4.562502197265625,-0.009331818903610109,0.05327040241658687,-0.030281599453208036
1761378784056558000,4.57255810546875,-0.024653964263200757,-0.007404723298549651,0.004557955565303564
1761378784066613200,4.58261328125,-0.004054901413992047,-0.007920271605253219,0.039401168412202967
1761378784076669200,4.592669189453125,0.010343114838004111,0.047374330115318296,0.04639657112434506
1761378784086725000,4.60272509765625,0.01827208120636642,0.04249181877076626,0.06349150744327343
1761378784096780300,4.6127802734375,0.05637655173838138,0.05416588995158672,0.0610671937726438
1761378784106836200,4.622836181640625,0.08189626598544418,0.10635901852548121,0.006934763132664374
1761378784116891100,4.63289111328125,0.09891688582599162,0.10091244355738162,-0.03218801302984357
1761378784126947000,4.642947021484375,0.11723229471743106,0.11741583459079265,-0.06109057464823126
1761378784137003300,4.653003173828125,0.13795293811969458,0.1498825184315443,-0.09222497783876024
1761378784147058200,4.66305810546875,0.11840309206247329,0.10959200909733771,-0.08444558514207601
1761378784157114400,4.6731142578125,0.11330781475007533,0.09320844505131244,-0.020000147107988593
1761378784167169000,4.6831689453125,0.10670564000606536,0.04371989926099777,0.058361003553867336
1761378784177225200,4.69322509765625,-0.0005376870732754468,-0.13382511759996413,0.06744286171782296
1761378784187281200,4.70328125,-0.06212466693632304,-0.21937164972126483,0.09854176890328525
1761378784197336300,4.71333642578125,-0.13863332159928976,-0.1597211908787489,0.13538695095605216
1761378784207392300,4.723392333984375,-0.153890511963889,-0.11006605634987354,0.09644581953734159
1761378784217447200,4.733447265625,-0.09533778523020446,-0.12302023046910762,0.036738072983059096
1761378784227503400,4.74350341796875,0.005811316627264022,-0.07299743167161941,-0.002001549080759287
1761378784237559300,4.753559326171875,0.08736965589523316,0.0324292744398117,-0.05892901270017027
1761378784247614200,4.7636142578125,0.13455408946163952,0.12722820355296136,-0.09070201518833637
1761378784257670100,4.773670166015625,0.14646832607388496,0.1278875442445278,-0.0816850343875587
1761378784267725300,4.783725341796875,0.10654489648640156,0.06333703840076924,-0.05274813210815191
1761378784277781200,4.79378125,-0.013834391019865869,0.029483868637681005,0.008197768805804662
1761378784287837200,4.803837158203125,-0.07023257006816566,0.04527998818457126,0.06315130200374405
1761378784297892000,4.81389208984375,-0.11393960984759031,0.07410334708690643,0.07931114486306905
1761378784307948000,4.823947998046875,-0.08166874083988368,0.10122574729025363,0.059368714725109746
1761378784318003200,4.834003173828125,0.0078057053148746485,0.11321896742284297,0.0357790232591331
1761378784328059100,4.84405908203125,0.06554952681846916,0.07079904484450816,0.01214621417063754
1761378784338115300,4.854115234375,0.14325637829005716,0.04547580301761627,-0.029631314284354445
1761378784348170200,4.864170166015625,0.0994318496108055,0.03564297578930854,-0.029861908169835805
1761378784358226200,4.87422607421875,0.07354629772603512,-0.042891047221422195,0.0009448796346783637
1761378784368281000,4.884281005859375,0.0056423898011446,-0.09683306528925895,0.05217091674208641
1761378784378337000,4.8943369140625,-0.06076463062949478,-0.11567279031574726,0.11647592339217662
1761378784388393200,4.904393310546875,-0.0990570980142802,-0.1165776302009821,0.11059329509437084
1761378784398448000,4.9144482421875,-0.0639309126406908,-0.07263502810001372,0.05879749527499079
1761378784408504300,4.92450439453125,-0.048721653071045874,-0.02444528994858265,0.004224924218654632
1761378784418559200,4.934559326171875,0.014252908692881464,-0.013801730859279632,-0.04792465290788095
1761378784428615200,4.944615234375,0.03671031275987625,0.008157587492465972,-0.06852306273654103
1761378784438671000,4.954671142578125,0.038591231135651466,0.054587914755940437,-0.06869300790939015
1761378784448726300,4.964726318359375,0.043495515920594335,0.08582242645323276,-0.06884557725575287
1761378784458782200,4.9747822265625,0.0398444460671395,0.12116904964447021,-0.06757744788292329
1761378784468837400,4.98483740234375,0.032476109256222845,0.1268377429306507,-0.06826718827933073
1761378784478893300,4.994893310546875,0.013624620726704596,0.09430968429148197,-0.02209931134432554
1761378784488949200,5.00494921875,-0.05046937352120876,0.05206161114871501,0.010502250922471285
1761378784499004200,5.015004150390625,-0.07886303576938808,0.07200491350293159,-0.008001232453552075
1761378784509060000,5.02506005859375,-0.12800905173234642,0.11046645384430885,-0.03612608769771177
1761378784519116300,5.0351162109375,-0.11701185689978301,0.05888473516702652,-0.023063190223707352
1761378784529171200,5.045171142578125,-0.07360884156823158,0.027926117801666258,0.0058690381638705725
1761378784539227100,5.05522705078125,-0.0016636223632842302,0.05046878899931907,-0.010716619758936575
1761378784549282300,5.0652822265625,0.054748731340840455,0.07559738503694534,-0.02863295318005839
1761378784559338000,5.075337890625,0.07683781355209648,0.04599602749943733,-0.003566316462738905
1761378784569394200,5.085394287109375,0.07671791349947452,0.05192541754841804,0.018651947369426488
1761378784579449000,5.095448974609375,0.005297521886229515,0.053041854357719416,0.05615311824604868
1761378784589505300,5.10550537109375,-0.025469372299313543,-0.003587795358896255,0.08437982642948627
1761378784599560200,5.115560302734375,-0.055005774841830134,0.0006207622468471527,0.06991510161682964
1761378784609616400,5.125616455078125,-0.07752038898877799,0.03244213392138481,0.04467223154976964
1761378784619672300,5.13567236328125,-0.06694054278545081,0.0019610709398984907,0.039283524248749015
1761378784629727200,5.145727294921875,-0.044437034554407,-0.0563192685931921,0.035666062120662534
1761378784639783200,5.155783203125,0.021499372689798475,-0.0472562566936016,0.006083263153152075
1761378784649838300,5.16583837890625,0.06650163991153239,-0.02173544646799564,-0.03425459017083048
1761378784659894300,5.175894287109375,0.08496617495007812,0.013024901267886161,-0.038057199607475195
1761378784669950200,5.1859501953125,0.1189304038722068,0.036786885127425194,-0.02069032361252466
1761378784680005400,5.19600537109375,0.11264562451429665,0.0038888241320848465,-0.0051589924816624255
1761378784690061000,5.20606103515625,0.06175773332007229,-0.0838034878462553,0.003569088375137653
1761378784700116200,5.2161162109375,-0.03286459711715579,-0.04676525830626487,0.002839164382102899
1761378784710172200,5.226172119140625,-0.08858779951333999,-0.011404606589674949,0.004344312814623118
1761378784720228000,5.23622802734375,-0.12160393393039702,0.022619828087091443,-0.0009143383659422397
1761378784730283300,5.246283203125,-0.10023498268723487,0.043859015470743175,0.003069616703689098
1761378784740339200,5.256339111328125,-0.022332243317365646,0.08229659041464328,0.009342851754277943
1761378784750394000,5.26639404296875,0.04715506134144962,0.09101765700876713,-0.021953470849560106
1761378784760450000,5.276449951171875,0.1001068993281573,0.06638707362115383,-0.06638444327265024
1761378784770506200,5.28650634765625,0.09825053087174891,0.05509878688752651,-0.07138210542947053
1761378784780561200,5.29656103515625,0.0821685070555657,0.09358137001693248,-0.08002879161313176
1761378784790617300,5.306617431640625,0.04058934615030885,0.06862170080542564,-0.06992767340403515
1761378784800672300,5.31667236328125,-0.048683586082980033,0.012005495092272759,-0.020282911855413113
1761378784810728200,5.326728271484375,-0.07333404321484267,0.0368821621954441,0.013401915603445376
1761378784820784000,5.3367841796875,-0.016119944673776625,0.05552256525754928,-0.005576338827610015
1761378784830839000,5.346839111328125,-0.005579261437058449,0.007122983747720718,-0.046979923970252274
1761378784840895200,5.356895263671875,0.028139541356638074,-0.03845335703492164,-0.0560937892742455
1761378784850950100,5.3669501953125,0.0297018953025341,-0.028077508971095084,-0.023295973782986402
1761378784861006300,5.37700634765625,0.02583111828379333,-0.013342296653985977,0.020776978982670696
1761378784871062300,5.387062255859375,0.019798925447463988,0.024442367339134213,0.05605886409133672
1761378784881117200,5.3971171875,0.03982471845336258,-0.0019967267751693726,0.06744461985006928
1761378784891173000,5.407173095703125,0.05049750363714993,-0.038491350957751275,0.07386603119969368
1761378784901229000,5.41722900390625,0.04694419506974518,-0.08397942893505096,0.0735118109345436
1761378784911284200,5.4272841796875,0.01748721443898976,-0.07033961063921451,0.05345584198608994
1761378784921340200,5.437340087890625,-0.01326974287442863,0.013252864804863929,0.006785420073138084
1761378784931395300,5.447395263671875,-0.008425809974595903,0.03736439275443554,-0.053287645812332626
1761378784941451300,5.457451171875,-0.016111103780195115,0.01813303806185722,-0.0455462379053235
1761378784951506200,5.467506103515625,-0.01518821678161621,0.03914835356175899,0.010889642804861068
1761378784961562000,5.47756201171875,0.02161445043683052,0.04157236583828926,0.0048036008894443505
1761378784971618000,5.4876181640625,0.04886537239067256,0.04754676407277584,-0.013541031813190784
1761378784981673200,5.497673095703125,0.05971877483837306,0.07545709978342056,-0.021954055371449795
1761378784991729200,5.507729248046875,0.06661737524569034,0.07902735948562621,-0.031018384728580713
1761378785001785300,5.517785400390625,0.05264496399462223,0.07189326982200145,-0.05502601391226053
1761378785011840000,5.527840087890625,0.01693074960000813,0.04708499177992344,-0.047600978478044266
1761378785021896200,5.537896240234375,-0.09317973041348158,0.006025251638889313,-0.01916954378603259
1761378785031951000,5.547951171875,-0.16612155944034457,0.01550327408015728,0.03763253760475199
1761378785042007300,5.55800732421875,-0.16115326950848102,0.05967208615243434,0.06243848212584853
1761378785052063200,5.568063232421875,-0.13274020844008771,0.004839841246604919,0.0396263463370502
1761378785062118400,5.578118408203125,-0.09204992266595363,-0.03322597777545452,0.029884704523533583
1761378785072174300,5.58817431640625,-0.02139350116252899,0.03418810080587864,0.01324760410785675
1761378785082229200,5.598229248046875,0.02720189518034458,0.06713175450861454,-0.016947335408627986
1761378785092285200,5.60828515625,0.0976016385089606,0.039823476344347,-0.016096269253955686
1761378785102341000,5.618341064453125,0.10630458492450416,0.0357715706050396,-0.009176842971029692
1761378785112396300,5.628396240234375,0.08833236344754695,0.028358079478144643,0.016129735415428875
1761378785122452200,5.6384521484375,0.02589081258177757,-0.008818681749701499,0.026910218757390976
1761378785132507400,5.64850732421875,0.016669979771971703,0.017675941944122312,-0.016348200471699235
1761378785142563000,5.65856298828125,-0.035257264407351614,0.02588379831910133,-0.07196867314577102
1761378785152619000,5.668618896484375,-0.036254933675192294,-0.013626958814263342,-0.08559358613342047
1761378785162674200,5.678674072265625,-0.16103344252109528,-0.0039782559812068935,0.007001403194665908
1761378785172730000,5.688730224609375,-0.025756957069039344,-0.02764846990406513,0.03758753398582339
1761378785182785300,5.698785400390625,0.06787351278662682,0.041541970700025556,0.04758694995269179
1761378785192841200,5.70884130859375,0.2337853749990463,0.13240414488613605,0.05493205201849341
1761378785202897400,5.7188974609375,0.3304179492801428,0.13412556185126304,0.06639072688296437
1761378785212952000,5.7289521484375,0.29697745197117326,0.08848433913886547,0.09861804900988935
1761378785223008300,5.73900830078125,0.15404204926379025,0.03210895644426345,0.10133768323212862
1761378785233064200,5.749064208984375,-0.01971826142668724,0.04865384853184223,0.029455519326031205
1761378785243119400,5.759119384765625,-0.13412380828559398,0.031958734318614006,-0.0878134541399777
1761378785253175300,5.76917529296875,-0.1722866579413414,-0.02955167317688465,-0.17317527734413743
1761378785263230200,5.779230224609375,-0.1553337695747614,-0.032651392757892604,-0.1972312757141888
1761378785273286100,5.7892861328125,-0.041032267612218856,-0.021580548167228698,-0.1484621302396059
1761378785283342000,5.799342041015625,0.06623454994056373,-0.005714870515465736,-0.07715221326351165
1761378785293397200,5.809397216796875,0.20373861178159713,-0.04714344396889209,-0.014015227479487656
