time,seconds_elapsed,z,y,x
1761378779601936100,0.11793603515625,0.0073790899477899075,-0.0051399217918515205,0.009407499805092812
1761378779611992000,0.127991943359375,-0.011683953925967216,-0.005296453833580017,-0.011309345252811909
1761378779622047200,0.138047119140625,-0.025518810376524925,-0.006490881554782391,-0.02710748463869095
1761378779632103000,0.14810302734375,-0.02971641719341278,-0.003938273526728153,-0.028931893408298492
1761378779642158000,0.158157958984375,-0.027439147233963013,-0.001252475893124938,-0.0165236946195364
1761378779652214000,0.168214111328125,-0.01693650521337986,0.0007710219360888004,-0.000042718369513750076
1761378779662269200,0.178269287109375,-0.001569798681885004,0.00936158001422882,0.02144766040146351
1761378779672325000,0.1883251953125,0.006415442563593388,0.01190941222012043,0.038905587047338486
1761378779682380300,0.19838037109375,0.009381671436131,0.009161029942333698,0.05055291950702667
1761378779692438800,0.208438720703125,0.00702695082873106,0.0015252013690769672,0.05271929129958153
1761378779702495000,0.218494873046875,0.00651455856859684,-0.004599803127348423,0.049623630940914154
1761378779712550000,0.2285498046875,0.0001880219206213951,-0.011303285136818886,0.0406494177877903
1761378779722605800,0.238605712890625,-0.003828024957329035,-0.01457178220152855,0.024258989840745926
1761378779732660700,0.24866064453125,-0.0032925992272794247,-0.005721494555473328,0.015520136803388596
1761378779742716700,0.258716552734375,-0.006421280559152365,0.007096299435943365,0.006807074416428804
1761378779752771800,0.268771728515625,-0.000936965923756361,0.013736060820519924,0.003563464153558016
1761378779762827800,0.278827880859375,0.007887418381869793,0.021824613213539124,0.0005173403769731522
1761378779772883000,0.288883056640625,0.01267251931130886,0.02790491096675396,0.0019191079773008823
1761378779782939000,0.29893896484375,0.010716160759329796,0.024938413873314857,0.003974802326411009
1761378779792995000,0.3089951171875,0.004915730096399784,0.025130324065685272,0.024797068908810616
1761378779803049700,0.3190498046875,-0.0036753611639142036,0.013935194350779057,0.04580647870898247
1761378779813106000,0.32910595703125,-0.014571087434887886,0.007893649861216545,0.05897866562008858
1761378779823160800,0.339160888671875,-0.02108997292816639,0.0007398668676614761,0.0585714690387249
1761378779833217000,0.349217041015625,-0.019387811422348022,0.0042497143149375916,0.04687529802322388
1761378779843272000,0.35927197265625,-0.018865033984184265,0.010724924504756927,0.026723159477114677
1761378779853328000,0.369327880859375,-0.016733305528759956,0.021393343806266785,0.01536933146417141
1761378779863383800,0.3793837890625,-0.01393086090683937,0.026693303138017654,0.010364985093474388
1761378779873438700,0.389438720703125,-0.008364584296941757,0.02709769643843174,0.015577912330627441
1761378779883495000,0.399494873046875,-0.005993572063744068,0.020863769575953484,0.02225472219288349
1761378779893549800,0.4095498046875,-0.01104093249887228,0.018643563613295555,0.021540241315960884
1761378779903606000,0.41960595703125,-0.01750868558883667,0.008467092178761959,0.007663040887564421
1761378779913660700,0.42966064453125,-0.01596025377511978,0.001425003632903099,-0.007362838368862867
1761378779923716900,0.439716796875,-0.027052853256464005,-0.0023026226554065943,-0.016096673905849457
1761378779933771800,0.449771728515625,-0.027337145060300827,-0.006722083315253258,-0.017799898982048035
1761378779943828000,0.459827880859375,-0.026063621044158936,-0.003776893485337496,-0.010140914469957352
1761378779953884000,0.4698837890625,-0.019452128559350967,-0.0070440201088786125,-0.0012812125496566296
1761378779963939000,0.47993896484375,-0.010410962626338005,-0.003140092361718416,-0.003587243612855673
1761378779973995000,0.4899951171875,-0.005407014861702919,0.008179470896720886,-0.010943399742245674
1761378779984050000,0.5000498046875,-0.001447427086532116,0.026280444115400314,-0.016109932214021683
1761378779994105900,0.51010595703125,-0.006928208749741316,0.036628950387239456,0.007277539931237698
1761378780004160800,0.520160888671875,-0.008095739409327507,0.046971868723630905,0.035808514803647995
1761378780014217000,0.530217041015625,-0.009065985679626465,0.04146954044699669,0.06250138580799103
1761378780024273000,0.54027294921875,-0.008811121806502342,0.022297175601124763,0.08593373745679855
1761378780034328000,0.550328125,-0.007184742484241724,0.0029955324716866016,0.09602415561676025
1761378780044383700,0.5603837890625,-0.005809219088405371,-0.00936153531074524,0.08319012075662613
1761378780054439000,0.57043896484375,-0.009667139500379562,-0.01560115721076727,0.057710129767656326
1761378780064494800,0.580494873046875,-0.012136157602071762,-0.012931072153151035,0.016982141882181168
1761378780074550000,0.590550048828125,-0.010680338367819786,0.0012356764636933804,-0.02000487595796585
1761378780084606000,0.60060595703125,-0.008317582309246063,0.012665431946516037,-0.033206965774297714
1761378780094660900,0.610660888671875,-0.0029015131294727325,0.02546006068587303,-0.02524823136627674
1761378780104716800,0.620716796875,0.0012977588921785355,0.03164924681186676,0.002846518997102976
1761378780114772700,0.630772705078125,-0.0010132589377462864,0.03406510502099991,0.03495725616812706
1761378780124828000,0.640827880859375,-0.0018444308079779148,0.024944044649600983,0.05489581078290939
1761378780134883800,0.6508837890625,0.002972689922899008,0.010653512552380562,0.05093059688806534
1761378780144939000,0.66093896484375,0.00013162940740585327,-0.00708154309540987,0.027945920825004578
1761378780154995000,0.670994873046875,-0.005989714991301298,-0.011567197740077972,-0.0053319064900279045
1761378780165049900,0.6810498046875,-0.013022057712078094,-0.00714342063292861,-0.03120291978120804
1761378780175105800,0.691105712890625,-0.012358199805021286,0.0038633220829069614,-0.03399170562624931
1761378780185161700,0.70116162109375,-0.003187071066349745,0.014156971126794815,-0.019925154745578766
1761378780195217000,0.711216796875,0.011488411575555801,0.013987928628921509,0.004071160219609737
1761378780205272800,0.72127294921875,0.021721607074141502,0.0073145790956914425,0.02500680275261402
1761378780215328000,0.731327880859375,0.021738119423389435,-0.006311750505119562,0.026721345260739326
1761378780225383700,0.7413837890625,0.02092505618929863,-0.015885282307863235,0.014311812818050385
1761378780235438800,0.75143896484375,0.01723351702094078,-0.024261653423309326,-0.016757111996412277
1761378780245494800,0.761494873046875,0.011472301557660103,-0.02801191434264183,-0.05523446202278137
1761378780255550000,0.771550048828125,0.00794301275163889,-0.023750826716423035,-0.07674174010753632
1761378780265606000,0.78160595703125,0.006339523009955883,-0.014705664478242397,-0.07503385096788406
1761378780275661800,0.791661865234375,0.005242368672043085,-0.0024117478169500828,-0.048531822860240936
1761378780285716700,0.801716796875,0.0110898707062006,0.010661710053682327,-0.011124526150524616
1761378780295772700,0.811772705078125,0.015818577259778976,0.006122080143541098,0.017216814681887627
1761378780305827800,0.821827880859375,0.030034266412258148,-0.0037787538021802902,0.029603175818920135
1761378780315883800,0.8318837890625,0.032847896218299866,-0.020080488175153732,0.0187366995960474
1761378780325939000,0.84193896484375,0.02679479867219925,-0.038928743451833725,-0.0029856397304683924
1761378780335995000,0.851994873046875,0.010445186868309975,-0.03556334227323532,-0.01682889834046364
1761378780346051000,0.862051025390625,-0.010560230351984501,-0.028180260211229324,-0.019857443869113922
1761378780356105700,0.872105712890625,-0.017950765788555145,-0.0086908470839262,-0.01799422688782215
1761378780366162000,0.882161865234375,-0.021027514711022377,0.0029053548350930214,-0.005460058804601431
1761378780376216800,0.892216796875,-0.015018230304121971,0.014534777961671352,0.009154792875051498
1761378780386273000,0.90227294921875,-0.0071246204897761345,0.015446911565959454,0.03641331195831299
1761378780396328000,0.912327880859375,0.001754160039126873,0.013326735235750675,0.05877599120140076
1761378780406383900,0.9223837890625,0.01030796766281128,0.0005845748819410801,0.07626337558031082
1761378780416439800,0.932439697265625,0.01706228405237198,-0.010325727052986622,0.08012890070676804
1761378780426494700,0.94249462890625,0.024574793875217438,-0.031074415892362595,0.06511639803647995
1761378780436551000,0.952551025390625,0.028276119381189346,-0.030843820422887802,0.03169742971658707
1761378780446605800,0.962605712890625,0.02076573669910431,-0.015107467770576477,-0.0038286063354462385
1761378780456662000,0.972662109375,0.015299797058105469,-0.002193234395235777,-0.0216604545712471
1761378780466716700,0.982716552734375,0.011245135217905045,0.01823161169886589,-0.009673032909631729
1761378780476772900,0.99277294921875,0.009729266166687012,0.031042352318763733,0.030648095533251762
1761378780486828800,1.002828857421875,0.014306973665952682,0.026457451283931732,0.0815935730934143
1761378780496884000,1.012884033203125,0.021016737446188927,0.015403103083372116,0.11024659872055054
1761378780506940000,1.02293994140625,0.025708962231874466,-0.0032054693438112736,0.11181120574474335
1761378780516995000,1.0329951171875,0.02902166359126568,-0.017786946147680283,0.083077073097229
1761378780527051000,1.043051025390625,0.025980334728956223,-0.025494666770100594,0.0423102080821991
1761378780537106000,1.05310595703125,0.014935093000531197,-0.01847786270081997,0.004982794169336557
1761378780547161900,1.063161865234375,-0.0011972710490226746,-0.008183414116501808,-0.01968020759522915
1761378780557217800,1.0732177734375,-0.011273753829300404,-0.00021730083972215652,-0.021090466529130936
1761378780567273000,1.08327294921875,-0.015138533897697926,0.013258826918900013,-0.010123834945261478
1761378780577329000,1.093328857421875,-0.01903241127729416,0.020451923832297325,0.01801307126879692
1761378780587384000,1.103384033203125,-0.019475027918815613,0.02649516798555851,0.03853751718997955
1761378780597439700,1.113439697265625,-0.020726783201098442,0.03265815228223801,0.05271546542644501
1761378780607495000,1.123494873046875,-0.01806655153632164,0.031457334756851196,0.05754191055893898
1761378780617550800,1.13355078125,-0.010886868461966515,0.01211636234074831,0.062456101179122925
1761378780627606800,1.143606689453125,-0.011049054563045502,-0.007913805544376373,0.06563431769609451
1761378780637662000,1.153661865234375,-0.008153597824275494,-0.027558911591768265,0.06380697339773178
1761378780647718000,1.1637177734375,-0.006739459000527859,-0.036592353135347366,0.04223616421222687
1761378780657772800,1.173772705078125,-0.01256684958934784,-0.038165148347616196,0.008403678424656391
1761378780667828700,1.183828857421875,-0.006426666397601366,-0.02627200447022915,-0.027361776679754257
1761378780677884000,1.1938837890625,-0.00437896465882659,-0.010805031284689903,-0.044247619807720184
1761378780687939800,1.20393994140625,-0.005807217676192522,0.003564320970326662,-0.02911313995718956
1761378780697992400,1.213992431640625,-0.009328978136181831,0.015026167035102844,0.0008845096454024315
1761378780708047400,1.22404736328125,-0.009031768888235092,0.024370400235056877,0.03075692057609558
1761378780718103300,1.234103271484375,-0.011925820261240005,0.02613554522395134,0.056460827589035034
1761378780728158200,1.244158203125,-0.014926936477422714,0.015507135540246964,0.07066746056079865
1761378780738214100,1.254214111328125,-0.007187057752162218,0.006922069005668163,0.06673445552587509
1761378780748269300,1.264269287109375,0.005025933030992746,-0.010570637881755829,0.0486619770526886
1761378780758325200,1.2743251953125,0.013555490411818027,-0.020372144877910614,0.024722257629036903
1761378780768381400,1.28438134765625,0.015809323638677597,-0.02365821972489357,0.0034614424221217632
1761378780778436400,1.294436279296875,0.012645897455513477,-0.018275097012519836,-0.012612802907824516
1761378780788492500,1.304492431640625,0.010422424413263798,-0.005551844835281372,-0.016821395605802536
1761378780798547200,1.314547119140625,-0.0043177115730941296,0.002317695412784815,-0.003446393646299839
1761378780808603400,1.324603271484375,-0.010390518233180046,0.01418633945286274,0.017801105976104736
1761378780818658300,1.334658203125,-0.009069448336958885,0.021916497498750687,0.04308892786502838
1761378780828714500,1.344714599609375,-0.010560553520917892,0.0245375819504261,0.04956547170877457
1761378780838770400,1.3547705078125,-0.009495365433394909,0.022295629605650902,0.03935031592845917
1761378780848825300,1.364825439453125,0.005277188960462809,0.01112020667642355,0.018213607370853424
1761378780858881300,1.37488134765625,0.012527713552117348,-0.006424464285373688,-0.012425675988197327
1761378780868936200,1.384936279296875,0.01188056543469429,-0.022945385426282883,-0.037695080041885376
1761378780878992400,1.394992431640625,0.011064928025007248,-0.025600453838706017,-0.03857797756791115
1761378780889047300,1.40504736328125,0.00514871533960104,-0.019448552280664444,-0.03644052520394325
1761378780899103500,1.415103515625,0.002357249613851309,-0.02401777170598507,-0.037584904581308365
1761378780909159400,1.425159423828125,0.004588445648550987,-0.02191493846476078,-0.04603671282529831
1761378780919214300,1.43521435546875,0.003654197556897998,-0.020365379750728607,-0.0550655759871006
1761378780929270300,1.445270263671875,0.0014637475833296776,-0.01352771371603012,-0.06678508222103119
1761378780939325400,1.455325439453125,0.0018313918262720108,-0.00776336994022131,-0.07119932025671005
1761378780949381400,1.46538134765625,0.004460197873413563,0.002231739927083254,-0.0768103301525116
1761378780959436500,1.4754365234375,0.007464067544788122,-0.002607253845781088,-0.07429256290197372
1761378780969492500,1.485492431640625,0.013305711559951305,-0.003976385109126568,-0.06249476224184036
1761378780979548200,1.495548095703125,0.013312085531651974,-0.004538311623036861,-0.032879892736673355
1761378780989603300,1.505603271484375,0.009251830168068409,-0.009787668474018574,0.006247800774872303
1761378780999659300,1.5156591796875,0.00782677624374628,-0.005149373784661293,0.050872333347797394
1761378781009714400,1.52571435546875,-0.0008114534430205822,-0.0045363144017755985,0.06866277754306793
1761378781019770400,1.535770263671875,-0.0024221129715442657,-0.005264422856271267,0.05697178840637207
1761378781029826300,1.545826416015625,-0.002952348440885544,0.0002829418517649174,0.02019432932138443
1761378781039881200,1.555881103515625,-0.004280825145542622,0.000976860523223877,-0.016109289601445198
1761378781049937200,1.565937255859375,-0.006943986751139164,0.009264085441827774,-0.048945531249046326
1761378781059992300,1.575992431640625,-0.0058405776508152485,0.014776259660720825,-0.060790639370679855
1761378781070048300,1.58604833984375,-0.0022189454175531864,0.026553556323051453,-0.05514873191714287
1761378781080103400,1.596103515625,0.004484975710511208,0.021241920068860054,-0.028686191886663437
1761378781090159400,1.606159423828125,0.014832422137260437,0.014558717608451843,0.0070795281790196896
1761378781100215600,1.616215576171875,0.01697753742337227,0.00377481197938323,0.036725059151649475
1761378781110270200,1.626270263671875,0.016663016751408577,-0.005306833889335394,0.06249966844916344
1761378781120326400,1.636326416015625,0.013855251483619213,-0.013485534116625786,0.07247593253850937
1761378781130381300,1.64638134765625,0.0104938093572855,-0.018159115687012672,0.061938878148794174
1761378781140437200,1.656437255859375,0.0035666455514729023,-0.016897045075893402,0.03374157473444939
1761378781150492400,1.666492431640625,-0.0041575864888727665,-0.008785322308540344,0.0027596899308264256
1761378781160548400,1.67654833984375,-0.007875097915530205,0.0026918346993625164,-0.01943310536444187
1761378781170604300,1.686604248046875,-0.008380300365388393,0.022738246247172356,-0.022788155823946
1761378781180659200,1.6966591796875,-0.005630852654576302,0.029046742245554924,-0.010538414120674133
1761378781190715400,1.70671533203125,-0.0001623174175620079,0.019248174503445625,0.0008719000034034252
1761378781200770300,1.716770263671875,0.013398243114352226,0.007605104241520166,0.01743810996413231
1761378781210826500,1.726826416015625,0.011062119156122208,-0.0018882662989199162,0.017961421981453896
1761378781220881200,1.736881103515625,0.014103122055530548,-0.01397232711315155,0.009371684864163399
1761378781230937300,1.746937255859375,0.015577980317175388,-0.01577502116560936,-0.008115963079035282
1761378781240993300,1.7569931640625,0.013890129514038563,-0.016774270683526993,-0.032938774675130844
1761378781251048400,1.76704833984375,0.001842521596699953,-0.011443154886364937,-0.043597277253866196
1761378781261104400,1.7771044921875,-0.006675536744296551,-0.008018630556762218,-0.04836675897240639
1761378781271159300,1.7871591796875,-0.005796161480247974,-0.004129882901906967,-0.047324929386377335
1761378781281215500,1.797215576171875,0.00390942208468914,-0.0024137094151228666,-0.042472608387470245
1761378781291270100,1.807270263671875,0.010357467457652092,0.00294377189129591,-0.047349922358989716
1761378781301326300,1.817326416015625,0.016778456047177315,0.006937249097973108,-0.05278223007917404
1761378781311382300,1.82738232421875,0.0141640305519104,0.016640476882457733,-0.05739296227693558
1761378781321437400,1.8374375,0.008103612810373306,0.030325597152113914,-0.05512077733874321
1761378781331493400,1.847493408203125,0.002615370787680149,0.03948553651571274,-0.05198463797569275
1761378781341548500,1.857548583984375,0.003853261936455965,0.03982478752732277,-0.03856394439935684
1761378781351604200,1.867604248046875,0.00517685292288661,0.030700799077749252,-0.020518098026514053
1761378781361659400,1.877659423828125,-0.0016143769025802612,0.014383315108716488,-0.0036031443160027266
1761378781371715300,1.88771533203125,-0.00041009532287716866,-0.0028950083069503307,0.0161639042198658
1761378781381771300,1.897771240234375,0.00691230408847332,-0.016761325299739838,0.031986892223358154
1761378781391826400,1.907826416015625,0.010637001134455204,-0.018115010112524033,0.04441666603088379
1761378781401882400,1.91788232421875,0.008198492228984833,-0.00998404249548912,0.039936613291502
1761378781411937300,1.927937255859375,0.003952880389988422,-0.00219083484262228,0.03837786614894867
1761378781421993200,1.9379931640625,-0.001159454695880413,0.002295592799782753,0.04858779534697533
1761378781432049200,1.948049072265625,0.0024512591771781445,0.0041896323673427105,0.06043087691068649
1761378781442104300,1.958104248046875,0.00710273627191782,0.00799236074090004,0.06556092202663422
1761378781452160300,1.96816015625,0.008073192089796066,-0.0003332137130200863,0.05210103839635849
1761378781462215400,1.97821533203125,0.0066484007984399796,-0.0021835779771208763,0.041098453104496
1761378781472271400,1.988271240234375,-0.0023171305656433105,-0.0012986096553504467,0.0351894348859787
1761378781482326300,1.998326171875,-0.011212429031729698,0.0020651291124522686,0.03784441575407982
1761378781492382200,2.00838232421875,-0.013595692813396454,0.009406398981809616,0.04481816664338112
1761378781502438400,2.0184384765625,-0.018788665533065796,0.01438081357628107,0.05021393299102783
1761378781512493300,2.028493408203125,-0.0157952718436718,0.02053777500987053,0.05397511273622513
1761378781522549500,2.038549560546875,-0.014290295541286469,0.011620317585766315,0.04908205196261406
1761378781532604200,2.048604248046875,-0.00698630977421999,0.006780555471777916,0.044953618198633194
1761378781542660400,2.058660400390625,0.0008431030437350273,-0.010422000661492348,0.03665073588490486
1761378781552715300,2.06871533203125,0.00428870040923357,-0.02842523530125618,0.03032652847468853
1761378781562771200,2.078771240234375,-0.006745293736457825,-0.04300617426633835,0.028043877333402634
1761378781572827400,2.088827392578125,-0.0175422802567482,-0.047731686383485794,0.01712518371641636
1761378781582882300,2.09888232421875,-0.024840211495757103,-0.033338334411382675,0.0066481889225542545
1761378781592938500,2.1089384765625,-0.02150939591228962,-0.022817514836788177,0.009050626307725906
1761378781602993200,2.1189931640625,-0.015554521232843399,-0.011004569008946419,0.017133014276623726
1761378781613049300,2.12904931640625,-0.003895468544214964,-0.011120416224002838,0.025501467287540436
1761378781623104300,2.139104248046875,0.007757066749036312,-0.01553427055478096,0.030852068215608597
1761378781633160400,2.149160400390625,0.014584080316126347,-0.02402043342590332,0.02906535193324089
1761378781643216400,2.15921630859375,0.00955803133547306,-0.02727714739739895,0.02394213154911995
1761378781653271600,2.169271484375,-0.00004159938544034958,-0.02583930641412735,0.008289935067296028
1761378781663327200,2.1793271484375,-0.006865416653454304,-0.02536233328282833,-0.002385878935456276
1761378781673382400,2.18938232421875,-0.011217288672924042,-0.02445419691503048,-0.008657090365886688
1761378781683438300,2.199438232421875,-0.012994350865483284,-0.015610536560416222,-0.007988587953150272
1761378781693494800,2.209494873046875,-0.010726403445005417,-0.004060141276568174,0.005400986410677433
1761378781703549700,2.2195498046875,-0.006386174820363522,0.01280575804412365,0.018782762810587883
1761378781713605600,2.229605712890625,0.0028901482000947,0.019081762060523033,0.035234708338975906
1761378781723660800,2.239660888671875,0.007515722420066595,0.023317819461226463,0.03992734104394913
1761378781733716700,2.249716796875,0.016207480803132057,0.005253066308796406,0.040636807680130005
1761378781743772000,2.25977197265625,0.01613965816795826,-0.01038411632180214,0.03041486255824566
1761378781753827800,2.269827880859375,0.013289809226989746,-0.031113095581531525,0.014016982167959213
1761378781763883500,2.279883544921875,0.0024108304642140865,-0.03243006393313408,-0.004375787451863289
1761378781773938700,2.289938720703125,-0.014448043890297413,-0.027738109230995178,-0.013974885456264019
1761378781783994600,2.29999462890625,-0.020002780482172966,-0.0076954560354352,-0.007541883736848831
1761378781794049800,2.3100498046875,-0.026236440986394882,0.005707168951630592,0.0036391322501003742
1761378781804105700,2.320105712890625,-0.014989519491791725,0.02090429700911045,0.012401225045323372
1761378781814161700,2.33016162109375,-0.01111222431063652,0.031084232032299042,0.014090469107031822
1761378781824216600,2.340216552734375,-0.006551266182214022,0.028826266527175903,0.007235312834382057
1761378781834272500,2.3502724609375,-0.0030169845558702946,0.018531551584601402,-0.013403918594121933
1761378781844327700,2.36032763671875,0.001615895889699459,0.0032705427147448063,-0.028702344745397568
1761378781854383600,2.370383544921875,0.0012273406609892845,-0.00821407325565815,-0.03841276094317436
1761378781864438800,2.380438720703125,-0.0002650385722517967,-0.01789775863289833,-0.03731057420372963
1761378781874494700,2.39049462890625,-0.0024608150124549866,-0.022395305335521698,-0.02449384517967701
1761378781884551000,2.400551025390625,-0.009206602349877357,-0.015880415216088295,-0.005774484947323799
1761378781894605600,2.41060546875,-0.00951899029314518,-0.005438426975160837,0.009538691490888596
1761378781904661800,2.420661865234375,-0.0035634073428809643,0.006304680835455656,0.017465557903051376
1761378781914716700,2.430716552734375,0.0041885217651724815,0.011361490935087204,0.011265719309449196
1761378781924772900,2.44077294921875,0.013778869062662125,0.011532300151884556,0.009591812267899513
1761378781934828800,2.450828857421875,0.01922503300011158,0.006738609634339809,0.0029240557923913
1761378781944883700,2.4608837890625,0.008584785275161266,0.01418767124414444,0.0003925701603293419
1761378781954939600,2.470939697265625,-0.00721894484013319,0.014804460108280182,-0.0017033377662301064
1761378781964994600,2.48099462890625,-0.015896257013082504,0.016437077894806862,0.004478174261748791
1761378781975050800,2.49105078125,-0.013109259307384491,0.015912435948848724,0.009907027706503868
1761378781985105700,2.501105712890625,-0.014980604872107506,0.015944387763738632,0.01030387170612812
1761378781995161900,2.511161865234375,-0.016840290278196335,0.024427887052297592,0.012204837054014206
1761378782005217800,2.5212177734375,-0.013662783429026604,0.03121475875377655,0.010473792441189289
1761378782015272700,2.531272705078125,-0.009711984544992447,0.02988557517528534,0.015075468458235264
1761378782025328600,2.54132861328125,0.00039703818038105965,0.033137064427137375,0.014398906379938126
1761378782035383800,2.5513837890625,0.005542531609535217,0.03291735053062439,0.020661061629652977
1761378782045439700,2.561439697265625,0.009497782215476036,0.028414379805326462,0.023501133546233177
1761378782055495000,2.571494873046875,0.005664428696036339,0.029682043939828873,0.025812756270170212
1761378782065550800,2.58155078125,0.002657777164131403,0.020087838172912598,0.020261039957404137
1761378782075606800,2.591606689453125,0.0002082018181681633,0.012469067238271236,0.021756136789917946
1761378782085661700,2.60166162109375,-0.007421046495437622,0.006300052627921104,0.01109670102596283
1761378782095717600,2.611717529296875,-0.014857658185064793,0.007847615517675877,-0.006947547197341919
1761378782105772800,2.621772705078125,-0.01410947646945715,0.009769953787326813,-0.03201986476778984
1761378782115828700,2.631828857421875,-0.011141915805637836,0.014616109430789948,-0.0494779534637928
1761378782125884700,2.641884765625,-0.007661622017621994,0.011576209217309952,-0.0561646930873394
1761378782135939600,2.651939697265625,0.00003997329622507095,0.0058706533163785934,-0.05086420476436615
1761378782145995500,2.66199560546875,0.008748569525778294,0.0034937490709125996,-0.01625964418053627
1761378782156050700,2.67205078125,0.017519425600767136,0.010937284678220749,0.03789813444018364
1761378782166106600,2.682106689453125,0.02070564031600952,0.009250704199075699,0.0818348377943039
1761378782176161800,2.692161865234375,0.017894141376018524,0.016192233189940453,0.10267620533704758
1761378782186217700,2.7022177734375,0.006862109526991844,0.016887251287698746,0.09332140535116196
1761378782196274000,2.71227392578125,-0.0017699943855404854,0.017653711140155792,0.0513816736638546
1761378782206328600,2.72232861328125,-0.002821278292685747,0.01956605724990368,0.00460494589060545
1761378782216384800,2.732384765625,-0.0015914305113255978,0.019711732864379883,-0.03579946979880333
1761378782226439700,2.742439697265625,0.0029431693255901337,0.013072071596980095,-0.04889639839529991
1761378782236495600,2.75249560546875,0.01266503892838955,0.00793137215077877,-0.025200124830007553
1761378782246551800,2.7625517578125,0.012200359255075455,0.006447560619562864,0.017423268407583237
1761378782256606700,2.772606689453125,0.012448032386600971,0.00217904569581151,0.06098112836480141
1761378782266662700,2.78266259765625,0.011970940977334976,-0.00862346775829792,0.09070844203233719
1761378782276717600,2.792717529296875,0.01693134382367134,-0.017066486179828644,0.10052512586116791
1761378782286773800,2.802773681640625,0.011353814974427223,-0.02761363610625267,0.08499132096767426
1761378782296828700,2.81282861328125,0.003512936644256115,-0.032277099788188934,0.04414348676800728
1761378782306884900,2.822884765625,-0.00348938861861825,-0.030375700443983078,-0.00505061587318778
1761378782316940800,2.83294091796875,-0.008729157969355583,-0.02245519310235977,-0.0498921237885952
1761378782326995700,2.84299560546875,-0.008921438828110695,-0.01686202362179756,-0.062314972281455994
1761378782337051600,2.8530517578125,-0.004658516030758619,-0.011825453490018845,-0.0444030836224556
1761378782347106800,2.86310693359375,-0.001628122292459011,-0.007904717698693275,-0.014162974432110786
1761378782357162800,2.873162841796875,-0.00023502251133322716,-0.0010225772857666016,0.013880378566682339
1761378782367218700,2.88321875,0.0012077046558260918,-0.008258847519755363,0.026958905160427094
1761378782377273900,2.89327392578125,-0.0093607846647501,-0.012144666165113449,0.023177750408649445
1761378782387329800,2.903329833984375,-0.015540318563580513,-0.015203206799924374,0.010984517633914948
1761378782397384700,2.913384765625,-0.02094227448105812,-0.018925772979855537,-0.0011853305622935295
1761378782407440600,2.923440673828125,-0.018401149660348892,-0.015719959512352943,-0.00808376632630825
1761378782417495800,2.933495849609375,-0.0068984255194664,-0.014967350289225578,-0.009634790942072868
1761378782427551700,2.9435517578125,0.00011161807924509048,-0.005495851393789053,-0.006327557843178511
1761378782437607700,2.953607666015625,0.007532782852649689,0.004334675148129463,0.0014179795980453491
1761378782447662600,2.96366259765625,0.003561808494850993,0.01515786163508892,0.013776160776615143
1761378782457718500,2.973718505859375,-0.000553574413061142,0.016949903219938278,0.019865212962031364
1761378782467773700,2.983773681640625,-0.005470503121614456,0.023012954741716385,0.025270946323871613
1761378782477829600,2.99382958984375,-0.013388346880674362,0.018333248794078827,0.022041063755750656
1761378782487885800,3.0038857421875,-0.021263834089040756,0.02020624838769436,0.015230171382427216
1761378782497940700,3.013940673828125,-0.024095308035612106,0.016687147319316864,0.001607037615031004
1761378782507996700,3.02399658203125,-0.015863750129938126,0.007406963501125574,-0.0030061614234000444
1761378782518051600,3.034051513671875,0.0007477174513041973,-0.0011750732082873583,-0.0062842462211847305
1761378782528107500,3.044107421875,0.009743623435497284,-0.003796690609306097,-0.0017996076494455338
1761378782538162700,3.05416259765625,0.011978814378380775,-0.008591711521148682,-0.0066718608140945435
1761378782548218600,3.064218505859375,0.015621745027601719,-0.008383317850530148,-0.007745984010398388
1761378782558274800,3.07427490234375,0.014590568840503693,-0.004620004910975695,0.007204469759017229
1761378782568329700,3.084329833984375,0.0016789748333394527,0.0025995904579758644,0.020888345316052437
1761378782578385700,3.0943857421875,-0.003702208399772644,0.009385857731103897,0.032245662063360214
1761378782588440600,3.104440673828125,-0.00587780075147748,0.016807852312922478,0.030428342521190643
1761378782598496800,3.114496826171875,-0.007934560999274254,0.01881028339266777,0.02277468517422676
1761378782608552700,3.124552734375,-0.005939300637692213,0.015210991725325584,0.004602957516908646
1761378782618607900,3.13460791015625,-0.00026144087314605713,0.006456914823502302,-0.005634233821183443
1761378782628663800,3.144663818359375,0.00989543180912733,-0.003893230576068163,-0.0032799884211272
1761378782638718700,3.15471875,0.01100810058414936,-0.017431676387786865,0.005029872991144657
1761378782648774700,3.164774658203125,0.007514219265431166,-0.017178773880004883,0.014128372073173523
1761378782658829600,3.17482958984375,-0.0023378790356218815,-0.011368822306394577,0.018375050276517868
1761378782668885800,3.1848857421875,-0.009490687400102615,-0.004332582466304302,0.008911707438528538
1761378782678941700,3.194941650390625,-0.012640140950679779,0.00405850587412715,0.0024591339752078056
1761378782688996900,3.204996826171875,-0.010484566912055016,0.00623856857419014,0.001507728360593319
1761378782699055600,3.2150556640625,-0.001919841393828392,0.008267631754279137,0.00019638752564787865
1761378782709110800,3.22511083984375,0.0065584187395870686,0.005693917162716389,-0.0034090050030499697
1761378782719166700,3.235166748046875,0.011653045192360878,-0.00020125601440668106,-0.008968885987997055
1761378782729222700,3.24522265625,0.013224439695477486,-0.013392757624387741,-0.018103962764143944
1761378782739277600,3.255277587890625,0.0050131152383983135,-0.018033316358923912,-0.018100768327713013
1761378782749333500,3.26533349609375,-0.009010031819343567,-0.015905849635601044,-0.015988951548933983
1761378782759388700,3.275388671875,-0.013511307537555695,-0.01049483846873045,0.0015133428387343884
1761378782769444600,3.285444580078125,-0.014464197680354118,0.004179072566330433,0.02900819480419159
1761378782779499800,3.295499755859375,-0.009619908407330513,0.00907103344798088,0.04132211580872536
1761378782789555700,3.3055556640625,0.006313445512205362,0.008212038315832615,0.036548830568790436
1761378782799612000,3.31561181640625,0.009298848919570446,0.003433528356254101,0.013625670224428177
1761378782809666600,3.32566650390625,0.005087376572191715,-0.0008324910886585712,-0.01859535090625286
1761378782819722800,3.33572265625,-0.0030128946527838707,-0.009216388687491417,-0.04180853068828583
1761378782829777700,3.345777587890625,-0.00017289305105805397,-0.01580131985247135,-0.05433802306652069
1761378782839833900,3.355833740234375,-0.0020810477435588837,-0.01724102348089218,-0.047141097486019135
1761378782849889800,3.365889892578125,-0.007521729450672865,-0.011899988166987896,-0.025864919647574425
1761378782859944700,3.37594482421875,-0.007065795827656984,-0.0038782807532697916,-0.004638195037841797
1761378782870000600,3.386000732421875,-0.001933136023581028,-0.002443471224978566,0.006195103749632835
1761378782880055600,3.3960556640625,-0.0011855866760015488,-0.003715663217008114,0.011084933765232563
1761378782890111700,3.40611181640625,-0.001654785592108965,-0.014555426314473152,0.007203816901892424
1761378782900167700,3.416167724609375,-0.003592235501855612,-0.02886645495891571,0.002356597688049078
1761378782910222800,3.426222900390625,-0.004828102421015501,-0.03888078033924103,-0.009585414081811905
1761378782920278800,3.43627880859375,-0.00734718656167388,-0.03793136030435562,-0.021814649924635887
1761378782930333700,3.446333740234375,-0.006585958879441023,-0.034686893224716187,-0.03148317337036133
1761378782940389600,3.4563896484375,-0.0066743758507072926,-0.01750284805893898,-0.025729946792125702
1761378782950444800,3.46644482421875,-0.00930093601346016,-0.00368147948756814,-0.01630747690796852
1761378782960500700,3.476500732421875,-0.014191564172506332,0.009189311414957047,0.012587287463247776
1761378782970556700,3.486556640625,-0.02019537426531315,0.018559349700808525,0.03533197566866875
1761378782980611800,3.49661181640625,-0.018433427438139915,0.014002680778503418,0.0440295934677124
1761378782990667800,3.506667724609375,-0.0034692473709583282,-0.002606190275400877,0.033507149666547775
1761378783000722700,3.51672265625,0.00423900643363595,-0.02033458650112152,0.011600787751376629
1761378783010778600,3.526778564453125,0.00470973365008831,-0.028896985575556755,-0.009304787963628769
1761378783020834600,3.53683447265625,0.005076450761407614,-0.025868171826004982,-0.03066333942115307
1761378783030889700,3.5468896484375,-0.002731592860072851,-0.01204855926334858,-0.032701123505830765
1761378783040945700,3.556945556640625,-0.004306319635361433,-0.00486175250262022,-0.020429544150829315
1761378783051000600,3.56700048828125,-0.0067299772053956985,0.0042167967185378075,0.005033269990235567
1761378783061056500,3.577056396484375,-0.008944395929574966,0.011398809030652046,0.03614778071641922
1761378783071112700,3.58711279296875,-0.007556400261819363,0.004885548260062933,0.044710271060466766
1761378783081167600,3.597167724609375,0.004208113998174667,-0.0016924599185585976,0.040733639150857925
1761378783091223800,3.607223876953125,0.005343896336853504,-0.010365811176598072,0.02534671686589718
1761378783101278700,3.61727880859375,0.0014452948234975338,-0.006158549338579178,0.0075642564333975315
1761378783111335000,3.6273349609375,-0.005238825920969248,0.0027323453687131405,-0.008754556998610497
1761378783121390800,3.637390869140625,-0.011359302327036858,0.007524437736719847,-0.019051935523748398
1761378783131445800,3.64744580078125,-0.009724176488816738,0.005561719182878733,-0.019481481984257698
1761378783141501700,3.657501708984375,-0.0005328087136149406,0.0006857379339635372,-0.01070876233279705
1761378783151556600,3.667556640625,0.0007153782062232494,-0.0032626595348119736,0.0038358094170689583
1761378783161612800,3.67761279296875,0.0064763277769088745,-0.010884360410273075,0.015385673381388187
1761378783171667700,3.687667724609375,0.015716908499598503,-0.008091471157968044,0.025128869339823723
1761378783181723600,3.6977236328125,0.01419730857014656,-0.006765750236809254,0.023388227447867393
1761378783191779600,3.707779541015625,0.016887884587049484,-0.007713832892477512,0.01401588972657919
1761378783201834800,3.717834716796875,0.018887652084231377,-0.006981996353715658,0.008915403857827187
1761378783211890700,3.727890625,0.021832913160324097,0.00020690681412816048,-0.0033158431760966778
1761378783221945900,3.73794580078125,0.013557407073676586,-0.002369435504078865,-0.003870579646900296
1761378783232001800,3.748001708984375,0.010577377863228321,-0.002405793173238635,-0.0020510214380919933
1761378783242057700,3.7580576171875,0.00036335643380880356,-0.001872894586995244,-0.0012320997193455696
1761378783252112600,3.768112548828125,-0.010198868811130524,-0.008244440890848637,-0.010722371749579906
1761378783262168600,3.77816845703125,-0.00794743187725544,-0.00694029126316309,-0.01333546545356512
1761378783272223700,3.7882236328125,-0.002102512866258621,-0.005303173791617155,-0.016325917094945908
1761378783282279700,3.79827978515625,0.0013785050250589848,0.003280194476246834,-0.011756732128560543
1761378783292335900,3.8083359375,0.0011111968196928501,0.00541654834523797,0.0002987184561789036
1761378783302390800,3.818390869140625,-0.00580849451944232,0.003811726812273264,0.012143127620220184
1761378783312446700,3.82844677734375,-0.004026913084089756,-0.002603793516755104,0.013743567280471325
1761378783322501600,3.838501708984375,-0.010099452920258045,-0.006415575742721558,0.008685159496963024
1761378783332557600,3.8485576171875,-0.009001881815493107,-0.01277350913733244,-0.004808088764548302
1761378783342613800,3.85861376953125,-0.00129016675055027,-0.013582311570644379,-0.027163993567228317
1761378783352668700,3.868668701171875,0.007221926935017109,-0.013245217502117157,-0.042775362730026245
1761378783362724900,3.878724853515625,0.01659492217004299,-0.016556059941649437,-0.044995903968811035
1761378783372779500,3.888779541015625,0.020308345556259155,-0.013920562341809273,-0.031927112489938736
1761378783382835700,3.898835693359375,0.019159723073244095,-0.00972288753837347,-0.00872325710952282
1761378783392890600,3.908890625,0.008771238848567009,-0.004533686209470034,0.007269205991178751
1761378783402946800,3.91894677734375,0.0015024072490632534,-0.0021421676501631737,0.011181922629475594
1761378783413002800,3.929002685546875,-0.005882071331143379,0.0017994767986238003,0.001589966006577015
1761378783423058000,3.939057861328125,-0.013849982060492039,0.009917857125401497,-0.01886870339512825
1761378783433113900,3.94911376953125,-0.02005906030535698,0.0159462857991457,-0.03332708030939102
1761378783443168800,3.959168701171875,-0.013021125458180904,0.01967604272067547,-0.02983514592051506
1761378783453224700,3.969224609375,-0.0024094637483358383,0.02212095633149147,-0.022035866975784302
1761378783463280600,3.97928076171875,0.008886866271495819,0.016081172972917557,-0.0060899225063622
1761378783473335800,3.989335693359375,0.01330749224871397,0.010958683677017689,0.0015543228946626186
1761378783483391700,3.999391845703125,0.0025919973850250244,0.014432511292397976,0.007985323667526245
1761378783493447000,4.009447021484375,-0.008768420666456223,0.0151792261749506,0.004254496190696955
1761378783503502600,4.019502685546875,-0.006839760113507509,0.016106272116303444,-0.0011256220750510693
1761378783513558500,4.02955859375,-0.00784587673842907,0.014155076816678047,-0.003907260484993458
1761378783523613700,4.03961376953125,-0.01669902354478836,0.018794836476445198,-0.004202605225145817
1761378783533669600,4.049669677734375,-0.0223117433488369,0.02329164743423462,-0.005683013238012791
1761378783543724800,4.059724853515625,-0.018254950642585754,0.02535320073366165,-0.002389748115092516
1761378783553780700,4.06978076171875,-0.009960206225514412,0.017024531960487366,0.005060227587819099
1761378783563837000,4.0798369140625,0.0024218950420618057,0.014839939773082733,0.01426650956273079
1761378783573891600,4.0898916015625,0.0003322642296552658,0.012537011876702309,0.016315339133143425
1761378783583947800,4.09994775390625,-0.006408995483070612,0.013981243595480919,0.013521682471036911
1761378783594002700,4.110002685546875,-0.006277724634855986,0.006419491488486528,0.003957243636250496
1761378783604058600,4.12005859375,-0.008493475615978241,-0.0004820902831852436,-0.009080260992050171
1761378783614114800,4.13011474609375,-0.013509896583855152,0.0007371418178081512,-0.017231926321983337
1761378783624169700,4.140169677734375,-0.017589859664440155,0.0076989117078483105,-0.01718159019947052
1761378783634225700,4.1502255859375,-0.022300513461232185,0.015334758907556534,-0.007198177743703127
1761378783644280600,4.160280517578125,-0.01812893897294998,0.01603037677705288,0.0031527304090559483
1761378783654336800,4.170336669921875,-0.01356645580381155,0.016179144382476807,0.006668728310614824
1761378783664392700,4.180392822265625,-0.0064824484288692474,0.009154258295893669,0.006495888810604811
1761378783674448000,4.19044775390625,0.0023154551163315773,0.013851447962224483,0.0013331444934010506
1761378783684503800,4.20050390625,-0.0008441195823252201,0.013747851364314556,0.0007472489960491657
1761378783694555400,4.210555419921875,-0.008991173468530178,0.015423741191625595,-0.00308264815248549
1761378783704611300,4.220611328125,-0.016663741320371628,0.021326372399926186,-0.0046105035580694675
1761378783714666200,4.230666259765625,-0.015034144744277,0.029733572155237198,-0.0033840476535260677
1761378783724722200,4.24072216796875,-0.016866665333509445,0.03696538507938385,-0.004333198070526123
1761378783734778000,4.250778076171875,-0.014386335387825966,0.032801467925310135,-0.004149608314037323
1761378783744833300,4.260833251953125,-0.008965203538537025,0.021474508568644524,-0.007528094574809074
1761378783754889200,4.27088916015625,-0.010625271126627922,0.015738792717456818,-0.0117883812636137
1761378783764944400,4.2809443359375,-0.01067986711859703,0.013141942210495472,-0.01036518719047308
1761378783775000000,4.291,-0.009330459870398045,0.015110554173588753,-0.0013441364280879498
1761378783785056000,4.301055908203125,-0.008741102181375027,0.014988580718636513,0.015600491315126419
1761378783795111200,4.311111083984375,-0.007185235153883696,0.01376019325107336,0.022892046719789505
1761378783805167000,4.3211669921875,-0.009165827184915543,0.006729448214173317,0.016706056892871857
1761378783815222300,4.33122216796875,-0.013931723311543465,0.0063553438521921635,0.0066935219801962376
1761378783825278200,4.3412783203125,-0.01612616889178753,0.005107386503368616,-0.008583967573940754
1761378783835334400,4.35133447265625,-0.016949255019426346,0.006480182986706495,-0.020326828584074974
1761378783845389000,4.36138916015625,-0.01119496300816536,0.0015860921703279018,-0.03227616846561432
1761378783855445200,4.3714453125,0.0009590755216777325,-0.0019233585335314274,-0.0329420380294323
1761378783865500200,4.381500244140625,0.005344236269593239,-0.010639884509146214,-0.03765077143907547
1761378783875556400,4.391556396484375,0.007994219660758972,-0.009592130780220032,-0.045081354677677155
1761378783885612300,4.4016123046875,0.004798692651093006,-0.004938523750752211,-0.04710722342133522
1761378783895667200,4.411667236328125,-0.0011887233704328537,0.003807760775089264,-0.045175518840551376
1761378783905723100,4.42172314453125,-0.009039722383022308,0.008064290508627892,-0.040589556097984314
1761378783915778000,4.431778076171875,-0.013570919632911682,0.017816821113228798,-0.029395217075943947
1761378783925835000,4.4418349609375,-0.015631141141057014,0.008245154283940792,-0.013670316897332668
1761378783935891200,4.45189111328125,-0.01703609712421894,-0.0031018415465950966,-0.0017989124171435833
1761378783945946000,4.461946044921875,-0.009271649643778801,-0.011487603187561035,0.0030480409041047096
1761378783956002300,4.472002197265625,0.005975424312055111,-0.02179373800754547,0.0026957266964018345
1761378783966057200,4.48205712890625,0.018743418157100677,-0.017531082034111023,-0.011962578631937504
1761378783976113400,4.492113525390625,0.02929341420531273,-0.007057203911244869,-0.02045515924692154
1761378783986169000,4.502169189453125,0.03333023190498352,0.0018380200490355492,-0.024992123246192932
1761378783996224300,4.512224365234375,0.035062141716480255,0.006480143405497074,-0.024222489446401596
1761378784006280200,4.5222802734375,0.028444450348615646,0.007714251987636089,-0.013676371425390244
1761378784016335400,4.53233544921875,0.01794913411140442,0.00391914788633585,-0.005606509745121002
1761378784026391300,4.542391357421875,0.0010138275101780891,-0.000022596213966608047,0.0077527048997581005
1761378784036447200,4.552447265625,-0.0074857990257442,-0.004193838220089674,0.013232719153165817
1761378784046502100,4.562502197265625,-0.008290871977806091,-0.005178408697247505,0.011466510593891144
1761378784056558000,4.57255810546875,-0.0034274617210030556,-0.0013546098489314318,0.011144822463393211
1761378784066613200,4.58261328125,0.006928240414708853,-0.004072898533195257,0.009905653074383736
1761378784076669200,4.592669189453125,0.014776482246816158,-0.01117045246064663,0.007390303071588278
1761378784086725000,4.60272509765625,0.023991817608475685,-0.012367276474833488,0.0035188659094274044
1761378784096780300,4.6127802734375,0.02274567075073719,-0.018033120781183243,-0.0022734878584742546
1761378784106836200,4.622836181640625,0.015191348269581795,-0.020289616659283638,-0.004831720143556595
1761378784116891100,4.63289111328125,0.003709927899762988,-0.017245890572667122,-0.01220361702144146
1761378784126947000,4.642947021484375,-0.0071001360192894936,-0.007422151044011116,-0.019566137343645096
1761378784137003300,4.653003173828125,-0.013883075676858425,0.001543340738862753,-0.023705478757619858
1761378784147058200,4.66305810546875,-0.015213324688374996,0.002059461083263159,-0.02828425168991089
1761378784157114400,4.6731142578125,-0.006204872392117977,0.010322019457817078,-0.035834938287734985
1761378784167169000,4.6831689453125,0.0036565468180924654,0.010952922515571117,-0.04060359299182892
1761378784177225200,4.69322509765625,0.0159210916608572,0.011301036924123764,-0.030134310945868492
1761378784187281200,4.70328125,0.025460535660386086,0.002903290092945099,-0.007896915078163147
1761378784197336300,4.71333642578125,0.02658943086862564,-0.007613771129399538,0.02288234233856201
1761378784207392300,4.723392333984375,0.024164889007806778,-0.01706266775727272,0.043242741376161575
1761378784217447200,4.733447265625,0.027355335652828217,-0.018530599772930145,0.04910155385732651
1761378784227503400,4.74350341796875,0.020365869626402855,-0.022417215630412102,0.0397954024374485
1761378784237559300,4.753559326171875,0.007716812193393707,-0.016548343002796173,0.020558901131153107
1761378784247614200,4.7636142578125,-0.00019064592197537422,-0.015652723610401154,-0.0019432124681770802
1761378784257670100,4.773670166015625,-0.002275773324072361,-0.00839061476290226,-0.024451885372400284
1761378784267725300,4.783725341796875,0.003512074938043952,-0.01224447600543499,-0.029860764741897583
1761378784277781200,4.79378125,0.011429738253355026,-0.013091528788208961,-0.01649630069732666
1761378784287837200,4.803837158203125,0.0177020151168108,-0.011276850476861,0.003880077041685581
1761378784297892000,4.81389208984375,0.023310966789722443,-0.01600242406129837,0.023841209709644318
1761378784307948000,4.823947998046875,0.019608642905950546,-0.01823042333126068,0.027182944118976593
1761378784318003200,4.834003173828125,0.013209955766797066,-0.026714226230978966,0.01642589643597603
1761378784328059100,4.84405908203125,0.000033167656511068344,-0.02120840735733509,-0.0022750855423510075
1761378784338115300,4.854115234375,-0.007787429261952639,-0.015028011985123158,-0.015452656894922256
1761378784348170200,4.864170166015625,-0.010653790086507797,-0.0052179922349750996,-0.019794940948486328
1761378784358226200,4.87422607421875,-0.0011286498047411442,0.002450385130941868,-0.015492059290409088
1761378784368281000,4.884281005859375,0.009706420823931694,-0.0027678124606609344,-0.0026734669227153063
1761378784378337000,4.8943369140625,0.023431051522493362,0.00019508367404341698,0.013226348906755447
1761378784388393200,4.904393310546875,0.030897755175828934,0.0005034776404500008,0.029476426541805267
1761378784398448000,4.9144482421875,0.03042885661125183,-0.003836843417957425,0.039627786725759506
1761378784408504300,4.92450439453125,0.024989882484078407,0.002859941218048334,0.04495091363787651
1761378784418559200,4.934559326171875,0.016768664121627808,0.008737808093428612,0.04247415438294411
1761378784428615200,4.944615234375,0.010084662586450577,0.011878207325935364,0.03375842794775963
1761378784438671000,4.954671142578125,0.004706748761236668,0.013139447197318077,0.023524019867181778
1761378784448726300,4.964726318359375,-0.0007045278325676918,0.014328548684716225,0.012515577487647533
1761378784458782200,4.9747822265625,0.002464569639414549,0.012887677177786827,0.0037630503065884113
1761378784468837400,4.98483740234375,0.004914944060146809,0.012712175026535988,-0.002621345454826951
1761378784478893300,4.994893310546875,0.01234058290719986,0.0016310601495206356,-0.007833129726350307
1761378784488949200,5.00494921875,0.01703546941280365,0.007495340891182423,-0.0051771593280136585
1761378784499004200,5.015004150390625,0.00945880264043808,0.004907385911792517,0.01632922887802124
1761378784509060000,5.02506005859375,0.006122926715761423,0.0031182742677628994,0.02992493286728859
1761378784519116300,5.0351162109375,0.0044280108995735645,-0.0008009059820324183,0.026935257017612457
1761378784529171200,5.045171142578125,-0.0016250875778496265,-0.006162648089230061,0.022973008453845978
1761378784539227100,5.05522705078125,-0.004346657078713179,-0.003981351386755705,0.00638505257666111
1761378784549282300,5.0652822265625,-0.004479548428207636,0.0004719863645732403,-0.010634677484631538
1761378784559338000,5.075337890625,-0.0016255667433142662,0.0038239071145653725,-0.025611860677599907
1761378784569394200,5.085394287109375,0.0019353460520505905,-0.0016094744205474854,-0.032835952937603
1761378784579449000,5.095448974609375,0.007793181575834751,-0.0049170879647135735,-0.03280184045433998
1761378784589505300,5.10550537109375,0.012079006060957909,-0.007748560979962349,-0.026145536452531815
1761378784599560200,5.115560302734375,0.010072357952594757,-0.009375650435686111,-0.013636761344969273
1761378784609616400,5.125616455078125,0.012730725109577179,-0.012564253993332386,0.000634586438536644
1761378784619672300,5.13567236328125,0.00793938897550106,-0.013638674281537533,0.010080111213028431
1761378784629727200,5.145727294921875,0.009530361741781235,-0.0110026765614748,0.011392784304916859
1761378784639783200,5.155783203125,0.008461027406156063,0.0036729713901877403,0.009892505593597889
1761378784649838300,5.16583837890625,0.0032998209353536367,0.015312050469219685,0.01194660272449255
1761378784659894300,5.175894287109375,0.00029685115441679955,0.021681400015950203,0.002393913920968771
1761378784669950200,5.1859501953125,-0.0006507015787065029,0.023428168147802353,-0.013609287329018116
1761378784680005400,5.19600537109375,0.008728227578103542,0.020271487534046173,-0.02372678369283676
1761378784690061000,5.20606103515625,0.018835723400115967,0.01240610796958208,-0.01738766022026539
1761378784700116200,5.2161162109375,0.019463397562503815,0.006859945133328438,-0.005795132368803024
1761378784710172200,5.226172119140625,0.012070197612047195,0.0011176369152963161,0.01968599297106266
1761378784720228000,5.23622802734375,0.011320901103317738,-0.0035698278807103634,0.03951336443424225
1761378784730283300,5.246283203125,0.016515929251909256,-0.005229243542999029,0.04529108852148056
1761378784740339200,5.256339111328125,0.009727850556373596,-0.005783481057733297,0.03396277874708176
1761378784750394000,5.26639404296875,0.005467059090733528,-0.008110551163554192,0.018558789044618607
1761378784760450000,5.276449951171875,-0.0033768704161047935,-0.01063569262623787,-0.0050948308780789375
1761378784770506200,5.28650634765625,-0.01571849174797535,-0.01159869134426117,-0.01585932821035385
1761378784780561200,5.29656103515625,-0.012522326782345772,-0.006065776105970144,-0.01625911146402359
1761378784790617300,5.306617431640625,-0.008464468643069267,-0.0007695476524531841,-0.012410045601427555
1761378784800672300,5.31667236328125,0.00016579311341047287,-0.0074097709730267525,0.00293139461427927
1761378784810728200,5.326728271484375,0.0035448118578642607,0.0008705295622348785,0.013865002430975437
1761378784820784000,5.3367841796875,0.0025219866074621677,0.0019291006028652191,0.013666058890521526
1761378784830839000,5.346839111328125,-0.004974545445293188,0.009280224330723286,0.012216500006616116
1761378784840895200,5.356895263671875,-0.013393713161349297,0.007022062316536903,0.0050291321240365505
1761378784850950100,5.3669501953125,-0.022539807483553886,0.001891749445348978,0.009885938838124275
1761378784861006300,5.37700634765625,-0.027147971093654633,-0.005278777796775103,0.010967988520860672
1761378784871062300,5.387062255859375,-0.017903871834278107,-0.012099932879209518,0.013229012489318848
1761378784881117200,5.3971171875,-0.0037823058664798737,-0.012609025463461876,0.0066540134139359
1761378784891173000,5.407173095703125,0.008647998794913292,-0.015152877196669579,0.002117318566888571
1761378784901229000,5.41722900390625,0.020532432943582535,-0.01127245556563139,-0.0001659938134253025
1761378784911284200,5.4272841796875,0.017696965485811234,-0.007727788295596838,0.0072525073774158955
1761378784921340200,5.437340087890625,0.01108834333717823,0.0029835794121026993,0.020599542185664177
1761378784931395300,5.447395263671875,-0.0014652656391263008,0.005874174647033215,0.032135024666786194
1761378784941451300,5.457451171875,-0.004016370978206396,0.0013592178001999855,0.036118265241384506
1761378784951506200,5.467506103515625,0.00021059811115264893,-0.005651021376252174,0.033464159816503525
1761378784961562000,5.47756201171875,0.0007347390055656433,-0.007408741395920515,0.023140519857406616
1761378784971618000,5.4876181640625,-0.003913541790097952,-0.004784196149557829,0.018266402184963226
1761378784981673200,5.497673095703125,-0.005314875394105911,0.0022398908622562885,0.005012789275497198
1761378784991729200,5.507729248046875,-0.005736188031733036,0.009980902075767517,-0.009254030883312225
1761378785001785300,5.517785400390625,-0.008322424255311489,0.02051839791238308,-0.018581127747893333
1761378785011840000,5.527840087890625,-0.009029227308928967,0.021711494773626328,-0.016057517379522324
1761378785021896200,5.537896240234375,-0.000994823407381773,0.011622274294495583,-0.002379977609962225
1761378785031951000,5.547951171875,-0.001771401148289442,-0.0007201454136520624,0.018290946260094643
1761378785042007300,5.55800732421875,-0.0053054275922477245,-0.009864775463938713,0.03603232279419899
1761378785052063200,5.568063232421875,0.000017698854207992554,-0.01252793613821268,0.040082722902297974
1761378785062118400,5.578118408203125,-0.0064501576125621796,-0.011257007718086243,0.0370829813182354
1761378785072174300,5.58817431640625,-0.015140585601329803,-0.014697013422846794,0.035052590072155
1761378785082229200,5.598229248046875,-0.011034993454813957,-0.007750323973596096,0.018975665792822838
1761378785092285200,5.60828515625,-0.006877531763166189,0.0015385155566036701,0.0045461272820830345
1761378785102341000,5.618341064453125,-0.0027878182008862495,0.005911761429160833,-0.005175166763365269
1761378785112396300,5.628396240234375,0.006718601565808058,-0.002442308934405446,-0.009536359459161758
1761378785122452200,5.6384521484375,0.01759771816432476,0.0010194657370448112,-0.00367318675853312
1761378785132507400,5.64850732421875,0.007052665110677481,0.004815269261598587,0.01099337451159954
1761378785142563000,5.65856298828125,-0.008747296407818794,0.01728135719895363,0.04120151698589325
1761378785152619000,5.668618896484375,-0.02341359108686447,-0.0023567916359752417,0.058985307812690735
1761378785162674200,5.678674072265625,-0.019028887152671814,-0.0030404580757021904,0.0682433694601059
1761378785172730000,5.688730224609375,-0.020406806841492653,-0.01172822155058384,0.07032276690006256
1761378785182785300,5.698785400390625,-0.01971558853983879,-0.010185785591602325,0.05198673903942108
1761378785192841200,5.70884130859375,-0.002708375919610262,-0.011344527825713158,0.010775918141007423
1761378785202897400,5.7188974609375,0.018887104466557503,-0.019853390753269196,-0.03554752469062805
1761378785212952000,5.7289521484375,0.036470361053943634,-0.031585946679115295,-0.07061123847961426
1761378785223008300,5.73900830078125,0.039956234395504,-0.039880260825157166,-0.07079175114631653
1761378785233064200,5.749064208984375,0.030060725286602974,-0.03724346682429314,-0.053497180342674255
1761378785243119400,5.759119384765625,0.0123832356184721,-0.017687777057290077,-0.01944822445511818
1761378785253175300,5.76917529296875,-0.013673130422830582,0.00014847749844193459,0.017168641090393066
1761378785263230200,5.779230224609375,-0.02713920548558235,0.017084218561649323,0.03994474187493324
1761378785273286100,5.7892861328125,-0.03646186739206314,0.020726623013615608,0.04901041090488434
1761378785283342000,5.799342041015625,-0.0255441814661026,0.030976032838225365,0.03645811229944229
1761378785293397200,5.809397216796875,-0.009885327890515327,0.010277144610881805,0.0035275928676128387
