time,seconds_elapsed,z,y,x
1761378779552918300,0.068918212890625,0.000707868195604533,0.02050873637199402,-0.002588059986010194
1761378779562974000,0.078973876953125,0.016266854479908943,0.026383403688669205,0.014985873363912106
1761378779573029000,0.089029052734375,0.02472185716032982,0.026520824059844017,0.027689950540661812
1761378779583085000,0.0990849609375,0.022052571177482605,0.016270317137241364,0.03774311766028404
1761378779593140200,0.10914013671875,0.008382831700146198,0.003907656297087669,0.034158769994974136
1761378779603196200,0.119196044921875,-0.0006980145117267966,0.0005526058957912028,0.01326760184019804
1761378779613251000,0.1292509765625,-0.019032280892133713,-0.0007057376787997782,-0.004067978356033564
1761378779623307000,0.13930712890625,-0.03474040329456329,-0.0014029532903805375,-0.019933227449655533
1761378779633362200,0.149362060546875,-0.03636173531413078,-0.0004926847759634256,-0.02094176784157753
1761378779643418000,0.159418212890625,-0.03670688346028328,0.0028330706991255283,-0.009275790303945541
1761378779653474000,0.16947412109375,-0.020860008895397186,0.0070608388632535934,0.007435279432684183
1761378779663529200,0.179529296875,-0.006627808790653944,0.015752065926790237,0.030607976019382477
1761378779673585200,0.189585205078125,0.000969656917732209,0.01703384518623352,0.046610645949840546
1761378779683640000,0.19964013671875,0.0005542038124985993,0.0122468126937747,0.05718099698424339
1761378779693698800,0.20969873046875,0.000041278995922766626,0.005902363918721676,0.06042898818850517
1761378779703754000,0.21975390625,0.0008655273704789579,0.0015808524331077933,0.0556587353348732
1761378779713810000,0.229809814453125,-0.008900550194084644,-0.0073045180179178715,0.04836460202932358
1761378779723864800,0.23986474609375,-0.01119220070540905,-0.010223076678812504,0.030818631872534752
1761378779733920800,0.249920654296875,-0.010421748273074627,0.00001757686368364375,0.020620590075850487
1761378779743976700,0.259976806640625,-0.013114203698933125,0.01507082860916853,0.012680375017225742
1761378779754031900,0.270031982421875,-0.008773517794907093,0.016814133152365685,0.00878923013806343
1761378779764087800,0.280087890625,0.0024109596852213144,0.028872661292552948,0.007686415687203407
1761378779774143000,0.29014306640625,0.006474943365901709,0.03346714749932289,0.010045443661510944
1761378779784198700,0.30019873046875,0.005711948033422232,0.02889156900346279,0.013832991011440754
1761378779794253800,0.31025390625,-0.003002181416377425,0.029261216521263123,0.03506317734718323
1761378779804309800,0.320309814453125,-0.012175706215202808,0.017678596079349518,0.05630375072360039
1761378779814366000,0.330365966796875,-0.02052817866206169,0.01053493283689022,0.06699474900960922
1761378779824420900,0.3404208984375,-0.028494225814938545,0.004221110139042139,0.06296298652887344
1761378779834477000,0.35047705078125,-0.027961326763033867,0.00872105360031128,0.051902078092098236
1761378779844531700,0.36053173828125,-0.02774401381611824,0.015718242153525352,0.03122103586792946
1761378779854588000,0.370587890625,-0.021018465980887413,0.02672615274786949,0.022372949868440628
1761378779864642800,0.380642822265625,-0.016443422064185143,0.02985137328505516,0.016752881929278374
1761378779874698800,0.39069873046875,-0.01811562106013298,0.02924443781375885,0.024778850376605988
1761378779884754000,0.40075390625,-0.011996475048363209,0.025957563892006874,0.028507009148597717
1761378779894809900,0.410809814453125,-0.017911355942487717,0.019030416384339333,0.027486220002174377
1761378779904866000,0.420865966796875,-0.02394022047519684,0.01203855313360691,0.012416455894708633
1761378779914920700,0.430920654296875,-0.02689739502966404,0.006262423470616341,-0.0028639633674174547
1761378779924977000,0.440976806640625,-0.03545466437935829,0.0010359697043895721,-0.011919509619474411
1761378779935031800,0.45103173828125,-0.03454972058534622,0.0006122607155703008,-0.009729326702654362
1761378779945088000,0.461087890625,-0.03194381669163704,0.0006825681775808334,-0.00047404266661033034
1761378779955143000,0.471142822265625,-0.0270108450204134,0.00037523938226513565,0.006099704187363386
1761378779965199000,0.48119921875,-0.015728363767266273,0.0007542071980424225,0.0023409186396747828
1761378779975253800,0.491253662109375,-0.009752496145665646,0.015177088789641857,-0.006460828706622124
1761378779985310000,0.50131005859375,-0.010362892411649227,0.034087661653757095,-0.008680840022861958
1761378779995366000,0.511365966796875,-0.014519554562866688,0.04144357889890671,0.0169688630849123
1761378780005420800,0.5214208984375,-0.013647102750837803,0.05259423702955246,0.04477492719888687
1761378780015477000,0.53147705078125,-0.018579009920358658,0.04632275551557541,0.07252906262874603
1761378780025531600,0.54153173828125,-0.015720905736088753,0.025486184284090996,0.0944087952375412
1761378780035587800,0.551587890625,-0.015089737251400948,0.006136988289654255,0.10015669465065002
1761378780045642800,0.561642822265625,-0.010991664603352547,-0.007283479440957308,0.08722198754549026
1761378780055699000,0.571698974609375,-0.016700150445103645,-0.011244931258261204,0.0585906095802784
1761378780065755000,0.5817548828125,-0.02070501260459423,-0.007387076038867235,0.020301543176174164
1761378780075810000,0.59181005859375,-0.01919633150100708,0.00625975988805294,-0.014962171204388142
1761378780085866000,0.601865966796875,-0.012504872865974903,0.020419254899024963,-0.028081435710191727
1761378780095921000,0.6119208984375,-0.00936047825962305,0.03008865937590599,-0.016699617728590965
1761378780105976800,0.621976806640625,-0.009045160375535488,0.038962047547101974,0.012165320105850697
1761378780116032000,0.632031982421875,-0.007503456436097622,0.03491510823369026,0.04498851299285889
1761378780126088000,0.642087890625,-0.00523683987557888,0.027185281738638878,0.06332118064165115
1761378780136142800,0.652142822265625,-0.0044072652235627174,0.010460630059242249,0.05594608932733536
1761378780146199000,0.662198974609375,-0.009770872071385384,-0.004671717062592506,0.03026496060192585
1761378780156254700,0.672254638671875,-0.01444285549223423,-0.007610781583935022,-0.0036458675749599934
1761378780166310000,0.682309814453125,-0.017854364588856697,-0.002532133599743247,-0.02798689343035221
1761378780176365800,0.69236572265625,-0.019647205248475075,0.010990599170327187,-0.026698987931013107
1761378780186421000,0.7024208984375,-0.00860227644443512,0.02142379991710186,-0.012400210835039616
1761378780196477000,0.712476806640625,0.0051505533047020435,0.016039153560996056,0.01618429645895958
1761378780206531800,0.72253173828125,0.015196530148386955,0.012548016384243965,0.03377633914351463
1761378780216587800,0.732587890625,0.015177621506154537,-0.0013920343481004238,0.03290388733148575
1761378780226643700,0.742643798828125,0.011244398541748524,-0.012182097882032394,0.015559785068035126
1761378780236699000,0.752698974609375,0.009471798315644264,-0.0190192312002182,-0.017043698579072952
1761378780246754800,0.7627548828125,0.005568669643253088,-0.022479476407170296,-0.05102936178445816
1761378780256810000,0.77281005859375,0.0015816513914614916,-0.018247181549668312,-0.07405958324670792
1761378780266866000,0.782865966796875,0.0009885653853416443,-0.007930893450975418,-0.06851807236671448
1761378780276920800,0.7929208984375,-0.0009134642314165831,0.003736414946615696,-0.036671727895736694
1761378780286976800,0.802976806640625,0.0031377363484352827,0.014033527113497257,-0.0007038734620437026
1761378780297033000,0.813032958984375,0.009444101713597775,0.007924768142402172,0.0259248074144125
1761378780307088000,0.823087890625,0.023002255707979202,-0.00105354655534029,0.0355428121984005
1761378780317143800,0.833143798828125,0.0234089195728302,-0.016023973003029823,0.01889193244278431
1761378780327199000,0.843198974609375,0.018455972895026207,-0.0333278626203537,0.0013140037190169096
1761378780337254700,0.853254638671875,-0.0001371527905575931,-0.031086280941963196,-0.011685684323310852
1761378780347309800,0.863309814453125,-0.018971826881170273,-0.018914569169282913,-0.013393037021160126
1761378780357365800,0.87336572265625,-0.027303792536258698,-0.0013350426452234387,-0.010311227291822433
1761378780367422000,0.883421875,-0.026326145976781845,0.007187871728092432,0.0027206854429095984
1761378780377476900,0.893476806640625,-0.022339127957820892,0.01842081919312477,0.020107930526137352
1761378780387533000,0.903532958984375,-0.013932593166828156,0.020308732986450195,0.04554032161831856
1761378780397587700,0.913587646484375,-0.0026144252624362707,0.014840198680758476,0.06883605569601059
1761378780407644000,0.923643798828125,0.00518757151439786,0.002621882129460573,0.08357532322406769
1761378780417698800,0.93369873046875,0.01044438499957323,-0.00820839498192072,0.08625419437885284
1761378780427754800,0.943754638671875,0.016388028860092163,-0.02754933573305607,0.06795401871204376
1761378780437810000,0.953809814453125,0.02159610576927662,-0.028420722112059593,0.03208310157060623
1761378780447865900,0.963865966796875,0.01131284236907959,-0.011142665520310402,-0.00049082055920735
1761378780457922000,0.973922119140625,0.007241401355713606,0.006362291984260082,-0.015795741230249405
1761378780467976700,0.983976806640625,0.004250138532370329,0.025469673797488213,0.0003510046226438135
1761378780478033000,0.994032958984375,0.0033920682035386562,0.03550366684794426,0.04296956956386566
1761378780488087800,1.004087890625,0.0059633501805365086,0.027763720601797104,0.09176773577928543
1761378780498144000,1.01414404296875,0.013745639473199844,0.014095312915742397,0.11714553087949753
1761378780508199000,1.024198974609375,0.016647685319185257,-0.0017267935909330845,0.1162741482257843
1761378780518255000,1.034255126953125,0.0206938274204731,-0.01782240718603134,0.08581956475973129
1761378780528310800,1.044310791015625,0.017429057508707047,-0.021449098363518715,0.042875561863183975
1761378780538366000,1.054365966796875,0.004829908721148968,-0.013528858311474323,0.006105296779423952
1761378780548422000,1.064421875,-0.009062737226486206,-0.002481533447280526,-0.015507320873439312
1761378780558476800,1.074476806640625,-0.0206911638379097,0.007394799496978521,-0.01534673199057579
1761378780568533000,1.084532958984375,-0.023071497678756714,0.01732306368649006,0.0021587584633380175
1761378780578587600,1.094587646484375,-0.025120534002780914,0.02592400833964348,0.02816372737288475
1761378780588643800,1.104643798828125,-0.027790885418653488,0.03393160179257393,0.04814595729112625
1761378780598699800,1.11469970703125,-0.02635544165968895,0.03627784550189972,0.058457981795072556
1761378780608755000,1.1247548828125,-0.022962840273976326,0.034632012248039246,0.06552255153656006
1761378780618811000,1.134810791015625,-0.01763838157057762,0.014695589430630207,0.06950477510690689
1761378780628866000,1.144865966796875,-0.015061773359775543,-0.007633951026946306,0.07254903763532639
1761378780638922000,1.154921875,-0.01576671190559864,-0.025974342599511147,0.06811700016260147
1761378780648977000,1.164976806640625,-0.015624233521521091,-0.03154780715703964,0.04770440608263016
1761378780659032800,1.17503271484375,-0.01950339414179325,-0.03409538418054581,0.010773018933832645
1761378780669088800,1.1850888671875,-0.01318158209323883,-0.01998915523290634,-0.023849407210946083
1761378780679144000,1.19514404296875,-0.011422031559050083,-0.00535455159842968,-0.037205424159765244
1761378780689196300,1.2051962890625,-0.01239062286913395,0.007985488511621952,-0.021222198382019997
1761378780699251500,1.21525146484375,-0.015966448932886124,0.0217758696526289,0.009622001089155674
1761378780709307400,1.225307373046875,-0.017717212438583374,0.028059331700205803,0.04008270427584648
1761378780719362300,1.2353623046875,-0.017619473859667778,0.02937226928770542,0.0652407854795456
1761378780729418200,1.245418212890625,-0.021566543728113174,0.018313759937882423,0.07899095863103867
1761378780739474200,1.25547412109375,-0.01395576260983944,0.00851359311491251,0.07095220685005188
1761378780749529300,1.265529296875,0.0006823018775321543,-0.007321562618017197,0.052379585802555084
1761378780759585300,1.275585205078125,0.008518120273947716,-0.016569389030337334,0.02810593694448471
1761378780769640400,1.285640380859375,0.008472047746181488,-0.015324095264077187,0.007441671099513769
1761378780779696000,1.295696044921875,0.006710366811603308,-0.0126995500177145,-0.007436344865709543
1761378780789751300,1.305751220703125,0.0014053500490263104,-0.000818123109638691,-0.010764230974018574
1761378780799807200,1.31580712890625,-0.01179167814552784,0.006417152937501669,0.00523710623383522
1761378780809863400,1.325863525390625,-0.019221099093556404,0.018799254670739174,0.031063111498951912
1761378780819918300,1.33591845703125,-0.017498033121228218,0.026325080543756485,0.04862053319811821
1761378780829974500,1.345974609375,-0.016464460641145706,0.03141411393880844,0.057369016110897064
1761378780840029200,1.356029296875,-0.015292136929929256,0.028500083833932877,0.0457318015396595
1761378780850085400,1.36608544921875,-0.0016042882343754172,0.016338760033249855,0.019759323447942734
1761378780860141300,1.376141357421875,0.0016085492679849267,-0.002525475574657321,-0.009922405704855919
1761378780870196200,1.3861962890625,0.0038032603915780783,-0.01997237652540207,-0.02839355729520321
1761378780880252400,1.39625244140625,0.002788063371554017,-0.021878933534026146,-0.03237311914563179
1761378780890307300,1.406307373046875,-0.0003073287953156978,-0.015622369013726711,-0.030940605327486992
1761378780900363500,1.416363525390625,-0.004188353195786476,-0.017900703474879265,-0.03105485439300537
1761378780910418200,1.426418212890625,-0.0030623688362538815,-0.018026670441031456,-0.04014768451452255
1761378780920474400,1.436474365234375,-0.0037089844699949026,-0.015054849907755852,-0.04932147637009621
1761378780930529300,1.446529296875,-0.004511395003646612,-0.008014516904950142,-0.05994535982608795
1761378780940585500,1.45658544921875,-0.004653607495129108,-0.0013859090395271778,-0.0650668814778328
1761378780950641400,1.466641357421875,-0.0024583640042692423,0.008864598348736763,-0.07021983712911606
1761378780960696300,1.4766962890625,-0.0006330333999358118,0.002284725895151496,-0.06727278232574463
1761378780970752300,1.486752197265625,0.005527656991034746,0.002180596347898245,-0.05445285513997078
1761378780980807400,1.496807373046875,0.007370298262685537,-0.000568318588193506,-0.022898390889167786
1761378780990863400,1.50686328125,0.0021885856986045837,-0.004807538352906704,0.01894279755651951
1761378781000919300,1.516919189453125,-0.0022972426377236843,0.0005483448621816933,0.06065349280834198
1761378781010974500,1.526974365234375,-0.008887501433491707,-0.00032676986302249134,0.07382974773645401
1761378781021030400,1.537030517578125,-0.00950721837580204,-0.001336107961833477,0.05795358121395111
1761378781031085300,1.547085205078125,-0.01104732509702444,0.002656503114849329,0.023551132529973984
1761378781041141200,1.557141357421875,-0.012506204657256603,0.005939914379268885,-0.014010890386998653
1761378781051196400,1.567196533203125,-0.0133275231346488,0.01606658473610878,-0.044075582176446915
1761378781061252400,1.57725244140625,-0.013630591332912445,0.01894945651292801,-0.05369571968913078
1761378781071308300,1.587308349609375,-0.009296296164393425,0.03159121423959732,-0.04655897989869118
1761378781081363500,1.597363525390625,0.0006838997360318899,0.022355638444423676,-0.018862104043364525
1761378781091419100,1.607419189453125,0.010506968945264816,0.019029350951313972,0.01667165383696556
1761378781101474300,1.617474365234375,0.011512579396367073,0.009429721161723137,0.046551790088415146
1761378781111530200,1.6275302734375,0.01016794890165329,-0.002638926263898611,0.06998094916343689
1761378781121585400,1.63758544921875,0.005029646214097738,-0.011238805949687958,0.07852783054113388
1761378781131641300,1.647641357421875,0.002686330582946539,-0.015208513475954533,0.06444157660007477
1761378781141697300,1.657697265625,-0.0029060414526611567,-0.013073457404971123,0.036368392407894135
1761378781151752200,1.667752197265625,-0.010727479122579098,-0.0017012272728607059,0.006250971462577581
1761378781161808100,1.67780810546875,-0.015512647107243538,0.011952533386647701,-0.012805810198187828
1761378781171863300,1.68786328125,-0.016163790598511696,0.027340011671185493,-0.018637333065271378
1761378781181919200,1.697919189453125,-0.013043896295130253,0.029802104458212852,-0.0026325348298996687
1761378781191974400,1.707974365234375,-0.004126035608351231,0.01894439570605755,0.012348279356956482
1761378781202030300,1.7180302734375,0.007396130822598934,0.010358365252614021,0.02418096922338009
1761378781212086500,1.72808642578125,0.005601692944765091,0.0012434299569576979,0.025620408356189728
1761378781222141200,1.73814111328125,0.006268814671784639,-0.010040117427706718,0.01601385325193405
1761378781232197400,1.748197265625,0.010478473268449306,-0.01152802538126707,-0.006581203546375036
1761378781242252300,1.758252197265625,0.006102633662521839,-0.010830809362232685,-0.02641003578901291
1761378781252308500,1.76830859375,-0.0079761678352952,-0.005264270585030317,-0.03867468982934952
1761378781262364400,1.778364501953125,-0.014034858904778957,-0.0024980450980365276,-0.040277913212776184
1761378781272419300,1.78841943359375,-0.01091709639877081,-0.0017331852577626705,-0.04091627523303032
1761378781282475300,1.798475341796875,-0.0013606089632958174,0.0037997981999069452,-0.03549647331237793
1761378781292530200,1.8085302734375,0.002019474981352687,0.00957006961107254,-0.03978949040174484
1761378781302586400,1.81858642578125,0.0086590014398098,0.013303288258612156,-0.04597415030002594
1761378781312641300,1.828641357421875,0.008109591901302338,0.024223048239946365,-0.051118843257427216
1761378781322697500,1.838697509765625,0.0007185208378359675,0.03815137967467308,-0.049421876668930054
1761378781332753400,1.84875341796875,-0.002674079965800047,0.04362604022026062,-0.0426449328660965
1761378781342808300,1.858808349609375,-0.0004511394945438951,0.04472219571471214,-0.03159068152308464
1761378781352864300,1.8688642578125,-0.0035356127191334963,0.033476199954748154,-0.01269715279340744
1761378781362919400,1.87891943359375,-0.006893059704452753,0.020193684846162796,0.006101834587752819
1761378781372975400,1.888975341796875,-0.006473079323768616,-0.00129695946816355,0.0257548987865448
1761378781383030500,1.899030517578125,-0.002026133006438613,-0.012174907140433788,0.04219086468219757
1761378781393086500,1.90908642578125,-0.001276453142054379,-0.010097108781337738,0.05070685222744942
1761378781403142400,1.919142333984375,0.0002162486780434847,-0.004013383761048317,0.04481327906250954
1761378781413197300,1.929197265625,-0.00205276464112103,0.0027087011840194464,0.044437240809202194
1761378781423253200,1.939253173828125,-0.008075503632426262,0.007512777578085661,0.05626673623919487
1761378781433308400,1.949308349609375,-0.0052376389503479,0.008243815042078495,0.06747917830944061
1761378781443364400,1.9593642578125,-0.00029827404068782926,0.010921889916062355,0.06999319791793823
1761378781453419500,1.96941943359375,0.00242161238566041,0.004658135119825602,0.05838288366794586
1761378781463475200,1.97947509765625,-0.0013424995122477412,0.0022421153262257576,0.04740240424871445
1761378781473531100,1.98953125,-0.011923771351575851,0.001814411603845656,0.04316052049398422
1761378781483586300,1.99958642578125,-0.018494322896003723,0.009177785366773605,0.04645804688334465
1761378781493642200,2.009642333984375,-0.020592892542481422,0.01438240148127079,0.052925266325473785
1761378781503697400,2.019697509765625,-0.02586675062775612,0.02004667930305004,0.05697726458311081
1761378781513753300,2.02975341796875,-0.021073592826724052,0.0251623447984457,0.06071155145764351
1761378781523809500,2.0398095703125,-0.020804081112146378,0.014132596552371979,0.05547737330198288
1761378781533864200,2.0498642578125,-0.013431918807327747,0.010155165567994118,0.049051433801651
1761378781543920400,2.05992041015625,-0.003094060579314828,-0.007260842248797417,0.04068564251065254
1761378781553975300,2.069975341796875,-0.0023164174053817987,-0.025679796934127808,0.03597264736890793
1761378781564031500,2.080031494140625,-0.014810371212661266,-0.04018230736255646,0.032528381794691086
1761378781574086400,2.09008642578125,-0.026323748752474785,-0.04195410758256912,0.023798806592822075
1761378781584142300,2.100142333984375,-0.032032500952482224,-0.027104055508971214,0.01082947850227356
1761378781594198300,2.1101982421875,-0.027785824611783028,-0.015726765617728233,0.016100140288472176
1761378781604253200,2.120253173828125,-0.021564681082963943,-0.008500543422996998,0.025113342329859734
1761378781614309400,2.130309326171875,-0.008954878896474838,-0.00774633651599288,0.03326474502682686
1761378781624364300,2.1403642578125,0.001383245806209743,-0.009187639690935612,0.03767440840601921
1761378781634420500,2.15042041015625,0.010083526372909546,-0.019709788262844086,0.034758780151605606
1761378781644475100,2.16047509765625,0.00015819176041986793,-0.02135935053229332,0.027669444680213928
1761378781654531300,2.17053125,-0.008157795295119286,-0.024211330339312553,0.014870292507112026
1761378781664587300,2.180587158203125,-0.014759238809347153,-0.02166161872446537,0.0035004590172320604
1761378781674642400,2.190642333984375,-0.01787460409104824,-0.01817154698073864,-0.0035151063930243254
1761378781684698400,2.200698486328125,-0.02094869129359722,-0.01028672605752945,0.0005749764968641102
1761378781694753500,2.21075341796875,-0.015912121161818504,0.004761732183396816,0.011922173202037811
1761378781704809700,2.220809814453125,-0.010262757539749146,0.02147972583770752,0.027689684182405472
1761378781714865700,2.23086572265625,-0.0049345712177455425,0.027212712913751602,0.043124567717313766
1761378781724920800,2.2409208984375,0.0005757753970101476,0.026161296293139458,0.046909451484680176
1761378781734976800,2.250976806640625,0.008870723657310009,0.009828129783272743,0.04603087529540062
1761378781745031700,2.26103173828125,0.012205000966787338,-0.008171643130481243,0.03489087149500847
1761378781755087600,2.271087646484375,0.008404403924942017,-0.029340311884880066,0.018799521028995514
1761378781765142800,2.281142822265625,-0.005365204066038132,-0.029135514050722122,0.0007275756215676665
1761378781775198700,2.29119873046875,-0.024944230914115906,-0.020429907366633415,-0.006054696626961231
1761378781785254700,2.301254638671875,-0.02888038381934166,-0.0018761969404295087,0.00148151651956141
1761378781795309800,2.311309814453125,-0.030557110905647278,0.010979147627949715,0.011840147897601128
1761378781805365800,2.32136572265625,-0.022122079506516457,0.02694905921816826,0.019994214177131653
1761378781815420700,2.331420654296875,-0.018081000074744225,0.03491111099720001,0.020556939765810966
1761378781825476600,2.3414765625,-0.015536881983280182,0.031380292028188705,0.011409514583647251
1761378781835531800,2.35153173828125,-0.01038313191384077,0.02004481479525566,-0.007216367404907942
1761378781845587700,2.361587646484375,-0.005468268413096666,0.005635515321046114,-0.02257694862782955
1761378781855643600,2.3716435546875,-0.004397677723318338,-0.0076153092086315155,-0.033541981130838394
1761378781865698800,2.38169873046875,-0.00923131499439478,-0.01522635668516159,-0.02936614491045475
1761378781875754500,2.39175439453125,-0.009367136284708977,-0.015547268092632294,-0.01715848036110401
1761378781885809700,2.4018095703125,-0.01369424071162939,-0.00990163255482912,0.0023427826818078756
1761378781895865600,2.411865478515625,-0.01733877696096897,0.0027427896857261658,0.01968076080083847
1761378781905921800,2.421921875,-0.010366620495915413,0.013166402466595173,0.019808592274785042
1761378781915976700,2.431976806640625,0.000752875639591366,0.01647830940783024,0.01836196333169937
1761378781926033000,2.442032958984375,0.008333563804626465,0.015134477987885475,0.014782674610614777
1761378781936087600,2.452087646484375,0.011345066130161285,0.011037737131118774,0.007956193760037422
1761378781946143700,2.462143798828125,-0.0038863508962094784,0.014848987571895123,0.006271477788686752
1761378781956198700,2.47219873046875,-0.014553909189999104,0.01774810440838337,0.0051835766062140465
1761378781966254600,2.482254638671875,-0.02015400491654873,0.02100967802107334,0.011295264586806297
1761378781976310800,2.492310791015625,-0.0205681249499321,0.021206218749284744,0.016147278249263763
1761378781986365700,2.50236572265625,-0.0208261851221323,0.019047992303967476,0.018335863947868347
1761378781996422000,2.512421875,-0.02383529208600521,0.029643379151821136,0.019286878407001495
1761378782006476500,2.5224765625,-0.023092003539204597,0.035773176699876785,0.01714969240128994
1761378782016532700,2.53253271484375,-0.01438399963080883,0.03248710185289383,0.019697004929184914
1761378782026587600,2.542587646484375,-0.00509755639359355,0.03659156709909439,0.019961990416049957
1761378782036643800,2.552643798828125,-0.00029587719473056495,0.036792900413274765,0.026016419753432274
1761378782046699800,2.56269970703125,0.00221921200864017,0.03599688410758972,0.029977872967720032
1761378782056755000,2.5727548828125,0.000395745737478137,0.03177523985505104,0.030730215832591057
1761378782066810600,2.582810546875,-0.005589975044131279,0.02322729118168354,0.026803119108080864
1761378782076865800,2.59286572265625,-0.008856874890625477,0.011578092351555824,0.02617887407541275
1761378782086921700,2.602921630859375,-0.015918245539069176,0.009130647405982018,0.015154452063143253
1761378782096977700,2.612977783203125,-0.020668527111411095,0.011552792973816395,-0.004571315832436085
1761378782107032800,2.62303271484375,-0.02148398756980896,0.013042831793427467,-0.027834294363856316
1761378782117088800,2.6330888671875,-0.014877483248710632,0.019088739529252052,-0.043891556560993195
1761378782127143700,2.643143798828125,-0.012463327497243881,0.014997324906289577,-0.04977155104279518
1761378782137199600,2.65319970703125,-0.005763613153249025,0.009919475764036179,-0.043108321726322174
1761378782147254800,2.6632548828125,-0.000013848437447450124,0.008076302707195282,-0.0034202977549284697
1761378782157310700,2.673310791015625,0.012604475021362305,0.014172011986374855,0.05026263743638992
1761378782167366700,2.68336669921875,0.013485981151461601,0.015079882927238941,0.093825563788414
1761378782177421800,2.693421875,0.010007626377046108,0.0199247058480978,0.11043836176395416
1761378782187477800,2.703477783203125,-0.0010460896883159876,0.022162560373544693,0.0952487513422966
1761378782197532700,2.71353271484375,-0.01005263440310955,0.023975640535354614,0.05290635675191879
1761378782207588600,2.723588623046875,-0.011638013646006584,0.025139175355434418,0.005209675524383783
1761378782217644800,2.733644775390625,-0.009780725464224815,0.02321876958012581,-0.03272119536995888
1761378782227699700,2.74369970703125,-0.0018796591321006417,0.01672172173857689,-0.04174451529979706
1761378782237755600,2.753755615234375,0.005637113004922867,0.0128172617405653,-0.01474752090871334
1761378782247810600,2.763810546875,0.00506959343329072,0.008625978603959084,0.0272635780274868
1761378782257866500,2.773866455078125,0.004543885588645935,0.00669332267716527,0.07281108945608139
1761378782267921700,2.783921630859375,0.008647549897432327,-0.005597165785729885,0.098364919424057
1761378782277977600,2.7939775390625,0.012834305875003338,-0.014097709208726883,0.1069919615983963
1761378782288033800,2.80403369140625,0.004891428165137768,-0.02779834158718586,0.08723796904087067
1761378782298088700,2.814088623046875,-0.004012851044535637,-0.0277999397367239,0.04544178396463394
1761378782308145000,2.824144775390625,-0.014460698701441288,-0.02599831111729145,-0.004881574306637049
1761378782318199600,2.834199462890625,-0.01660187914967537,-0.015058311633765697,-0.049015481024980545
1761378782328255700,2.844255859375,-0.016390956938266754,-0.011923504993319511,-0.05428001657128334
1761378782338311700,2.854311767578125,-0.012523781508207321,-0.004794488660991192,-0.03514067828655243
1761378782348366800,2.864366943359375,-0.005359345115721226,-0.00047404266661033034,-0.0032346753869205713
1761378782358422800,2.8744228515625,-0.004724713973701,0.003087136195972562,0.02160569280385971
1761378782368477700,2.884477783203125,-0.009272061288356781,-0.004729241598397493,0.034331873059272766
1761378782378533600,2.89453369140625,-0.015852732583880424,-0.008497614413499832,0.02955416403710842
1761378782388589600,2.904589599609375,-0.023085610941052437,-0.010530139319598675,0.016882842406630516
1761378782398644700,2.914644775390625,-0.028007399290800095,-0.014166685752570629,0.005530852824449539
1761378782408700700,2.92470068359375,-0.02106933295726776,-0.010135725140571594,-0.002282329136505723
1761378782418755800,2.934755859375,-0.013403156772255898,-0.007752461824566126,-0.002354234457015991
1761378782428811800,2.944811767578125,-0.006075735669583082,-0.00024527712957933545,-0.0002490055630914867
1761378782438866700,2.95486669921875,0.0007174555794335902,0.009975136257708073,0.008158859796822071
1761378782448922600,2.964922607421875,-0.0029108349699527025,0.020114323124289513,0.02003948763012886
1761378782458978600,2.974978515625,-0.007644071243703365,0.023516245186328888,0.027288878336548805
1761378782469033700,2.98503369140625,-0.010787134058773518,0.026494458317756653,0.031245270743966103
1761378782479089700,2.995089599609375,-0.022421952337026596,0.022519158199429512,0.026325346902012825
1761378782489144800,3.005144775390625,-0.030014891177415848,0.022964704781770706,0.01992577128112316
1761378782499200800,3.01520068359375,-0.029106752946972847,0.019696738570928574,0.00646562222391367
1761378782509256700,3.025256591796875,-0.019809657707810402,0.01091683004051447,0.0018407768802717328
1761378782519311600,3.0353115234375,-0.00443869037553668,0.0034554514568299055,0.00011984224693151191
1761378782529367800,3.045367919921875,0.0036306874826550484,0.002261023735627532,0.004512193612754345
1761378782539422700,3.055422607421875,0.0065559037029743195,-0.00500967213883996,-0.000013582121027866378
1761378782549478700,3.065478759765625,0.011444135569036007,-0.0020935109350830317,0.002383262850344181
1761378782559533600,3.075533447265625,0.003369963960722089,0.0021228056866675615,0.014961904846131802
1761378782569589500,3.085589599609375,-0.008410262875258923,0.006841128226369619,0.0299051683396101
1761378782579645700,3.095645751953125,-0.011827098205685616,0.015785887837409973,0.03755536302924156
1761378782589700600,3.10570068359375,-0.013537646271288395,0.024082433432340622,0.03532203659415245
1761378782599756800,3.1157568359375,-0.014870026148855686,0.023615580052137375,0.027050260454416275
1761378782609811700,3.125811767578125,-0.009955162182450294,0.01732146553695202,0.009283779188990593
1761378782619868000,3.135867919921875,-0.0057739997282624245,0.009550361894071102,0.000009853695701167453
1761378782629923800,3.145923828125,0.0044171190820634365,-0.0015696671325713396,0.0032890038564801216
1761378782639978800,3.155978759765625,0.004327903036028147,-0.012308331206440926,0.013622867874801159
1761378782650034700,3.16603466796875,-0.0012658004416152835,-0.013035374693572521,0.022524749860167503
1761378782660089900,3.17608984375,-0.010211358778178692,-0.004991828929632902,0.02468244358897209
1761378782670145800,3.186145751953125,-0.0193723663687706,0.001469798618927598,0.015629027038812637
1761378782680200700,3.19620068359375,-0.018817896023392677,0.013216469436883926,0.009924269281327724
1761378782690259700,3.206259765625,-0.014701981097459793,0.010301905684173107,0.007131678983569145
1761378782700315600,3.216315673828125,-0.009349825792014599,0.012449478730559349,0.006409695837646723
1761378782710370800,3.226370849609375,-0.00025752768851816654,0.00860520638525486,0.0012444951571524143
1761378782720426800,3.2364267578125,0.004066913388669491,0.000547279603779316,-0.0025747441686689854
1761378782730481700,3.246481689453125,0.001669003046117723,-0.011832957156002522,-0.012368785217404366
1761378782740537600,3.25653759765625,-0.00433003343641758,-0.013605291023850441,-0.012297945097088814
1761378782750593500,3.266593505859375,-0.016761137172579765,-0.011984490789473057,-0.007214237004518509
1761378782760648700,3.276648681640625,-0.019038405269384384,-0.0036975329276174307,0.010342651978135109
1761378782770704600,3.28670458984375,-0.020011791959404945,0.010208428837358952,0.036376651376485825
1761378782780759800,3.296759765625,-0.01661466248333454,0.01378239132463932,0.04820667579770088
1761378782790815500,3.3068154296875,-0.003078614128753543,0.013128585182130337,0.04090988263487816
1761378782800870700,3.31687060546875,0.0036858150269836187,0.00782782956957817,0.01648256927728653
1761378782810926600,3.326926513671875,-0.0032469260040670633,0.0013052152935415506,-0.015272696502506733
1761378782820982800,3.336982666015625,-0.011040933430194855,-0.006421946454793215,-0.0376613587141037
1761378782831037700,3.34703759765625,-0.009168997406959534,-0.012113387696444988,-0.04728682339191437
1761378782841094000,3.357093994140625,-0.009565009735524654,-0.011256915517151356,-0.039211053401231766
1761378782851148500,3.3671484375,-0.012915532104671001,-0.0075940038077533245,-0.016097210347652435
1761378782861204700,3.377204833984375,-0.014080132357776165,0.001586178783327341,0.003498861100524664
1761378782871260700,3.3872607421875,-0.008772718720138073,0.002531068166717887,0.012480105273425579
1761378782881315600,3.397315673828125,-0.006569485645741224,-0.0006878945278003812,0.0179305300116539
1761378782891371800,3.407371826171875,-0.009241967462003231,-0.0119706429541111,0.014227138832211494
1761378782901426700,3.4174267578125,-0.012040950357913971,-0.02678660675883293,0.006683468818664551
1761378782911483000,3.42748291015625,-0.013346698135137558,-0.034149181097745895,-0.006710100453346968
1761378782921538600,3.43753857421875,-0.014070012606680393,-0.032886311411857605,-0.016631707549095154
1761378782931593700,3.44759375,-0.015398929826915264,-0.027303792536258698,-0.024053137749433517
1761378782941649700,3.457649658203125,-0.015019429847598076,-0.012011655606329441,-0.017478326335549355
1761378782951704800,3.467704833984375,-0.014563496224582195,0.0031643679831176996,-0.005227518733590841
1761378782961760800,3.4777607421875,-0.022009961307048798,0.016631441190838814,0.021265607327222824
1761378782971816000,3.48781591796875,-0.02382889948785305,0.022955648601055145,0.04249206557869911
1761378782981871600,3.49787158203125,-0.022973492741584778,0.018566759303212166,0.047744885087013245
1761378782991927600,3.507927490234375,-0.010906443931162357,0.0020303940400481224,0.03662565350532532
1761378783001982700,3.517982666015625,-0.0019166769925504923,-0.01883574016392231,0.015302789397537708
1761378783012038700,3.52803857421875,-0.0011475561186671257,-0.024446221068501472,-0.0049409628845751286
1761378783022093800,3.53809375,-0.0025358619168400764,-0.020797157660126686,-0.02527180127799511
1761378783032149800,3.548149658203125,-0.009879794903099537,-0.006877879612147808,-0.02570483088493347
1761378783042205700,3.558205810546875,-0.009229185059666634,0.0014389059506356716,-0.009220928885042667
1761378783052260600,3.568260498046875,-0.01272618118673563,0.008860869333148003,0.01606551930308342
1761378783062316500,3.578316650390625,-0.01549666840583086,0.01224627997726202,0.044737111777067184
1761378783072371700,3.588371826171875,-0.012181298807263374,0.009874468669295311,0.05252978578209877
1761378783082427600,3.598427734375,-0.004421646241098642,-0.0003400856803636998,0.04368409886956215
1761378783092483800,3.60848388671875,-0.000984570593573153,-0.006194512825459242,0.027452129870653152
1761378783102538800,3.618538818359375,-0.006822485942393541,0.000529436394572258,0.011744273826479912
1761378783112594700,3.6285947265625,-0.013976269401609898,0.007706922013312578,-0.003876230912283063
1761378783122649600,3.638649658203125,-0.01930844970047474,0.012683038599789143,-0.012596751563251019
1761378783132705800,3.648705810546875,-0.014504374004900455,0.009817477315664291,-0.012318451888859272
1761378783142760700,3.6587607421875,-0.008684834465384483,0.006911968346685171,-0.0036823528353124857
1761378783152817000,3.66881689453125,-0.0038421424105763435,-0.0004625910660251975,0.011461179703474045
1761378783162872800,3.678872802734375,0.0001715075777610764,-0.005949768237769604,0.0227388683706522
1761378783172927700,3.688927734375,0.00814820732921362,-0.0037936728913336992,0.032408274710178375
1761378783182983700,3.698983642578125,0.007273092865943909,-0.0033076461404561996,0.028509140014648438
1761378783193038600,3.70903857421875,0.00888137612491846,-0.0036330842413008213,0.0205145962536335
1761378783203094800,3.7190947265625,0.009550894610583782,-0.001094825565814972,0.012438027188181877
1761378783213150700,3.729150634765625,0.014161358587443829,0.0029089709278196096,0.004897287115454674
1761378783223206000,3.739205810546875,0.0065561700612306595,0.0017973673529922962,0.0026410568971186876
1761378783233261800,3.74926171875,0.001484179636463523,0.0018224010709673166,0.00600383011624217
1761378783243316700,3.759316650390625,-0.008229699917137623,-0.0014096111990511417,0.003879426745697856
1761378783253372700,3.76937255859375,-0.016445552930235863,-0.005095425993204117,-0.002778475871309638
1761378783263428600,3.7794287109375,-0.012593023478984833,-0.0019947076216340065,-0.007562578655779362
1761378783273483800,3.78948388671875,-0.010331200435757637,-0.001651159836910665,-0.009978331625461578
1761378783283539700,3.799539794921875,-0.0060238041914999485,0.007367102429270744,-0.0026849990244954824
1761378783293594600,3.8095947265625,-0.005935387220233679,0.010853180661797523,0.007723699789494276
1761378783303650600,3.819650634765625,-0.012713930569589138,0.006390787661075592,0.020003801211714745
1761378783313706800,3.829706787109375,-0.013738715089857578,0.0007896272582001984,0.022235797718167305
1761378783323761700,3.83976171875,-0.014667359180748463,-0.00333267985843122,0.014873487874865532
1761378783333817600,3.849817626953125,-0.014650847762823105,-0.008264853619039059,-0.0030658310279250145
1761378783343872800,3.859872802734375,-0.008570585399866104,-0.009401490911841393,-0.022915169596672058
1761378783353928700,3.8699287109375,0.002826146548613906,-0.00990163255482912,-0.038227278739213943
1761378783363983600,3.879983642578125,0.012685967609286308,-0.011358382180333138,-0.03978602960705757
1761378783374039600,3.89003955078125,0.016773654147982597,-0.009547432884573936,-0.021933527663350105
1761378783384095700,3.900095703125,0.012586898170411587,-0.003862116253003478,0.0008639294537715614
1761378783394150700,3.910150634765625,0.0003904194163624197,-0.0009060074225999415,0.016598418354988098
1761378783404206800,3.920206787109375,-0.008351673372089863,0.0011909656459465623,0.018187260255217552
1761378783414261800,3.93026171875,-0.01194214727729559,0.0075487298890948296,0.005780657287687063
1761378783424317700,3.940317626953125,-0.022876819595694542,0.0161797683686018,-0.01624022237956524
1761378783434373600,3.95037353515625,-0.026278475299477577,0.019276758655905724,-0.028007665649056435
1761378783444428800,3.9604287109375,-0.019474364817142487,0.024778584018349648,-0.02334260754287243
1761378783454484700,3.970484619140625,-0.008749016560614109,0.027536019682884216,-0.012882509268820286
1761378783464539600,3.98053955078125,0.005768939387053251,0.01997450739145279,0.000937166390940547
1761378783474595800,3.990595947265625,0.003961185924708843,0.01389823853969574,0.010789530351758003
1761378783484651800,4.00065185546875,-0.004590490832924843,0.01673983223736286,0.013375726528465748
1761378783494706700,4.010706787109375,-0.016229037195444107,0.01942696049809456,0.012589295394718647
1761378783504762600,4.0207626953125,-0.014754711650311947,0.019025621935725212,0.0029491845052689314
1761378783514815700,4.030815673828125,-0.017251158133149147,0.017521202564239502,0.004604871850460768
1761378783524870700,4.04087060546875,-0.023923974484205246,0.025523468852043152,0.003489806316792965
1761378783534926600,4.050926513671875,-0.027292340993881226,0.028442293405532837,0.002132925670593977
1761378783544981800,4.060981689453125,-0.025165008381009102,0.03127030283212662,0.007250189781188965
1761378783555037700,4.07103759765625,-0.014328339137136936,0.022705046460032463,0.012261992320418358
1761378783565092900,4.0810927734375,-0.005471730604767799,0.018559569492936134,0.019588615745306015
1761378783575148800,4.091148681640625,-0.00887684803456068,0.01812147907912731,0.024773789569735527
1761378783585204500,4.10120458984375,-0.013574398122727871,0.017306020483374596,0.020311929285526276
1761378783595259600,4.111259765625,-0.013200224377214909,0.011350392363965511,0.007553790230304003
1761378783605315600,4.121315673828125,-0.015558453276753426,0.0037827540654689074,-0.004119643941521645
1761378783615370800,4.131370849609375,-0.020725518465042114,0.005399292800575495,-0.013045494444668293
1761378783625426700,4.1414267578125,-0.025606559589505196,0.014238590374588966,-0.009194563142955303
1761378783635483000,4.15148291015625,-0.02924204058945179,0.02064482495188713,0.001127848750911653
1761378783645537500,4.16153759765625,-0.02587207779288292,0.02267708256840706,0.009533850476145744
1761378783655593700,4.17159375,-0.017247961834073067,0.01931324414908886,0.010842527262866497
1761378783665648600,4.181648681640625,-0.013056413270533085,0.014105432666838169,0.012166118249297142
1761378783675704800,4.191704833984375,-0.005079713650047779,0.01792973279953003,0.00824754312634468
1761378783685760800,4.2017607421875,-0.008588960394263268,0.01775849051773548,0.005814746022224426
1761378783695812400,4.211812255859375,-0.013294766657054424,0.019653862342238426,0.0031899344176054
1761378783705868300,4.221868408203125,-0.02358761802315712,0.026513366028666496,-0.0006095975404605269
1761378783715923200,4.231923095703125,-0.023151658475399017,0.03678864240646362,0.0017614146927371621
1761378783725979400,4.2419794921875,-0.02521321177482605,0.04050508141517639,-0.0011166634503751993
1761378783736035000,4.25203515625,-0.019893813878297806,0.03791062906384468,0.0008138620178215206
1761378783746090200,4.26209033203125,-0.014585866592824459,0.02660231664776802,-0.001577123999595642
1761378783756146200,4.272146240234375,-0.018025605008006096,0.019346533343195915,-0.0046389601193368435
1761378783766201300,4.282201416015625,-0.018680211156606674,0.01763571798801422,-0.0020013656467199326
1761378783776257300,4.29225732421875,-0.017832793295383453,0.018608571961522102,0.009345564991235733
1761378783786313200,4.302313232421875,-0.014590660110116005,0.01744796521961689,0.025912556797266006
1761378783796368100,4.3123681640625,-0.012141085229814053,0.015573899261653423,0.030164826661348343
1761378783806424000,4.322424072265625,-0.013272395357489586,0.008326905779540539,0.020018182694911957
1761378783816479200,4.332479248046875,-0.02034948021173477,0.009939449839293957,0.010814830660820007
1761378783826535200,4.34253515625,-0.021989189088344574,0.009257414378225803,-0.004484497010707855
1761378783836591400,4.35259130859375,-0.02250184677541256,0.010395915247499943,-0.01483380701392889
1761378783846646300,4.362646240234375,-0.017246898263692856,0.005789712071418762,-0.026030801236629486
1761378783856702200,4.3727021484375,-0.003949201665818691,0.0035183019936084747,-0.02754933573305607
1761378783866757000,4.382757080078125,0.00044900894863530993,-0.00635057408362627,-0.03215154632925987
1761378783876813000,4.39281298828125,0.0031337416730821133,-0.005818474106490612,-0.0366448312997818
1761378783886869200,4.402869140625,-0.004284759983420372,-0.00009267800487577915,-0.03967071324586868
1761378783896924200,4.412924072265625,-0.010883806273341179,0.010875018313527107,-0.038954056799411774
1761378783906980400,4.42298046875,-0.016350211575627327,0.014886004850268364,-0.03454359620809555
1761378783917035000,4.433034912109375,-0.021568674594163895,0.0229327455163002,-0.02347709611058235
1761378783927091200,4.44309130859375,-0.024655545130372047,0.011714979074895382,-0.004561196081340313
1761378783937147100,4.453147216796875,-0.02195563167333603,-0.0011443602852523327,0.007726096548140049
1761378783947202300,4.463202392578125,-0.013993047177791595,-0.010329869575798512,0.010181531310081482
1761378783957258200,4.47325830078125,0.0021941782906651497,-0.015624499879777431,0.006434197071939707
1761378783967313400,4.4833134765625,0.011212174780666828,-0.01618589460849762,-0.0038016624748706818
1761378783977369300,4.493369384765625,0.02407923713326454,-0.0003486077766865492,-0.015244466252624989
1761378783987425300,4.50342529296875,0.028619127348065376,0.006198773626238108,-0.01671959087252617
1761378783997480200,4.513480224609375,0.024563666433095932,0.012370383366942406,-0.01582476869225502
1761378784007536000,4.5235361328125,0.02167120762169361,0.011697668582201004,-0.006514358334243298
1761378784017591300,4.53359130859375,0.010042247362434864,0.008587895892560482,0.0046269758604466915
1761378784027647200,4.543647216796875,-0.007469367701560259,0.005288771353662014,0.014549381099641323
1761378784037703200,4.553703125,-0.018074074760079384,0.000035686356568476185,0.019816847518086433
1761378784047758000,4.563758056640625,-0.014610900543630123,0.00022397184511646628,0.017287643626332283
1761378784057814000,4.57381396484375,-0.007939682342112064,0.0021204089280217886,0.014636999927461147
1761378784067869200,4.583869140625,-0.0009771138429641724,-0.0018793927738443017,0.016271380707621574
1761378784077925000,4.593925048828125,0.009094694629311562,-0.006621949840337038,0.012413792312145233
1761378784087981300,4.603981201171875,0.017347032204270363,-0.007208111695945263,0.007537811063230038
1761378784098036200,4.6140361328125,0.014712100848555565,-0.011720305308699608,0.0034943337086588144
1761378784108092400,4.624092529296875,0.009135707281529903,-0.015790680423378944,-0.0003499393642414361
1761378784118147000,4.63414697265625,-0.0029177593532949686,-0.009157013148069382,-0.008680573664605618
1761378784128203300,4.644203369140625,-0.01564447395503521,-0.0007699198904447258,-0.014415957033634186
1761378784138259200,4.65425927734375,-0.022886672988533974,0.0059569585137069225,-0.017844511196017265
1761378784148314000,4.664314208984375,-0.021190505474805832,0.01008192915469408,-0.021397434175014496
1761378784158370300,4.674370361328125,-0.01242417935281992,0.014882543124258518,-0.02930276095867157
1761378784168425200,4.68442529296875,-0.0031427964568138123,0.017366738989949226,-0.03353319317102432
1761378784178481200,4.694481201171875,0.010464092716574669,0.014344850555062294,-0.021255221217870712
1761378784188537000,4.704537109375,0.0203915573656559,0.004073305055499077,0.003177417442202568
1761378784198592300,4.71459228515625,0.01914013922214508,-0.007791077718138695,0.03284050524234772
1761378784208648200,4.724648193359375,0.018031198531389236,-0.012388226576149464,0.052679721266031265
1761378784218703400,4.734703369140625,0.019411515444517136,-0.014511831104755402,0.05795437842607498
1761378784228759300,4.74475927734375,0.013348829001188278,-0.015788549557328224,0.043524838984012604
1761378784238815200,4.754815185546875,-0.002234658459201455,-0.012236160226166248,0.02381931245326996
1761378784248870100,4.7648701171875,-0.009837716817855835,-0.009846505708992481,-0.0004980111261829734
1761378784258926000,4.774926025390625,-0.008221444673836231,-0.0030152308754622936,-0.019832827150821686
1761378784268981200,4.784981201171875,-0.0022708773612976074,-0.00987340323626995,-0.023133547976613045
1761378784279037200,4.795037109375,0.005664277356117964,-0.0068174260668456554,-0.00768668157979846
1761378784289093400,4.80509326171875,0.010833472944796085,-0.007534881588071585,0.013763216324150562
1761378784299148300,4.815148193359375,0.01387187372893095,-0.011871040798723698,0.031434088945388794
1761378784309204200,4.825204345703125,0.014343518763780594,-0.01350488979369402,0.03219202533364296
1761378784319259100,4.835259033203125,0.004093545023351908,-0.020923657342791557,0.020144149661064148
1761378784329315000,4.845315185546875,-0.005982258822768927,-0.01733478158712387,0.0025752766523510218
1761378784339371300,4.855371337890625,-0.015606923028826714,-0.008531969040632248,-0.011901666410267353
1761378784349426200,4.86542626953125,-0.016020512208342552,0.0010463559301570058,-0.012564527802169323
1761378784359482400,4.875482421875,-0.006800914648920298,0.008380968123674393,-0.005918076727539301
1761378784369537000,4.885537109375,0.00446878420189023,0.0035625104792416096,0.005833121482282877
1761378784379593200,4.89559326171875,0.017224526032805443,0.003478088416159153,0.021857894957065582
1761378784389649200,4.905649169921875,0.023612385615706444,0.005243231542408466,0.03710662201046944
1761378784399704300,4.915704345703125,0.02124696597456932,0.0018615495646372437,0.04785647243261337
1761378784409760300,4.92576025390625,0.013697436079382896,0.004604871850460768,0.05043281242251396
1761378784419815400,4.9358154296875,0.00920175388455391,0.012522716075181961,0.04584551975131035
1761378784429871400,4.945871337890625,0.0029294772539287806,0.014788267202675343,0.04096714034676552
1761378784439927000,4.955927001953125,-0.0025531724095344543,0.01576804369688034,0.02750486135482788
1761378784449982200,4.965982177734375,-0.009900568053126335,0.01798832230269909,0.019542274996638298
1761378784460038100,4.9760380859375,-0.005960953421890736,0.02069835364818573,0.008502141572535038
1761378784470093300,4.98609326171875,-0.000031957933970261365,0.017714815214276314,0.001528920722194016
1761378784480149200,4.996149169921875,0.006376939360052347,0.005100752227008343,-0.0024865935556590557
1761378784490205200,5.006205078125,0.011238006874918938,0.00959776621311903,0.0027920580469071865
1761378784500260000,5.016260009765625,0.00504003232344985,0.00962839275598526,0.022767363116145134
1761378784510316000,5.02631591796875,0.00020506340661086142,0.00833596009761095,0.03518781438469887
1761378784520372200,5.036372314453125,-0.0026961842086166143,0.0015507587231695652,0.03250947222113609
1761378784530427100,5.04642724609375,-0.0097463708370924,0.0008724515791982412,0.027301661670207977
1761378784540483300,5.0564833984375,-0.012499546632170677,0.0007890945998951793,0.010696319863200188
1761378784550538200,5.066538330078125,-0.012190885841846466,0.005402222275733948,-0.006390254944562912
1761378784560594400,5.076594482421875,-0.0073133064433932304,0.008431301452219486,-0.02172633446753025
1761378784570650000,5.086650146484375,-0.003320162883028388,0.002935868687927723,-0.0266550462692976
1761378784580705300,5.096705322265625,0.001205080421641469,0.0000018642127770363004,-0.02634505368769169
1761378784590761200,5.10676123046875,0.002999251941218972,-0.004343615844845772,-0.01600133627653122
1761378784600816000,5.116816162109375,0.00415319949388504,-0.006687996443361044,-0.006030728109180927
1761378784610872300,5.126872314453125,0.005801163613796234,-0.0076059880666434765,0.008203601464629173
1761378784620928300,5.13692822265625,0.003141731023788452,-0.010484065860509872,0.016806943342089653
1761378784630983200,5.146983154296875,0.002404301892966032,-0.004260258749127388,0.019453059881925583
1761378784641039000,5.1570390625,0.00041758365114219487,0.011173558421432972,0.01593662239611149
1761378784651094300,5.16709423828125,-0.006551376078277826,0.019531089812517166,0.018626414239406586
1761378784661150200,5.177150146484375,-0.005758020561188459,0.02760899066925049,0.00881852488964796
1761378784671206100,5.1872060546875,-0.006235259119421244,0.027834294363856316,-0.006418750621378422
1761378784681261300,5.19726123046875,0.0020415792241692543,0.027003655210137367,-0.01876915991306305
1761378784691317200,5.207317138671875,0.009577259421348572,0.014668158255517483,-0.009854494594037533
1761378784701372200,5.2173720703125,0.01227237842977047,0.010275540873408318,0.004796885885298252
1761378784711428000,5.227427978515625,0.006662430241703987,0.004039216320961714,0.028435369953513145
1761378784721484300,5.237484375,0.00803262647241354,0.001359543763101101,0.04857579246163368
1761378784731539200,5.247539306640625,0.012195147573947906,0.0000804274677648209,0.05128795653581619
1761378784741595400,5.257595458984375,0.001683650421909988,0.000008788431841821875,0.04020121693611145
1761378784751650000,5.267650146484375,-0.004914863966405392,-0.004571049474179745,0.020601946860551834
1761378784761706200,5.277706298828125,-0.014399445615708828,-0.004743888974189758,-0.003433080855756998
1761378784771762200,5.28776220703125,-0.022640597075223923,-0.007860852405428886,-0.011714446358382702
1761378784781817000,5.297817138671875,-0.02214232087135315,-0.003014432033523917,-0.010341054759919643
1761378784791873300,5.307873291015625,-0.013516874052584171,0.00037044569035060704,-0.003606186481192708
1761378784801928200,5.31792822265625,-0.00501020485535264,0.0005997438565827906,0.01224761176854372
1761378784811984400,5.327984375,-0.0030458574183285236,0.008898686617612839,0.020108729600906372
1761378784822040300,5.338040283203125,-0.006780407857149839,0.007858987897634506,0.02004747837781906
1761378784832095200,5.34809521484375,-0.010730940848588943,0.014426609501242638,0.017417605966329575
1761378784842151200,5.358151123046875,-0.021131383255124092,0.011671570129692554,0.009925068356096745
1761378784852206300,5.368206298828125,-0.0332341194152832,0.005262938793748617,0.01733957603573799
1761378784862262300,5.37826220703125,-0.03272412344813347,-0.0021086910273879766,0.018273545429110527
1761378784872318200,5.388318115234375,-0.02701723575592041,-0.008590558543801308,0.019602196291089058
1761378784882373000,5.398373046875,-0.009266735054552555,-0.009737049229443073,0.013773868791759014
1761378784892429000,5.408428955078125,0.0041215079836547375,-0.01074026245623827,0.007261108607053757
1761378784902485200,5.4184853515625,0.015460182912647724,-0.00507065886631608,0.008533300831913948
1761378784912540200,5.4285400390625,0.007421697489917278,-0.0037028591614216566,0.014997591264545918
1761378784922596000,5.43859619140625,0.0005928196478635073,0.01079752016812563,0.029805298894643784
1761378784932651300,5.4486513671875,-0.008085889741778374,0.011434814892709255,0.039501335471868515
1761378784942707200,5.458707275390625,-0.01176105160266161,0.006840062793344259,0.039617981761693954
1761378784952762000,5.46876220703125,-0.00953864399343729,-0.0029550434555858374,0.03808053955435753
1761378784962818000,5.478818115234375,-0.00935328844934702,-0.003209908027201891,0.030070018023252487
1761378784972874200,5.488874267578125,-0.010412161238491535,0.0004269047058187425,0.021624868735671043
1761378784982929200,5.49892919921875,-0.010466222651302814,0.007417702581733465,0.009221461601555347
1761378784992985300,5.5089853515625,-0.010760235600173473,0.013588513247668743,-0.005391037091612816
1761378785003041300,5.519041259765625,-0.01569587178528309,0.025742648169398308,-0.013032711111009121
1761378785013096200,5.52909619140625,-0.016281768679618835,0.021439244970679283,-0.008065116591751575
1761378785023152000,5.539152099609375,-0.010849984362721443,0.01350728701800108,0.007317834068089724
1761378785033207300,5.549207275390625,-0.009358081966638565,0.003790477057918906,0.028507009148597717
1761378785043263200,5.55926318359375,-0.012074239552021027,-0.007114634849131107,0.04488518461585045
1761378785053319200,5.569319091796875,-0.009825199842453003,-0.009046492166817188,0.04566362500190735
1761378785063374300,5.579374267578125,-0.015849003568291664,-0.009403355419635773,0.04144411161541939
1761378785073430300,5.58943017578125,-0.020718328654766083,-0.008641957305371761,0.03925526142120361
1761378785083485200,5.599485107421875,-0.01883147843182087,-0.001047154888510704,0.025534387677907944
1761378785093541000,5.609541015625,-0.012384497560560703,0.005262672435492277,0.009414540603756905
1761378785103597000,5.61959716796875,-0.00896952673792839,0.008779909461736679,-0.000523843802511692
1761378785113652200,5.62965234375,0.002025067573413253,0.003483947366476059,-0.004333495628088713
1761378785123708200,5.639708251953125,0.010754909366369247,0.007864580489695072,0.004711132030934095
1761378785133763300,5.649763427734375,-0.0010815097484737635,0.009470201097428799,0.017354754731059074
1761378785143819000,5.659819091796875,-0.019888220354914665,0.02050980180501938,0.048834118992090225
1761378785153875200,5.669875244140625,-0.030857514590024948,0.0019331886433064938,0.06522054970264435
1761378785163930000,5.67993017578125,-0.02937253564596176,-0.00063383235828951,0.074763722717762
1761378785173986300,5.689986328125,-0.02672668546438217,-0.008041148073971272,0.07580528408288956
1761378785184041200,5.700041259765625,-0.023803865537047386,-0.006954845041036606,0.05584196001291275
1761378785194097400,5.710097412109375,-0.006354568526148796,-0.009527991525828838,0.009967945516109467
1761378785204153300,5.7201533203125,0.015105449594557285,-0.018765432760119438,-0.032818399369716644
1761378785214208000,5.7302080078125,0.03169987350702286,-0.027297135442495346,-0.06403037905693054
1761378785224264200,5.74026416015625,0.03344450891017914,-0.03522083908319473,-0.061769623309373856
1761378785234320100,5.750320068359375,0.022649651393294334,-0.029772542417049408,-0.04145609587430954
1761378785244375300,5.760375244140625,0.0019920445047318935,-0.011722169816493988,-0.00851732213050127
1761378785254431200,5.77043115234375,-0.023006515577435493,0.005817142780870199,0.030073214322328568
1761378785264486400,5.780486328125,-0.03646959364414215,0.023421702906489372,0.04914224520325661
1761378785274542000,5.7905419921875,-0.04640211910009384,0.0247210580855608,0.055331431329250336
1761378785284598000,5.800597900390625,-0.028912341222167015,0.036913543939590454,0.04256051033735275
1761378785294653200,5.810653076171875,-0.015086807310581207,0.013349360786378384,0.0035425368696451187
1761378785304709000,5.820709228515625,0.005221659783273935,-0.011480354703962803,-0.03333212435245514
