time,seconds_elapsed,z,y,x
1761379434712760600,0.076760498046875,0.015562310791015624,-0.14884068122841418,-0.10130056609213352
1761379434722842400,0.08684228515625,0.1310644207149744,-0.01707373826727271,-0.12107158061936497
1761379434732924400,0.09692431640625,0.17430267393887042,0.07505290289670229,-0.1509666604064405
1761379434743006500,0.10700634765625,0.19682664043605327,0.1661212671793997,-0.14202011449337004
1761379434753088500,0.117088623046875,0.09154080410003662,0.22494250865615903,-0.09217997878640889
1761379434763170600,0.127170654296875,0.06641746875941754,0.2235833491321653,-0.044398529174923894
1761379434773252600,0.137252685546875,-0.05753390507996082,0.11077449688017367,0.01964563458189368
1761379434783335400,0.14733544921875,-0.1815671119838953,-0.03516140281744301,0.059265989569574594
1761379434793417500,0.15741748046875,-0.16321604725718497,-0.1094865759614855,0.0833040138915181
1761379434803499500,0.16749951171875,0.019503741893172263,-0.09368716847896576,0.07323737790733575
1761379434813581600,0.17758154296875,0.1461702199101448,-0.050855742490291594,-0.09023819706887007
1761379434823663400,0.187663330078125,0.05561199710667133,0.03293905059285462,-0.12414908836856484
1761379434833745400,0.197745361328125,0.23967443303763866,0.04455013954006135,0.08481836397722363
1761379434843828500,0.207828369140625,0.278001533344388,-0.09851670752726495,0.054526539957523344
1761379434853910500,0.21791064453125,0.2849626045286655,-0.10184234481863677,-0.005821107368916272
1761379434863992600,0.22799267578125,0.20752748267054558,-0.019497604413330556,-0.05372004588022828
1761379434874074400,0.238074462890625,-0.10432780495882034,0.020387465925142168,-0.07848185443207621
1761379434884156400,0.248156494140625,-0.5137888958156108,0.06007445640824735,-0.11034662685692309
1761379434894238500,0.258238525390625,-0.6622469344019889,0.1134365556962788,-0.11706672889217734
1761379434904320500,0.268320556640625,-0.2608241885721683,0.06680741792507469,-0.042999768292903896
1761379434914403300,0.2784033203125,0.2757669061601162,-0.014972893530502915,0.01591536201238632
1761379434924485400,0.2884853515625,0.6212257727056741,-0.038879692688211794,-0.02786050521954894
1761379434934567400,0.2985673828125,0.6053261927843093,0.012297171515226364,-0.044816608456522224
1761379434944649500,0.3086494140625,0.2894534862071276,0.045074163414165376,-0.020526070678234098
1761379434954731500,0.3187314453125,0.016520926690101623,0.00818849408738315,0.005142915846407413
1761379434964813600,0.3288134765625,-0.12372633291184902,0.00573211391121149,-0.03195858818814158
1761379434974896400,0.338896484375,-0.16681027235686777,0.024806378345936537,-0.04420286047235131
1761379434984978400,0.348978515625,-0.03760404672920704,0.035785891391336914,-0.030832360637187955
1761379434995064600,0.359064697265625,0.08966390431225299,0.02396262099817395,0.0031252924136817455
1761379435005146600,0.369146728515625,0.11623802298307419,0.00190685653463006,0.05294876924678683
1761379435015228400,0.379228515625,0.044476855108141894,-0.030530747342109678,0.009686404494941235
1761379435025310500,0.389310546875,-0.09254501270651817,0.01909786450602114,-0.017448709059506653
1761379435035393500,0.3993935546875,-0.17238778022825718,0.06516556900218129,-0.011469780780375003
1761379435045475600,0.4094755859375,-0.0693418317735195,0.012909823520854114,0.04088642940074205
1761379435055557400,0.419557373046875,0.05941957269608974,-0.05674436213746666,0.06053104106932878
1761379435065639400,0.429639404296875,0.06255144098103047,-0.039163843391835686,0.03276522839590907
1761379435075721500,0.439721435546875,0.09020692514777183,0.026603198634833097,-0.00766381262615323
1761379435085803500,0.449803466796875,0.08805179294049739,0.0585963466797024,-0.03127177496775985
1761379435095885600,0.459885498046875,0.03395838370323181,0.027105595199018714,-0.0492423159442842
1761379435105968400,0.469968505859375,0.006654781714081764,-0.0369705711312592,-0.03325008930340409
1761379435116050400,0.480050537109375,-0.07550386153459548,-0.07412965057194232,-0.001066606318205595
1761379435126132500,0.490132568359375,-0.1016325745254755,-0.06189816470406949,0.035141456007957456
1761379435136214500,0.500214599609375,0.048130701440572736,-0.012885565862432122,0.03888473418951034
1761379435146296600,0.510296630859375,0.13441197757720946,0.04568455039747059,0.03175780491903424
1761379435156378600,0.520378662109375,0.3087543990045786,0.05894888644441962,0.021904227163642643
1761379435166461400,0.53046142578125,0.2922024926543236,0.03603387480303645,0.056111324930936096
1761379435176543500,0.54054345703125,0.363653863927722,-0.04031038307845592,0.08841142003312706
1761379435186625500,0.55062548828125,0.19927169550061224,-0.08090162892490625,0.04504281842783093
1761379435196707600,0.56070751953125,-0.06860533419251441,-0.07439750772789121,-0.010839958444237708
1761379435206789400,0.570789306640625,-0.20661855113208294,-0.055315425312891596,-0.09365648107975721
1761379435216871400,0.580871337890625,-0.12952128292620183,-0.06554083205536007,-0.11723083341270685
1761379435226953500,0.590953369140625,-0.031601006922125814,-0.0684654142651707,-0.051653176478296516
1761379435237036500,0.60103662109375,-0.013351064482331275,-0.0641233664728701,-0.020946341916918753
1761379435247118600,0.61111865234375,-0.023411855247616766,-0.0082354019690305,-0.05349734304025769
1761379435257200400,0.621200439453125,0.12926818494796752,0.023288009672239422,-0.062477352831512685
1761379435267282400,0.631282470703125,0.18087445354461668,-0.016949746561422945,-0.08711129721999168
1761379435277364500,0.641364501953125,0.19463000717461107,-0.060857350414246315,-0.06677066611126065
1761379435287446500,0.651446533203125,0.1432066939294338,-0.06236965467333793,0.006970131273567676
1761379435297529300,0.661529296875,0.13742284983098507,-0.03997881303653121,0.036290772173553705
1761379435307611400,0.671611328125,0.12881868761479853,-0.0518846471466124,0.06954539152160287
1761379435317693400,0.681693359375,0.08009060480296612,-0.0818983848772943,0.046113954790681595
1761379435327775500,0.691775390625,0.06976736370921134,-0.058236281195655465,0.025235417412966487
1761379435337857500,0.701857421875,0.06484510487616062,-0.03791150524318218,-0.021451807221025226
1761379435347939600,0.711939697265625,0.01494505567550659,-0.030906960243359205,-0.06711787211373448
1761379435358022400,0.7220224609375,-0.07195406009852885,-0.029967414370924234,-0.033090368697047234
1761379435368104400,0.7321044921875,-0.06371639310717582,-0.04664857312403619,-0.006474602841585874
1761379435378186500,0.7421865234375,0.01217968261539936,-0.07590133641958237,0.009779489605873822
1761379435388268500,0.7522685546875,0.0746446143567562,-0.08211495023742317,0.034265403825789686
1761379435398350600,0.7623505859375,0.11758183880746365,-0.07986855955012143,0.0059573009692132466
1761379435408432400,0.772432373046875,0.09076981972754002,-0.07558401409871876,-0.0034678222410380838
1761379435418515500,0.782515380859375,0.047397126469016074,-0.08196743152551353,-0.013863982440531252
1761379435428597500,0.792597412109375,0.002003156515955925,-0.08841872655674815,-0.044586745223402974
1761379435438679600,0.802679443359375,-0.052715691143274304,-0.0768548377521336,-0.0685546269185841
1761379435448761300,0.81276123046875,-0.0484457587391138,-0.09475041379630565,-0.08342837092354893
1761379435458843400,0.822843505859375,-0.027837270474433896,-0.11328589517921209,-0.12104177000299095
1761379435468925400,0.832925537109375,-0.022992753052711486,-0.10181341098509729,-0.11328823326677083
1761379435479007500,0.843007568359375,0.010666939964890479,-0.07744279370792209,-0.09455532961562275
1761379435489090600,0.853090576171875,0.05522270552814006,-0.03101758101098239,-0.07699293104857206
1761379435499172400,0.86317236328125,0.031871056035161015,-0.01613916083090007,-0.0488413339279592
1761379435509254400,0.87325439453125,0.0009118541479110718,-0.018797054928541182,-0.026506314131617543
1761379435519336400,0.88333642578125,0.0471738391071558,-0.008661883752793073,-0.025626900948584077
1761379435529418500,0.89341845703125,0.11056932969689369,0.014287687745317816,-0.04279226302206516
1761379435539500500,0.90350048828125,0.1281365505695343,0.026206965858861803,-0.029475977592170237
1761379435549583400,0.913583251953125,0.11410860973894596,0.001988616533949971,-0.022051380549371242
1761379435559665400,0.92366552734375,0.08001403243541717,-0.027257205564156173,-0.02422872458845377
1761379435569747500,0.93374755859375,0.024603110858798027,-0.04850939855985343,-0.05325140545517206
1761379435579829500,0.94382958984375,-0.03466156353652477,-0.0352713659979403,-0.08313625610917806
1761379435589911600,0.95391162109375,-0.055445408368110655,-0.021089038323238492,-0.07164207153990865
1761379435599993300,0.963993408203125,-0.019445289704203606,-0.007179463175311684,-0.05202332496494055
1761379435610076400,0.974076416015625,0.007460252878069877,0.00842281429991126,-0.031219314128160473
1761379435620158500,0.984158447265625,0.034061259555816646,0.049856575385108584,0.0012377251014113425
1761379435630240500,0.994240478515625,0.062113049563765524,0.07249496204219757,-0.025490999609231946
1761379435640322600,1.004322509765625,0.060009355282783505,0.06191409292556345,-0.04553016355335712
1761379435650404400,1.014404296875,-0.020337270107865332,0.033509032500535246,-0.03771598267108202
1761379435660486400,1.024486328125,-0.04334171359837055,-0.0013761106587946415,-0.03476867717280984
1761379435670569500,1.034569580078125,-0.007560206121206283,-0.022950229085236785,-0.0445943440079689
1761379435680651500,1.044651611328125,0.047963528180122374,-0.038548414907231925,-0.028387159442156553
1761379435690733300,1.0547333984375,0.12503566194474697,-0.015984773986786605,-0.02050941180437803
1761379435700815400,1.0648154296875,0.17199731960594652,0.0045180619463324545,-0.00520838229805231
1761379435710897400,1.0748974609375,0.16190964083373546,-0.01109488305337727,-0.013523936831206082
1761379435720979500,1.0849794921875,0.09361702585220337,-0.01684635925218463,-0.021306845792382956
1761379435731062500,1.0950625,0.025226795715093613,0.012655191172659397,-0.0256911983564496
1761379435741144300,1.105144287109375,0.06946282780468463,0.02006196029782295,-0.048773967780172824
1761379435751226400,1.115226318359375,0.07989537449181079,0.0047290012832731,-0.0896221109971404
1761379435761308400,1.125308349609375,0.04817629414796829,-0.023104323668405414,-0.11013429928049444
1761379435771390500,1.135390380859375,0.01027472577691078,-0.046549423598498105,-0.08427914253398776
1761379435781472500,1.145472412109375,0.035114568001031875,-0.05455364716015756,-0.09990224360153079
1761379435791555300,1.155555419921875,0.009420739296078682,-0.02501994803138077,-0.10409618816003202
1761379435801637400,1.165637451171875,0.0008043021202087402,0.005347279312089085,-0.06348638374358415
1761379435811719400,1.175719482421875,0.030156653332710264,0.012086816700175404,-0.02488046649545431
1761379435821801500,1.185801513671875,0.04602876072525978,-0.014351839022710918,0.007196048983931541
1761379435831883500,1.195883544921875,0.03887771992683411,-0.05300386043488979,0.016363105779886245
1761379435841966300,1.20596630859375,0.050234395721554755,-0.0624315409284085,-0.025744828239828346
1761379435852048400,1.21604833984375,0.08517477619946003,-0.03782558052539825,-0.048651656574755904
1761379435862130400,1.22613037109375,0.09871873290538788,-0.0321592253267765,-0.05307400306165218
1761379435872212500,1.23621240234375,0.05538286452591419,-0.03377637819983065,-0.0790003253482282
1761379435882294500,1.24629443359375,-0.04231237055063247,-0.030292627737298607,-0.05537234313189983
1761379435892376300,1.256376220703125,-0.07583528544604778,-0.03914959567077458,-0.03298676219210028
1761379435902459400,1.26645947265625,-0.03634031040370464,-0.04209668197333812,-0.04832534722983837
1761379435912541400,1.27654150390625,-0.01273614745438099,-0.020127134488523005,-0.07473287716209888
1761379435922623500,1.28662353515625,0.0351046311289072,-0.015378405591472983,-0.0703914869569242
1761379435932705300,1.296705322265625,0.06648585782051086,-0.012885711992904543,-0.033837241541594267
1761379435942787300,1.306787353515625,0.07656359972059726,-0.010669278052449226,-0.03064282941445708
1761379435952869400,1.316869384765625,0.040647652208805084,-0.008989508271962404,-0.029441929192095994
1761379435962952400,1.326952392578125,0.00673252312541008,-0.03473163309805095,0.0010825345396995544
1761379435973034500,1.337034423828125,0.055633624416589735,-0.09341551193073391,-0.006151508367061615
1761379435983116300,1.3471162109375,0.09293898046016692,-0.08679697057381272,-0.033454379703849554
1761379435993194000,1.357194091796875,0.04746843813955783,-0.008753434493765234,-0.044376025082170964
1761379436003276000,1.367276123046875,0.04929506904482841,0.0607120967246592,-0.05268602665737271
1761379436013358000,1.377358154296875,0.06855564983189105,0.09956161347031593,-0.031117168927937745
1761379436023441200,1.387441162109375,0.08227087145149707,0.12556348521113395,0.008962181873619557
1761379436033523200,1.397523193359375,0.047559039032459255,0.11332030890546739,0.04000467813014984
1761379436043605000,1.40760498046875,0.012990414476394653,0.08010003021843731,0.04825374329835176
1761379436053687000,1.41768701171875,0.0043611178189516065,0.030908348482847212,0.02497106738835573
1761379436063769000,1.42776904296875,0.015965630894899368,0.00843618523813784,0.014560440272092818
1761379436073852200,1.43785205078125,0.036001872229576105,0.02291428098902106,-0.0023759353511035443
1761379436083934000,1.447933837890625,0.026117607074975967,0.04535765653066337,-0.019285422967374323
1761379436094016000,1.45801611328125,0.0408253468632698,0.028444296456873415,-0.02169160732626915
1761379436104098000,1.46809814453125,0.0896416924804449,-0.01523965470790863,0.003885170870274305
1761379436114180000,1.47818017578125,0.13975801478028296,-0.07619242832064628,0.0052551440492272375
1761379436124262100,1.48826220703125,0.12534253593683242,-0.09584025485962629,-0.03183072402477264
1761379436134345000,1.498344970703125,0.08783844245076179,-0.08920768497735261,-0.04953545367196202
1761379436144427000,1.508427001953125,0.06678454850614071,-0.09933138491101562,-0.08307327387556433
1761379436154509000,1.518509033203125,0.025412089154124257,-0.11297098401114344,-0.09515797168388962
1761379436164591000,1.528591064453125,0.011148586001992224,-0.13823350862674413,-0.08064560833722352
1761379436174673200,1.538673095703125,0.03360416343808174,-0.1775219282463193,-0.12886325740888713
1761379436184755200,1.548755126953125,0.04843114569187164,-0.16576412430480122,-0.12723784816414116
1761379436194838000,1.558838134765625,0.07988251501023769,-0.13376060099638998,-0.15481982870325445
1761379436204920000,1.568920166015625,0.05334814382791519,-0.08272804063446819,-0.19471403219625352
1761379436215002000,1.579002197265625,0.006771686092019081,-0.03977079630903899,-0.1290405136719346
1761379436225084200,1.589084228515625,0.013117255726456641,-0.06324548765979707,-0.07703253240659833
1761379436235166000,1.599166015625,0.07152911268472671,-0.07623071450442075,-0.05437091100439429
1761379436245249000,1.6092490234375,0.09586392799615859,-0.0564313506655395,-0.05113119843080639
1761379436255331000,1.6193310546875,0.055582186490297315,-0.04171016687378287,-0.03649871583580971
1761379436265413000,1.6294130859375,-0.015171265646815299,-0.043921997704356903,-0.04363426680415868
1761379436275495200,1.6394951171875,-0.08998305326402187,-0.06219466343261301,-0.0796355545118451
1761379436285577000,1.649576904296875,-0.07146656884253025,-0.05423603257834911,-0.08540244747549294
1761379436295659000,1.659658935546875,-0.022436872735619545,-0.0033295097488909957,-0.06254457284882664
1761379436305742000,1.6697421875,0.04994447286427021,0.05103321794904768,-0.003398410266637802
1761379436315824000,1.67982421875,0.09084230044186115,0.0654060266945511,0.06471022645011544
1761379436325906000,1.689906005859375,0.1103553946852684,0.057286725385859605,0.05226590154916048
1761379436335988000,1.699988037109375,0.09403203639388084,0.0416718806900084,-0.012906973976641893
1761379436346070000,1.710070068359375,0.05486439360976219,0.042817835854738945,-0.055630117285251614
1761379436356153000,1.720153076171875,0.008960136047005653,-0.02168276643268764,-0.034780659871548415
1761379436366235100,1.730235107421875,0.008513561323285103,-0.10353986945152283,-0.011752397114038467
1761379436376317000,1.74031689453125,0.020834698235988616,-0.1469905233170837,-0.001152969427406788
1761379436386399000,1.75039892578125,0.02882394342422485,-0.11190795788951217,-0.0433731316499412
1761379436396481000,1.76048095703125,0.03979483477175236,-0.027723142575472592,-0.08805018550530075
1761379436406563000,1.77056298828125,0.01286766487956047,0.037928894769400354,-0.05815466732680797
1761379436416646000,1.78064599609375,0.02058393834531307,0.03619754093214869,0.007632540705054998
1761379436426728000,1.79072802734375,0.07634498853385448,-0.003063625354319811,0.04536094446629286
1761379436436810000,1.80081005859375,0.10966215172410011,-0.02182129812054336,0.041167292168736457
1761379436446892000,1.81089208984375,0.051659460088610644,-0.028946473825350403,0.033115795399248596
1761379436456974000,1.82097412109375,0.05967208615243434,-0.03395348833240568,-0.002586070970445871
1761379436467057200,1.83105712890625,0.07998539086282253,-0.0032824557367712257,-0.03500760049521923
1761379436477139000,1.841138916015625,0.06930851402580737,0.04698533079773187,-0.030497429594397545
1761379436487221000,1.851220947265625,0.049075288814306256,0.053628056747838854,-0.0008706453546881675
1761379436497303000,1.861302978515625,0.06595277385711669,0.045144525236636396,0.028939824888855218
1761379436507385000,1.871385009765625,0.06010463235080242,0.03811857212260365,0.02390475333109498
1761379436517467100,1.881467041015625,0.051070846545696255,0.05618431710191071,0.012966887470334768
1761379436527550200,1.89155029296875,0.06400631596446037,0.06228153799846768,-0.00846533826738596
1761379436537632300,1.90163232421875,0.013407763105630873,0.05382072977572679,-0.06153948745951056
1761379436547714000,1.911714111328125,-0.03669160805940628,0.07897541010268032,0.013458178118616342
1761379436557796000,1.921796142578125,-0.03305179025232792,0.08543101598285138,0.03867342952638864
1761379436567878000,1.9318779296875,-0.014892448705434798,0.060656421014666555,0.03235708598643541
1761379436577961200,1.941961181640625,0.012877017229795455,0.05101787424944341,0.0075122753262519834
1761379436588043300,1.952043212890625,0.05142857394218445,0.048026145087555046,-0.00984320249184966
1761379436598125300,1.962125244140625,0.04352057729661465,0.030261575011909007,-0.045343993331491944
1761379436608207000,1.97220703125,0.031605683097243306,0.025771935442462562,-0.05603314512819051
1761379436618289000,1.982288818359375,0.11600772135853767,-0.0027305209424346682,-0.07217632454708219
1761379436628372200,1.992372314453125,0.1102156939536333,-0.0049232817463576795,-0.07158171965479851
1761379436638454300,2.002454345703125,0.07934884652495383,-0.0513688796442002,-0.06468699170500039
1761379436648536300,2.012536376953125,0.0988876597315073,-0.10976626968570052,-0.06690919779911637
1761379436658618000,2.0226181640625,0.10220365241169929,-0.12457367045618593,-0.07756941576227545
1761379436668700200,2.0327001953125,0.026997312518954274,-0.10726378534547984,-0.04203676847964525
1761379436678783200,2.042783203125,0.05105331088900566,-0.12859671542719006,-0.00885609115064144
1761379436688865300,2.052865234375,0.09950433032512664,-0.13202603228874504,-0.0038619361251592634
1761379436698947000,2.062947021484375,0.07988368405401707,-0.10413476660475134,-0.04393982562199235
1761379436709029000,2.073029052734375,0.05189502241015434,-0.05559855310320854,-0.06183510940521955
1761379436719111200,2.083111083984375,0.027023616003990173,-0.07017630983628333,-0.039098230809718366
1761379436729193200,2.093193115234375,0.013467384338378905,-0.10170870850160717,-0.02613952664583921
1761379436739276300,2.1032763671875,0.040728900751471515,-0.16112228984832763,-0.004809153847396374
1761379436749358000,2.113358154296875,0.03648059565722942,-0.17482326374687254,-0.0026944997809827324
1761379436759440100,2.123440185546875,0.0003968903630971908,-0.1705977550063282,-0.006671002196520567
1761379436769522200,2.133522216796875,-0.01333820500075817,-0.13610826010107993,-0.0200379949003458
1761379436779604200,2.143604248046875,-0.008064063990116119,-0.10841953125186264,-0.05945610531419515
1761379436789687000,2.15368701171875,0.004670914420485496,-0.04982040809318423,-0.06401143053099513
1761379436799769000,2.16376904296875,0.0492693500816822,-0.005964534427598118,-0.04365414054840803
1761379436809851100,2.17385107421875,0.0826660082489252,-0.01849237289354205,-0.0721973673351109
1761379436819933200,2.18393310546875,0.07972586314380169,-0.031742168958485126,-0.10599588430151342
1761379436830015200,2.19401513671875,0.04500701646208763,-0.050816141132265326,-0.11513561469912528
1761379436840098000,2.20409814453125,0.036411622074246405,-0.052634954057261346,-0.15092822809219358
1761379436850180000,2.21418017578125,0.04146656737625599,-0.058117550186812875,-0.15721753749474882
1761379436860262100,2.22426220703125,0.05508768097162246,-0.06214220259301364,-0.1399791101850569
1761379436870344200,2.23434423828125,0.07107260108888148,-0.06505757858306169,-0.1362577515743673
1761379436880426200,2.24442626953125,0.07838496992886065,-0.04103453263454139,-0.12035101125985383
1761379436890509000,2.254509033203125,0.0980553005605936,-0.04188727700635791,-0.1214734394185245
1761379436900591000,2.264591064453125,0.019429507613182066,-0.014624299288541079,-0.13941753077954053
1761379436910673200,2.274673095703125,-0.023670213922858237,0.0021743483643978834,-0.12812281430512665
1761379436920755200,2.284755126953125,0.021598083823919294,-0.02090593684129417,-0.09047449004277587
1761379436930837200,2.294837158203125,0.05560089119076728,-0.03457717318870127,-0.0955608533963561
1761379436940919000,2.3049189453125,0.016648936983942986,-0.032490576172992586,-0.07940145349502563
1761379436951002000,2.315002197265625,-0.009747487032413482,-0.05647292478494346,-0.07956833449453116
1761379436961084200,2.325084228515625,0.02973638209402561,-0.05259849450439214,-0.07665858452767134
1761379436971166200,2.335166259765625,0.03757832776606083,-0.050745852375030515,-0.08532163732424378
1761379436981248300,2.345248291015625,0.029179917255043982,-0.0519392999432981,-0.055496261772513385
1761379436991330000,2.355330078125,0.046055064210295676,-0.0794228616092354,-0.0009364040672779082
1761379437001412600,2.36541259765625,0.033464462706446645,-0.12313355465047061,-0.009879442849010229
1761379437011494700,2.37549462890625,0.007522796720266341,-0.1194948328219354,-0.050730800936371084
1761379437021576700,2.38557666015625,-0.017567805394530296,-0.0946615664690733,-0.08527575235590339
1761379437031658800,2.39565869140625,-0.004479775762557983,-0.07363624103181064,-0.07316781980246305
1761379437041740500,2.405740478515625,0.012042319971323013,-0.07664799006842077,-0.06917115138173104
1761379437051823900,2.415823974609375,0.018197919991612434,-0.07045527290813625,-0.05161050638034939
1761379437061905700,2.42590576171875,0.05745557914674282,-0.05772000223658979,-0.05416895869150758
1761379437071987700,2.43598779296875,0.0688064097225666,-0.057020694860816,-0.06050298401862383
1761379437082069800,2.44606982421875,0.057144028979539865,-0.05284085189290345,-0.04512582053616643
1761379437092151600,2.456151611328125,0.034600773259997365,-0.06928286812789738,-0.03896627499312162
1761379437102235000,2.46623486328125,0.06535831509530544,-0.05794723512120545,-0.03351926163360476
1761379437112317000,2.47631689453125,0.06290156959295272,-0.030448841212317345,-0.03142915748655796
1761379437122399000,2.48639892578125,0.039082887110114095,-0.010478066329285501,-0.04033464073687792
1761379437132480500,2.49648046875,0.03031681233048439,0.0019620207879692316,-0.03071209525838494
1761379437142562600,2.5065625,0.053311318948864934,-0.01870462740473449,-0.032130437623709436
1761379437152646000,2.51664599609375,0.032414076870679855,-0.052861602419987316,-0.05774214100316166
1761379437162728000,2.52672802734375,0.011631401082873343,-0.05843384959436953,-0.09194514711722732
1761379437172809700,2.536809814453125,0.01796878741085529,-0.0366127706695348,-0.10446969764754176
1761379437182891800,2.546891845703125,0.03045183688700199,-0.026612770180776714,-0.08820084602236747
1761379437192973800,2.556973876953125,0.029298575198650357,-0.053914326343312856,-0.03962386211901903
1761379437203057000,2.567056884765625,0.04274491674900055,-0.07948730514757335,-0.024754502028226853
1761379437213139000,2.577138916015625,0.07334814480543136,-0.06397928182706236,-0.03612637539207935
1761379437223220700,2.587220703125,0.03286182063817978,-0.035033027197420595,-0.035011692148447036
1761379437233302800,2.597302734375,-0.06878595145642757,-0.007201748072355985,-0.011137918477505445
1761379437243384800,2.607384765625,0.15515256778895853,-0.03381495664454996,-0.011921616201102733
1761379437253468000,2.617468017578125,0.15752981831431387,-0.014890549009293317,0.009655132573843001
1761379437263549700,2.6275498046875,0.025433131942152975,0.016798136196285486,0.034304420661926266
1761379437273631700,2.6376318359375,-0.04361117818951606,0.005340045853704214,0.041455753721296784
1761379437283713800,2.6477138671875,0.04099076655805111,-0.03415924003757536,0.009093260907381773
1761379437293795800,2.6577958984375,0.09224632202088832,-0.024623788320645688,-0.053135816251486535
1761379437303879000,2.66787890625,0.0578834491699934,0.009429945515841245,-0.07239362055957317
1761379437313960700,2.677960693359375,-0.0072749594390392296,0.014920798017084598,-0.019156097499281165
1761379437324042800,2.688042724609375,-0.01495733063519001,0.020071020387113093,0.011121259603649377
1761379437334124800,2.698124755859375,0.03402268111109733,0.02000496941357851,-0.023846593403071163
1761379437344206800,2.708206787109375,0.11196399892568587,0.016223551178723573,-0.03205620334371924
1761379437354289700,2.71828955078125,0.12344167075157164,-0.022681860472634433,-0.0410096173889935
1761379437364371700,2.728371826171875,0.0443067592382431,-0.041401685446500774,-0.05164806191176176
1761379437374453800,2.738453857421875,-0.003587795358896255,-0.02965111496336758,-0.06470978805869818
1761379437384535800,2.748535888671875,0.003208440652489662,0.007864595895260573,-0.061850745365768664
1761379437394617900,2.758617919921875,0.015463526591658592,0.0640835459191352,-0.029753479359298944
1761379437404700700,2.76870068359375,0.03915069164931774,0.06901990634277462,-0.029935996319353578
1761379437414782700,2.77878271484375,0.0911404066056013,0.04404496649689972,-0.04613704340532422
1761379437424864800,2.78886474609375,0.05839607486724853,0.03876030409224331,-0.06918883316889404
1761379437434946800,2.79894677734375,-0.027300679379701612,0.04649045995287597,-0.04201251082122326
1761379437445028900,2.80902880859375,-0.014103344154357909,0.02873297720514238,-0.024741642546653748
1761379437455111700,2.819111572265625,0.0745358932852745,0.025146423955261704,-0.031004356203228233
1761379437465193700,2.82919384765625,-0.16363573397397993,0.08954086245447397,0.01271671210154891
1761379437475275800,2.83927587890625,0.2057651491731405,0.041353462390601635,-0.035019729324430225
1761379437485357800,2.84935791015625,0.27352351114749907,0.029236762008816003,-0.018083938223123548
1761379437495440000,2.85943994140625,0.10803367373943329,0.032316607845574614,-0.007333996149897575
1761379437505522700,2.869522705078125,-0.036199440628290176,0.023072686421126126,-0.006632716012746095
1761379437515604700,2.879604736328125,-0.05690963570177555,0.011222893347218632,0.0038531682968139646
1761379437525686800,2.889686767578125,0.033875381594896316,-0.01488287715949118,0.015106968238949775
1761379437535768800,2.899768798828125,0.12819967893362044,-0.03214716956280172,-0.005375263297557831
1761379437545851600,2.9098515625,0.12713175744116306,-0.008626227917522192,-0.027535218787938354
1761379437555933700,2.91993359375,0.043161096334457395,0.018387378149107098,-0.028207272830605506
1761379437566015700,2.930015625,-0.0012228197932243347,0.0227039261739701,-0.0544391539350152
1761379437576097800,2.940097900390625,-0.019670915153622626,0.03220657159984112,-0.08265256424546241
1761379437586179800,2.950179931640625,-0.0329828166693449,0.03790207982771098,-0.0271716461725533
1761379437596262700,2.9602626953125,0.013294950380921364,0.007139423425868153,0.015796119546890256
1761379437606344700,2.9703447265625,0.0667851330280304,-0.025633769080787894,-0.005635375538468361
1761379437616426800,2.9804267578125,0.02706979323327541,-0.031063831305503845,-0.02587912214398384
1761379437626508800,2.9905087890625,0.009728782331943511,0.0074679247278720134,-0.05513692694082856
1761379437636590600,3.000590576171875,0.062134676873683924,0.06548537554107606,-0.04675400625988841
1761379437646673700,3.010673583984375,0.09113806851804256,0.06793262256272137,0.00004807692542672157
1761379437656755700,3.020755615234375,0.08943827886283397,0.052703562314063306,0.03415507531911135
1761379437666837800,3.030837646484375,0.10042319873571395,0.057272842990979546,0.05003332019150257
1761379437676919800,3.040919921875,0.13898235423266886,0.04870616324096918,0.040177258218079805
1761379437687001600,3.051001708984375,0.1428413677483797,0.00510272996649146,-0.00628156448751688
1761379437697084700,3.061084716796875,0.08373217617571353,-0.040546602987125514,-0.03819339092448353
1761379437707166700,3.071166748046875,-0.012678864309191703,-0.044171004029363393,-0.05619973386675119
1761379437717248800,3.081248779296875,-0.039110359638929365,-0.041954423958435655,-0.04360767105817794
1761379437727330600,3.09133056640625,-0.030870354560017584,-0.027131460292637348,-0.04228255993425846
1761379437737412600,3.10141259765625,-0.03172901721596718,-0.03286189370341599,-0.056309185590595
1761379437747495700,3.11149560546875,-0.025410920110344886,-0.040301615250110626,-0.0416435313783586
1761379437757577700,3.12157763671875,0.03224865717589855,-0.0589588963817805,-0.001853226651251316
1761379437767659800,3.13165966796875,0.06589198358058929,-0.07903788087964057,-0.016978168938308953
1761379437777741600,3.141741455078125,0.054147769773006435,-0.06441153576448559,-0.034637159747630354
1761379437787823600,3.15182373046875,0.04675064525902271,-0.0405822588223964,-0.03222600695267319
1761379437797906700,3.16190673828125,0.048129532396793365,-0.025811171474307774,-0.020045593684911725
1761379437807988700,3.17198876953125,0.09318447965383529,-0.0053241906974464655,-0.002934592147171497
1761379437818070500,3.182070556640625,0.12044131989181041,-0.0008032061416655778,0.0009605155952274798
1761379437828152600,3.192152587890625,0.10022563033699988,-0.003083426033332944,-0.03273191064819694
1761379437838236000,3.20223583984375,0.04128887272179126,0.007166311432793736,-0.06331701852604746
1761379437848317700,3.212317626953125,-0.006377133816480636,0.012424597287178039,-0.07538374228626489
1761379437858399700,3.222399658203125,-0.00007189619243144989,0.012752514067292213,-0.06281184548288583
1761379437868481500,3.2324814453125,0.01241933659017086,0.016219897916913032,-0.037598786032199856
1761379437878563600,3.2425634765625,0.036298224827647205,0.0023051351372152563,-0.006343377677351236
1761379437888647000,3.25264697265625,0.04941606507599353,0.0066041475053876635,-0.011915478721261023
1761379437898729000,3.26272900390625,0.05775134722292423,0.029729440896585583,-0.01374473997503519
1761379437908810800,3.272810791015625,0.0450648841291666,0.028555428681150078,-0.03500087849348783
1761379437918892500,3.282892578125,0.05135960035920143,0.022829525315016506,-0.04984831901341676
1761379437928974600,3.292974609375,0.06107610773146152,0.00471205014847219,-0.07046630575880408
1761379437939058000,3.303057861328125,0.05529693980813026,0.0046470951534807676,-0.08483867611289024
1761379437949139700,3.3131396484375,0.04530629166960716,0.01508607158139348,-0.08441972004845738
1761379437959221800,3.3232216796875,0.05481061759591102,0.01890358404293656,-0.10648235264420508
1761379437969303800,3.3333037109375,0.06546703616678715,0.022271087714657186,-0.0818295574247837
1761379437979385900,3.3433857421875,0.10467033478617667,0.002363879587128758,-0.06978489936590195
1761379437989469000,3.353468994140625,0.09869009133279323,-0.028391251095384356,-0.10374825150519609
1761379437999550700,3.36355078125,0.012372574838995933,-0.04203523410968482,-0.13145955751240251
1761379438009632800,3.3736328125,-0.08244915062785148,-0.06858823692724109,-0.13293006845638156
1761379438019714800,3.38371484375,-0.1055494557082653,-0.10259981212243437,-0.08985285101309418
1761379438029798000,3.3937978515625,-0.07158931843936443,-0.14204386069513855,-0.04047171112000942
1761379438039879700,3.403879638671875,-0.009534721064567566,-0.10496456849239766,-0.027708967919647692
1761379438049961700,3.413961669921875,0.021323358535766602,-0.03462240056991577,-0.026722002708911893
1761379438060043800,3.424043701171875,0.04916705875098705,0.001445303437486291,-0.026549714881926773
1761379438070125800,3.434125732421875,0.08672609729468822,0.005035948340594768,-0.028400603445619343
1761379438080209000,3.444208984375,0.12682605249285697,0.0267011060513556,-0.04637055990025401
1761379438090290700,3.454290771484375,0.13248714699447153,0.042620340521261096,-0.05511442284807563
1761379438100372700,3.464372802734375,0.11860241402685641,0.027846988150849936,-0.03378521909341216
1761379438110454800,3.474454833984375,0.11990122166574001,0.0050208969019353384,0.014146744904667137
1761379438120536800,3.484536865234375,0.11087503464519977,-0.025005261918902396,0.013883856184780597
1761379438130619600,3.49461962890625,0.08194821536839007,-0.047612668915838,-0.003343026817589998
1761379438140701700,3.50470166015625,0.053043607923388476,-0.0601294745311141,-0.054255906322598454
1761379438150783700,3.51478369140625,-0.010481062003970145,-0.02516008715443313,-0.08540317812785506
1761379438160865800,3.52486572265625,-0.031551907083392144,-0.0001343669693917036,-0.04351955438330769
1761379438170947800,3.53494775390625,-0.01023380924463272,0.006866159442439675,-0.008828180230408907
1761379438181030700,3.54503076171875,0.00946224035024643,0.042996261161565776,-0.03591784720793366
1761379438191112700,3.55511279296875,0.012721534407138824,0.02784545378088951,-0.03849573487192392
1761379438201194800,3.56519482421875,0.002639700853824615,0.03580101589523255,-0.03545578265413642
1761379438211276800,3.57527685546875,0.0536222845941782,0.0731755647175014,0.00980579309090972
1761379438221359600,3.585359619140625,0.11828735672831535,0.09244315976724028,0.013597732719779014
1761379438231441700,3.595441650390625,0.09219546861648559,0.11397168548628688,-0.001155745906382799
1761379438241523700,3.605523681640625,0.042019525083899494,0.10991576115898788,-0.01659793744906783
1761379438251605800,3.615605712890625,0.01786298894882202,0.10797361411526799,-0.014476561380922794
1761379438261687800,3.625687744140625,0.030567572221159932,0.09742029059268534,-0.037431905032694335
1761379438271770600,3.6357705078125,0.021682254976034165,0.09058240739665925,-0.05013590378314257
1761379438281852700,3.645852783203125,0.03999123412668705,0.09522760285399853,-0.03939239145070314
1761379438291934700,3.655934814453125,0.08464812197685241,0.08028649270124733,-0.063357058275491
1761379438302016800,3.666016845703125,0.07031681428551674,0.09413659274689852,-0.07697174213007092
1761379438312098800,3.676098876953125,0.013698855006694793,0.09014737698026001,-0.061317661402374504
1761379438322181600,3.686181640625,-0.0038385552495718,0.0647504853952676,-0.01999064862728119
1761379438332263700,3.696263671875,0.026035774010419843,0.0227356364864856,-0.014701894569396972
1761379438342345700,3.706345703125,0.062307695353031156,-0.0021910803034901616,-0.02175926573500037
1761379438352427800,3.716427734375,0.055980830419063564,-0.006949819137901068,-0.030086218445003032
1761379438362510600,3.726510498046875,0.047938393738865846,-0.043523938297480344,-0.03850727917924523
1761379438372592600,3.736592529296875,0.05308978515267372,-0.07836816492453218,-0.026343378654867407
1761379438382674700,3.7466748046875,0.03315408158302307,-0.0998429146297276,-0.05954056872725486
1761379438392756700,3.7567568359375,0.017191373297572136,-0.08190086909532547,-0.10872662443965672
1761379438402838800,3.7668388671875,-0.013707622835040092,-0.06750504480041564,-0.06939838426634669
1761379438412921600,3.776921630859375,-0.015187047737836837,-0.08250672603398561,-0.002395370703935623
1761379438423003600,3.787003662109375,0.021252631387114522,-0.06605375001356005,0.04573708430230617
1761379438433085700,3.797085693359375,0.036676995012164114,-0.019357392225041986,0.010052022936940193
1761379438443167700,3.807167724609375,0.10037000724375247,-0.0006360328812152146,-0.05168094126805663
1761379438453249800,3.817249755859375,0.1614636506319046,-0.008607888543233275,-0.08842880955934523
1761379438463332600,3.82733251953125,0.10915303315818309,-0.01781871141567826,-0.08650368671566247
1761379438473414700,3.83741455078125,-0.007490063494443893,-0.03695208562649786,-0.04364288850203156
1761379438483496700,3.84749658203125,-0.08254910387098789,-0.03248670371547341,0.0018422668658196926
1761379438493578800,3.857578857421875,-0.08454056994915007,-0.026487244104966518,-0.012048603581637143
1761379438503661600,3.86766162109375,-0.0013537526965141295,-0.04092106232270598,-0.0161035780608654
1761379438513743600,3.87774365234375,0.049799511435627934,-0.010837181965261697,-0.0002079436622560024
1761379438523825700,3.88782568359375,0.10274082802832125,0.02412058803886175,-0.05301511248126626
1761379438533907700,3.89790771484375,0.07061082879602909,0.04817724399603903,-0.03708367611691356
1761379438543989800,3.90798974609375,0.0252098445802927,0.03899002119489014,-0.007527472895383834
1761379438554072600,3.918072509765625,0.04276537501513958,0.03927592546418309,-0.01362842011898756
1761379438564154600,3.928154541015625,0.08821136741638183,0.02634074830636382,-0.0519001369766891
1761379438574236700,3.938236572265625,0.10989128430485724,0.01907901367507875,-0.06224705120697617
1761379438584318700,3.948318603515625,0.11004325999617576,0.007941314393281936,-0.036043227153271434
1761379438594401800,3.95840185546875,0.0944563992857933,-0.014937603021413087,-0.029931320144236086
1761379438604483800,3.96848388671875,0.041537294524908064,-0.031373700972273946,-0.04263327306807041
1761379438614566000,3.97856591796875,0.016571195572614668,-0.022241642424464223,-0.04686711124554276
1761379438624648000,3.98864794921875,0.02833528312444687,0.006265344005078077,-0.04950783501267433
1761379438634729700,3.998729736328125,0.06920037747621535,0.02218158280029893,-0.05037614227980375
1761379438644812800,4.008812744140625,0.07001870812177657,0.02693023863211274,-0.020710195073485375
1761379438654894800,4.018894775390625,0.01227203707396984,0.012096826637536287,0.012080460024625062
1761379438664977000,4.028976806640625,0.02324994268417358,-0.02834880019314587,0.014930881019681692
1761379438675059000,4.039058837890625,0.06304828458726405,-0.03559482579864561,-0.01630845298320055
1761379438685141800,4.049141845703125,0.06587737053334712,0.005789616252109408,-0.03778247203603387
1761379438695223800,4.059223876953125,0.058176879158616066,0.0393232717372477,-0.045996319760382175
1761379438705305900,4.069305908203125,0.023899931025505066,0.028908845228701827,-0.03495353222042322
1761379438715388000,4.079387939453125,-0.008701777371764183,0.010883359194546938,-0.012694208008795976
1761379438725470000,4.089469970703125,0.027916765451431274,-0.015378040265291928,0.013434358851611613
1761379438735552800,4.099552734375,0.06346855582594871,-0.05070011353716254,-0.0013422083891928196
1761379438745634800,4.109634765625,0.029020342779159543,-0.06974705157354473,-0.011264759727567434
1761379438755716900,4.119716796875,-0.011920739418268203,-0.07498012992143631,-0.013023878354579209
1761379438765799000,4.129798828125,-0.028078678014874455,-0.04895904202349484,-0.02022255768701434
1761379438775880700,4.139880615234375,-0.0019616554617881772,-0.008184767760336399,-0.03064005293548107
1761379438785963800,4.1499638671875,0.03922317236363888,-0.004267813512310386,-0.03620207097679377
1761379438796045800,4.1600458984375,0.051931262767314905,-0.018999737893790006,-0.010959347040206194
1761379438806127900,4.1701279296875,0.08405717034637927,-0.038933980158716436,0.01284545304775238
1761379438816210000,4.1802099609375,0.09624328270256519,-0.042450244651362296,0.03210340348631143
1761379438826292700,4.190292724609375,0.08463000179827213,-0.05243197883106768,0.01400660578161478
1761379438836374800,4.200374755859375,0.06427694959938526,-0.04468677153177559,0.003433481580018997
1761379438846456800,4.210456787109375,0.051450201252102847,-0.01720255227871239,0.005267126747965812
1761379438856539000,4.220538818359375,0.018553309300541877,0.011175181747972964,0.04027019719853997
1761379438866620700,4.23062060546875,0.058200844556093215,0.026388459905609486,0.0535918894559145
1761379438876703700,4.240703857421875,0.11444704791307449,0.055007893733680244,0.04160539132505655
1761379438886785800,4.250785888671875,0.16251169838011265,0.09214593038633465,0.021586393386125564
1761379438896867800,4.260867919921875,0.14524083010554312,0.05694112681858241,-0.0021776363000273703
1761379438906949600,4.27094970703125,0.13175824819803236,0.00304046367444098,0.02715118790641427
1761379438917032700,4.28103271484375,0.06683364834487437,-0.05352247748151421,-0.0007993336841464042
1761379438927114800,4.29111474609375,-0.007881693160533904,-0.08000292651951313,0.002439209845662117
1761379438937196800,4.30119677734375,-0.025566987454891204,-0.10522468073330819,0.020674831499159337
1761379438947278800,4.31127880859375,0.0031067338436841963,-0.1188298661071807,0.01635126921162009
1761379438957360600,4.321360595703125,0.051446109598875044,-0.1096276649326086,0.01774666909277439
1761379438967443700,4.331443603515625,0.09152268392145634,-0.07904811001271009,-0.010714432368427514
1761379438977525800,4.34152587890625,0.08338321660757064,-0.04737557222433388,-0.03949439052045345
1761379438987607800,4.35160791015625,0.05391688362658024,-0.07060827151276171,-0.03880465469062328
1761379438997689900,4.36168994140625,0.0031780455142259596,-0.10223821226842701,-0.0476376572266221
1761379439007773000,4.37177294921875,0.008727496334910392,-0.11517404701337218,-0.034639497835189104
1761379439017855000,4.38185498046875,0.049918753901124,-0.0986021207883954,-0.005806494321674108
1761379439027937000,4.39193701171875,0.0566939471244812,-0.05096665551885962,0.002509352472424507
1761379439038018800,4.402018798828125,0.03302256415784359,-0.06293532573208213,0.019694880551099775
1761379439048100900,4.412100830078125,0.04571311890482902,-0.06885192936472595,0.0696462215475738
1761379439058184000,4.422183837890625,0.0862391905605793,-0.053028264223784205,0.03637669689133763
1761379439068266000,4.432265869140625,0.08778934261202812,-0.005024623228982091,0.04083279951736331
1761379439078348000,4.44234814453125,0.06400748500823975,-0.01730652410984039,0.056892246175557375
1761379439088429800,4.452429931640625,0.05154664736390113,-0.07312281161695719,0.02450403439849615
1761379439098513000,4.462512939453125,0.010273556733131408,-0.08532463299892842,-0.031209669516980645
1761379439108595000,4.472594970703125,-0.03461304821968078,-0.07363945590220392,-0.05028422621265054
1761379439118677000,4.482677001953125,-0.05826981813907623,-0.08281703409217298,-0.033197336202859876
1761379439128758800,4.4927587890625,-0.039863808354735374,-0.08353402325510978,-0.015917700099945066
1761379439138840800,4.5028408203125,0.03363338953256607,-0.05601838595047593,-0.016031389607489108
1761379439148924000,4.512923828125,0.05222527727782726,-0.03296966492682695,-0.013543810575455426
1761379439159006000,4.523005859375,0.10373919141590594,-0.015902356400340795,-0.018549656038731335
1761379439169088000,4.533087890625,0.14837620552182196,0.012521993247047065,-0.03691474929079413
1761379439179169800,4.543169677734375,0.16248188776373862,0.03658522507548332,-0.06447729447707533
1761379439189252900,4.5532529296875,0.14868191047012805,0.02659267724081874,-0.07796966712623835
1761379439199335000,4.5633349609375,0.07669979332089423,-0.015892565658688546,-0.07106339486911893
1761379439209417000,4.5734169921875,0.015443068325519562,-0.040431379109621045,-0.06874985722973942
1761379439219498800,4.583498779296875,0.03446984035670757,-0.034694735153764485,-0.0832971457593143
1761379439229580800,4.593580810546875,0.021022914284467696,-0.019547507969662547,-0.09543781153857707
1761379439239663900,4.603663818359375,0.004988309806585311,-0.0017225860089063643,-0.067646572162956
1761379439249746000,4.613745849609375,0.036622049954533574,0.03272190071083605,-0.052132776688784355
1761379439259828000,4.623827880859375,0.046323944279551506,0.03763561091125011,-0.03745806238725781
1761379439269909800,4.63390966796875,0.03637947337031364,0.022429054755344985,-0.012070377022027968
1761379439279992800,4.643992919921875,0.03761047646999359,0.002559767485409975,-0.008913520426303148
1761379439290075000,4.654074951171875,0.05210545029044151,-0.01465469442680478,-0.01897095019072294
1761379439300157000,4.664156982421875,0.06557926436960697,-0.041133170703426,-0.028201135350763795
1761379439310238700,4.67423876953125,0.07985036630630493,-0.041758609125390644,-0.024926789855211972
1761379439320320800,4.68432080078125,0.06633738926053047,-0.04120272880829871,-0.05331672577634453
1761379439330403800,4.69440380859375,0.023598902252316475,-0.048405207533016796,-0.07168313420265912
1761379439340486000,4.70448583984375,0.004953238493204117,-0.06801072930023074,-0.04144011776074767
1761379439350568000,4.71456787109375,0.027592940324544905,-0.10291012018062173,-0.022210516633838415
1761379439360649700,4.724649658203125,0.0393354005664587,-0.0945198199108243,-0.014171002563089131
1761379439370732800,4.73473291015625,0.05961597205102443,-0.06809497351758181,-0.02944792054146528
1761379439380814800,4.74481494140625,0.09767419228851795,-0.0789084823463112,-0.06237783797979354
1761379439390897000,4.75489697265625,0.06979834336936473,-0.09825016554556787,-0.08650280993282794
1761379439400978700,4.764978759765625,-0.010657003092765807,-0.12462350094728171,-0.08923618041947483
1761379439411060700,4.775060791015625,-0.012560790887475012,-0.10653400976620614,-0.092060444059968
1761379439421143800,4.785143798828125,0.021423896300792694,-0.05452398267425596,-0.08335632860064505
1761379439431225900,4.795225830078125,0.04385609286129474,-0.01941109517365694,-0.06799231686070561
1761379439441308000,4.805307861328125,0.0826665927708149,-0.007734174448624253,-0.052689387658238405
1761379439451389700,4.8153896484375,0.05762976666986942,-0.011264175205677747,-0.03854235049262643
1761379439461472800,4.82547265625,0.03144260149002075,0.004457490865513682,-0.020235417168587445
1761379439471554800,4.835554931640625,0.026282442247867584,0.001288724636286497,-0.041260377279669046
1761379439481636900,4.845636962890625,0.029411972445249557,0.03922280703745782,-0.04354132782369852
1761379439491718700,4.85571875,0.056737201744318004,0.06530008210204541,-0.03233721224218607
1761379439501802000,4.865802001953125,0.06307458807229996,0.04674048919118941,-0.045303515190631145
1761379439511884000,4.875884033203125,0.04920096102058887,0.028821313075721264,-0.048101475346088406
1761379439521966000,4.885966064453125,0.06801321351826191,-0.014267229479178786,-0.04776508299857378
1761379439532048000,4.8960478515625,0.043375031346082685,-0.04130319350808859,-0.009480506659299134
1761379439542129700,4.906129638671875,0.02508826402723789,-0.04638999525308609,-0.011517127053439616
1761379439552213000,4.916212890625,0.0277238732278347,-0.029312530658766624,-0.032465514796972274
1761379439562295000,4.926294921875,0.024499065962433814,-0.034865269415080544,-0.06513342029824852
1761379439572377000,4.936377197265625,-0.027667174604535102,-0.0363110112439841,-0.06489128210544585
1761379439582459000,4.946458984375,-0.0306213482350111,-0.009411240815371275,-0.009766630124300717
1761379439592542000,4.9565419921875,0.017336919248104096,0.01647438413463533,-0.009780804780125617
1761379439602624000,4.9666240234375,0.07921265292465686,0.022365341869369147,-0.019618600444495676
1761379439612706000,4.9767060546875,0.09489069904983043,0.028971900527551768,-0.007291033791005611
1761379439622787800,4.986787841796875,0.07157236730456353,0.02232281790189445,-0.02564911278039217
1761379439632870000,4.996869873046875,0.04524608591496944,0.009245601924881339,-0.0322280527792871
1761379439642953000,5.006952880859375,-0.009983049353957175,-0.00624700463078916,-0.048345220974087715
1761379439653035000,5.017034912109375,-0.008827449578046799,-0.004788768646493554,-0.04034077821671962
1761379439663117000,5.027116943359375,0.06513210512399673,0.008580342949181795,-0.04176993423700332
1761379439673198800,5.03719873046875,0.10359130737781524,0.017645766001567243,-0.04346607063040137
1761379439683282000,5.047281982421875,0.08003741331100464,0.022791239131242036,-0.03605754793956876
1761379439693364000,5.057364013671875,0.05953939968347549,0.021422946452721952,-0.0329031755618751
1761379439703446000,5.067446044921875,0.07022738243639469,0.008770312563329935,-0.030324557245522736
1761379439713527800,5.07752783203125,0.06726093384623527,0.0020251491520553826,-0.0627177374586463
1761379439723611000,5.08761083984375,0.03199322111010551,0.02626987502723932,-0.05917436576336622
1761379439733693000,5.09769287109375,0.022582418686151504,0.044544148190692065,-0.012076368371397255
1761379439743775000,5.10777490234375,0.02875438531935215,0.03900470730736851,0.002105886238068342
1761379439753857000,5.11785693359375,0.04398819480836391,0.03524111699014902,-0.012022007835656403
1761379439763938800,5.127938720703125,0.005459434449672698,0.029028306889906524,-0.020060498993098735
1761379439774022000,5.13802197265625,0.014250643670558928,0.00967975555844605,-0.056314592418074606
1761379439784104000,5.14810400390625,0.011094225466251372,-0.00020524024851620195,-0.07107800791636108
1761379439794186000,5.15818603515625,-0.00551554855108261,-0.03228548205494881,-0.07763605125769972
1761379439804267800,5.168267822265625,0.01944412066042423,-0.039837504869699475,-0.08213686980828643
1761379439814350800,5.178350830078125,0.0410346056997776,-0.052187064159289,-0.058888972950726745
1761379439824433000,5.188432861328125,0.07734276739954948,-0.0604839139919728,-0.05202800114005804
1761379439834515000,5.198514892578125,0.07104337499439715,-0.042171354644745584,-0.08147767524719238
1761379439844596700,5.2085966796875,0.05510697019398212,-0.04429492266997695,-0.07938260266408324
1761379439854678800,5.2186787109375,0.052371992272138596,-0.03254698253534734,-0.10917919051274656
1761379439864761900,5.228761962890625,0.09203706318438053,0.008919657906144856,-0.11100304493904113
1761379439874844000,5.238843994140625,0.15027356357574462,0.0015128887809813022,-0.10735504382550716
1761379439884926000,5.248926025390625,0.13376140471398829,-0.0254555629696697,-0.10919599551707505
1761379439895007700,5.2590078125,0.12927695277631282,-0.04312098351977765,-0.06680179190188645
1761379439905090800,5.2690908203125,0.10158230564296244,-0.04921966572105884,-0.05304083144441247
1761379439915172900,5.2791728515625,-0.003655599898099899,-0.04853767480626702,-0.027650661861151456
1761379439925255000,5.2892548828125,-0.0858119050592184,-0.0624213848605752,-0.014755232191830872
1761379439935336700,5.299336669921875,-0.11898995203971863,-0.06956679963581264,-0.05824950600340962
1761379439945419800,5.309419677734375,-0.06327624812424182,-0.05790427276231348,-0.05833879172205925
1761379439955501800,5.319501708984375,-0.009644611179828642,-0.03690663904957473,-0.0411534097738564
1761379439965584000,5.329583984375,0.043532267734408374,-0.020856033284962175,-0.014834288777410984
1761379439975666000,5.339666015625,0.05977730009257793,-0.04657053945176303,-0.05295359155237674
1761379439985747700,5.349747802734375,-0.06658698010742664,-0.056951648212596774,-0.11175795495957136
1761379439995831300,5.359831298828125,-0.10916004742085933,-0.04197583207264542,-0.05474909666702151
1761379440005913300,5.369913330078125,0.03375789269506931,-0.04964680509194731,-0.018159049285948275
1761379440015995400,5.379995361328125,0.13571955304443836,-0.0450554587136954,-0.045806642407178876
1761379440026077200,5.3900771484375,0.11226268961131572,-0.03581270633302629,-0.06377864468842745
1761379440036160500,5.400160400390625,0.07788754180073737,-0.03833586813509464,-0.05720058147236704
1761379440046242600,5.41024267578125,0.044943888098001476,-0.059104953788965936,-0.09412950541898607
1761379440056324400,5.420324462890625,-0.028058804270625112,-0.03604074293524027,-0.11332476588487625
1761379440066406100,5.43040625,-0.01625146209895611,-0.03961107570268214,-0.10837941843718289
1761379440076489500,5.440489501953125,0.02467442252933979,-0.045597164374962446,-0.07953370157256721
1761379440086571500,5.450571533203125,0.04384966312050819,-0.030454248039796947,-0.05644742501750588
1761379440096653600,5.460653564453125,0.05062777895331382,-0.008707914851605892,-0.05743818962052464
1761379440106735400,5.4707353515625,0.06059270812869071,0.00873531431518495,-0.0436903809055686
1761379440116817400,5.4808173828125,0.07416998258233069,0.002744768663495779,-0.03685600484088063
1761379440126900500,5.490900390625,0.06322890185117722,-0.009043795742467045,-0.06572247223258018
1761379440136982500,5.500982421875,0.04994213477671146,-0.026416809217259286,-0.07573679350763558
1761379440147064300,5.511064208984375,0.03944762876927852,-0.03551869182251394,-0.0915225377909839
1761379440157146400,5.521146484375,0.022495909446477887,-0.03086750501580536,-0.09181348356157541
1761379440167229400,5.5312294921875,0.04899754740297794,-0.039755964066088195,-0.07077215683758259
1761379440177311500,5.5413115234375,0.09792904383242129,-0.07073387065380811,-0.05358794393315911
1761379440187393500,5.5513935546875,0.12993395538032054,-0.08233699549026786,-0.054416065320372575
1761379440197475300,5.561475341796875,0.11101531989872455,-0.059208341098204255,-0.06108385264649987
1761379440207558400,5.571558349609375,0.0780740042835474,-0.04756824525222182,-0.10531097077727317
1761379440217640400,5.581640380859375,0.025655250260233877,-0.028648367661610243,-0.1358440562069416
1761379440227722500,5.591722412109375,-0.018313070803880692,0.00646620033942163,-0.13620602138713
1761379440237804300,5.60180419921875,-0.022336919492483138,0.03134396342113614,-0.07980141259804367
1761379440247887400,5.611887451171875,0.049420741251111025,0.013975260795280336,0.03316679493412375
1761379440257969400,5.621969482421875,0.11549451113939285,-0.036098099145665766,0.07597089452445506
1761379440268051500,5.632051513671875,0.1006213516563177,-0.06922923824451864,0.045982145104557275
1761379440278133500,5.642133544921875,0.006662965020537376,-0.05471271017938852,-0.01343231302499771
1761379440288215300,5.65221533203125,-0.13171324001252652,0.015622151219472288,-0.09551569908037781
1761379440298298400,5.66229833984375,-0.15051964729130268,0.040813656425476075,-0.04948518478944897
1761379440308380400,5.67238037109375,0.03267477363348007,-0.005965630406141281,0.04444762901365757
1761379440318462500,5.68246240234375,0.17063713716864584,-0.0738365128442645,0.002156593511998653
1761379440328544300,5.692544189453125,0.12370178299248218,-0.026797186836972832,-0.07033610350787639
1761379440338627300,5.70262744140625,0.04839490533471107,0.008497779232263565,-0.002559621354937553
1761379440348709400,5.71270947265625,0.028806407767534254,-0.027861820393800734,-0.04001023108810186
1761379440358791400,5.72279150390625,0.023146482309699058,-0.029504984490945935,-0.07486439458727837
1761379440368873500,5.73287353515625,0.07389934894740581,-0.014206220006942749,-0.03869900235906243
1761379440378956300,5.742956298828125,0.19255261637866497,-0.0480021796900779,0.01741203031092882
1761379440389038300,5.753038330078125,0.22494798854887485,-0.09626922086142004,-0.04006809875518083
1761379440399120400,5.763120361328125,0.1425754102885723,-0.09928162748515605,-0.0930630452312529
1761379440409202400,5.773202392578125,0.04206628683507442,-0.08405885084681212,-0.08860299708247184
1761379440419284200,5.7832841796875,-0.049725861677527426,-0.08400529402866959,-0.08122954570502042
1761379440429367300,5.7933671875,-0.18496493772864342,-0.04991393159553408,-0.006916939781606197
1761379440439449300,5.803449462890625,-0.20545885970294475,-0.03966236749850213,0.026925854717940092
1761379440449531400,5.813531494140625,-0.07592763990461826,-0.03233173234947025,-0.021617811437696217
1761379440459613400,5.823613525390625,0.06214928992092609,0.014612754981219767,-0.051761605288833376
1761379440469696300,5.8336962890625,0.15756547414958477,0.05916026417277753,-0.0070411506831645964
1761379440479778300,5.8437783203125,0.1891869393378496,0.05824614500254392,0.0007499415844678879
1761379440489860400,5.8538603515625,0.10830664546191691,0.030339681749418375,-0.006638853492587804
1761379440499942400,5.8639423828125,0.026737200278043747,0.008006707779690623,-0.02043386235013604
1761379440510025200,5.874025146484375,0.0040068975538015365,0.022674773144721983,-0.03713029173761606
1761379440520107300,5.884107177734375,0.03433656936585903,0.033605697808042165,-0.03076967066451907
1761379440530189300,5.894189208984375,0.08184650855958461,0.03183993024453521,-0.03297463336288929
1761379440540271400,5.904271240234375,0.12531973958313464,0.04045074139721691,-0.014884119268506765
1761379440550354400,5.9143544921875,0.11678338190615177,0.002156593511998653,-0.008646978444606065
1761379440560436200,5.924436279296875,0.09716390467882156,-0.03526844338849187,0.0045415889523923395
1761379440570518300,5.934518310546875,0.032498248022794725,-0.03759060272574424,0.01134074757322669
1761379440580600300,5.944600341796875,-0.03926058176457882,-0.01609444490633905,0.010418956553190946
1761379440590683400,5.954683349609375,-0.10292962859869002,-0.017091931511089203,0.011672902137041091
1761379440600765400,5.964765380859375,-0.049418987685441965,-0.03149082454591989,-0.01046279569491744
1761379440610847500,5.974847412109375,0.06387947471439838,-0.01878967533968389,-0.006201338858157396
1761379440620929500,5.984929443359375,0.07282149058282375,-0.014591419932246207,-0.003991407723724842
1761379440631012400,5.995012451171875,0.06441957294046878,-0.02277114619128406,-0.011750205156952142
1761379440641094400,6.005094482421875,0.04890460842251777,-0.036884134956821794,-0.02939092965722084
1761379440651176400,6.015176513671875,0.03611819208562374,-0.04177935965247452,-0.038325054480135436
1761379440661258500,6.025258544921875,0.06449497626423835,-0.02134009047485888,-0.02115019392594695
1761379440671340500,6.035340576171875,0.09624094461500644,-0.017446078711003066,-0.037074908288568256
1761379440681423400,6.04542333984375,0.10943477270901203,-0.0241641349196434,-0.041308600335568185
1761379440691505400,6.05550537109375,0.08183072646856307,0.0020388123512268064,-0.040877807702869175
1761379440701587500,6.06558740234375,0.04670855968296528,0.035222120028734205,-0.02520370710045099
1761379440711669500,6.07566943359375,0.02994038023352623,0.04509235665798187,0.025189970836043355
1761379440721752300,6.08575244140625,0.07223755321502685,0.027935031760483977,-0.0010983166307210921
1761379440731834400,6.09583447265625,0.08103343861103057,0.028559593399614093,-0.03152487294599414
1761379440741916400,6.10591650390625,0.0608417144536972,0.024269348859786984,-0.04510448548719287
1761379440751998500,6.11599853515625,0.021474749705195424,0.020888839576020835,-0.039255174937099215
1761379440762081300,6.126081298828125,-0.0015250176101922989,-0.00929360578507185,-0.051717035494744774
1761379440772163300,6.136163330078125,0.02211246308684349,-0.04405797210894525,-0.05222542340829968
1761379440782245400,6.146245361328125,0.022436872735619545,-0.05246412753500044,-0.0664057783216238
1761379440792327400,6.156327392578125,0.03148760967552662,-0.037672654986009,-0.05500774760320783
1761379440802410200,6.16641015625,0.06270984641313553,-0.00818674052171409,-0.048276685782521964
1761379440812492300,6.1764921875,0.1004863270998001,-0.0011090572204440832,-0.06743614428266882
1761379440822574300,6.18657421875,0.05402794278562069,0.019764511721208692,-0.04450651959404349
1761379440832656400,6.196656494140625,0.02288110937178135,0.019679609916731716,-0.011192425143718718
1761379440842739500,6.206739501953125,0.0319938056319952,0.008509104343876242,-0.012100333768874406
1761379440852821200,6.2168212890625,0.03630991526544094,-0.008097747064009309,0.0038201428100466724
1761379440862903300,6.2269033203125,0.05116144743859768,-0.00022131460048258303,-0.0059910571083426475
1761379440872985300,6.2369853515625,0.025568741020560264,0.026299758708849548,-0.029796295587718485
1761379440883068400,6.247068359375,0.0352004927188158,0.005254267266392707,-0.05511734545752406
1761379440893150200,6.257150146484375,0.03958265332579612,-0.013050985557213424,-0.09384557391107082
1761379440903232300,6.267232177734375,0.02228548156619072,-0.00935936449766159,-0.10281374713405966
1761379440913314300,6.277314208984375,-0.005727145475149155,-0.01050458901003003,-0.08036766817867755
1761379440923396400,6.287396240234375,-0.009199790021777152,-0.04983918585889041,-0.04613777405768633
1761379440933479400,6.2974794921875,0.03828384568691254,-0.07445968624390661,-0.03192643948420882
1761379440943561200,6.307561279296875,0.013308978906273842,-0.04861132456436753,-0.024389029716700313
1761379440953643300,6.317643310546875,0.041222237226366996,-0.002375058568269014,-0.0018488427370786666
1761379440963725300,6.327725341796875,0.1033750342786312,0.0251200474049896,-0.0077884619191288945
1761379440973808400,6.337808349609375,0.2129080066651106,0.009113865303993225,-0.025168343526124952
1761379440983890200,6.34789013671875,0.22092764699161052,-0.007996843972802162,-0.04813377018049359
1761379440993972200,6.35797216796875,0.09801029237508774,0.0023969050738960503,-0.030275019015371798
1761379441004053800,6.3680537109375,0.027336335214972494,0.015736936705559493,0.029276947888731954
1761379441014136800,6.37813671875,0.03997194490432739,-0.01631108333170414,0.014266571892052889
1761379441024219000,6.388218994140625,0.018827450066804884,-0.07515000659562647,-0.0034627076745033262
1761379441034301000,6.398301025390625,0.002928454667329788,-0.1164291616410017,-0.02804170700535178
1761379441044382700,6.4083828125,0.03502396710813045,-0.11249196832254528,-0.054271250022202726
1761379441054465800,6.4184658203125,0.0295668707460165,-0.07724142591692507,-0.07159896305054425
1761379441064547800,6.4285478515625,-0.007151040798425674,-0.03858516672104597,-0.0718538145944476
1761379441074630000,6.4386298828125,-0.051154433175921436,-0.014934899607673286,-0.02194222108647227
1761379441084711700,6.448711669921875,-0.003940262058377266,0.004868190558254718,0.030069705701619386
1761379441094794800,6.458794677734375,0.08240180435478686,0.023025705474242566,0.03403042602613568
1761379441104876800,6.468876708984375,0.13710194731354713,0.038226416411250824,-0.0073855802066624164
1761379441114958800,6.478958740234375,0.14358838672339916,0.028526933239027857,-0.014082447496801613
1761379441125041000,6.489041015625,0.1319575701624155,0.001074058972299099,-0.04043810111135244
1761379441135123700,6.499123779296875,0.10502104791998862,-0.017622823517397045,-0.0680536916591227
1761379441145205800,6.509205810546875,0.06825052940547466,-0.011365078296884894,-0.08132087725028395
1761379441155287800,6.519287841796875,0.0026665888607501982,-0.002547346395254135,-0.060863195633143186
1761379441165369900,6.529369873046875,-0.061686933106184005,0.004492416048422455,0.007808774054795503
1761379441175452700,6.53945263671875,-0.033221886122226714,-0.0019553718514740467,0.0028486674293875694
1761379441185534700,6.54953466796875,0.025702012011408804,0.003581438683345914,-0.019255612351000307
1761379441195616800,6.55961669921875,0.046558337557315824,-0.013597221263125538,-0.026371727966517208
1761379441205698800,6.56969873046875,0.016205284869670867,-0.023653920375183223,-0.04747209140136838
1761379441215781600,6.57978173828125,0.007754851910471916,-0.025576339805126188,-0.06599485943317412
1761379441225863700,6.58986376953125,-0.013349895438551902,-0.006922346609085798,-0.05341244123578071
1761379441235945700,6.59994580078125,0.010502104791998862,0.005472659257426858,-0.0333770766839385
1761379441246027800,6.61002783203125,0.11019523568749427,-0.012379077645018697,-0.014707447527348995
1761379441256110600,6.620110595703125,0.17968962767422197,-0.02369710192978382,-0.03487871341854334
1761379441266192600,6.630192626953125,0.17683248467743395,-0.009558540331572293,-0.045524464464932676
1761379441276274700,6.640274658203125,0.11225450630486011,0.001634396268799901,-0.049714463500678534
1761379441286356700,6.650356689453125,0.05406009148955345,-0.00651771133095026,-0.03201397163718939
1761379441296439600,6.660439453125,0.03377835096120834,-0.02021985427327454,-0.00766731975749135
1761379441306521600,6.670521484375,0.028615853631496428,-0.02592296128571033,0.028105127630382774
1761379441316603600,6.680603759765625,-0.01303366909623146,0.02803447354696691,0.040871524092555046
1761379441326685700,6.690685791015625,-0.02637888835966587,0.09411328493654728,0.026069676280021666
1761379441336768500,6.7007685546875,-0.012542670708894728,0.07658354653008281,0.017682225554436444
1761379441346850600,6.7108505859375,0.004369301125407218,0.05358911297693848,0.01867357467934489
1761379441356932600,6.7209326171875,0.10724164657890796,0.03721599725969135,0.0167070969119668
1761379441367014700,6.7310146484375,0.19771043753325937,0.019438348506763577,-0.058835196936875576
1761379441377097700,6.74109765625,0.27122224846780296,-0.01728336242996156,-0.036949674473702905
1761379441387179800,6.7511796875,-0.07653028197288513,-0.11735146411769092,-0.0018159633807837963
1761379441397261600,6.761261474609375,-0.09826163678765297,-0.12134352942854165,0.018611615359038113
1761379441407343600,6.771343505859375,-0.07128069088160992,-0.009062646573409437,-0.04700359710678458
1761379441417427000,6.781427001953125,-0.04196750263571739,0.06822334913760424,-0.020365619419515132
1761379441427508700,6.7915087890625,0.03999064960479736,0.06884528042823077,-0.03333279915079474
1761379441437590800,6.8015908203125,0.06685118400156498,0.07721621841043233,-0.08279153432473539
1761379441447672800,6.8116728515625,0.02705167305469513,0.03849471195861697,-0.0745021371461451
1761379441457756000,6.821755859375,-0.09675473935604095,-0.028799393504858016,-0.015838497383892536
1761379441467837700,6.831837646484375,-0.1465489900946617,-0.05336721385456621,-0.0005902209781110286
1761379441477919700,6.841919677734375,-0.09631985507011413,-0.018469795735552907,0.021534078676998615
1761379441488001800,6.852001708984375,0.012992168042063712,0.0055013008300215,0.05760887001231312
