time,seconds_elapsed,z,y,x
1761379434701417500,0.06541748046875,-0.993560791015625,0.0692291259765625,0.131805419921875
1761379434711500300,0.075500244140625,-0.980255126953125,0.079010009765625,0.128662109375
1761379434721582300,0.085582275390625,-0.969757080078125,0.0917205810546875,0.1274871826171875
1761379434731664400,0.095664306640625,-0.9669342041015625,0.0999298095703125,0.12445068359375
1761379434741746400,0.105746337890625,-0.96929931640625,0.109466552734375,0.1277008056640625
1761379434751828500,0.115828369140625,-0.978424072265625,0.1138763427734375,0.132720947265625
1761379434761910500,0.12591064453125,-0.9817962646484375,0.109771728515625,0.1391754150390625
1761379434771992300,0.135992431640625,-0.9982452392578125,0.095001220703125,0.1464385986328125
1761379434782075400,0.146075439453125,-1.005096435546875,0.081298828125,0.1493072509765625
1761379434792157400,0.156157470703125,-0.998138427734375,0.0754241943359375,0.151763916015625
1761379434802239500,0.166239501953125,-0.97308349609375,0.0801239013671875,0.1481781005859375
1761379434812321500,0.176321533203125,-0.977691650390625,0.0825653076171875,0.1279449462890625
1761379434822403300,0.1864033203125,-0.97332763671875,0.092437744140625,0.140350341796875
1761379434832485400,0.1964853515625,-0.95806884765625,0.0854949951171875,0.1547393798828125
1761379434842568400,0.206568359375,-0.95703125,0.075469970703125,0.1476898193359375
1761379434852650500,0.216650390625,-0.957000732421875,0.081146240234375,0.1421356201171875
1761379434862732300,0.226732177734375,-0.973907470703125,0.090789794921875,0.140594482421875
1761379434872814300,0.236814453125,-1.0105133056640625,0.092681884765625,0.1376190185546875
1761379434882896400,0.246896484375,-1.04931640625,0.0974884033203125,0.136566162109375
1761379434892978400,0.256978515625,-1.0425262451171875,0.09783935546875,0.138824462890625
1761379434903060500,0.267060546875,-0.99053955078125,0.0890350341796875,0.1479644775390625
1761379434913143300,0.277143310546875,-0.9403228759765625,0.081756591796875,0.1494140625
1761379434923225300,0.287225341796875,-0.9178009033203125,0.0831298828125,0.144561767578125
1761379434933307400,0.297307373046875,-0.933441162109375,0.0901031494140625,0.14483642578125
1761379434943389400,0.307389404296875,-0.9681396484375,0.0915374755859375,0.1490325927734375
1761379434953471500,0.317471435546875,-0.98919677734375,0.088470458984375,0.149322509765625
1761379434963553500,0.327553466796875,-1.0008697509765625,0.0897674560546875,0.1456451416015625
1761379434973636400,0.33763623046875,-0.998199462890625,0.091461181640625,0.14617919921875
1761379434983718400,0.347718505859375,-0.982513427734375,0.091766357421875,0.1478118896484375
1761379434993804500,0.357804443359375,-0.9731903076171875,0.0909423828125,0.1528472900390625
1761379435003886300,0.36788623046875,-0.9746856689453125,0.0875396728515625,0.154327392578125
1761379435013968400,0.377968505859375,-0.984893798828125,0.0874176025390625,0.1495208740234375
1761379435024050400,0.388050537109375,-0.9988250732421875,0.0933685302734375,0.1473541259765625
1761379435034133500,0.398133544921875,-1.0005035400390625,0.0950775146484375,0.150787353515625
1761379435044215600,0.408215576171875,-0.9851226806640625,0.086822509765625,0.1561279296875
1761379435054297300,0.41829736328125,-0.9779052734375,0.0825042724609375,0.1555938720703125
1761379435064379400,0.42837939453125,-0.977142333984375,0.0877227783203125,0.153594970703125
1761379435074461400,0.43846142578125,-0.97454833984375,0.09381103515625,0.1493072509765625
1761379435084543500,0.44854345703125,-0.9777069091796875,0.09521484375,0.1484527587890625
1761379435094625500,0.45862548828125,-0.9812774658203125,0.09027099609375,0.148162841796875
1761379435104708400,0.468708251953125,-0.9860382080078125,0.0843353271484375,0.15185546875
1761379435114790400,0.478790283203125,-0.994537353515625,0.08233642578125,0.1562042236328125
1761379435124872400,0.48887255859375,-0.9892120361328125,0.084320068359375,0.1599578857421875
1761379435134954500,0.49895458984375,-0.9751129150390625,0.090301513671875,0.1585540771484375
1761379435145036500,0.50903662109375,-0.9639434814453125,0.0947418212890625,0.1578521728515625
1761379435155118600,0.51911865234375,-0.9507598876953125,0.0948638916015625,0.1580963134765625
1761379435165201400,0.529201416015625,-0.9522552490234375,0.089813232421875,0.1618499755859375
1761379435175283500,0.539283447265625,-0.9499053955078125,0.08343505859375,0.162261962890625
1761379435185365500,0.549365478515625,-0.9727325439453125,0.0808258056640625,0.157196044921875
1761379435195447600,0.559447509765625,-1.0005645751953125,0.082763671875,0.1502532958984375
1761379435205529300,0.569529296875,-1.002899169921875,0.0833282470703125,0.1428070068359375
1761379435215611400,0.579611328125,-0.9932708740234375,0.0817413330078125,0.1447906494140625
1761379435225693400,0.589693359375,-0.9853668212890625,0.080963134765625,0.1510009765625
1761379435235776500,0.599776611328125,-0.9871063232421875,0.0827178955078125,0.1513519287109375
1761379435245858300,0.6098583984375,-0.9821014404296875,0.0880584716796875,0.147216796875
1761379435255940400,0.6199404296875,-0.967559814453125,0.0876922607421875,0.1458282470703125
1761379435266022400,0.6300224609375,-0.9650421142578125,0.0826568603515625,0.14324951171875
1761379435276104400,0.6401044921875,-0.96630859375,0.0794830322265625,0.14776611328125
1761379435286186500,0.6501865234375,-0.9709320068359375,0.080902099609375,0.153839111328125
1761379435296269300,0.660269287109375,-0.97039794921875,0.0826568603515625,0.155853271484375
1761379435306351400,0.670351318359375,-0.9738006591796875,0.079864501953125,0.157196044921875
1761379435316433400,0.680433349609375,-0.977386474609375,0.0787811279296875,0.1529083251953125
1761379435326515500,0.690515380859375,-0.97808837890625,0.0823516845703125,0.150177001953125
1761379435336597500,0.700597412109375,-0.9796600341796875,0.0838623046875,0.14349365234375
1761379435346679600,0.710679443359375,-0.9870758056640625,0.0843048095703125,0.141845703125
1761379435356762400,0.720762451171875,-0.9937286376953125,0.0840606689453125,0.1459503173828125
1761379435366844400,0.730844482421875,-0.9889678955078125,0.0810546875,0.1475982666015625
1761379435376926500,0.740926513671875,-0.981292724609375,0.078887939453125,0.1496124267578125
1761379435387008500,0.751008544921875,-0.9758758544921875,0.078704833984375,0.1501922607421875
1761379435397090600,0.761090576171875,-0.97344970703125,0.0791015625,0.1464385986328125
1761379435407172400,0.77117236328125,-0.97833251953125,0.079925537109375,0.1460418701171875
1761379435417255400,0.78125537109375,-0.9821014404296875,0.0783538818359375,0.142974853515625
1761379435427337500,0.79133740234375,-0.987640380859375,0.079559326171875,0.139984130859375
1761379435437419500,0.80141943359375,-0.991424560546875,0.0793609619140625,0.137542724609375
1761379435447501300,0.811501220703125,-0.9894561767578125,0.077392578125,0.1354522705078125
1761379435457583400,0.821583251953125,-0.988494873046875,0.0765228271484375,0.13238525390625
1761379435467665400,0.83166552734375,-0.98687744140625,0.0780181884765625,0.1350250244140625
1761379435477747500,0.84174755859375,-0.9821929931640625,0.08148193359375,0.1369781494140625
1761379435487830500,0.85183056640625,-0.9794769287109375,0.0854034423828125,0.1393280029296875
1761379435497912300,0.861912353515625,-0.984039306640625,0.085723876953125,0.14312744140625
1761379435507994400,0.871994384765625,-0.984130859375,0.0852508544921875,0.144439697265625
1761379435518076400,0.882076416015625,-0.9776611328125,0.0868072509765625,0.1436309814453125
1761379435528158500,0.892158447265625,-0.972900390625,0.08917236328125,0.142730712890625
1761379435538240500,0.902240478515625,-0.972686767578125,0.0887298583984375,0.144378662109375
1761379435548323300,0.9123232421875,-0.974700927734375,0.08575439453125,0.1450042724609375
1761379435558405400,0.9224052734375,-0.9790802001953125,0.0829315185546875,0.1440887451171875
1761379435568487400,0.9324873046875,-0.9850616455078125,0.081939697265625,0.1413116455078125
1761379435578569500,0.942569580078125,-0.9902801513671875,0.083526611328125,0.1393280029296875
1761379435588651500,0.952651611328125,-0.989959716796875,0.0847015380859375,0.14276123046875
1761379435598733300,0.9627333984375,-0.9855804443359375,0.0855712890625,0.1436767578125
1761379435608816400,0.97281640625,-0.98382568359375,0.088592529296875,0.14788818359375
1761379435618898400,0.9828984375,-0.9800872802734375,0.09234619140625,0.14849853515625
1761379435628980500,0.99298046875,-0.9782562255859375,0.093231201171875,0.145538330078125
1761379435639062500,1.0030625,-0.981353759765625,0.09088134765625,0.1449737548828125
1761379435649144300,1.013144287109375,-0.98919677734375,0.0867767333984375,0.14666748046875
1761379435659226400,1.023226318359375,-0.98828125,0.0830078125,0.146240234375
1761379435669309400,1.033309326171875,-0.9835968017578125,0.080535888671875,0.146575927734375
1761379435679391500,1.0433916015625,-0.9772491455078125,0.080474853515625,0.14898681640625
1761379435689473300,1.053473388671875,-0.9700927734375,0.08258056640625,0.1492767333984375
1761379435699555300,1.063555419921875,-0.966949462890625,0.0840301513671875,0.15087890625
1761379435709637400,1.073637451171875,-0.97052001953125,0.0819091796875,0.148834228515625
1761379435719719400,1.083719482421875,-0.97930908203125,0.082916259765625,0.148712158203125
1761379435729802500,1.093802490234375,-0.981414794921875,0.085601806640625,0.1463470458984375
1761379435739884300,1.10388427734375,-0.977447509765625,0.0852508544921875,0.143280029296875
1761379435749966300,1.11396630859375,-0.9777069091796875,0.08294677734375,0.1385498046875
1761379435760048400,1.12404833984375,-0.982635498046875,0.0799713134765625,0.138580322265625
1761379435770130400,1.13413037109375,-0.9829254150390625,0.0779876708984375,0.1399383544921875
1761379435780212500,1.14421240234375,-0.982666015625,0.0788116455078125,0.1375885009765625
1761379435790295300,1.15429541015625,-0.9850616455078125,0.0826568603515625,0.1393585205078125
1761379435800377300,1.16437744140625,-0.984375,0.0845489501953125,0.1433563232421875
1761379435810459400,1.17445947265625,-0.981536865234375,0.083953857421875,0.147247314453125
1761379435820541400,1.18454150390625,-0.9807586669921875,0.080596923828125,0.1500701904296875
1761379435830623500,1.19462353515625,-0.9814605712890625,0.0765228271484375,0.148956298828125
1761379435840706300,1.204706298828125,-0.978912353515625,0.077484130859375,0.14447021484375
1761379435850788400,1.214788330078125,-0.975799560546875,0.0798492431640625,0.14410400390625
1761379435860870400,1.224870361328125,-0.97613525390625,0.07928466796875,0.142852783203125
1761379435870952400,1.234952392578125,-0.98284912109375,0.080108642578125,0.14208984375
1761379435881034500,1.245034423828125,-0.99261474609375,0.0796051025390625,0.145599365234375
1761379435891116300,1.2551162109375,-0.9913482666015625,0.078460693359375,0.1471099853515625
1761379435901199400,1.265199462890625,-0.9879302978515625,0.0792083740234375,0.144744873046875
1761379435911281400,1.275281494140625,-0.98486328125,0.0812225341796875,0.143218994140625
1761379435921363500,1.285363525390625,-0.9795379638671875,0.0812530517578125,0.1457366943359375
1761379435931445200,1.2954453125,-0.977569580078125,0.08154296875,0.1490478515625
1761379435941527300,1.30552734375,-0.9779205322265625,0.0819091796875,0.1492156982421875
1761379435951609300,1.315609375,-0.9824676513671875,0.08123779296875,0.1507110595703125
1761379435961692400,1.3256923828125,-0.9834442138671875,0.07672119140625,0.153594970703125
1761379435971774500,1.3357744140625,-0.9765472412109375,0.071624755859375,0.15167236328125
1761379435981856300,1.345856201171875,-0.976470947265625,0.0761566162109375,0.1500244140625
1761379435991934000,1.355933837890625,-0.9805450439453125,0.084320068359375,0.14892578125
1761379436002016000,1.36601611328125,-0.9788665771484375,0.090118408203125,0.150054931640625
1761379436012098000,1.37609814453125,-0.97674560546875,0.09393310546875,0.153472900390625
1761379436022181000,1.38618115234375,-0.9766387939453125,0.095458984375,0.1591033935546875
1761379436032263200,1.39626318359375,-0.9808349609375,0.0931243896484375,0.16253662109375
1761379436042345000,1.406344970703125,-0.982635498046875,0.08880615234375,0.1635284423828125
1761379436052427000,1.416427001953125,-0.9831085205078125,0.08441162109375,0.162261962890625
1761379436062509000,1.426509033203125,-0.98114013671875,0.0836029052734375,0.162445068359375
1761379436072592100,1.436592041015625,-0.9796142578125,0.0863037109375,0.1608428955078125
1761379436082674000,1.446673828125,-0.9808349609375,0.087127685546875,0.1595611572265625
1761379436092756000,1.456755859375,-0.9774627685546875,0.0848541259765625,0.1603240966796875
1761379436102838000,1.466838134765625,-0.9720916748046875,0.079498291015625,0.162139892578125
1761379436112920000,1.476920166015625,-0.9687042236328125,0.074493408203125,0.159515380859375
1761379436123002000,1.487002197265625,-0.97247314453125,0.07470703125,0.155303955078125
1761379436133085000,1.4970849609375,-0.9755706787109375,0.075286865234375,0.152435302734375
1761379436143167000,1.5071669921875,-0.9782867431640625,0.0740814208984375,0.1478118896484375
1761379436153249000,1.5172490234375,-0.982574462890625,0.0728302001953125,0.147613525390625
1761379436163331000,1.5273310546875,-0.9820709228515625,0.0694122314453125,0.14605712890625
1761379436173413000,1.5374130859375,-0.9803314208984375,0.0673980712890625,0.14105224609375
1761379436183495200,1.5474951171875,-0.9785919189453125,0.0697174072265625,0.1414794921875
1761379436193578000,1.557577880859375,-0.9762115478515625,0.073272705078125,0.13555908203125
1761379436203660000,1.567659912109375,-0.980926513671875,0.0794677734375,0.13580322265625
1761379436213742000,1.5777421875,-0.9850311279296875,0.081207275390625,0.14263916015625
1761379436223824100,1.58782421875,-0.9807891845703125,0.0781097412109375,0.146514892578125
1761379436233906000,1.597906005859375,-0.9756927490234375,0.078399658203125,0.1472625732421875
1761379436243989200,1.6079892578125,-0.9755859375,0.0804290771484375,0.1478424072265625
1761379436254071000,1.618071044921875,-0.9809722900390625,0.081390380859375,0.149871826171875
1761379436264153000,1.628153076171875,-0.98974609375,0.0803375244140625,0.1475982666015625
1761379436274235100,1.638235107421875,-0.9935302734375,0.078399658203125,0.145294189453125
1761379436284317000,1.64831689453125,-0.989898681640625,0.0811920166015625,0.146392822265625
1761379436294399000,1.65839892578125,-0.984161376953125,0.0867919921875,0.1500091552734375
1761379436304482300,1.668482421875,-0.9769744873046875,0.09130859375,0.1571044921875
1761379436314564400,1.678564453125,-0.974151611328125,0.0918426513671875,0.162139892578125
1761379436324646000,1.68864599609375,-0.9731903076171875,0.0901947021484375,0.1572113037109375
1761379436334728000,1.69872802734375,-0.976226806640625,0.089691162109375,0.1502838134765625
1761379436344810000,1.70881005859375,-0.980438232421875,0.088623046875,0.1489715576171875
1761379436354893300,1.718893310546875,-0.984222412109375,0.0796966552734375,0.152099609375
1761379436364975000,1.72897509765625,-0.98284912109375,0.0732421875,0.1545562744140625
1761379436375057200,1.73905712890625,-0.9816131591796875,0.0709075927734375,0.154083251953125
1761379436385139200,1.74913916015625,-0.9803924560546875,0.0775299072265625,0.14971923828125
1761379436395221000,1.759220947265625,-0.98065185546875,0.0862579345703125,0.146728515625
1761379436405303000,1.769302978515625,-0.9832763671875,0.09088134765625,0.1536102294921875
1761379436415386000,1.77938623046875,-0.9799041748046875,0.087890625,0.15936279296875
1761379436425468200,1.78946826171875,-0.973541259765625,0.0848541259765625,0.1621246337890625
1761379436435550200,1.79955029296875,-0.9750213623046875,0.0829315185546875,0.161956787109375
1761379436445632300,1.80963232421875,-0.97900390625,0.082763671875,0.160797119140625
1761379436455714300,1.81971435546875,-0.9764251708984375,0.0825653076171875,0.1573638916015625
1761379436465797000,1.829797119140625,-0.9754638671875,0.0877227783203125,0.1552886962890625
1761379436475879200,1.839879150390625,-0.9775543212890625,0.0912933349609375,0.1573486328125
1761379436485961200,1.849961181640625,-0.97772216796875,0.0913848876953125,0.160552978515625
1761379436496043300,1.860043212890625,-0.9763641357421875,0.08984375,0.162689208984375
1761379436506125300,1.870125244140625,-0.978302001953125,0.0905609130859375,0.160797119140625
1761379436516207000,1.88020703125,-0.9773712158203125,0.0924835205078125,0.1603546142578125
1761379436526290200,1.890290283203125,-0.97802734375,0.09210205078125,0.1555633544921875
1761379436536372200,1.900372314453125,-0.9845123291015625,0.0926666259765625,0.154327392578125
1761379436546454300,1.910454345703125,-0.9874114990234375,0.0956268310546875,0.162872314453125
1761379436556536300,1.920536376953125,-0.9860382080078125,0.094390869140625,0.163299560546875
1761379436566618000,1.9306181640625,-0.9835968017578125,0.0924072265625,0.1629791259765625
1761379436576701200,1.940701171875,-0.9806976318359375,0.0925750732421875,0.161102294921875
1761379436586783200,1.950783203125,-0.9762725830078125,0.0910491943359375,0.1593780517578125
1761379436596865300,1.960865234375,-0.9805755615234375,0.0901336669921875,0.1568450927734375
1761379436606947000,1.970947021484375,-0.97650146484375,0.0884857177734375,0.1561126708984375
1761379436617029000,1.981029052734375,-0.969879150390625,0.0869140625,0.15521240234375
1761379436627112200,1.9911123046875,-0.9734039306640625,0.0857391357421875,0.1551513671875
1761379436637194200,2.0011943359375,-0.974334716796875,0.080169677734375,0.1566314697265625
1761379436647276300,2.0112763671875,-0.9723663330078125,0.07562255859375,0.1555633544921875
1761379436657358000,2.021358154296875,-0.9737396240234375,0.075775146484375,0.15625
1761379436667440000,2.031440185546875,-0.98114013671875,0.077178955078125,0.161590576171875
1761379436677523200,2.041523193359375,-0.974212646484375,0.074462890625,0.1632080078125
1761379436687605200,2.051605224609375,-0.9728851318359375,0.0758209228515625,0.16217041015625
1761379436697687000,2.06168701171875,-0.975494384765625,0.0799713134765625,0.15740966796875
1761379436707769000,2.07176904296875,-0.978240966796875,0.0829010009765625,0.157562255859375
1761379436717851100,2.08185107421875,-0.9817657470703125,0.080474853515625,0.1593780517578125
1761379436727933200,2.09193310546875,-0.9801025390625,0.075775146484375,0.1602935791015625
1761379436738016300,2.102016357421875,-0.978118896484375,0.07122802734375,0.162384033203125
1761379436748098000,2.11209814453125,-0.9804229736328125,0.0705413818359375,0.1616973876953125
1761379436758180000,2.12218017578125,-0.9834442138671875,0.072540283203125,0.161590576171875
1761379436768262100,2.13226220703125,-0.984039306640625,0.0756072998046875,0.1595611572265625
1761379436778344200,2.14234423828125,-0.9833221435546875,0.079193115234375,0.1555938720703125
1761379436788427000,2.152427001953125,-0.980804443359375,0.085479736328125,0.1569671630859375
1761379436798509000,2.162509033203125,-0.976104736328125,0.0872802734375,0.1576995849609375
1761379436808591000,2.172591064453125,-0.973663330078125,0.0857086181640625,0.1541290283203125
1761379436818673200,2.182673095703125,-0.9758453369140625,0.084228515625,0.1519622802734375
1761379436828755200,2.192755126953125,-0.9786224365234375,0.082427978515625,0.151031494140625
1761379436838838000,2.202838134765625,-0.9783935546875,0.08251953125,0.1477203369140625
1761379436848920000,2.212920166015625,-0.9778900146484375,0.0816802978515625,0.1488189697265625
1761379436859002000,2.223002197265625,-0.97625732421875,0.081329345703125,0.150238037109375
1761379436869084200,2.233084228515625,-0.975311279296875,0.082366943359375,0.1505126953125
1761379436879166200,2.243166259765625,-0.9733123779296875,0.0843963623046875,0.152130126953125
1761379436889249000,2.2532490234375,-0.9748077392578125,0.084930419921875,0.1508331298828125
1761379436899331000,2.2633310546875,-0.983428955078125,0.0879974365234375,0.149444580078125
1761379436909413000,2.2734130859375,-0.9838104248046875,0.088592529296875,0.152313232421875
1761379436919495200,2.2834951171875,-0.9786376953125,0.0858154296875,0.1539764404296875
1761379436929577200,2.2935771484375,-0.9775390625,0.0856170654296875,0.1534423828125
1761379436939659000,2.303658935546875,-0.983367919921875,0.0847930908203125,0.154876708984375
1761379436949742000,2.3137421875,-0.9821624755859375,0.0828399658203125,0.1540985107421875
1761379436959824100,2.32382421875,-0.97918701171875,0.0838470458984375,0.15399169921875
1761379436969906200,2.33390625,-0.979278564453125,0.0836334228515625,0.1529998779296875
1761379436979988200,2.34398828125,-0.97943115234375,0.0832672119140625,0.15771484375
1761379436990070000,2.354070068359375,-0.978302001953125,0.07940673828125,0.160888671875
1761379437000152800,2.36415283203125,-0.9807586669921875,0.07611083984375,0.157958984375
1761379437010235000,2.37423486328125,-0.9832611083984375,0.0777740478515625,0.1531524658203125
1761379437020317000,2.38431689453125,-0.9851531982421875,0.0806732177734375,0.15167236328125
1761379437030398700,2.394398681640625,-0.9822845458984375,0.0813140869140625,0.1527252197265625
1761379437040480800,2.404480712890625,-0.982330322265625,0.0813446044921875,0.1534881591796875
1761379437050563800,2.414563720703125,-0.97943115234375,0.0818939208984375,0.155242919921875
1761379437060646000,2.42464599609375,-0.9764404296875,0.08282470703125,0.153778076171875
1761379437070728000,2.43472802734375,-0.9760589599609375,0.08319091796875,0.154296875
1761379437080809700,2.444809814453125,-0.9787139892578125,0.08251953125,0.1557464599609375
1761379437090891800,2.454891845703125,-0.978729248046875,0.081573486328125,0.156280517578125
1761379437100974800,2.464974853515625,-0.975799560546875,0.083526611328125,0.1570281982421875
1761379437111057000,2.475056884765625,-0.9776611328125,0.0861968994140625,0.1575469970703125
1761379437121138700,2.485138671875,-0.979644775390625,0.0879669189453125,0.1575469970703125
1761379437131220700,2.495220703125,-0.97869873046875,0.0880584716796875,0.15887451171875
1761379437141302800,2.505302734375,-0.9775390625,0.085052490234375,0.1584930419921875
1761379437151385900,2.5153857421875,-0.980377197265625,0.082183837890625,0.1557159423828125
1761379437161468000,2.525468017578125,-0.9817047119140625,0.082794189453125,0.153167724609375
1761379437171549700,2.5355498046875,-0.9801025390625,0.0851287841796875,0.15325927734375
1761379437181631700,2.5456318359375,-0.979278564453125,0.0845489501953125,0.1572113037109375
1761379437191713800,2.5557138671875,-0.979461669921875,0.0806884765625,0.1613006591796875
1761379437201796900,2.565796875,-0.9763336181640625,0.0793914794921875,0.162628173828125
1761379437211878700,2.575878662109375,-0.973724365234375,0.08172607421875,0.1613616943359375
1761379437221960700,2.585960693359375,-0.9880523681640625,0.084869384765625,0.1634368896484375
1761379437232042800,2.596042724609375,-0.9805908203125,0.0844879150390625,0.1645050048828125
1761379437242124800,2.606124755859375,-0.96337890625,0.0840606689453125,0.16522216796875
1761379437252207900,2.616207763671875,-0.970855712890625,0.08624267578125,0.1679534912109375
1761379437262289700,2.62628955078125,-0.9839935302734375,0.0888671875,0.1698455810546875
1761379437272371700,2.636371826171875,-0.9846343994140625,0.085113525390625,0.168670654296875
1761379437282453800,2.646453857421875,-0.9752197265625,0.0826568603515625,0.1641387939453125
1761379437292535800,2.656535888671875,-0.97357177734375,0.08526611328125,0.1573028564453125
1761379437302618600,2.66661865234375,-0.979248046875,0.087615966796875,0.1585540771484375
1761379437312700700,2.67670068359375,-0.9846343994140625,0.0880889892578125,0.1642608642578125
1761379437322782700,2.68678271484375,-0.9828643798828125,0.0878753662109375,0.1638946533203125
1761379437332864800,2.69686474609375,-0.97637939453125,0.0881500244140625,0.1604156494140625
1761379437342946800,2.70694677734375,-0.9695587158203125,0.0859527587890625,0.15985107421875
1761379437353029600,2.717029541015625,-0.97259521484375,0.082183837890625,0.1594085693359375
1761379437363111700,2.727111572265625,-0.9813232421875,0.08154296875,0.15838623046875
1761379437373193700,2.73719384765625,-0.9826507568359375,0.08349609375,0.1573944091796875
1761379437383275800,2.74727587890625,-0.98193359375,0.0883636474609375,0.1590118408203125
1761379437393357800,2.75735791015625,-0.9805145263671875,0.0928497314453125,0.1619415283203125
1761379437403440600,2.767440673828125,-0.976287841796875,0.0915069580078125,0.1614990234375
1761379437413522700,2.777522705078125,-0.9731597900390625,0.0891265869140625,0.15948486328125
1761379437423604700,2.787604736328125,-0.980255126953125,0.089813232421875,0.1587982177734375
1761379437433686800,2.797686767578125,-0.9864654541015625,0.08935546875,0.1633758544921875
1761379437443768800,2.807768798828125,-0.977081298828125,0.086517333984375,0.163543701171875
1761379437453851600,2.8178515625,-0.987548828125,0.0890350341796875,0.16534423828125
1761379437463933700,2.82793359375,-0.98797607421875,0.0918426513671875,0.1667938232421875
1761379437474015700,2.838015625,-0.9527587890625,0.086883544921875,0.162750244140625
1761379437484097800,2.848097900390625,-0.9607391357421875,0.087127685546875,0.166412353515625
1761379437494179800,2.858179931640625,-0.976959228515625,0.0875244140625,0.1656341552734375
1761379437504262700,2.8682626953125,-0.98919677734375,0.0857086181640625,0.16705322265625
1761379437514344700,2.8783447265625,-0.9847564697265625,0.0842132568359375,0.1682281494140625
1761379437524426800,2.8884267578125,-0.975311279296875,0.08111572265625,0.1680145263671875
1761379437534508800,2.8985087890625,-0.9676055908203125,0.0813446044921875,0.1653289794921875
1761379437544591600,2.908591552734375,-0.97247314453125,0.08453369140625,0.1634521484375
1761379437554673700,2.918673583984375,-0.9806365966796875,0.0861053466796875,0.163055419921875
1761379437564755700,2.928755615234375,-0.983184814453125,0.086639404296875,0.1589202880859375
1761379437574837800,2.938837646484375,-0.98529052734375,0.087371826171875,0.159088134765625
1761379437584919800,2.948919921875,-0.984771728515625,0.0871124267578125,0.1659393310546875
1761379437595002600,2.959002685546875,-0.9783477783203125,0.082794189453125,0.1679229736328125
1761379437605084700,2.969084716796875,-0.9762420654296875,0.0806732177734375,0.165924072265625
1761379437615166700,2.979166748046875,-0.9812164306640625,0.0813751220703125,0.1636505126953125
1761379437625248800,2.989248779296875,-0.9794158935546875,0.0869293212890625,0.1622314453125
1761379437635330600,2.99933056640625,-0.97393798828125,0.0908966064453125,0.16485595703125
1761379437645413600,3.00941357421875,-0.972930908203125,0.090240478515625,0.1701812744140625
1761379437655495700,3.01949560546875,-0.9730682373046875,0.08935546875,0.1725921630859375
1761379437665577700,3.02957763671875,-0.9705657958984375,0.0902252197265625,0.1733551025390625
1761379437675659800,3.03965966796875,-0.96710205078125,0.0878753662109375,0.17083740234375
1761379437685741600,3.049741455078125,-0.9693145751953125,0.08355712890625,0.1655731201171875
1761379437695824600,3.05982470703125,-0.9778900146484375,0.080352783203125,0.163116455078125
1761379437705906700,3.06990673828125,-0.9849395751953125,0.081085205078125,0.162078857421875
1761379437715988700,3.07998876953125,-0.98614501953125,0.0817108154296875,0.164093017578125
1761379437726070500,3.090070556640625,-0.9846038818359375,0.083038330078125,0.163177490234375
1761379437736152600,3.100152587890625,-0.98577880859375,0.0814361572265625,0.1627655029296875
1761379437746236000,3.11023583984375,-0.9826202392578125,0.0810546875,0.1667022705078125
1761379437756318000,3.12031787109375,-0.976715087890625,0.07781982421875,0.169464111328125
1761379437766399700,3.130399658203125,-0.974853515625,0.077728271484375,0.1677398681640625
1761379437776481500,3.1404814453125,-0.9764862060546875,0.0795745849609375,0.167205810546875
1761379437786563600,3.1505634765625,-0.9770965576171875,0.082061767578125,0.16778564453125
1761379437796647000,3.16064697265625,-0.97528076171875,0.083648681640625,0.1696014404296875
1761379437806729000,3.17072900390625,-0.970428466796875,0.0858612060546875,0.1712799072265625
1761379437816810800,3.180810791015625,-0.969390869140625,0.0853118896484375,0.1696014404296875
1761379437826892800,3.190892822265625,-0.973480224609375,0.0861968994140625,0.1663818359375
1761379437836975900,3.200975830078125,-0.979583740234375,0.0869293212890625,0.1639404296875
1761379437847058000,3.211057861328125,-0.9826507568359375,0.0878143310546875,0.163543701171875
1761379437857139700,3.2211396484375,-0.9805145263671875,0.087615966796875,0.166015625
1761379437867221800,3.2312216796875,-0.979248046875,0.088043212890625,0.1691436767578125
1761379437877303800,3.2413037109375,-0.9770355224609375,0.0863494873046875,0.17083740234375
1761379437887387000,3.251386962890625,-0.975830078125,0.0881500244140625,0.17041015625
1761379437897469000,3.261468994140625,-0.975799560546875,0.089935302734375,0.16900634765625
1761379437907550700,3.27155078125,-0.9773101806640625,0.0897979736328125,0.1673126220703125
1761379437917632800,3.2816328125,-0.975250244140625,0.088348388671875,0.16546630859375
1761379437927714800,3.29171484375,-0.9752197265625,0.08734130859375,0.163238525390625
1761379437937798000,3.3017978515625,-0.976165771484375,0.0874481201171875,0.16265869140625
1761379437947879700,3.311879638671875,-0.976776123046875,0.0892181396484375,0.162689208984375
1761379437957961700,3.321961669921875,-0.97528076171875,0.0889739990234375,0.1606292724609375
1761379437968043800,3.332043701171875,-0.9732208251953125,0.0890960693359375,0.16485595703125
1761379437978125800,3.342125732421875,-0.970306396484375,0.08612060546875,0.163482666015625
1761379437988209000,3.352208984375,-0.9729156494140625,0.0841064453125,0.1597747802734375
1761379437998290700,3.362290771484375,-0.98492431640625,0.0822296142578125,0.1576690673828125
1761379438008372700,3.372372802734375,-0.9911346435546875,0.079345703125,0.1595306396484375
1761379438018454800,3.382454833984375,-0.991180419921875,0.0752716064453125,0.1650848388671875
1761379438028537900,3.392537841796875,-0.9861602783203125,0.0730743408203125,0.1695556640625
1761379438038619600,3.40261962890625,-0.9801177978515625,0.0793304443359375,0.170623779296875
1761379438048701700,3.41270166015625,-0.97821044921875,0.085113525390625,0.1714019775390625
1761379438058783700,3.42278369140625,-0.974334716796875,0.0870819091796875,0.17236328125
1761379438068865800,3.43286572265625,-0.97021484375,0.0871124267578125,0.171417236328125
1761379438078948900,3.442948974609375,-0.967193603515625,0.0901641845703125,0.1700897216796875
1761379438089030700,3.45303076171875,-0.9679107666015625,0.0896759033203125,0.17010498046875
1761379438099112700,3.46311279296875,-0.9686126708984375,0.088043212890625,0.1733245849609375
1761379438109194800,3.47319482421875,-0.96893310546875,0.08489990234375,0.176361083984375
1761379438119276800,3.48327685546875,-0.970733642578125,0.0821990966796875,0.1745758056640625
1761379438129359600,3.493359619140625,-0.9736480712890625,0.080078125,0.170745849609375
1761379438139441700,3.503441650390625,-0.9784088134765625,0.0804290771484375,0.1641693115234375
1761379438149523700,3.513523681640625,-0.984130859375,0.0845184326171875,0.1630859375
1761379438159605800,3.523605712890625,-0.9845428466796875,0.08587646484375,0.1679534912109375
1761379438169687800,3.533687744140625,-0.9817962646484375,0.087493896484375,0.16851806640625
1761379438179770600,3.5437705078125,-0.980438232421875,0.0894775390625,0.165252685546875
1761379438189852700,3.553852783203125,-0.9810638427734375,0.0876922607421875,0.1650238037109375
1761379438199934700,3.563934814453125,-0.9807891845703125,0.0901031494140625,0.16680908203125
1761379438210016800,3.574016845703125,-0.97332763671875,0.0931396484375,0.169647216796875
1761379438220099600,3.584099609375,-0.970245361328125,0.0948333740234375,0.16864013671875
1761379438230181600,3.594181640625,-0.9749603271484375,0.0962371826171875,0.166107177734375
1761379438240263700,3.604263671875,-0.97998046875,0.0951995849609375,0.165130615234375
1761379438250345700,3.614345703125,-0.980072021484375,0.0948638916015625,0.163909912109375
1761379438260427800,3.624427734375,-0.9797821044921875,0.0931396484375,0.160491943359375
1761379438270510600,3.634510498046875,-0.9802398681640625,0.093231201171875,0.1609954833984375
1761379438280592600,3.644592529296875,-0.97698974609375,0.092315673828125,0.1600494384765625
1761379438290674700,3.6546748046875,-0.9735107421875,0.091644287109375,0.157989501953125
1761379438300756700,3.6647568359375,-0.977783203125,0.092742919921875,0.157806396484375
1761379438310838800,3.6748388671875,-0.982513427734375,0.0912017822265625,0.160308837890625
1761379438320921600,3.684921630859375,-0.982177734375,0.087310791015625,0.164154052734375
1761379438331003600,3.695003662109375,-0.9784088134765625,0.082550048828125,0.163848876953125
1761379438341085700,3.705085693359375,-0.9760589599609375,0.081756591796875,0.1634674072265625
1761379438351167700,3.715167724609375,-0.9774169921875,0.0792083740234375,0.1623687744140625
1761379438361250600,3.72525048828125,-0.9779052734375,0.07562255859375,0.1623687744140625
1761379438371332600,3.73533251953125,-0.9778594970703125,0.07220458984375,0.1624755859375
1761379438381414700,3.74541455078125,-0.9800567626953125,0.071441650390625,0.156494140625
1761379438391496700,3.75549658203125,-0.982269287109375,0.0739288330078125,0.1544952392578125
1761379438401578800,3.765578857421875,-0.9850616455078125,0.07354736328125,0.15972900390625
1761379438411661600,3.77566162109375,-0.9831390380859375,0.0728759765625,0.1667938232421875
1761379438421743600,3.78574365234375,-0.9804534912109375,0.0754852294921875,0.1678009033203125
1761379438431825700,3.79582568359375,-0.9778900146484375,0.08038330078125,0.1623382568359375
1761379438441907700,3.80590771484375,-0.969573974609375,0.08001708984375,0.1557159423828125
1761379438451989800,3.81598974609375,-0.9673614501953125,0.0800018310546875,0.153594970703125
1761379438462072800,3.82607275390625,-0.9767913818359375,0.0781707763671875,0.1547393798828125
1761379438472155000,3.83615478515625,-0.9875335693359375,0.076629638671875,0.1604766845703125
1761379438482236700,3.846236572265625,-0.99322509765625,0.077911376953125,0.1632537841796875
1761379438492318700,3.856318603515625,-0.988677978515625,0.0765228271484375,0.1603240966796875
1761379438502401800,3.86640185546875,-0.9816131591796875,0.0766143798828125,0.163726806640625
1761379438512483800,3.87648388671875,-0.9759979248046875,0.0800018310546875,0.1614990234375
1761379438522566000,3.88656591796875,-0.9724273681640625,0.083038330078125,0.1583251953125
1761379438532648000,3.89664794921875,-0.9787139892578125,0.0842742919921875,0.161712646484375
1761379438542729700,3.906729736328125,-0.980316162109375,0.0831146240234375,0.1636505126953125
1761379438552812800,3.916812744140625,-0.977386474609375,0.082672119140625,0.1612548828125
1761379438562894800,3.926894775390625,-0.97320556640625,0.08087158203125,0.1570587158203125
1761379438572977000,3.936976806640625,-0.972198486328125,0.080352783203125,0.1580047607421875
1761379438583059000,3.947058837890625,-0.972198486328125,0.0781097412109375,0.159423828125
1761379438593141800,3.957141845703125,-0.9762725830078125,0.076171875,0.159210205078125
1761379438603223800,3.967223876953125,-0.9806060791015625,0.07440185546875,0.1569671630859375
1761379438613305900,3.977305908203125,-0.9823760986328125,0.0763702392578125,0.1570281982421875
1761379438623388000,3.987387939453125,-0.979156494140625,0.07891845703125,0.155242919921875
1761379438633469700,3.9974697265625,-0.9762420654296875,0.0799407958984375,0.1566925048828125
1761379438643552800,4.007552734375,-0.978729248046875,0.0796661376953125,0.1591949462890625
1761379438653634800,4.017634765625,-0.98370361328125,0.07708740234375,0.16180419921875
1761379438663716900,4.027716796875,-0.979827880859375,0.072967529296875,0.159332275390625
1761379438673799000,4.037798828125,-0.9774627685546875,0.074615478515625,0.1557159423828125
1761379438683881700,4.0478818359375,-0.97808837890625,0.0790863037109375,0.15411376953125
1761379438693963800,4.0579638671875,-0.9794921875,0.0804443359375,0.1527252197265625
1761379438704045800,4.0680458984375,-0.9839324951171875,0.0789794921875,0.154296875
1761379438714128000,4.0781279296875,-0.9853363037109375,0.0764923095703125,0.1571502685546875
1761379438724209700,4.088209716796875,-0.979522705078125,0.0731964111328125,0.158233642578125
1761379438734292700,4.098292724609375,-0.9789276123046875,0.0699615478515625,0.1561431884765625
1761379438744374800,4.108374755859375,-0.9836273193359375,0.0687103271484375,0.15667724609375
1761379438754456800,4.118456787109375,-0.986297607421875,0.068267822265625,0.1561737060546875
1761379438764539000,4.128538818359375,-0.9870452880859375,0.072265625,0.1561279296875
1761379438774620700,4.13862060546875,-0.982635498046875,0.0751800537109375,0.1551361083984375
1761379438784703700,4.148703857421875,-0.980072021484375,0.07391357421875,0.1560211181640625
1761379438794785800,4.158785888671875,-0.9780426025390625,0.072021484375,0.1593170166015625
1761379438804867800,4.168867919921875,-0.974884033203125,0.07073974609375,0.1619873046875
1761379438814949600,4.17894970703125,-0.9748077392578125,0.0700836181640625,0.162872314453125
1761379438825032700,4.18903271484375,-0.976531982421875,0.0689544677734375,0.1610565185546875
1761379438835114800,4.19911474609375,-0.9776611328125,0.071014404296875,0.1608428955078125
1761379438845196800,4.20919677734375,-0.9803924560546875,0.0737762451171875,0.162445068359375
1761379438855278800,4.21927880859375,-0.9818572998046875,0.0758819580078125,0.166259765625
1761379438865360600,4.229360595703125,-0.975494384765625,0.0771026611328125,0.1658477783203125
1761379438875443700,4.239443603515625,-0.9706268310546875,0.081512451171875,0.1650238037109375
1761379438885525800,4.24952587890625,-0.9676666259765625,0.08221435546875,0.1607666015625
1761379438895607800,4.25960791015625,-0.9702301025390625,0.07745361328125,0.1617431640625
1761379438905689600,4.269689697265625,-0.9724884033203125,0.07122802734375,0.162139892578125
1761379438915772700,4.279772705078125,-0.9810028076171875,0.06658935546875,0.159912109375
1761379438925854700,4.289854736328125,-0.986297607421875,0.06414794921875,0.16131591796875
1761379438935936800,4.299936767578125,-0.986358642578125,0.0613861083984375,0.162261962890625
1761379438946018800,4.310018798828125,-0.9819793701171875,0.0607452392578125,0.16204833984375
1761379438956100600,4.3201005859375,-0.9774322509765625,0.0623626708984375,0.1612548828125
1761379438966183700,4.33018359375,-0.9746856689453125,0.06610107421875,0.1574859619140625
1761379438976265700,4.340265625,-0.9769134521484375,0.0673065185546875,0.1555023193359375
1761379438986347800,4.35034765625,-0.981201171875,0.063568115234375,0.15576171875
1761379438996429800,4.360429931640625,-0.9846343994140625,0.06109619140625,0.1551361083984375
1761379439006513000,4.370512939453125,-0.9820709228515625,0.0601654052734375,0.157470703125
1761379439016595000,4.380594970703125,-0.978790283203125,0.06414794921875,0.1608123779296875
1761379439026677000,4.390677001953125,-0.9796905517578125,0.0659942626953125,0.159027099609375
1761379439036758800,4.4007587890625,-0.980682373046875,0.0645599365234375,0.165679931640625
1761379439046840800,4.4108408203125,-0.97869873046875,0.0639190673828125,0.16583251953125
1761379439056924000,4.420923828125,-0.9748382568359375,0.0674896240234375,0.1627197265625
1761379439067006000,4.431005859375,-0.977081298828125,0.0709381103515625,0.1645355224609375
1761379439077088000,4.441087890625,-0.9782867431640625,0.0668487548828125,0.1641998291015625
1761379439087169800,4.451169677734375,-0.98089599609375,0.062286376953125,0.1590423583984375
1761379439097252900,4.4612529296875,-0.985260009765625,0.0626068115234375,0.154632568359375
1761379439107335000,4.4713349609375,-0.98968505859375,0.062896728515625,0.1543731689453125
1761379439117417000,4.4814169921875,-0.990509033203125,0.0614471435546875,0.1572265625
1761379439127498800,4.491498779296875,-0.985870361328125,0.061981201171875,0.1582489013671875
1761379439137580800,4.501580810546875,-0.9800872802734375,0.0651397705078125,0.1593780517578125
1761379439147664000,4.511663818359375,-0.9778594970703125,0.0665130615234375,0.159759521484375
1761379439157746000,4.521745849609375,-0.9716949462890625,0.0687103271484375,0.1583404541015625
1761379439167828000,4.531827880859375,-0.9687652587890625,0.071502685546875,0.1562042236328125
1761379439177909800,4.54190966796875,-0.9681549072265625,0.0732879638671875,0.153045654296875
1761379439187992800,4.551992919921875,-0.971710205078125,0.0704498291015625,0.15264892578125
1761379439198075000,4.562074951171875,-0.9798736572265625,0.0667572021484375,0.1529541015625
1761379439208157000,4.572156982421875,-0.983123779296875,0.0651092529296875,0.15277099609375
1761379439218238700,4.58223876953125,-0.980712890625,0.0668182373046875,0.1508941650390625
1761379439228320800,4.59232080078125,-0.984039306640625,0.067840576171875,0.1510467529296875
1761379439238403800,4.60240380859375,-0.9829559326171875,0.0707855224609375,0.153961181640625
1761379439248486000,4.61248583984375,-0.9802093505859375,0.0733642578125,0.15521240234375
1761379439258568000,4.62256787109375,-0.980072021484375,0.0724945068359375,0.15631103515625
1761379439268649700,4.632649658203125,-0.981292724609375,0.07098388671875,0.158721923828125
1761379439278732800,4.64273291015625,-0.9805908203125,0.0686492919921875,0.1578369140625
1761379439288814800,4.65281494140625,-0.978851318359375,0.0665435791015625,0.1566162109375
1761379439298897000,4.66289697265625,-0.97796630859375,0.0642242431640625,0.1555938720703125
1761379439308978700,4.672978759765625,-0.9766693115234375,0.0650634765625,0.15496826171875
1761379439319060700,4.683060791015625,-0.9799652099609375,0.06427001953125,0.1515350341796875
1761379439329143800,4.693143798828125,-0.98431396484375,0.0636138916015625,0.1510772705078125
1761379439339225900,4.703225830078125,-0.98388671875,0.0602874755859375,0.1542205810546875
1761379439349307600,4.7133076171875,-0.9819793701171875,0.0575103759765625,0.1547698974609375
1761379439359389700,4.7233896484375,-0.9808502197265625,0.0600433349609375,0.1546478271484375
1761379439369473000,4.73347314453125,-0.97821044921875,0.0611724853515625,0.151275634765625
1761379439379554800,4.743554931640625,-0.9750518798828125,0.059478759765625,0.1478424072265625
1761379439389636900,4.753636962890625,-0.9819183349609375,0.056640625,0.1454925537109375
1761379439399718700,4.76371875,-0.988189697265625,0.054901123046875,0.145477294921875
1761379439409800700,4.77380078125,-0.9856719970703125,0.0584564208984375,0.144622802734375
1761379439419884000,4.783884033203125,-0.9823150634765625,0.0630340576171875,0.145965576171875
1761379439429966000,4.793966064453125,-0.9802703857421875,0.065582275390625,0.1473388671875
1761379439440047900,4.8040478515625,-0.9774169921875,0.0654144287109375,0.147735595703125
1761379439450129700,4.814129638671875,-0.981781005859375,0.0660858154296875,0.14971923828125
1761379439460213000,4.824212890625,-0.9835052490234375,0.06689453125,0.14947509765625
1761379439470295000,4.834294921875,-0.983367919921875,0.067230224609375,0.146697998046875
1761379439480376800,4.844376953125,-0.9825286865234375,0.0718536376953125,0.147308349609375
1761379439490459000,4.854458984375,-0.97991943359375,0.0720062255859375,0.14697265625
1761379439500542000,4.8645419921875,-0.980499267578125,0.0698699951171875,0.14544677734375
1761379439510624000,4.8746240234375,-0.9809722900390625,0.0672149658203125,0.1439208984375
1761379439520706000,4.8847060546875,-0.9798431396484375,0.06304931640625,0.1461639404296875
1761379439530787800,4.894787841796875,-0.983367919921875,0.0612030029296875,0.1480712890625
1761379439540870000,4.904869873046875,-0.98419189453125,0.0612945556640625,0.146728515625
1761379439550953000,4.914952880859375,-0.983856201171875,0.0629730224609375,0.14373779296875
1761379439561035000,4.925034912109375,-0.985626220703125,0.061737060546875,0.1402587890625
1761379439571116800,4.93511669921875,-0.9907684326171875,0.0626220703125,0.14373779296875
1761379439581198800,4.94519873046875,-0.9886474609375,0.0657958984375,0.1473541259765625
1761379439591282000,4.955281982421875,-0.9825286865234375,0.0676727294921875,0.1458282470703125
1761379439601364000,4.965364013671875,-0.9777069091796875,0.06793212890625,0.1460418701171875
1761379439611446000,4.975446044921875,-0.9779205322265625,0.0679168701171875,0.1456146240234375
1761379439621527800,4.98552783203125,-0.9805755615234375,0.067657470703125,0.144378662109375
1761379439631609900,4.99560986328125,-0.9841766357421875,0.06549072265625,0.1431427001953125
1761379439641693000,5.00569287109375,-0.9890594482421875,0.06451416015625,0.1427459716796875
1761379439651775000,5.01577490234375,-0.9851226806640625,0.0651092529296875,0.14349365234375
1761379439661856800,5.025856689453125,-0.9780731201171875,0.066802978515625,0.1428375244140625
1761379439671938800,5.035938720703125,-0.9766082763671875,0.0674285888671875,0.1431427001953125
1761379439682022000,5.04602197265625,-0.9801788330078125,0.0679931640625,0.14312744140625
1761379439692104000,5.05610400390625,-0.980743408203125,0.0677947998046875,0.1443023681640625
1761379439702186000,5.06618603515625,-0.9791259765625,0.066436767578125,0.142242431640625
1761379439712267800,5.076267822265625,-0.9816436767578125,0.0669097900390625,0.13946533203125
1761379439722350800,5.086350830078125,-0.984405517578125,0.069854736328125,0.14208984375
1761379439732433000,5.096432861328125,-0.9847259521484375,0.071197509765625,0.14642333984375
1761379439742515000,5.106514892578125,-0.983001708984375,0.07049560546875,0.1457061767578125
1761379439752596700,5.1165966796875,-0.9835968017578125,0.0704803466796875,0.1451416015625
1761379439762678800,5.1266787109375,-0.986785888671875,0.0694732666015625,0.142791748046875
1761379439772761900,5.136761962890625,-0.98529052734375,0.0681915283203125,0.1390838623046875
1761379439782844000,5.146843994140625,-0.9867095947265625,0.06658935546875,0.1385345458984375
1761379439792926000,5.156926025390625,-0.987274169921875,0.06365966796875,0.13714599609375
1761379439803007700,5.1670078125,-0.983856201171875,0.063446044921875,0.137969970703125
1761379439813090800,5.1770908203125,-0.9812774658203125,0.0621795654296875,0.1404266357421875
1761379439823172900,5.1871728515625,-0.9790496826171875,0.0626678466796875,0.138824462890625
1761379439833255000,5.1972548828125,-0.98052978515625,0.064056396484375,0.1367950439453125
1761379439843336700,5.207336669921875,-0.9818267822265625,0.063934326171875,0.1359405517578125
1761379439853418800,5.217418701171875,-0.9809417724609375,0.0668487548828125,0.132598876953125
1761379439863501800,5.227501708984375,-0.975189208984375,0.070587158203125,0.133026123046875
1761379439873583900,5.237583984375,-0.972076416015625,0.0680999755859375,0.1309661865234375
1761379439883666000,5.247666015625,-0.9740753173828125,0.066864013671875,0.1326751708984375
1761379439893747700,5.257747802734375,-0.9745330810546875,0.0661468505859375,0.135040283203125
1761379439903830800,5.267830810546875,-0.98052978515625,0.0665740966796875,0.135498046875
1761379439913912800,5.277912841796875,-0.9921112060546875,0.0667877197265625,0.1383056640625
1761379439923995000,5.287994873046875,-0.998291015625,0.064971923828125,0.1358795166015625
1761379439934076700,5.29807666015625,-0.9986419677734375,0.06573486328125,0.132659912109375
1761379439944159700,5.30815966796875,-0.991790771484375,0.0669708251953125,0.132904052734375
1761379439954241800,5.31824169921875,-0.986846923828125,0.0699310302734375,0.134979248046875
1761379439964323800,5.32832373046875,-0.9818878173828125,0.0698699951171875,0.136016845703125
1761379439974406000,5.338406005859375,-0.9847259521484375,0.0670013427734375,0.1298065185546875
1761379439984487700,5.34848779296875,-0.9990234375,0.0674896240234375,0.1277618408203125
1761379439994571500,5.358571533203125,-0.99456787109375,0.067657470703125,0.135772705078125
1761379440004653600,5.368653564453125,-0.978729248046875,0.067047119140625,0.1355133056640625
1761379440014735400,5.3787353515625,-0.973419189453125,0.06793212890625,0.1334381103515625
1761379440024817400,5.3888173828125,-0.978759765625,0.0688934326171875,0.1322021484375
1761379440034900500,5.398900390625,-0.979888916015625,0.067413330078125,0.1325225830078125
1761379440044982500,5.408982421875,-0.986480712890625,0.067138671875,0.1277008056640625
1761379440055064300,5.419064208984375,-0.9908447265625,0.06903076171875,0.1273193359375
1761379440065146400,5.429146484375,-0.98779296875,0.068084716796875,0.1291046142578125
1761379440075229400,5.4392294921875,-0.9836578369140625,0.0679473876953125,0.13238525390625
1761379440085311500,5.4493115234375,-0.983123779296875,0.0699615478515625,0.1336517333984375
1761379440095393500,5.4593935546875,-0.9819183349609375,0.0724639892578125,0.1339263916015625
1761379440105475300,5.469475341796875,-0.98040771484375,0.07354736328125,0.1361541748046875
1761379440115557400,5.479557373046875,-0.9804229736328125,0.0723876953125,0.13507080078125
1761379440125640400,5.489640380859375,-0.9815216064453125,0.0711517333984375,0.1322174072265625
1761379440135722500,5.499722412109375,-0.98291015625,0.0695953369140625,0.132080078125
1761379440145804300,5.50980419921875,-0.9841461181640625,0.0693206787109375,0.1301116943359375
1761379440155886300,5.51988623046875,-0.98486328125,0.06976318359375,0.130828857421875
1761379440165969400,5.529969482421875,-0.980926513671875,0.067901611328125,0.1335296630859375
1761379440176051500,5.540051513671875,-0.975738525390625,0.0645599365234375,0.133819580078125
1761379440186133500,5.550133544921875,-0.974884033203125,0.0661773681640625,0.1338958740234375
1761379440196215300,5.56021533203125,-0.97711181640625,0.068328857421875,0.13140869140625
1761379440206298400,5.57029833984375,-0.9816131591796875,0.069854736328125,0.126068115234375
1761379440216380400,5.58038037109375,-0.9869384765625,0.07281494140625,0.1244354248046875
1761379440226462500,5.59046240234375,-0.990753173828125,0.0764007568359375,0.1249237060546875
1761379440236544300,5.600544189453125,-0.9881591796875,0.0775146484375,0.1335906982421875
1761379440246627300,5.61062744140625,-0.979095458984375,0.0745086669921875,0.143157958984375
1761379440256709400,5.62070947265625,-0.97576904296875,0.0696563720703125,0.1435546875
1761379440266791400,5.63079150390625,-0.9800872802734375,0.0681304931640625,0.1392822265625
1761379440276873500,5.64087353515625,-0.992156982421875,0.072174072265625,0.13189697265625
1761379440286955300,5.650955322265625,-1.0051116943359375,0.0784912109375,0.126739501953125
1761379440297038300,5.661038330078125,-0.9971771240234375,0.078155517578125,0.1356048583984375
1761379440307120400,5.671120361328125,-0.977508544921875,0.0711822509765625,0.1417083740234375
1761379440317202400,5.681202392578125,-0.9701995849609375,0.06793212890625,0.1329803466796875
1761379440327284200,5.6912841796875,-0.97869873046875,0.0753326416015625,0.1322021484375
1761379440337367300,5.7013671875,-0.983795166015625,0.075225830078125,0.1376495361328125
1761379440347449300,5.711449462890625,-0.9850006103515625,0.071990966796875,0.1318206787109375
1761379440357531400,5.721531494140625,-0.9848175048828125,0.072998046875,0.130828857421875
1761379440367613400,5.731613525390625,-0.975006103515625,0.07403564453125,0.136871337890625
1761379440377696300,5.7416962890625,-0.9654693603515625,0.06939697265625,0.13897705078125
1761379440387778300,5.7517783203125,-0.966033935546875,0.0669708251953125,0.1307830810546875
1761379440397860400,5.7618603515625,-0.977569580078125,0.0691070556640625,0.129425048828125
1761379440407942400,5.7719423828125,-0.985565185546875,0.070465087890625,0.1298675537109375
1761379440418024200,5.782024169921875,-0.997161865234375,0.0720367431640625,0.1343994140625
1761379440428107300,5.792107177734375,-1.009002685546875,0.0751495361328125,0.1425323486328125
1761379440438189300,5.802189208984375,-1.00384521484375,0.0752716064453125,0.143096923828125
1761379440448271400,5.812271240234375,-0.9886474609375,0.0766448974609375,0.1376953125
1761379440458353400,5.822353515625,-0.9764404296875,0.0826568603515625,0.1381072998046875
1761379440468436500,5.8324365234375,-0.9680938720703125,0.085723876953125,0.142730712890625
1761379440478518300,5.842518310546875,-0.969879150390625,0.084228515625,0.14215087890625
1761379440488600300,5.852600341796875,-0.9788665771484375,0.08172607421875,0.1414642333984375
1761379440498682400,5.862682373046875,-0.98553466796875,0.0810546875,0.139373779296875
1761379440508765400,5.872765380859375,-0.9856109619140625,0.0831146240234375,0.138671875
1761379440518847500,5.882847412109375,-0.98126220703125,0.0833282470703125,0.138671875
1761379440528929500,5.892929443359375,-0.9762420654296875,0.0844879150390625,0.138946533203125
1761379440539011600,5.903011474609375,-0.973663330078125,0.0838775634765625,0.1407470703125
1761379440549094400,5.913094482421875,-0.974853515625,0.079803466796875,0.1415557861328125
1761379440559176400,5.923176513671875,-0.9789276123046875,0.0774688720703125,0.14263916015625
1761379440569258500,5.933258544921875,-0.9853515625,0.07891845703125,0.1429595947265625
1761379440579340500,5.943340576171875,-0.993988037109375,0.080657958984375,0.143524169921875
1761379440589423400,5.95342333984375,-0.996490478515625,0.0789947509765625,0.142547607421875
1761379440599505400,5.96350537109375,-0.987060546875,0.078460693359375,0.14166259765625
1761379440609587500,5.97358740234375,-0.978179931640625,0.0796051025390625,0.1423797607421875
1761379440619669500,5.98366943359375,-0.9798126220703125,0.0794830322265625,0.1426239013671875
1761379440629752300,5.99375244140625,-0.97998046875,0.0782012939453125,0.1422882080078125
1761379440639834400,6.00383447265625,-0.982025146484375,0.0767364501953125,0.140380859375
1761379440649916400,6.01391650390625,-0.9820404052734375,0.0771331787109375,0.1415863037109375
1761379440659998500,6.02399853515625,-0.9783782958984375,0.079315185546875,0.1418609619140625
1761379440670080500,6.03408056640625,-0.975372314453125,0.0788421630859375,0.1404571533203125
1761379440680163300,6.044163330078125,-0.975799560546875,0.079498291015625,0.1401824951171875
1761379440690245400,6.054245361328125,-0.9791259765625,0.0825042724609375,0.1397705078125
1761379440700327400,6.064327392578125,-0.98291015625,0.0858612060546875,0.14337158203125
1761379440710409500,6.074409423828125,-0.9817657470703125,0.0853271484375,0.1459808349609375
1761379440720492300,6.0844921875,-0.977935791015625,0.0839080810546875,0.1411590576171875
1761379440730574300,6.09457421875,-0.9788665771484375,0.0847625732421875,0.1389617919921875
1761379440740656400,6.104656494140625,-0.9817657470703125,0.08349609375,0.1371612548828125
1761379440750738400,6.114738525390625,-0.9851837158203125,0.083221435546875,0.1381378173828125
1761379440760821200,6.1248212890625,-0.98638916015625,0.0796966552734375,0.136810302734375
1761379440770903300,6.1349033203125,-0.98406982421875,0.0764312744140625,0.135528564453125
1761379440780985300,6.1449853515625,-0.9840850830078125,0.0768280029296875,0.1349945068359375
1761379440791067400,6.1550673828125,-0.982574462890625,0.07916259765625,0.13653564453125
1761379440801150200,6.165150146484375,-0.978240966796875,0.0814208984375,0.1357269287109375
1761379440811232300,6.175232177734375,-0.977508544921875,0.0828399658203125,0.1341400146484375
1761379440821314300,6.185314208984375,-0.9829864501953125,0.0847015380859375,0.1380767822265625
1761379440831396400,6.195396240234375,-0.9842529296875,0.0841827392578125,0.1394805908203125
1761379440841479400,6.2054794921875,-0.98297119140625,0.082305908203125,0.140289306640625
1761379440851561200,6.215561279296875,-0.98223876953125,0.0813446044921875,0.141143798828125
1761379440861643300,6.225643310546875,-0.981903076171875,0.0831298828125,0.1390838623046875
1761379440871725300,6.235725341796875,-0.984710693359375,0.0843505859375,0.13702392578125
1761379440881808400,6.245808349609375,-0.9823150634765625,0.081756591796875,0.1337890625
1761379440891890200,6.25589013671875,-0.98321533203125,0.080718994140625,0.130645751953125
1761379440901972200,6.26597216796875,-0.9850311279296875,0.0814666748046875,0.131683349609375
1761379440912054300,6.27605419921875,-0.9881439208984375,0.079742431640625,0.1354827880859375
1761379440922136300,6.28613623046875,-0.985107421875,0.0757598876953125,0.1393585205078125
1761379440932219400,6.296219482421875,-0.9834747314453125,0.0742950439453125,0.1398773193359375
1761379440942301200,6.30630126953125,-0.9838714599609375,0.07891845703125,0.1430816650390625
1761379440952383200,6.31638330078125,-0.980865478515625,0.0826568603515625,0.14398193359375
1761379440962465300,6.32646533203125,-0.9707183837890625,0.083892822265625,0.142913818359375
1761379440972548400,6.33654833984375,-0.9628143310546875,0.082305908203125,0.1407928466796875
1761379440982630100,6.346630126953125,-0.9669036865234375,0.0816192626953125,0.1384124755859375
1761379440992712200,6.356712158203125,-0.981109619140625,0.0839080810546875,0.1434478759765625
1761379441002793700,6.366793701171875,-0.9827728271484375,0.0836944580078125,0.14605712890625
1761379441012876800,6.376876708984375,-0.982696533203125,0.07958984375,0.143951416015625
1761379441022958800,6.386958740234375,-0.9854736328125,0.0734100341796875,0.141143798828125
1761379441033040600,6.39704052734375,-0.9850006103515625,0.0712432861328125,0.13824462890625
1761379441043122700,6.407122802734375,-0.982574462890625,0.0729827880859375,0.134765625
1761379441053205800,6.417205810546875,-0.9841766357421875,0.077178955078125,0.13323974609375
1761379441063287800,6.427287841796875,-0.989471435546875,0.08099365234375,0.13458251953125
1761379441073369900,6.437369873046875,-0.9911041259765625,0.08282470703125,0.140625
1761379441083451600,6.44745166015625,-0.983642578125,0.0845794677734375,0.1440582275390625
1761379441093534700,6.45753466796875,-0.9755859375,0.08636474609375,0.141571044921875
1761379441103616800,6.46761669921875,-0.9723052978515625,0.087371826171875,0.1380462646484375
1761379441113698800,6.47769873046875,-0.97247314453125,0.0852813720703125,0.1360321044921875
1761379441123780600,6.487780517578125,-0.974273681640625,0.0829010009765625,0.1325836181640625
1761379441133863700,6.49786376953125,-0.97796630859375,0.0820770263671875,0.1289215087890625
1761379441143945700,6.50794580078125,-0.9816741943359375,0.083404541015625,0.12835693359375
1761379441154027800,6.51802783203125,-0.990142822265625,0.08465576171875,0.1320343017578125
1761379441164109800,6.52810986328125,-0.9934234619140625,0.0844268798828125,0.1376190185546875
1761379441174192600,6.538192626953125,-0.9879913330078125,0.08428955078125,0.1344757080078125
1761379441184274700,6.548274658203125,-0.9829864501953125,0.08428955078125,0.134246826171875
1761379441194356700,6.558356689453125,-0.98321533203125,0.08258056640625,0.133087158203125
1761379441204438800,6.568438720703125,-0.9858856201171875,0.0815277099609375,0.1310272216796875
1761379441214521600,6.578521484375,-0.9871826171875,0.0822906494140625,0.1312408447265625
1761379441224603600,6.588603759765625,-0.988067626953125,0.0838775634765625,0.1330413818359375
1761379441234685700,6.598685791015625,-0.9825286865234375,0.0844268798828125,0.1356201171875
1761379441244767700,6.608767822265625,-0.9721221923828125,0.081695556640625,0.1358795166015625
1761379441254850600,6.6188505859375,-0.967620849609375,0.0820159912109375,0.1333770751953125
1761379441264932600,6.6289326171875,-0.9708709716796875,0.084014892578125,0.1316680908203125
1761379441275014700,6.6390146484375,-0.9783935546875,0.0847625732421875,0.131622314453125
1761379441285096700,6.6490966796875,-0.9830322265625,0.084259033203125,0.1328277587890625
1761379441295179800,6.6591796875,-0.983428955078125,0.0831298828125,0.1354217529296875
1761379441305261800,6.66926171875,-0.98577880859375,0.0850982666015625,0.137847900390625
1761379441315343600,6.679343505859375,-0.9895172119140625,0.0919647216796875,0.1364593505859375
1761379441325425700,6.68942578125,-0.990020751953125,0.0960235595703125,0.135040283203125
1761379441335508700,6.6995087890625,-0.988311767578125,0.0923004150390625,0.13214111328125
1761379441345590800,6.7095908203125,-0.98480224609375,0.09051513671875,0.133087158203125
1761379441355672800,6.7196728515625,-0.9727020263671875,0.0880126953125,0.1273040771484375
1761379441365755000,6.7297548828125,-0.963409423828125,0.08599853515625,0.12237548828125
1761379441375837700,6.739837646484375,-0.9708251953125,0.079315185546875,0.124481201171875
1761379441385919700,6.749919677734375,-1.0034027099609375,0.069305419921875,0.128875732421875
1761379441396001800,6.760001708984375,-0.9947967529296875,0.0748138427734375,0.1263275146484375
1761379441406083800,6.770083740234375,-0.99664306640625,0.0855560302734375,0.1221160888671875
1761379441416166700,6.780166748046875,-0.9886932373046875,0.089569091796875,0.125457763671875
1761379441426248700,6.790248779296875,-0.9832611083984375,0.088592529296875,0.1215667724609375
1761379441436330800,6.800330810546875,-0.981475830078125,0.088775634765625,0.11798095703125
1761379441446412800,6.810412841796875,-0.9910736083984375,0.0823516845703125,0.1223297119140625
1761379441456495900,6.820495849609375,-1.000457763671875,0.0770263671875,0.127471923828125
1761379441466577700,6.83057763671875,-1.003021240234375,0.0765838623046875,0.1292266845703125
1761379441476659700,6.84065966796875,-0.9935150146484375,0.082611083984375,0.1331939697265625
1761379441486741800,6.85074169921875,-0.98358154296875,0.0815887451171875,0.1368255615234375
