time,seconds_elapsed,z,y,x
1761379434712760600,0.076760498046875,-0.0875445008277893,0.07091638445854187,0.050955988466739655
1761379434722842400,0.08684228515625,-0.1059516966342926,0.030421067029237747,0.030350813642144203
1761379434732924400,0.09692431640625,-0.10912938416004181,0.017811797559261322,0.0032006867695599794
1761379434743006500,0.10700634765625,-0.10742633044719696,0.004246366675943136,-0.013996778056025505
1761379434753088500,0.117088623046875,-0.10835205018520355,0.03575635701417923,-0.0180668868124485
1761379434763170600,0.127170654296875,-0.11357302963733673,0.08018944412469864,0.006744811777025461
1761379434773252600,0.137252685546875,-0.10006361454725266,0.0894433930516243,0.059278592467308044
1761379434783335400,0.14733544921875,-0.06624706089496613,0.07224540412425995,0.10016784071922302
1761379434793417500,0.15741748046875,-0.040731847286224365,0.05805209279060364,0.11990346014499664
1761379434803499500,0.16749951171875,-0.013484863564372063,0.050297513604164124,0.09736065566539764
1761379434813581600,0.17758154296875,-0.009180929511785507,0.024593479931354523,0.05190875381231308
1761379434823663400,0.187663330078125,-0.008488425053656101,0.017737779766321182,0.006359984632581472
1761379434833745400,0.197745361328125,0.012462928891181946,0.01753458008170128,-0.05201570689678192
1761379434843828500,0.207828369140625,0.025473088026046753,0.024328479543328285,-0.11727733165025711
1761379434853910500,0.21791064453125,0.02147488296031952,0.057482969015836716,-0.14868317544460297
1761379434863992600,0.22799267578125,0.024493800476193428,0.10662060230970383,-0.10849885642528534
1761379434874074400,0.238074462890625,0.026560412719845772,0.13062553107738495,0.012701073661446571
1761379434884156400,0.248156494140625,0.03355195000767708,0.09165510535240173,0.14272284507751465
1761379434894238500,0.258238525390625,0.03567102923989296,0.03250283747911453,0.18461303412914276
1761379434904320500,0.268320556640625,0.03615705296397209,-0.01570986956357956,0.12806040048599243
1761379434914403300,0.2784033203125,0.031419556587934494,-0.015689097344875336,0.01769767701625824
1761379434924485400,0.2884853515625,0.012967354618012905,0.0046554855071008205,-0.08345387130975723
1761379434934567400,0.2985673828125,-0.0023372983559966087,0.02097134292125702,-0.11683366447687149
1761379434944649500,0.3086494140625,-0.021487124264240265,0.03760133683681488,-0.0883941575884819
1761379434954731500,0.3187314453125,-0.033228468149900436,0.05119410902261734,-0.03423665091395378
1761379434964813600,0.3288134765625,-0.03769385814666748,0.038423243910074234,0.012032957747578621
1761379434974896400,0.338896484375,-0.03552790731191635,0.015545626170933247,0.01010269857943058
1761379434984978400,0.348978515625,-0.03142993897199631,-0.007722264155745506,-0.02082418091595173
1761379434995064600,0.359064697265625,-0.0216476172208786,-0.019910752773284912,-0.04301416873931885
1761379435005146600,0.369146728515625,-0.009777345694601536,-0.012325137853622437,-0.030179817229509354
1761379435015228400,0.379228515625,-0.004464872181415558,0.0017001335509121418,-0.0044797807931900024
1761379435025310500,0.389310546875,-0.013709429651498795,0.0052559711039066315,0.019163304939866066
1761379435035393500,0.3993935546875,-0.015083886682987213,0.018745947629213333,0.028713401407003403
1761379435045475600,0.4094755859375,-0.015510259196162224,0.03264418616890907,0.0145547054708004
1761379435055557400,0.419557373046875,-0.007631030865013599,0.03552066534757614,-0.01294642686843872
1761379435065639400,0.429639404296875,-0.00354959350079298,0.03931364789605141,-0.028401190415024757
1761379435075721500,0.439721435546875,-0.012640826404094696,0.04487139731645584,-0.0356346033513546
1761379435085803500,0.449803466796875,-0.030347773805260658,0.06460002809762955,-0.03055785968899727
1761379435095885600,0.459885498046875,-0.04066433012485504,0.1012970581650734,-0.008736184798181057
1761379435105968400,0.469968505859375,-0.04436013847589493,0.10788685083389282,0.01941480115056038
1761379435116050400,0.480050537109375,-0.03686999902129173,0.08309148997068405,0.03648965805768967
1761379435126132500,0.490132568359375,-0.013935817405581474,0.052849914878606796,0.039822325110435486
1761379435136214500,0.500214599609375,-0.0015414655208587646,-0.006337510421872139,0.027975786477327347
1761379435146296600,0.510296630859375,0.002169135957956314,-0.02214209735393524,0.005324721802026033
1761379435156378600,0.520378662109375,0.004180354997515678,-0.04356163367629051,-0.01715528778731823
1761379435166461400,0.53046142578125,0.010224398225545883,-0.035993196070194244,-0.036325518041849136
1761379435176543500,0.54054345703125,0.01724742166697979,-0.003950843587517738,-0.02853204496204853
1761379435186625500,0.55062548828125,0.019052471965551376,0.007197695318609476,-0.008460301905870438
1761379435196707600,0.56070751953125,0.020414944738149643,0.007315939757972956,0.02312292531132698
1761379435206789400,0.570789306640625,0.017751947045326233,-0.0025109779089689255,0.04241793602705002
1761379435216871400,0.580871337890625,0.006103812716901302,-0.00741039402782917,0.042624332010746
1761379435226953500,0.590953369140625,-0.0018409676849842072,-0.01209454145282507,0.043734632432460785
1761379435237036500,0.60103662109375,-0.010176927782595158,-0.04391532018780708,0.059745024889707565
1761379435247118600,0.61111865234375,-0.027123156934976578,-0.053754545748233795,0.0708761066198349
1761379435257200400,0.621200439453125,-0.041972674429416656,-0.0518980547785759,0.056590911000967026
1761379435267282400,0.631282470703125,-0.05106440186500549,-0.039226651191711426,0.024067159742116928
1761379435277364500,0.641364501953125,-0.04976770654320717,-0.04712212085723877,-0.0015191617421805859
1761379435287446500,0.651446533203125,-0.047876760363578796,-0.04430527612566948,-0.004830546677112579
1761379435297529300,0.661529296875,-0.03990405425429344,-0.05021536350250244,-0.0016019961331039667
1761379435307611400,0.671611328125,-0.021465599536895752,-0.06840471923351288,-0.009750450029969215
1761379435317693400,0.681693359375,0.0007656710222363472,-0.07831167429685593,-0.021592462435364723
1761379435327775500,0.691775390625,0.008896713145077229,-0.0700158178806305,-0.03078746609389782
1761379435337857500,0.701857421875,0.004303027875721455,-0.049518272280693054,-0.027621500194072723
1761379435347939600,0.711939697265625,-0.0034271487966179848,-0.023134849965572357,-0.0017355126328766346
1761379435358022400,0.7220224609375,-0.004144337959587574,-0.009843279607594013,0.019220901653170586
1761379435368104400,0.7321044921875,-0.0036799730733036995,-0.009625985287129879,0.018544597551226616
1761379435378186500,0.7421865234375,0.004910585470497608,-0.021591302007436752,0.005933730863034725
1761379435388268500,0.7522685546875,0.00810836162418127,-0.0328853502869606,-0.007489223964512348
1761379435398350600,0.7623505859375,0.018589232116937637,-0.04551751911640167,-0.017933078110218048
1761379435408432400,0.772432373046875,0.01808883622288704,-0.05616834759712219,-0.02147049829363823
1761379435418515500,0.782515380859375,0.016328487545251846,-0.05295151472091675,-0.0195506252348423
1761379435428597500,0.792597412109375,0.002849023789167404,-0.0408722423017025,-0.014479261822998524
1761379435438679600,0.802679443359375,-0.018320443108677864,-0.017204198986291885,-0.0034175561740994453
1761379435448761300,0.81276123046875,-0.03836000710725784,0.007381311617791653,0.00774761289358139
1761379435458843400,0.822843505859375,-0.05797925218939781,0.02803439274430275,0.008658413775265217
1761379435468925400,0.832925537109375,-0.07524041086435318,0.03682023659348488,0.011943394318223
1761379435479007500,0.843007568359375,-0.09379652142524719,0.04598576948046684,0.019447382539510727
1761379435489090600,0.853090576171875,-0.10349545627832413,0.049551431089639664,0.028674086555838585
1761379435499172400,0.86317236328125,-0.10302034765481949,0.03605826199054718,0.04331241548061371
1761379435509254400,0.87325439453125,-0.09281818568706512,0.014330670237541199,0.04307703301310539
1761379435519336400,0.88333642578125,-0.08205103129148483,0.009028049185872078,0.03535812720656395
1761379435529418500,0.89341845703125,-0.07275901734828949,0.008902654983103275,0.019816802814602852
1761379435539500500,0.90350048828125,-0.06903325766324997,0.018151279538869858,0.009834475815296173
1761379435549583400,0.913583251953125,-0.06736701726913452,0.030860569328069687,0.01246022991836071
1761379435559665400,0.92366552734375,-0.06820724159479141,0.04232574254274368,0.01631648652255535
1761379435569747500,0.93374755859375,-0.07268665730953217,0.043511610478162766,0.020414739847183228
1761379435579829500,0.94382958984375,-0.06400847434997559,0.04337392374873161,0.02078278921544552
1761379435589911600,0.95391162109375,-0.055586036294698715,0.038319021463394165,0.01741081103682518
1761379435599993300,0.963993408203125,-0.04166782274842262,0.026005633175373077,0.013673864305019379
1761379435610076400,0.974076416015625,-0.034300677478313446,0.014371074736118317,0.015081312507390976
1761379435620158500,0.984158447265625,-0.030930712819099426,0.008968319743871689,0.018322380259633064
1761379435630240500,0.994240478515625,-0.03449171781539917,0.02877752110362053,0.03143232688307762
1761379435640322600,1.004322509765625,-0.03642863407731056,0.04155057296156883,0.05362072214484215
1761379435650404400,1.014404296875,-0.0320887453854084,0.04506621137261391,0.06849926710128784
1761379435660486400,1.024486328125,-0.02258259430527687,0.04142487421631813,0.060890886932611465
1761379435670569500,1.034569580078125,-0.01167672872543335,0.03604768216609955,0.04614472761750221
1761379435680651500,1.044651611328125,0.00013092812150716782,0.021818678826093674,0.01995866559445858
1761379435690733300,1.0547333984375,0.01130430307239294,0.00655325036495924,-0.005477381870150566
1761379435700815400,1.0648154296875,0.022234715521335602,-0.012372503988444805,-0.01838625594973564
1761379435710897400,1.0748974609375,0.030421795323491096,-0.021090548485517502,-0.014267540536820889
1761379435720979500,1.0849794921875,0.03299547731876373,-0.045297086238861084,-0.005655144341289997
1761379435731062500,1.0950625,0.030366864055395126,-0.05276527628302574,0.004798087291419506
1761379435741144300,1.105144287109375,0.01882685348391533,-0.04923019930720329,0.008254870772361755
1761379435751226400,1.115226318359375,0.007921344600617886,-0.04036114737391472,0.005429484415799379
1761379435761308400,1.125308349609375,0.0006762156262993813,-0.03469500690698624,0.002353533636778593
1761379435771390500,1.135390380859375,-0.0023365607485175133,-0.020420534536242485,-0.0005372330779209733
1761379435781472500,1.145472412109375,-0.005727297626435757,-0.006040529347956181,-0.00851979199796915
1761379435791555300,1.155555419921875,-0.00730776647105813,-0.005743437446653843,-0.0017871444579213858
1761379435801637400,1.165637451171875,-0.007445718161761761,-0.003988147713243961,-0.0007996443891897798
1761379435811719400,1.175719482421875,-0.010981731116771698,0.002819505985826254,0.0063584367744624615
1761379435821801500,1.185801513671875,-0.007417356129735708,0.009439324960112572,0.01954294741153717
1761379435831883500,1.195883544921875,-0.0004164529964327812,0.01029746513813734,0.021852580830454826
1761379435841966300,1.20596630859375,0.008271576836705208,0.015510869212448597,0.013937931507825851
1761379435852048400,1.21604833984375,0.015487627126276493,0.02863907814025879,0.0032254760153591633
1761379435862130400,1.22613037109375,0.013829543255269527,0.04264464229345322,-0.006324353162199259
1761379435872212500,1.23621240234375,0.016093522310256958,0.041318267583847046,-0.006559267640113831
1761379435882294500,1.24629443359375,0.015829600393772125,0.03227364271879196,0.0009287423454225063
1761379435892376300,1.256376220703125,0.01265400368720293,0.03262784704566002,0.0076777576468884945
1761379435902459400,1.26645947265625,0.004197669215500355,0.03849319368600845,0.008765392005443573
1761379435912541400,1.27654150390625,-0.0009873025119304657,0.037744082510471344,0.010501960292458534
1761379435922623500,1.28662353515625,-0.005327722989022732,0.03445694223046303,0.004296528175473213
1761379435932705300,1.296705322265625,-0.010696223005652428,0.03775302320718765,0.0021501625888049603
1761379435942787300,1.306787353515625,-0.022937975823879242,0.04070540517568588,0.012187616899609566
1761379435952869400,1.316869384765625,-0.03301369398832321,0.041147831827402115,0.02196495048701763
1761379435962952400,1.326952392578125,-0.03421531245112419,0.039646342396736145,0.0199675802141428
1761379435973034500,1.337034423828125,-0.030802205204963684,0.04522779583930969,0.012583700008690357
1761379435983116300,1.3471162109375,-0.0244138166308403,0.03781302273273468,0.004554535262286663
1761379435993194000,1.357194091796875,-0.025199798867106438,0.03999966382980347,-0.0015489680226892233
1761379436003276000,1.367276123046875,-0.03165183961391449,0.05428885668516159,-0.004535170271992683
1761379436013358000,1.377358154296875,-0.03567562624812126,0.08105066418647766,-0.007652453612536192
1761379436023441200,1.387441162109375,-0.03205772116780281,0.1149553656578064,-0.0013551427982747555
1761379436033523200,1.397523193359375,-0.02730012685060501,0.1354427933692932,0.005947079509496689
1761379436043605000,1.40760498046875,-0.007329348474740982,0.14037683606147766,0.008228609338402748
1761379436053687000,1.41768701171875,0.012848402373492718,0.11931191384792328,-0.0016127943526953459
1761379436063769000,1.42776904296875,0.03628528490662575,0.08646928519010544,-0.012134144082665443
1761379436073852200,1.43785205078125,0.0470874160528183,0.04787749424576759,-0.02198910154402256
1761379436083934000,1.447933837890625,0.05555706471204758,0.0021859053522348404,-0.02944169193506241
1761379436094016000,1.45801611328125,0.06543050706386566,-0.03861081600189209,-0.037450436502695084
1761379436104098000,1.46809814453125,0.07789543271064758,-0.06452177464962006,-0.046476688235998154
1761379436114180000,1.47818017578125,0.09111914038658142,-0.08155845105648041,-0.056135550141334534
1761379436124262100,1.48826220703125,0.09358122944831848,-0.10146478563547134,-0.055531810969114304
1761379436134345000,1.498344970703125,0.08994356542825699,-0.1123664379119873,-0.05177192762494087
1761379436144427000,1.508427001953125,0.07484371215105057,-0.1154242753982544,-0.04079091548919678
1761379436154509000,1.518509033203125,0.05768246948719025,-0.10696832090616226,-0.030528279021382332
1761379436164591000,1.528591064453125,0.040344223380088806,-0.08659514039754868,-0.018212225288152695
1761379436174673200,1.538673095703125,0.02200198546051979,-0.06690262258052826,-0.011652006767690182
1761379436184755200,1.548755126953125,0.0034128548577427864,-0.045513980090618134,-0.009727872908115387
1761379436194838000,1.558838134765625,-0.022995365783572197,-0.03003925457596779,-0.009761321358382702
1761379436204920000,1.568920166015625,-0.04088355228304863,-0.028937771916389465,0.0005075614899396896
1761379436215002000,1.579002197265625,-0.058898042887449265,-0.03413683921098709,0.014840143732726574
1761379436225084200,1.589084228515625,-0.07492654025554657,-0.03106275200843811,0.014840143732726574
1761379436235166000,1.599166015625,-0.08715614676475525,-0.017487026751041412,0.008258474990725517
1761379436245249000,1.6092490234375,-0.09535787999629974,0.012743045575916767,0.007567916996777058
1761379436255331000,1.6193310546875,-0.09618808329105377,0.04348433390259743,0.018124565482139587
1761379436265413000,1.6294130859375,-0.08877117931842804,0.05942974239587784,0.03138470649719238
1761379436275495200,1.6394951171875,-0.07019473612308502,0.05362752452492714,0.03627633675932884
1761379436285577000,1.649576904296875,-0.05593723803758621,0.03962888568639755,0.019749557599425316
1761379436295659000,1.659658935546875,-0.04463203251361847,0.025516338646411896,0.007802953943610191
1761379436305742000,1.6697421875,-0.03434743732213974,0.005340762436389923,-0.001725570298731327
1761379436315824000,1.67982421875,-0.01998189464211464,-0.011617878451943398,-0.004111763089895248
1761379436325906000,1.689906005859375,-0.025117002427577972,-0.016533007845282555,-0.006676387041807175
1761379436335988000,1.699988037109375,-0.0474126897752285,-0.0074123237282037735,-0.00983805675059557
1761379436346070000,1.710070068359375,-0.06736243516206741,0.014520671218633652,-0.006599386688321829
1761379436356153000,1.720153076171875,-0.07664375752210617,0.03466447442770004,0.003752888645976782
1761379436366235100,1.730235107421875,-0.0746660977602005,0.050271932035684586,0.006003526505082846
1761379436376317000,1.74031689453125,-0.07553630322217941,0.04722355306148529,0.003775703487917781
1761379436386399000,1.75039892578125,-0.08357079327106476,0.049066461622714996,0.005109414458274841
1761379436396481000,1.76048095703125,-0.09076149761676788,0.046992767602205276,0.005686379503458738
1761379436406563000,1.77056298828125,-0.09239747375249863,0.044698454439640045,0.017217334359884262
1761379436416646000,1.78064599609375,-0.08828791975975037,0.04476200416684151,0.018232831731438637
1761379436426728000,1.79072802734375,-0.07809653133153915,0.0580783411860466,0.022957278415560722
1761379436436810000,1.80081005859375,-0.06898249685764313,0.06507851928472519,0.01901814714074135
1761379436446892000,1.81089208984375,-0.0604124441742897,0.05967070162296295,0.011417217552661896
1761379436456974000,1.82097412109375,-0.055226027965545654,0.05309436842799187,0.006384055130183697
1761379436467057200,1.83105712890625,-0.06000613421201706,0.03335448354482651,0.003730214899405837
1761379436477139000,1.841138916015625,-0.06967473030090332,0.016026657074689865,0.0047617107629776
1761379436487221000,1.851220947265625,-0.06643765419721603,0.01040605641901493,0.0030157428700476885
1761379436497303000,1.861302978515625,-0.058869294822216034,-0.002339794300496578,0.0011322677601128817
1761379436507385000,1.871385009765625,-0.04687122255563736,-0.01402228232473135,0.0007879210170358419
1761379436517467100,1.881467041015625,-0.03792436793446541,-0.01305067352950573,-0.00457045016810298
1761379436527550200,1.89155029296875,-0.025519629940390587,-0.006517939269542694,-0.014294716529548168
1761379436537632300,1.90163232421875,-0.03110896795988083,0.01036486029624939,-0.016067473217844963
1761379436547714000,1.911714111328125,-0.028693482279777527,0.02650095336139202,-0.014477034099400043
1761379436557796000,1.921796142578125,-0.024089708924293518,0.04858391359448433,-0.009697903878986835
1761379436567878000,1.9318779296875,-0.017918631434440613,0.06273408234119415,-0.011355721391737461
1761379436577961200,1.941961181640625,-0.00895563792437315,0.0706857219338417,-0.004396296106278896
1761379436588043300,1.952043212890625,-0.0050240131095051765,0.06754318624734879,0.0032475085463374853
1761379436598125300,1.962125244140625,-0.004113420844078064,0.04225063696503639,0.0031694406643509865
1761379436608207000,1.97220703125,-0.0034489622339606285,0.025121718645095825,-0.007349779363721609
1761379436618289000,1.982288818359375,-0.007769366260617971,0.018644999712705612,-0.014828572049736977
1761379436628372200,1.992372314453125,-0.017552223056554794,0.014634278602898121,-0.02182655967772007
1761379436638454300,2.002454345703125,-0.02454550191760063,0.022854313254356384,-0.0215161070227623
1761379436648536300,2.012536376953125,-0.03151046484708786,0.03963062912225723,-0.01713946834206581
1761379436658618000,2.0226181640625,-0.04020947217941284,0.036429762840270996,-0.005987977609038353
1761379436668700200,2.0327001953125,-0.040517330169677734,0.02045345865190029,-0.006493445485830307
1761379436678783200,2.042783203125,-0.035647474229335785,0.008839945308864117,-0.008611191064119339
1761379436688865300,2.052865234375,-0.02688460983335972,-0.010252788662910461,-0.0012584697687998414
1761379436698947000,2.062947021484375,-0.024710938334465027,-0.022926239296793938,0.00441086757928133
1761379436709029000,2.073029052734375,-0.015572832897305489,-0.03536320477724075,0.012880785390734673
1761379436719111200,2.083111083984375,-0.017804842442274094,-0.03957688808441162,0.0024906748440116644
1761379436729193200,2.093193115234375,-0.016427723690867424,-0.02422962337732315,-0.008891409263014793
1761379436739276300,2.1032763671875,-0.010547393932938576,-0.006772288121283054,-0.010528436861932278
1761379436749358000,2.113358154296875,-0.004353414289653301,0.006480399984866381,-0.001006837235763669
1761379436759440100,2.123440185546875,-0.0005947696045041084,0.012029429897665977,0.0073370919562876225
1761379436769522200,2.133522216796875,0.008705255575478077,0.009407548233866692,0.010638080537319183
1761379436779604200,2.143604248046875,0.012806565500795841,-0.0024061454460024834,0.01197967678308487
1761379436789687000,2.15368701171875,0.0074027469381690025,-0.003089246340095997,0.00653431098908186
1761379436799769000,2.16376904296875,-0.0016857404261827469,0.008862034417688847,0.005425442010164261
1761379436809851100,2.17385107421875,-0.006202462129294872,0.03200863301753998,0.005665925331413746
1761379436819933200,2.18393310546875,-0.007322699297219515,0.042105335742235184,0.004313659854233265
1761379436830015200,2.19401513671875,-0.010633807629346848,0.04008319973945618,0.008362996391952038
1761379436840098000,2.20409814453125,-0.01652519404888153,0.029039990156888962,0.00508778914809227
1761379436850180000,2.21418017578125,-0.021915432065725327,0.016115404665470123,0.0009388509206473827
1761379436860262100,2.22426220703125,-0.022692881524562836,0.005335574969649315,-0.0016377607826143503
1761379436870344200,2.23434423828125,-0.02320314198732376,-0.0065996479243040085,-0.008844275027513504
1761379436880426200,2.24442626953125,-0.025413312017917633,-0.0013486193493008614,-0.01193920150399208
1761379436890509000,2.254509033203125,-0.028495121747255325,-0.002057020552456379,-0.010161008685827255
1761379436900591000,2.264591064453125,-0.03537515923380852,-0.01467230636626482,-0.0041045439429581165
1761379436910673200,2.274673095703125,-0.04435134306550026,-0.023574721068143845,-0.0036254411097615957
1761379436920755200,2.284755126953125,-0.05200140178203583,-0.02289462275803089,-0.007490198127925396
1761379436930837200,2.294837158203125,-0.060776516795158386,-0.018098536878824234,-0.00367175810970366
1761379436940919000,2.3049189453125,-0.06533508002758026,-0.02206367254257202,0.003374311840161681
1761379436951002000,2.315002197265625,-0.06350202113389969,-0.02868375927209854,0.008594373241066933
1761379436961084200,2.325084228515625,-0.06114893779158592,-0.029867980629205704,0.009511775337159634
1761379436971166200,2.335166259765625,-0.056665241718292236,-0.04129347577691078,0.00446641631424427
1761379436981248300,2.345248291015625,-0.05600563436746597,-0.04047191143035889,0.0031955938320606947
1761379436991330000,2.355330078125,-0.049216970801353455,-0.03792086988687515,0.006833205930888653
1761379437001412600,2.36541259765625,-0.044184084981679916,-0.02689715474843979,0.005947599653154612
1761379437011494700,2.37549462890625,-0.03819037228822708,-0.0133640356361866,0.0076272557489573956
1761379437021576700,2.38557666015625,-0.03580208122730255,-0.003119715489447117,0.007256169803440571
1761379437031658800,2.39565869140625,-0.03259004279971123,0.007512954995036125,0.01516735553741455
1761379437041740500,2.405740478515625,-0.02720724605023861,0.0010862452909350395,0.017722979187965393
1761379437051823900,2.415823974609375,-0.025719337165355682,-0.0047625890001654625,0.01517939381301403
1761379437061905700,2.42590576171875,-0.026394309476017952,-0.0045979078859090805,0.01477995328605175
1761379437071987700,2.43598779296875,-0.02481478825211525,0.0025542769581079483,0.008844300173223019
1761379437082069800,2.44606982421875,-0.020389804616570473,0.007729965262115002,0.006969733629375696
1761379437092151600,2.456151611328125,-0.010640770196914673,0.021564288064837456,0.0024945572949945927
1761379437102235000,2.46623486328125,-0.000031832605600357056,0.03911988437175751,0.000620370963588357
1761379437112317000,2.47631689453125,0.001717330887913704,0.051015425473451614,0.0017112016212195158
1761379437122399000,2.48639892578125,0.0057064807042479515,0.056062646210193634,0.003768760012462735
1761379437132480500,2.49648046875,0.0029849419370293617,0.05616533011198044,0.004948589950799942
1761379437142562600,2.5065625,0.0019479896873235703,0.05126555636525154,0.003497225232422352
1761379437152646000,2.51664599609375,-0.003560759127140045,0.045883841812610626,0.007065594661980867
1761379437162728000,2.52672802734375,-0.014493077993392944,0.03906126320362091,0.013633321970701218
1761379437172809700,2.536809814453125,-0.024166477844119072,0.04925078526139259,0.015501528978347778
1761379437182891800,2.546891845703125,-0.03424372524023056,0.04875529557466507,0.02060716226696968
1761379437192973800,2.556973876953125,-0.03868028521537781,0.051215529441833496,0.02366926521062851
1761379437203057000,2.567056884765625,-0.03939500451087952,0.05387890338897705,0.021800760179758072
1761379437213139000,2.577138916015625,-0.036926254630088806,0.053797412663698196,0.04499609395861626
1761379437223220700,2.587220703125,-0.04058564454317093,0.022076094523072243,0.031033417209982872
1761379437233302800,2.597302734375,-0.03637199103832245,0.006866781041026115,0.007452988065779209
1761379437243384800,2.607384765625,-0.03401368111371994,0.001578446477651596,-0.003918650094419718
1761379437253468000,2.617468017578125,-0.03236784785985947,0.0002591162919998169,0.007104973308742046
1761379437263549700,2.6275498046875,-0.02889193408191204,-0.0119559895247221,0.01834200508892536
1761379437273631700,2.6376318359375,-0.029877835884690285,-0.025667009875178337,0.02771899662911892
1761379437283713800,2.6477138671875,-0.03304317221045494,-0.029174121096730232,0.015594293363392353
1761379437293795800,2.6577958984375,-0.033254362642765045,-0.027640672400593758,0.002761319512501359
1761379437303879000,2.66787890625,-0.04303312674164772,-0.032253533601760864,0.0062924837693572044
1761379437313960700,2.677960693359375,-0.04439187049865723,-0.03564906492829323,0.02326347678899765
1761379437324042800,2.688042724609375,-0.04052112624049187,-0.033971939235925674,0.03428861126303673
1761379437334124800,2.698124755859375,-0.03910752013325691,-0.013288500718772411,0.023922257125377655
1761379437344206800,2.708206787109375,-0.04135696962475777,0.014548616483807564,0.01039549894630909
1761379437354289700,2.71828955078125,-0.039910607039928436,0.03346291929483414,0.009482034482061863
1761379437364371700,2.728371826171875,-0.03825994208455086,0.03142397850751877,0.01447957381606102
1761379437374453800,2.738453857421875,-0.03528838977217674,0.022723430767655373,0.01430380530655384
1761379437384535800,2.748535888671875,-0.03557993099093437,0.018508072942495346,0.010373840108513832
1761379437394617900,2.758617919921875,-0.035298701375722885,0.016169818118214607,0.013389603234827518
1761379437404700700,2.76870068359375,-0.03592454642057419,0.027687618508934975,0.005714326165616512
1761379437414782700,2.77878271484375,-0.037105657160282135,0.04584132134914398,0.005976115353405476
1761379437424864800,2.78886474609375,-0.03398584574460983,0.04986761882901192,0.015051332302391529
1761379437434946800,2.79894677734375,-0.03149206191301346,0.0385715514421463,0.022348392754793167
1761379437445028900,2.80902880859375,-0.02045273967087269,0.04896440729498863,0.08129902184009552
1761379437455111700,2.819111572265625,-0.017589308321475983,0.012945421040058136,0.06470698863267899
1761379437465193700,2.82919384765625,-0.00837714597582817,0.004978522192686796,0.00972210243344307
1761379437475275800,2.83927587890625,-0.0019067293033003807,0.009154891595244408,-0.01987946592271328
1761379437485357800,2.84935791015625,0.004037352278828621,0.00920149777084589,-0.024453788995742798
1761379437495440000,2.85943994140625,0.008670186623930931,0.010533610358834267,-0.004846000112593174
1761379437505522700,2.869522705078125,0.013415598310530186,0.009960869327187538,0.013643466867506504
1761379437515604700,2.879604736328125,0.01887614279985428,-0.004161074757575989,0.01821158640086651
1761379437525686800,2.889686767578125,0.023197665810585022,-0.014858434908092022,0.0010845866054296494
1761379437535768800,2.899768798828125,0.024746030569076538,-0.01946171000599861,-0.01401793397963047
1761379437545851600,2.9098515625,0.01765884831547737,-0.030076749622821808,-0.013985865749418736
1761379437555933700,2.91993359375,0.01316822785884142,-0.029566220939159393,-0.0038386897649616003
1761379437566015700,2.930015625,0.008678221143782139,-0.013118458911776543,0.0016906356904655695
1761379437576097800,2.940097900390625,0.0008147060871124268,0.003843480721116066,0.0015529501251876354
1761379437586179800,2.950179931640625,-0.011039615608751774,0.01962284743785858,0.008118965663015842
1761379437596262700,2.9602626953125,-0.018645869567990303,0.038901206105947495,0.009018581360578537
1761379437606344700,2.9703447265625,-0.014367890544235706,0.05147579312324524,0.007706521078944206
1761379437616426800,2.9804267578125,-0.00915262196213007,0.0398779958486557,0.009433580562472343
1761379437626508800,2.9905087890625,-0.007888455875217915,0.03611593693494797,0.0005235441494733095
1761379437636590600,3.000590576171875,0.002805733121931553,0.028918476775288582,-0.005926631856709719
1761379437646673700,3.010673583984375,0.01316588930785656,0.016648970544338226,-0.014820273965597153
1761379437656755700,3.020755615234375,0.024145571514964104,-0.0063815126195549965,-0.015933208167552948
1761379437666837800,3.030837646484375,0.025933049619197845,-0.01954798959195614,-0.023444553837180138
1761379437676919800,3.040919921875,0.022980403155088425,-0.02245083451271057,-0.03422582894563675
1761379437687001600,3.051001708984375,0.019742373377084732,-0.016121702268719673,-0.04336082190275192
1761379437697084700,3.061084716796875,0.017337273806333542,-0.007307438179850578,-0.04043667018413544
1761379437707166700,3.071166748046875,0.016287431120872498,-0.004711870104074478,-0.026142219081521034
1761379437717248800,3.081248779296875,0.011630893684923649,0.012956339865922928,-0.0152498884126544
1761379437727330600,3.09133056640625,0.011191603727638721,0.032325323671102524,0.0017005754634737968
1761379437737412600,3.10141259765625,0.016546156257390976,0.041347846388816833,0.00894011277705431
1761379437747495700,3.11149560546875,0.018518518656492233,0.049186915159225464,0.005548420362174511
1761379437757577700,3.12157763671875,0.021704725921154022,0.05266180634498596,-0.0002623307518661022
1761379437767659800,3.13165966796875,0.023912543430924416,0.05128764361143112,-0.006427321583032608
1761379437777741600,3.141741455078125,0.027293426916003227,0.037634413689374924,-0.006676326971501112
1761379437787823600,3.15182373046875,0.029256129637360573,0.017776988446712494,-0.00813090056180954
1761379437797906700,3.16190673828125,0.029809268191456795,0.003184729255735874,-0.011028951033949852
1761379437807988700,3.17198876953125,0.02863280475139618,-0.0017028162255883217,-0.021402793005108833
1761379437818070500,3.182070556640625,0.025182947516441345,-0.00572472158819437,-0.023829199373722076
1761379437828152600,3.192152587890625,0.020156603306531906,0.0053451042622327805,-0.021584240719676018
1761379437838236000,3.20223583984375,0.015492607839405537,0.011404061689972878,-0.016258183866739273
1761379437848317700,3.212317626953125,0.00646471232175827,0.0183919295668602,-0.014285488054156303
1761379437858399700,3.222399658203125,0.0050740111619234085,0.020108338445425034,-0.012113679200410843
1761379437868481500,3.2324814453125,0.0076643554493784904,0.012422587722539902,-0.009920480661094189
1761379437878563600,3.2425634765625,0.012768571265041828,0.002707109786570072,-0.011517578735947609
1761379437888647000,3.25264697265625,0.01801488921046257,-0.009399753995239735,-0.015925556421279907
1761379437898729000,3.26272900390625,0.017622869461774826,-0.01532635185867548,-0.013999824412167072
1761379437908810800,3.272810791015625,0.013418206013739109,-0.019058384001255035,-0.009465325623750687
1761379437918892500,3.282892578125,0.0036212345585227013,-0.007951938547194004,-0.009956412017345428
1761379437928974600,3.292974609375,-0.006770205684006214,0.00627705454826355,-0.0052457163110375404
1761379437939058000,3.303057861328125,-0.010843776166439056,0.01681358553469181,-0.0033189193345606327
1761379437949139700,3.3131396484375,-0.011026054620742798,0.024961374700069427,-0.00044240953866392374
1761379437959221800,3.3232216796875,-0.004400376230478287,0.016029931604862213,-0.0006986056687310338
1761379437969303800,3.3333037109375,-0.0009907204657793045,-0.00016046781092882156,-0.002044778084382415
1761379437979385900,3.3433857421875,-0.002159048803150654,-0.007035417482256889,-0.010618558153510094
1761379437989469000,3.353468994140625,-0.009054100140929222,-0.0015659881755709648,-0.00943321269005537
1761379437999550700,3.36355078125,-0.019703548401594162,0.011045943945646286,-0.0010620984248816967
1761379438009632800,3.3736328125,-0.023218177258968353,0.024064792320132256,0.004492021165788174
1761379438019714800,3.38371484375,-0.01724816858768463,0.04180357605218887,0.007959190756082535
1761379438029798000,3.3937978515625,-0.010585702955722809,0.058521807193756104,0.009922795929014683
1761379438039879700,3.403879638671875,-0.0029671983793377876,0.06915341317653656,0.021144293248653412
1761379438049961700,3.413961669921875,0.006573053076863289,0.0707775354385376,0.023028375580906868
1761379438060043800,3.424043701171875,0.012491129338741302,0.056983426213264465,0.026132024824619293
1761379438070125800,3.434125732421875,0.01577385887503624,0.037463828921318054,0.022177360951900482
1761379438080209000,3.444208984375,0.013690201565623283,0.017198503017425537,0.018203921616077423
1761379438090290700,3.454290771484375,0.009844225831329823,-0.012776455841958523,0.014194725081324577
1761379438100372700,3.464372802734375,0.010997374542057514,-0.04391307011246681,0.013134520500898361
1761379438110454800,3.474454833984375,0.015243835747241974,-0.06432753056287766,0.005100468173623085
1761379438120536800,3.484536865234375,0.014944761991500854,-0.08219493925571442,0.000021020881831645966
1761379438130619600,3.49461962890625,0.01152652408927679,-0.08691048622131348,-0.0018004386220127344
1761379438140701700,3.50470166015625,0.0011942572891712189,-0.08678878098726273,-0.000284300884231925
1761379438150783700,3.51478369140625,-0.010954529047012329,-0.0766901895403862,0.0048571499064564705
1761379438160865800,3.52486572265625,-0.026334017515182495,-0.06084065139293671,0.01660888083279133
1761379438170947800,3.53494775390625,-0.03921349346637726,-0.03707432001829147,0.020456958562135696
1761379438181030700,3.54503076171875,-0.03909870982170105,-0.0255750585347414,0.025976091623306274
1761379438191112700,3.55511279296875,-0.021647732704877853,-0.037126973271369934,0.024894919246435165
1761379438201194800,3.56519482421875,0.0026586726307868958,-0.05755314975976944,0.01817523129284382
1761379438211276800,3.57527685546875,0.012247832491993904,-0.061051562428474426,0.01280569564551115
1761379438221359600,3.585359619140625,0.020393911749124527,-0.05552603304386139,0.009241587482392788
1761379438231441700,3.595441650390625,0.02775721810758114,-0.055760160088539124,0.005842103622853756
1761379438241523700,3.605523681640625,0.03913797438144684,-0.05602727830410004,0.009222719818353653
1761379438251605800,3.615605712890625,0.05482715368270874,-0.05079503357410431,0.013372557237744331
1761379438261687800,3.625687744140625,0.0647285208106041,-0.047405093908309937,0.013187200762331486
1761379438271770600,3.6357705078125,0.07521962374448776,-0.040410418063402176,0.010992459952831268
1761379438281852700,3.645852783203125,0.08276888728141785,-0.028135910630226135,0.004208324011415243
1761379438291934700,3.655934814453125,0.08080850541591644,-0.009058956056833267,0.003056073561310768
1761379438302016800,3.666016845703125,0.08657078444957733,0.006992182228714228,0.010571780614554882
1761379438312098800,3.676098876953125,0.08945924788713455,0.011384267359972,0.01919882372021675
1761379438322181600,3.686181640625,0.09802716970443726,0.01095842756330967,0.019270464777946472
1761379438332263700,3.696263671875,0.10076133906841278,0.016345877200365067,0.017805809155106544
1761379438342345700,3.706345703125,0.0979626253247261,0.009769202210009098,0.012629956007003784
1761379438352427800,3.716427734375,0.09191650152206421,0.00030017830431461334,0.003497455967590213
1761379438362510600,3.726510498046875,0.0887574553489685,-0.0218123160302639,-0.004783377051353455
1761379438372592600,3.736592529296875,0.08933801203966141,-0.044213518500328064,-0.007556315511465073
1761379438382674700,3.7466748046875,0.08226945251226425,-0.046865493059158325,-0.008074300363659859
1761379438392756700,3.7567568359375,0.07150661200284958,-0.03962700441479683,-0.011226515285670757
1761379438402838800,3.7668388671875,0.06294774264097214,-0.03380187228322029,-0.009152977727353573
1761379438412921600,3.776921630859375,0.05723791942000389,-0.02802414447069168,0.0018828953616321087
1761379438423003600,3.787003662109375,0.048786114901304245,-0.03216136619448662,0.013693748973309994
1761379438433085700,3.797085693359375,0.04270059987902641,-0.04675372689962387,0.013720501214265823
1761379438443167700,3.807167724609375,0.02655625343322754,-0.04922141134738922,0.0004409155808389187
1761379438453249800,3.817249755859375,0.014687763527035713,-0.03388185054063797,-0.009497016668319702
1761379438463332600,3.82733251953125,0.005793072283267975,-0.01949252560734749,-0.007312159053981304
1761379438473414700,3.83741455078125,0.0007002167403697968,0.0077287196181714535,0.00929801631718874
1761379438483496700,3.84749658203125,0.0046571409329771996,0.0199291929602623,0.024108123034238815
1761379438493578800,3.857578857421875,0.01585357077419758,0.022879373282194138,0.02956157736480236
1761379438503661600,3.86766162109375,0.02754511497914791,0.018958400934934616,0.02511010318994522
1761379438513743600,3.87774365234375,0.03011835739016533,0.024819321930408478,0.015810737386345863
1761379438523825700,3.88782568359375,0.03567024692893028,0.025517072528600693,0.008114201948046684
1761379438533907700,3.89790771484375,0.047316424548625946,0.012375067919492722,0.013713104650378227
1761379438543989800,3.90798974609375,0.05375541001558304,-0.006721661426126957,0.017055904492735863
1761379438554072600,3.918072509765625,0.05359158292412758,-0.01900133490562439,0.015140012837946415
1761379438564154600,3.928154541015625,0.0517052598297596,-0.03722294792532921,0.01125472690910101
1761379438574236700,3.938236572265625,0.05116485804319382,-0.04420522600412369,0.007437240332365036
1761379438584318700,3.948318603515625,0.051027171313762665,-0.043099477887153625,0.0032898993231356144
1761379438594401800,3.95840185546875,0.04814722016453743,-0.041346076875925064,0.010994368232786655
1761379438604483800,3.96848388671875,0.05272412672638893,-0.044653989374637604,0.01994764804840088
1761379438614566000,3.97856591796875,0.05198270455002785,-0.05397798493504524,0.018667202442884445
1761379438624648000,3.98864794921875,0.04729367792606354,-0.05611063912510872,0.008542396128177643
1761379438634729700,3.998729736328125,0.04409980773925781,-0.05360405147075653,0.002494791289791465
1761379438644812800,4.008812744140625,0.04120654985308647,-0.051830921322107315,0.0009128737729042768
1761379438654894800,4.018894775390625,0.04499739781022072,-0.05867832154035568,0.0066183460876345634
1761379438664977000,4.028976806640625,0.04878201335668564,-0.057062044739723206,0.0029485102277249098
1761379438675059000,4.039058837890625,0.05281523987650871,-0.056040000170469284,-0.0006812951760366559
1761379438685141800,4.049141845703125,0.04854965582489967,-0.05343170091509819,0.0029504576232284307
1761379438695223800,4.059223876953125,0.04620852693915367,-0.04581557959318161,0.01023437175899744
1761379438705305900,4.069305908203125,0.042859602719545364,-0.039049819111824036,0.012987547554075718
1761379438715388000,4.079387939453125,0.04133358970284462,-0.024026434868574142,0.008219046518206596
1761379438725470000,4.089469970703125,0.03544214740395546,0.0026288782246410847,0.006525808479636908
1761379438735552800,4.099552734375,0.027649614959955215,0.02897787280380726,0.005640712566673756
1761379438745634800,4.109634765625,0.020194895565509796,0.04167236387729645,0.012928718701004982
1761379438755716900,4.119716796875,0.013932422734797001,0.04289837181568146,0.0206002090126276
1761379438765799000,4.129798828125,0.010057256557047367,0.03976995497941971,0.02618459053337574
1761379438775880700,4.139880615234375,0.0076061030849814415,0.03068329393863678,0.026138363406062126
1761379438785963800,4.1499638671875,0.009002930484712124,0.023572389036417007,0.016021281480789185
1761379438796045800,4.1600458984375,0.008212507702410221,0.02789054811000824,0.009742186404764652
1761379438806127900,4.1701279296875,0.0017125299200415611,0.030006427317857742,0.011131557635962963
1761379438816210000,4.1802099609375,-0.001795443706214428,0.02954440750181675,0.01343474816530943
1761379438826292700,4.190292724609375,0.0006629200652241707,0.03332982212305069,0.013151654042303562
1761379438836374800,4.200374755859375,-0.0026093367487192154,0.035505663603544235,0.0073211961425840855
1761379438846456800,4.210456787109375,0.0012370673939585686,0.025278326123952866,0.012604376301169395
1761379438856539000,4.220538818359375,0.01525206957012415,0.006494135595858097,0.015674704685807228
1761379438866620700,4.23062060546875,0.025342784821987152,-0.009531436488032341,0.015969783067703247
1761379438876703700,4.240703857421875,0.03332972526550293,-0.01498580165207386,0.01190565899014473
1761379438886785800,4.250785888671875,0.037940990179777145,-0.023871969431638718,0.0019888468086719513
1761379438896867800,4.260867919921875,0.03400447592139244,-0.01769939810037613,0.002744792029261589
1761379438906949600,4.27094970703125,0.03245238587260246,-0.012558165937662125,0.007002388127148151
1761379438917032700,4.28103271484375,0.03170156478881836,-0.003140491433441639,0.008252195082604885
1761379438927114800,4.29111474609375,0.02948927879333496,0.001865185797214508,0.014776141382753849
1761379438937196800,4.30119677734375,0.03536666929721832,-0.003221851773560047,0.016507264226675034
1761379438947278800,4.31127880859375,0.035983726382255554,-0.010926377959549427,0.015518167056143284
1761379438957360600,4.321360595703125,0.03257761523127556,-0.015225827693939209,0.005426495335996151
1761379438967443700,4.331443603515625,0.01501912996172905,-0.017684724181890488,0.001188873779028654
1761379438977525800,4.34152587890625,-0.00518870260566473,-0.010462996549904346,0.007194836623966694
1761379438987607800,4.35160791015625,-0.019215572625398636,0.0002554282546043396,0.017871715128421783
1761379438997689900,4.36168994140625,-0.03150029480457306,0.004574439954012632,0.025689831003546715
1761379439007773000,4.37177294921875,-0.04148262366652489,0.015935752540826797,0.02625974826514721
1761379439017855000,4.38185498046875,-0.0497809499502182,0.02216363698244095,0.024485353380441666
1761379439027937000,4.39193701171875,-0.043362200260162354,0.016421062871813774,0.0313565731048584
1761379439038018800,4.402018798828125,-0.026697352528572083,-0.006517397239804268,0.028634529560804367
1761379439048100900,4.412100830078125,-0.019602689892053604,-0.021849481388926506,0.021221088245511055
1761379439058184000,4.422183837890625,-0.018848512321710587,-0.034453220665454865,0.01072726771235466
1761379439068266000,4.432265869140625,-0.019845066592097282,-0.03693768382072449,0.006665147840976715
1761379439078348000,4.44234814453125,-0.017398754134774208,-0.032639116048812866,0.0029902937822043896
1761379439088429800,4.452429931640625,-0.011796528473496437,-0.010415038093924522,0.007934452034533024
1761379439098513000,4.462512939453125,-0.012100668624043465,0.01715148612856865,0.01409432478249073
1761379439108595000,4.472594970703125,-0.011158708482980728,0.03786741569638252,0.029940398409962654
1761379439118677000,4.482677001953125,-0.008948427625000477,0.049799878150224686,0.029513847082853317
1761379439128758800,4.4927587890625,-0.007040539290755987,0.05218686908483505,0.03240151330828667
1761379439138840800,4.5028408203125,-0.005421132780611515,0.04310636222362518,0.026666872203350067
1761379439148924000,4.512923828125,-0.00637081591412425,0.022764869034290314,0.02006835862994194
1761379439159006000,4.523005859375,-0.012699129059910774,0.0032652337104082108,0.0127006396651268
1761379439169088000,4.533087890625,-0.02410251833498478,-0.017537783831357956,0.0043175420723855495
1761379439179169800,4.543169677734375,-0.03651248663663864,-0.02015092968940735,-0.002092659706249833
1761379439189252900,4.5532529296875,-0.04641837999224663,-0.017437433823943138,-0.0045302510261535645
1761379439199335000,4.5633349609375,-0.05251939222216606,-0.015627870336174965,0.0025276606902480125
1761379439209417000,4.5734169921875,-0.05676500126719475,-0.004700653254985809,0.009251875802874565
1761379439219498800,4.583498779296875,-0.05272939056158066,0.0070833549834787846,0.0085480697453022
1761379439229580800,4.593580810546875,-0.049407362937927246,0.0009482307359576225,0.014037111774086952
1761379439239663900,4.603663818359375,-0.05161402001976967,-0.008113617077469826,0.007888954132795334
1761379439249746000,4.613745849609375,-0.05523565411567688,-0.008235324174165726,0.012369723059237003
1761379439259828000,4.623827880859375,-0.05800454318523407,-0.016763031482696533,0.015020899474620819
1761379439269909800,4.63390966796875,-0.05149391293525696,-0.02192743308842182,0.012288495898246765
1761379439279992800,4.643992919921875,-0.047200098633766174,-0.026892364025115967,0.012373451143503189
1761379439290075000,4.654074951171875,-0.03834482282400131,-0.034818463027477264,0.014697590842843056
1761379439300157000,4.664156982421875,-0.030405592173337936,-0.03154286742210388,0.011489994823932648
1761379439310238700,4.67423876953125,-0.024208147078752518,-0.021349085494875908,0.010023924522101879
1761379439320320800,4.68432080078125,-0.013458454981446266,-0.018715456128120422,0.014977742917835712
1761379439330403800,4.69440380859375,-0.00833186972886324,-0.03272288292646408,0.01781613938510418
1761379439340486000,4.70448583984375,0.005949349142611027,-0.03989367187023163,0.01628679782152176
1761379439350568000,4.71456787109375,0.017883241176605225,-0.05276765674352646,0.01141720823943615
1761379439360649700,4.724649658203125,0.01788674294948578,-0.06237316131591797,0.008662756532430649
1761379439370732800,4.73473291015625,0.011401945725083351,-0.05468248575925827,0.013125946745276451
1761379439380814800,4.74481494140625,0.0028745830059051514,-0.04052266478538513,0.012209833599627018
1761379439390897000,4.75489697265625,-0.0008799415081739426,-0.03896018862724304,0.023343710228800774
1761379439400978700,4.764978759765625,0.0017796633765101433,-0.03963246941566467,0.03413550928235054
1761379439411060700,4.775060791015625,-0.005250816233456135,-0.03582148626446724,0.03159778565168381
1761379439421143800,4.785143798828125,-0.009354131296277046,-0.03965971618890762,0.027020584791898727
1761379439431225900,4.795225830078125,-0.006920535117387772,-0.0365946888923645,0.0212005116045475
1761379439441308000,4.805307861328125,-0.004107393324375153,-0.03742906078696251,0.012650012969970703
1761379439451389700,4.8153896484375,0.0018394449725747108,-0.04211755469441414,0.013486245647072792
1761379439461472800,4.82547265625,0.008712944574654102,-0.04485197737812996,0.010791896842420101
1761379439471554800,4.835554931640625,0.004866541363298893,-0.052296046167612076,0.01295305136591196
1761379439481636900,4.845636962890625,-0.005066834390163422,-0.05379035323858261,0.01204000972211361
1761379439491718700,4.85571875,-0.011547637172043324,-0.04938654974102974,0.00858535710722208
1761379439501802000,4.865802001953125,-0.018912645056843758,-0.05300400033593178,0.007521730847656727
1761379439511884000,4.875884033203125,-0.017988529056310654,-0.04638764262199402,0.007933988235890865
1761379439521966000,4.885966064453125,-0.018212560564279556,-0.04236149787902832,0.005764144007116556
1761379439532048000,4.8960478515625,-0.022665897384285927,-0.03755902126431465,0.011647066101431847
1761379439542129700,4.906129638671875,-0.026170838624238968,-0.029647311195731163,0.00888808537274599
1761379439552213000,4.916212890625,-0.02721107006072998,-0.0186252873390913,0.007861703634262085
1761379439562295000,4.926294921875,-0.012700890190899372,-0.01211599912494421,0.0034788295160979033
1761379439572377000,4.936377197265625,0.004954003728926182,-0.017240986227989197,0.003828502492979169
1761379439582459000,4.946458984375,0.019255444407463074,-0.024582788348197937,0.007306057959794998
1761379439592542000,4.9565419921875,0.02849448099732399,-0.02435295656323433,0.0014931766781955957
1761379439602624000,4.9666240234375,0.032131098210811615,-0.02335795760154724,-0.0005548375193029642
1761379439612706000,4.9767060546875,0.02891000546514988,-0.01270131766796112,-0.005394866690039635
1761379439622787800,4.986787841796875,0.020282238721847534,0.005900129210203886,-0.005431605037301779
1761379439632870000,4.996869873046875,0.017147965729236603,0.012730337679386139,0.004214630462229252
1761379439642953000,5.006952880859375,0.018933657556772232,0.011259302496910095,0.003651122096925974
1761379439653035000,5.017034912109375,0.017705941572785378,-0.0010450342670083046,-0.001045628683641553
1761379439663117000,5.027116943359375,0.013075417838990688,-0.00828918069601059,-0.009619745425879955
1761379439673198800,5.03719873046875,0.008854840882122517,-0.019227050244808197,-0.013524206355214119
1761379439683282000,5.047281982421875,0.006868446245789528,-0.027140341699123383,-0.015153894200921059
1761379439693364000,5.057364013671875,0.0015378640964627266,-0.028231438249349594,-0.015490250661969185
1761379439703446000,5.067446044921875,0.0028950106352567673,-0.01863021031022072,-0.021507663652300835
1761379439713527800,5.07752783203125,0.008316985331475735,-0.0019209068268537521,-0.024552706629037857
1761379439723611000,5.08761083984375,0.01568370684981346,-0.0008174367249011993,-0.023647204041481018
1761379439733693000,5.09769287109375,0.026238080114126205,-0.005022034980356693,-0.02872025966644287
1761379439743775000,5.10777490234375,0.03870030865073204,-0.006007745862007141,-0.029184674844145775
1761379439753857000,5.11785693359375,0.04334379732608795,-0.015041454695165157,-0.0268674585968256
1761379439763938800,5.127938720703125,0.04845060408115387,-0.01953292079269886,-0.025544622913002968
1761379439774022000,5.13802197265625,0.04203398525714874,-0.019564880058169365,-0.025651948526501656
1761379439784104000,5.14810400390625,0.038111623376607895,-0.019491132348775864,-0.01839127391576767
1761379439794186000,5.15818603515625,0.02989044412970543,-0.015929419547319412,-0.015760602429509163
1761379439804267800,5.168267822265625,0.021769840270280838,-0.01316569559276104,-0.014905321411788464
1761379439814350800,5.178350830078125,0.008129128254950047,-0.007410604506731033,-0.01955573260784149
1761379439824433000,5.188432861328125,0.0009963326156139374,-0.007059711962938309,-0.020644772797822952
1761379439834515000,5.198514892578125,-0.009146315976977348,-0.014153040945529938,-0.016702761873602867
1761379439844596700,5.2085966796875,-0.019545909017324448,-0.03393648564815521,-0.00943678617477417
1761379439854678800,5.2186787109375,-0.03567081689834595,-0.054887838661670685,-0.009970750659704208
1761379439864761900,5.228761962890625,-0.04256691038608551,-0.06595872342586517,-0.026049233973026276
1761379439874844000,5.238843994140625,-0.04230272397398949,-0.07934803515672684,-0.043328624218702316
1761379439884926000,5.248926025390625,-0.04026081785559654,-0.09004033356904984,-0.06202171742916107
1761379439895007700,5.2590078125,-0.034565914422273636,-0.08250252157449722,-0.07097260653972626
1761379439905090800,5.2690908203125,-0.025663748383522034,-0.0703028067946434,-0.06021890789270401
1761379439915172900,5.2791728515625,-0.019818376749753952,-0.05556407570838928,-0.03543659672141075
1761379439925255000,5.2892548828125,-0.01315020676702261,-0.058499302715063095,-0.015386754646897316
1761379439935336700,5.299336669921875,-0.012653793208301067,-0.04548443481326103,-0.00882419291883707
1761379439945419800,5.309419677734375,-0.004724928177893162,-0.03964560106396675,-0.017735213041305542
1761379439955501800,5.319501708984375,-0.0027065183967351913,-0.030954107642173767,-0.022572845220565796
1761379439965584000,5.329583984375,0.00021140463650226593,0.003886312246322632,-0.01854020357131958
1761379439975666000,5.339666015625,0.006019227206707001,0.017325688153505325,0.00407216465100646
1761379439985747700,5.349747802734375,0.015031672082841396,0.010032447054982185,0.03036370873451233
1761379439995831300,5.359831298828125,0.024193212389945984,0.00855732150375843,0.020768605172634125
1761379440005913300,5.369913330078125,0.029409976676106453,0.017126187682151794,-0.003788853995501995
1761379440015995400,5.379995361328125,0.03256022930145264,0.006995789706707001,-0.015404762700200081
1761379440026077200,5.3900771484375,0.03394634276628494,-0.005444392561912537,-0.017814824357628822
1761379440036160500,5.400160400390625,0.034918129444122314,0.005673506297171116,-0.014902126044034958
1761379440046242600,5.41024267578125,0.03108387440443039,0.00987638533115387,-0.004125560633838177
1761379440056324400,5.420324462890625,0.024564187973737717,0.011053502559661865,0.0077348267659544945
1761379440066406100,5.43040625,0.022465212270617485,0.017934637144207954,0.0039050006307661533
1761379440076489500,5.440489501953125,0.02621280960738659,0.01826407015323639,-0.001062061288394034
1761379440086571500,5.450571533203125,0.027361605316400528,0.014687879011034966,-0.009995762258768082
1761379440096653600,5.460653564453125,0.025176215916872025,0.011597813107073307,-0.01332631055265665
1761379440106735400,5.4707353515625,0.025545179843902588,0.008128129877150059,-0.009621023200452328
1761379440116817400,5.4808173828125,0.019091274589300156,0.007529184687882662,-0.012626666575670242
1761379440126900500,5.490900390625,0.01277532335370779,0.00509851798415184,-0.010457788594067097
1761379440136982500,5.500982421875,0.005133115686476231,0.004982936196029186,-0.00809876061975956
1761379440147064300,5.511064208984375,-0.003280429169535637,-0.004772838205099106,-0.00022066757082939148
1761379440157146400,5.521146484375,-0.011322377249598503,-0.01150557491928339,-0.006281755864620209
1761379440167229400,5.5312294921875,-0.015702594071626663,-0.01362134050577879,-0.010403561405837536
1761379440177311500,5.5413115234375,-0.02176634594798088,-0.018508773297071457,-0.016505395993590355
1761379440187393500,5.5513935546875,-0.036591537296772,-0.02219369076192379,-0.027378955855965614
1761379440197475300,5.561475341796875,-0.0534040704369545,-0.022389965131878853,-0.02915049158036709
1761379440207558400,5.571558349609375,-0.06699851900339127,-0.023293625563383102,-0.02194819413125515
1761379440217640400,5.581640380859375,-0.07388278841972351,-0.03098403662443161,-0.008458750322461128
1761379440227722500,5.591722412109375,-0.06766708195209503,-0.03746737167239189,0.005432855803519487
1761379440237804300,5.60180419921875,-0.05592040717601776,-0.045968178659677505,0.0003206520341336727
1761379440247887400,5.611887451171875,-0.04079961031675339,-0.039447277784347534,-0.018088100478053093
1761379440257969400,5.621969482421875,-0.02462596818804741,-0.0257013700902462,-0.035492390394210815
1761379440268051500,5.632051513671875,-0.015534801408648491,-0.004573219455778599,-0.029171276837587357
1761379440278133500,5.642133544921875,-0.007802046835422516,0.004882334265857935,0.003888939041644335
1761379440288215300,5.65221533203125,-0.0010060900822281837,-0.011050174944102764,0.03233274817466736
1761379440298298400,5.66229833984375,0.002489575184881687,-0.0011789025738835335,0.021787162870168686
1761379440308380400,5.67238037109375,0.007759322412312031,0.026443786919116974,-0.0140699353069067
1761379440318462500,5.68246240234375,0.006538529880344868,0.03503807261586189,-0.026174800470471382
1761379440328544300,5.692544189453125,0.006466740742325783,0.03618631139397621,-0.02499658800661564
1761379440338627300,5.70262744140625,0.005399078130722046,0.038793280720710754,-0.008471140637993813
1761379440348709400,5.71270947265625,0.011432204395532608,0.020218797028064728,-0.00015808339230716228
1761379440358791400,5.72279150390625,0.010366939008235931,-0.004868978634476662,-0.00632090400904417
1761379440368873500,5.73287353515625,0.0004508094862103462,-0.014577415771782398,-0.03653530031442642
1761379440378956300,5.742956298828125,-0.013110539875924587,0.0011914269998669624,-0.06935422867536545
1761379440389038300,5.753038330078125,-0.014303376898169518,0.025555342435836792,-0.09302792698144913
1761379440399120400,5.763120361328125,-0.017428863793611526,0.05409989878535271,-0.09486524015665054
1761379440409202400,5.773202392578125,-0.022119998931884766,0.07850755751132965,-0.07232780009508133
1761379440419284200,5.7832841796875,-0.02514668181538582,0.08768481016159058,-0.023098470643162727
1761379440429367300,5.7933671875,-0.01813153177499771,0.07539115846157074,0.015485295094549656
1761379440439449300,5.803449462890625,-0.01607690192759037,0.05932271480560303,0.030093800276517868
1761379440449531400,5.813531494140625,-0.012493064627051353,0.04200848937034607,0.023238521069288254
1761379440459613400,5.823613525390625,-0.014937314204871655,0.02209337055683136,-0.0003203342203050852
1761379440469696300,5.8336962890625,-0.025919832289218903,0.01679484359920025,-0.02148381620645523
1761379440479778300,5.8437783203125,-0.035194288939237595,0.01430665235966444,-0.026798952370882034
1761379440489860400,5.8538603515625,-0.03941881284117699,0.008804939687252045,-0.025984158739447594
1761379440499942400,5.8639423828125,-0.04016289860010147,-0.003300725482404232,-0.011132240295410156
1761379440510025200,5.874025146484375,-0.0400080531835556,-0.013478484004735947,-0.014422096312046051
1761379440520107300,5.884107177734375,-0.042000096291303635,-0.01415892131626606,-0.012905692681670189
1761379440530189300,5.894189208984375,-0.043137867003679276,-0.009557287208735943,-0.019296109676361084
1761379440540271400,5.904271240234375,-0.043073952198028564,-0.005389174446463585,-0.03257036954164505
1761379440550354400,5.9143544921875,-0.03480037301778793,0.0063270991668105125,-0.03872217237949371
1761379440560436200,5.924436279296875,-0.027459103614091873,0.007980922237038612,-0.024694502353668213
1761379440570518300,5.934518310546875,-0.016116827726364136,0.018225396052002907,-0.008548170328140259
1761379440580600300,5.944600341796875,-0.00936997588723898,0.018932465463876724,0.015565687790513039
1761379440590683400,5.954683349609375,-0.0014122584834694862,0.015301989391446114,0.027937183156609535
1761379440600765400,5.964765380859375,0.0011161472648382187,0.026615895330905914,0.022466782480478287
1761379440610847500,5.974847412109375,0.005407888442277908,0.03292866796255112,0.013668011873960495
1761379440620929500,5.984929443359375,0.001367073506116867,0.043868668377399445,0.0047480203211307526
1761379440631012400,5.995012451171875,0.0028326604515314102,0.046683743596076965,0.006121073849499226
1761379440641094400,6.005094482421875,0.0009729759767651558,0.03770649433135986,0.007469166070222855
1761379440651176400,6.015176513671875,-0.004819853231310844,0.02256036549806595,0.0067892735823988914
1761379440661258500,6.025258544921875,-0.006457697134464979,0.009422991424798965,-0.0023400424979627132
1761379440671340500,6.035340576171875,-0.009742732159793377,-0.001368194818496704,-0.013867498375475407
1761379440681423400,6.04542333984375,-0.006368240807205439,-0.01590053178369999,-0.014171632006764412
1761379440691505400,6.05550537109375,-0.0033953143283724785,-0.03053903952240944,-0.006151976995170116
1761379440701587500,6.06558740234375,-0.0015526730567216873,-0.040014564990997314,-0.0030621776822954416
1761379440711669500,6.07566943359375,-0.003603171557188034,-0.04402216523885727,-0.004601608030498028
1761379440721752300,6.08575244140625,-0.0031594885513186455,-0.03946816176176071,-0.01075564045459032
1761379440731834400,6.09583447265625,-0.0030951285734772682,-0.03302989900112152,-0.012580856680870056
1761379440741916400,6.10591650390625,-0.007760986220091581,-0.02742740698158741,-0.011065252125263214
1761379440751998500,6.11599853515625,-0.012892506085336208,-0.024245023727416992,-0.0063659558072686195
1761379440762081300,6.126081298828125,-0.022938216105103493,-0.012444556690752506,-0.005979265086352825
1761379440772163300,6.136163330078125,-0.026616327464580536,-0.010148958303034306,0.004027124959975481
1761379440782245400,6.146245361328125,-0.02826722338795662,-0.01017345953732729,0.0027887551113963127
1761379440792327400,6.156327392578125,-0.024060506373643875,-0.02326984889805317,-0.0005650788079947233
1761379440802410200,6.16641015625,-0.02216752991080284,-0.01931159198284149,-0.012820413336157799
1761379440812492300,6.1764921875,-0.014354235492646694,-0.010041785426437855,-0.016741352155804634
1761379440822574300,6.18657421875,-0.0006120586767792702,-0.015919916331768036,-0.010743913240730762
1761379440832656400,6.196656494140625,0.014640694484114647,-0.00999511405825615,-0.0027318319771438837
1761379440842739500,6.206739501953125,0.028725087642669678,-0.008874455466866493,0.0025050078984349966
1761379440852821200,6.2168212890625,0.04219382256269455,-0.0004191529005765915,0.0024780090898275375
1761379440862903300,6.2269033203125,0.049140408635139465,0.0021673087030649185,-0.0010735823307186365
1761379440872985300,6.2369853515625,0.048757970333099365,0.003413371741771698,-0.004168556537479162
1761379440883068400,6.247068359375,0.04533207789063454,0.008566854521632195,-0.0061819059774279594
1761379440893150200,6.257150146484375,0.03573218360543251,0.026251044124364853,-0.0053400807082653046
1761379440903232300,6.267232177734375,0.03133237361907959,0.04595470428466797,-0.005068704951554537
1761379440913314300,6.277314208984375,0.023518811911344528,0.05855558067560196,-0.0002585372421890497
1761379440923396400,6.287396240234375,0.020009301602840424,0.07533402740955353,0.00014067068696022034
1761379440933479400,6.2974794921875,0.015740420669317245,0.06805522739887238,0.005235112272202969
1761379440943561200,6.307561279296875,0.010064691305160522,0.04702425003051758,0.01297399215400219
1761379440953643300,6.317643310546875,0.006308139301836491,0.01869073510169983,0.007927545346319675
1761379440963725300,6.327725341796875,0.0015895506367087364,-0.005626322701573372,-0.00988181121647358
1761379440973808400,6.337808349609375,0.004472237080335617,-0.01455183606594801,-0.03437036648392677
1761379440983890200,6.34789013671875,0.012164779007434845,-0.020274966955184937,-0.037638865411281586
1761379440993972200,6.35797216796875,0.007755654864013195,-0.03543020784854889,-0.03409254178404808
1761379441004053800,6.3680537109375,-0.00403975136578083,-0.03198647499084473,-0.02283588983118534
1761379441014136800,6.37813671875,-0.012365054339170456,-0.03709493577480316,-0.007132770027965307
1761379441024219000,6.388218994140625,-0.014998654834926128,-0.050410475581884384,-0.00246451492421329
1761379441034301000,6.398301025390625,-0.019263412803411484,-0.0552951842546463,-0.007858517579734325
1761379441044382700,6.4083828125,-0.02567337453365326,-0.05175371468067169,-0.009996769949793816
1761379441054465800,6.4184658203125,-0.02561241015791893,-0.03801557794213295,-0.009439010173082352
1761379441064547800,6.4285478515625,-0.020226698368787766,-0.030032750219106674,-0.0024064003955572844
1761379441074630000,6.4386298828125,-0.015346115455031395,-0.030118979513645172,0.009040352888405323
1761379441084711700,6.448711669921875,-0.01074683666229248,-0.03403649106621742,0.012138407677412033
1761379441094794800,6.458794677734375,-0.006280949804931879,-0.0422232411801815,0.005959096364676952
1761379441104876800,6.468876708984375,-0.008789647370576859,-0.053544607013463974,-0.0021611477714031935
1761379441114958800,6.478958740234375,-0.008062651380896568,-0.07067470252513885,-0.009326844476163387
1761379441125041000,6.489041015625,-0.009230714291334152,-0.07904954254627228,-0.017815137282013893
1761379441135123700,6.499123779296875,-0.00833358708769083,-0.07311797887086868,-0.023992201313376427
1761379441145205800,6.509205810546875,0.0008878745138645172,-0.05249685421586037,-0.026077723130583763
1761379441155287800,6.519287841796875,0.0077858539298176765,-0.034850578755140305,-0.015250698663294315
1761379441165369900,6.529369873046875,0.003864615224301815,-0.018913421779870987,0.002941087819635868
1761379441175452700,6.53945263671875,-0.0006783781573176384,0.002978926058858633,0.007951952517032623
1761379441185534700,6.54953466796875,-0.0028951941058039665,0.028690680861473083,-0.0003168964758515358
1761379441195616800,6.55961669921875,-0.004634120501577854,0.044685930013656616,-0.007052530534565449
1761379441205698800,6.56969873046875,-0.013218820095062256,0.052810970693826675,0.002812350634485483
1761379441215781600,6.57978173828125,-0.023679405450820923,0.055455587804317474,0.015019472688436508
1761379441225863700,6.58986376953125,-0.030864348635077477,0.03448399528861046,0.026292899623513222
1761379441235945700,6.59994580078125,-0.03500441089272499,0.006811704486608505,0.015271478332579136
1761379441246027800,6.61002783203125,-0.03931846842169762,-0.02397576905786991,-0.00015488243661820889
1761379441256110600,6.620110595703125,-0.043042704463005066,-0.04016384854912758,-0.016426751390099525
1761379441266192600,6.630192626953125,-0.048455845564603806,-0.054477542638778687,-0.028578754514455795
1761379441276274700,6.640274658203125,-0.05107840523123741,-0.06096164137125015,-0.04175438731908798
1761379441286356700,6.650356689453125,-0.040210045874118805,-0.06794790923595428,-0.05608619004487991
1761379441296439600,6.660439453125,-0.020936090499162674,-0.07162274420261383,-0.04660053923726082
1761379441306521600,6.670521484375,-0.008491672575473785,-0.07748410105705261,-0.024661950767040253
1761379441316603600,6.680603759765625,0.004309672862291336,-0.08315127342939377,0.0025026036892086267
1761379441326685700,6.690685791015625,0.0063957273960113525,-0.07753627002239227,0.017617907375097275
1761379441336768500,6.7007685546875,0.00610919576138258,-0.09005892276763916,0.027591202408075333
1761379441346850600,6.7108505859375,0.004564029164612293,-0.12363632023334503,0.031764645129442215
1761379441356932600,6.7209326171875,0.002603023312985897,-0.13111305236816406,0.019140515476465225
1761379441367014700,6.7310146484375,0.01254806574434042,-0.08640816062688828,0.05715500935912132
1761379441377097700,6.74109765625,0.015787377953529358,-0.05052858963608742,0.03997372090816498
1761379441387179800,6.7511796875,0.012838992290198803,-0.028592929244041443,0.04998987168073654
1761379441397261600,6.761261474609375,0.011267360299825668,-0.014254322275519371,0.0600273460149765
1761379441407343600,6.771343505859375,0.002942051738500595,-0.00811014324426651,0.06536965072154999
1761379441417427000,6.781427001953125,-0.004916239529848099,-0.0034052589908242226,0.05775563418865204
1761379441427508700,6.7915087890625,-0.012719567865133286,0.005764537025243044,0.0410458967089653
1761379441437590800,6.8015908203125,-0.022695844992995262,0.02857285551726818,0.02630513720214367
1761379441447672800,6.8116728515625,-0.008463912643492222,0.03499267250299454,0.0014661012683063745
1761379441457756000,6.821755859375,0.012656383216381073,0.0513957217335701,-0.02516132779419422
1761379441467837700,6.831837646484375,0.036812588572502136,0.06175968050956726,-0.047687675803899765
1761379441477919700,6.841919677734375,0.09151711314916611,0.06767749041318893,-0.04135148227214813
1761379441488001800,6.852001708984375,0.12223827093839645,0.0461793877184391,-0.010573331266641617
