time,seconds_elapsed,z,y,x
1761379814673921500,0.052921630859375,-0.22044132477939127,-0.526720565842092,-0.5202696361370385
1761379814684004600,0.063004638671875,-0.06694295393824577,-0.551987693567574,-0.6379974592864514
1761379814694087400,0.07308740234375,0.14690847105681895,-0.6578343786567449,-0.7263625559598207
1761379814704170500,0.08317041015625,0.36217093189358707,-0.7801938071295619,-0.7349348617330194
1761379814714253300,0.09325341796875,0.5350473724216223,-0.8539555011719465,-0.6414559291772544
1761379814724336600,0.103336669921875,0.658628743904829,-0.9614522915557027,-0.5553749979183078
1761379814734419700,0.113419677734375,0.763095080551505,-1.0622858246579765,-0.4227933045081794
1761379814744502500,0.12350244140625,0.7199778233587741,-1.1130927595704794,-0.37918154179677366
1761379814754585600,0.133585693359375,0.6746703626453876,-1.150613804191351,-0.37672099690213795
1761379814764668400,0.14366845703125,0.5523632488816976,-1.1647814457535743,-0.3861959506034851
1761379814774751500,0.15375146484375,0.2340080778390169,-1.155160507710278,-0.4463743057776242
1761379814784834600,0.16383447265625,-0.07535597749650477,-1.079702238883078,-0.45400976909212765
1761379814794917600,0.173917724609375,-0.3380979823887348,-0.9861249605193734,-0.4926199971891939
1761379814805000400,0.18400048828125,-0.5519482383400202,-0.878610049957037,-0.5387235036510973
1761379814815083500,0.19408349609375,-0.7186994739860296,-0.7611085829094052,-0.5155689841654152
1761379814825166300,0.204166259765625,-0.8025543997585773,-0.7181386252328753,-0.4450944220349192
1761379814835249400,0.21424951171875,-0.7922440181463957,-0.7339727387025952,-0.32847711741067465
1761379814845332700,0.224332763671875,-0.6492728865385056,-1.0042612134516238,0.05898198499642312
1761379814855415600,0.23441552734375,-0.6679238109946251,-1.3775266630724072,0.5329364446822553
1761379814865498600,0.24449853515625,-1.0219517684429884,-1.3278700672388075,0.726527975654602
1761379814875581400,0.25458154296875,-1.6182950288265943,-1.074413192564249,0.46518217436112463
1761379814885664500,0.26466455078125,-2.38998667280972,-0.75689388782382,0.10212642245702445
1761379814895747300,0.274747314453125,-2.8696763151466844,-0.502231144490838,-0.28917664202712473
1761379814905830700,0.28483056640625,-3.020904987490177,-0.12965104678571224,-0.9046467007502913
1761379814915913500,0.29491357421875,-2.8230180243462324,0.4622346496671438,-1.4768663043551147
1761379814925997600,0.30499755859375,-2.152218950176239,1.125253152963519,-1.7887572478197513
1761379814936080400,0.315080322265625,-1.512684198319912,1.3565373587965965,-1.7255474890604614
1761379814946163500,0.32516357421875,-1.0049626397192477,1.1140721259966493,-1.1433184595514088
1761379814956246500,0.33524658203125,-0.4915004916399717,0.982419968521595,-0.46079789486229417
1761379814966329600,0.34532958984375,-0.18268471783697604,0.8034738526910543,-0.053387525990232824
1761379814976412400,0.355412353515625,-0.015831190860271453,0.6671344141826033,0.12251410757787524
1761379814986495500,0.36549560546875,0.1505225699007511,0.7124982812583446,0.007938903240486978
1761379814996578600,0.37557861328125,0.3730389473885298,0.8013976309388875,-0.26926081220172343
1761379815006661400,0.385661376953125,0.5375269142776727,0.9236968536570668,-0.6602046149194241
1761379815016744700,0.39574462890625,0.45052083099782464,1.0215262365072966,-1.0355860337808727
1761379815026827500,0.40582763671875,0.24007015435695647,1.0440031489923596,-1.2956104502774775
1761379815036910600,0.41591064453125,0.06696633481383324,1.0583733273893594,-1.5087904057517647
1761379815046993400,0.425993408203125,-0.037791093733906746,1.1014572668343783,-1.671261041469127
1761379815057076500,0.436076416015625,-0.02659574598073959,1.1456295860379933,-1.7498355426207184
1761379815067159300,0.4461591796875,0.03455459603071213,1.1504477999746798,-1.6411160785742103
1761379815077242600,0.45624267578125,0.03250000158846378,1.1387684680968522,-1.3281627665750682
1761379815087325700,0.46632568359375,0.006986790147423744,1.131641100434959,-0.9408250255253165
1761379815097408500,0.476408447265625,0.03753273505866527,1.114193414288759,-0.6196646608687937
1761379815107491600,0.48649169921875,0.12612111909389495,1.0682397646263242,-0.4236924453049898
1761379815117574400,0.496574462890625,0.2516764209985733,0.9753396548718214,-0.318454393633455
1761379815127657500,0.506657470703125,0.4491548033416271,0.7903782242745161,-0.2665917391229421
1761379815137740500,0.516740478515625,0.6670739161670207,0.6404556660935282,-0.26547150292135774
1761379815147823600,0.52682373046875,0.9107330349266528,0.4925777654826641,-0.25776399728395044
1761379815157906400,0.536906494140625,1.1429922232717276,0.30803689838498827,-0.20095716436952352
1761379815167989500,0.546989501953125,1.3348363991200922,0.12157733818441628,-0.14710275151990354
1761379815178072600,0.557072509765625,1.4570336227685212,-0.039243922890722746,-0.08234079488255083
1761379815188155400,0.5671552734375,1.481241596829891,-0.17304536735415457,-0.04650558445677161
1761379815198238700,0.57723876953125,1.3745657674401999,-0.2716395970970392,-0.05009001881480217
1761379815208321500,0.587321533203125,1.218010931637883,-0.3147685447275638,-0.098697982378304
1761379815218404600,0.597404541015625,1.070852869734168,-0.2896007857233286,-0.20798275215737522
1761379815228487400,0.6074873046875,0.9200789554208516,-0.2513093412518501,-0.29452757460102436
1761379815238570500,0.617570556640625,0.7384855399519205,-0.20506606099307537,-0.3196065593432635
1761379815248653300,0.6276533203125,0.6124941847175359,-0.16814064417779445,-0.32404176531173284
1761379815258736600,0.637736572265625,0.5560878223627805,-0.09827215818166732,-0.3392220910478383
1761379815268819500,0.6478193359375,0.5532201579719782,-0.0290659354865551,-0.33785613645687695
1761379815278902500,0.657902587890625,0.5281809937834739,-0.031895021432638164,-0.24283603887371719
1761379815288985600,0.667985595703125,0.49500294680297374,-0.06704699883460997,-0.1814563450857997
1761379815299068400,0.678068359375,0.4701221880465746,-0.06953443173617124,-0.11749028806649148
1761379815309151500,0.6881513671875,0.5700614026576281,-0.16032997042685745,-0.06863887113593518
1761379815319234600,0.698234619140625,0.6734943046033383,-0.24334406146109103,-0.06030680385939777
1761379815329317600,0.708317626953125,0.735877403280139,-0.3044578708544373,-0.0794843094728887
1761379815339400400,0.718400390625,0.8385287994593381,-0.40542905886173247,-0.08935622660256921
1761379815349484500,0.728484619140625,0.9474521155148744,-0.5364414571285248,-0.12797690302841364
1761379815359567400,0.7385673828125,0.9816659352838992,-0.6522273524299264,-0.15783749602399766
1761379815369650700,0.748650634765625,0.983544588637352,-0.7150140634715557,-0.18375205480754375
1761379815379733500,0.7587333984375,1.0058581272542475,-0.7712684501349926,-0.21588241936601696
1761379815389816600,0.768816650390625,0.9922937122821808,-0.7956272308439016,-0.20215791846141218
1761379815399899400,0.7788994140625,0.8932751196473836,-0.8180591351434588,-0.16859094522856174
1761379815409982500,0.788982421875,0.827283182823658,-0.8307058507487177,-0.15605163552053272
1761379815420065300,0.799065185546875,0.8093558964669704,-0.8191048448041081,-0.11989311142452061
1761379815430148600,0.809148681640625,0.7844073331713676,-0.8440826341941953,-0.0900399710830301
1761379815440231700,0.819231689453125,0.7055424707710742,-0.8292299329772591,-0.035120778546109795
1761379815450314500,0.829314453125,0.4991998139709234,-0.74055650100708,0.060971989769861096
1761379815460397600,0.8393974609375,0.1909738227546215,-0.6651090458348393,0.21990933679454028
1761379815470480400,0.84948046875,-0.089624741345644,-0.577025396451354,0.3685619481049478
1761379815480563500,0.8595634765625,-0.3936895212292671,-0.4855509355857968,0.478631365455687
1761379815490646500,0.869646484375,-0.5955564939200878,-0.46821109372824427,0.510976834069565
1761379815500729600,0.8797294921875,-0.7640916903734206,-0.4219143297165632,0.5050763047888874
1761379815510812400,0.8898125,-0.8168196564763784,-0.4741957210958004,0.5820849448632448
1761379815520895500,0.8998955078125,-0.6953560077995061,-0.9340504898890852,1.0111072799541057
1761379815530978600,0.909978515625,-1.079806576040387,-1.176322538204491,1.2837287276953457
1761379815541061400,0.920061279296875,-1.6248948654830455,-0.991189258171618,1.187534106440097
1761379815551144700,0.930144775390625,-1.9493577057510614,-0.8838038192078471,0.9699330465879291
1761379815561227500,0.9402275390625,-2.5462767201960084,-0.7845096245020627,0.5778351784642786
1761379815571310600,0.950310546875,-2.9409961689949036,-0.5625836141228675,0.14870028637703508
1761379815581393400,0.960393310546875,-3.0632103437781333,-0.2385635491862893,-0.17707257704362273
1761379815591476500,0.9704765625,-2.835529130873084,0.008224222987890243,-0.33080515849944203
1761379815601559300,0.980559326171875,-2.260900274169445,0.26964374710470435,-0.3100657373314723
1761379815611642600,0.990642578125,-1.7527374015420674,0.3831438695564866,-0.0470935404125601
1761379815621725400,1.000725341796875,-1.4417606503129003,0.4192801818206906,0.345616906651482
1761379815631809500,1.0108095703125,-1.0575094040364026,0.6254045196950435,0.5610122000876814
1761379815641891600,1.0208916015625,-0.6416711793631314,0.7374111887186765,0.639851854981482
1761379815651975400,1.030975341796875,-0.4086100269854068,0.8275584926337003,0.6576847410529851
1761379815662058500,1.04105859375,-0.09699088619947432,0.9991446010902524,0.6942571066468953
1761379815672141600,1.0511416015625,0.28513094683289525,1.192656417889893,0.6679330172143876
1761379815682224600,1.061224609375,0.567926144194603,1.3131503447517752,0.7303747142106294
1761379815692307500,1.071307373046875,0.8160381507098674,1.2716156805753707,0.8899255169585346
1761379815702390500,1.081390625,1.010818380010128,1.1358435205608606,1.0446997529543935
1761379815712473300,1.091473388671875,1.0960720666646957,0.9255869051873683,1.1622384102072567
1761379815722556700,1.101556640625,0.9841361247897148,0.6943111749216914,1.210365531451255
1761379815732639500,1.111639404296875,0.7685621137857437,0.6146750358879566,1.1133771294698118
1761379815742722600,1.12172265625,0.4902636433213949,0.5611743318468332,1.0007437068499625
1761379815752805400,1.131805419921875,0.23026479965746402,0.5150462024003267,0.8733860316984355
1761379815762888400,1.141888427734375,0.09863865340650081,0.5288742367446422,0.7339015731625258
1761379815772971300,1.15197119140625,0.12153612939119338,0.6346925725221634,0.5118276056800037
1761379815783054600,1.1620546875,0.11797872917056083,0.801096602165699,0.29710893286373463
1761379815793137700,1.1721376953125,0.04269347882270813,0.8971224427253007,0.2132184791200794
1761379815803220500,1.182220458984375,0.01574585066437721,0.9254974733382463,0.21677224434521047
1761379815813303600,1.192303466796875,0.02593056007027626,0.9723536247983574,0.24311551340222357
1761379815823386400,1.202386474609375,0.0780342567950487,0.9998170935243368,0.25653445548899473
1761379815833469400,1.212469482421875,0.21052081926763055,0.9786913033872843,0.3115439566578716
1761379815843552500,1.222552490234375,0.3337923941493034,0.9175824624300003,0.4244749739848077
1761379815853635600,1.232635498046875,0.46146074268519877,0.8356117429688572,0.48611667970977723
1761379815863718400,1.242718505859375,0.6135165135025977,0.8183905590549111,0.5098023103974759
1761379815873801500,1.252801513671875,0.7892085959732532,0.7657277671426534,0.6291242708705366
1761379815883884500,1.262884521484375,0.9551263034045696,0.6287286956816911,0.785804851944372
1761379815893967400,1.27296728515625,1.0645201595813036,0.4709931256622076,0.9360252240281551
1761379815904050700,1.28305078125,1.0612842463999985,0.30039719728678466,0.9834693314440548
1761379815914133500,1.293133544921875,1.021711529946327,0.17599194220006464,1.0033214483834803
1761379815924216600,1.303216552734375,0.960157283309102,0.06778437319844961,1.003542470723018
1761379815934299400,1.31329931640625,0.9646382281154393,0.020770400828123092,0.9195983322970569
1761379815944382500,1.323382568359375,0.8775555724680423,-0.0295364756077528,0.838886088464409
1761379815954465300,1.33346533203125,0.8061965556532144,-0.08824673099070787,0.7653129757966846
1761379815964548600,1.343548583984375,0.6790753196060657,-0.10496113442629575,0.6787681533530354
1761379815974631400,1.35363134765625,0.5559188955366611,-0.12455839982181786,0.5959060380101203
1761379815984714500,1.363714599609375,0.4396908094257116,-0.1089654016315937,0.45256249289326367
1761379815994797600,1.373797607421875,0.43213352591395376,-0.09093027098625898,0.33593174426555633
1761379816004880400,1.38388037109375,0.473627565819025,-0.1461892168715596,0.309411292010732
1761379816014963500,1.39396337890625,0.5138146147787571,-0.25659341913461686,0.3229468096818775
1761379816025046500,1.404046630859375,0.5874596967041492,-0.35073125399053096,0.35159620025679467
1761379816035129600,1.414129638671875,0.7253910805791616,-0.4525485374331474,0.39235385217871516
1761379816045212400,1.42421240234375,0.7499100202858447,-0.5091749722793698,0.4141104144999757
1761379816055295500,1.43429541015625,0.7314952426731586,-0.5619251502141356,0.45683085439484566
1761379816065378300,1.44437841796875,0.6883125190287828,-0.6465592436656356,0.523527615019679
1761379816075461400,1.45446142578125,0.5657417858928442,-0.7934118928819894,0.5905698646139353
1761379816085544700,1.464544677734375,0.4649368943631649,-0.8079889920279383,0.5737781581584364
1761379816095628500,1.474628662109375,0.3796732708364725,-0.76624711484164,0.5217625415759161
1761379816105711400,1.48471142578125,0.21081834090948104,-0.7710235354632139,0.4528902635429054
1761379816115794400,1.49479443359375,-0.010552373674511908,-0.7732336127281189,0.4004787795105949
1761379816125877500,1.50487744140625,-0.2520598673582077,-0.7635363945782184,0.39826640069074926
1761379816135960600,1.514960693359375,-0.473235936152935,-0.7024857135489583,0.41033345324452963
1761379816146043600,1.525043701171875,-0.6706108581215143,-0.621563626357913,0.4685521622508764
1761379816156126500,1.53512646484375,-0.8191682654291391,-0.5591302587985992,0.5112520342817529
1761379816166209500,1.54520947265625,-0.8899357460916042,-0.5051783038586378,0.5772954090317711
1761379816176292400,1.555292236328125,-0.9371101697206496,-0.5063607916414737,0.7005672396417707
1761379816186375700,1.565375732421875,-0.9753729726195335,-0.513768145288527,0.8053643426127731
1761379816196458500,1.57545849609375,-1.0242810881733895,-0.47944238957762714,0.8646812586519866
1761379816206541600,1.58554150390625,-0.9713532155841589,-0.6019102468609809,1.104502187488228
1761379816216624400,1.595624267578125,-0.7753823151946068,-1.1986369536042212,1.765595714071393
1761379816226707500,1.60570751953125,-1.0311685095995664,-1.3184051965400576,2.1382534070573747
1761379816236790500,1.61579052734375,-1.4555267253369093,-0.9271338423684239,1.9762198475830255
1761379816246873600,1.62587353515625,-2.2378005536109207,-0.6775073396369814,1.619946010904014
1761379816256956700,1.635956787109375,-2.81043326806128,-0.5878744149848818,1.2978960769966243
1761379816267039500,1.64603955078125,-3.0605484310925006,-0.3636582478418946,0.7429084709607064
1761379816277122600,1.65612255859375,-3.285150382682681,0.13637743243128062,0.10217968701422214
1761379816287205400,1.666205322265625,-3.009086539402604,0.7791977818295359,-0.32712077089827507
1761379816297288400,1.676288330078125,-2.479596216586232,1.2506199465587735,-0.5335641481265425
1761379816307371500,1.68637158203125,-1.9720342324614524,1.5121993374124167,-0.2974260359888896
1761379816317454600,1.69645458984375,-1.5852695420593022,1.5287012671411035,0.23551506660217417
1761379816327537700,1.70653759765625,-1.0756512099266051,1.5335986837938427,0.6977208372347057
1761379816337620500,1.716620361328125,-0.42394612780511376,1.553083720986545,0.8490897217664867
1761379816347702300,1.726702392578125,0.17053835296928882,1.4411936640799046,0.8386752221927046
1761379816357785300,1.736785400390625,0.720863958543539,1.3920824271693826,0.7800362784802913
1761379816367868200,1.7468681640625,1.1940975566089154,1.4360890344172714,0.74913340989016
1761379816377951500,1.756951416015625,1.491665375688672,1.3578832204476,0.7970687348891049
1761379816388034300,1.767034423828125,1.41194009706676,1.2013640404805541,0.9393749728474765
1761379816398117400,1.777117431640625,1.142735618162155,0.975355144701898,1.2635676909372209
1761379816408200200,1.7872001953125,0.7657511480182408,0.7450228327661752,1.5688541215702891
1761379816418283300,1.797283203125,0.3240595201641321,0.623120792672038,1.778010959008336
1761379816428366000,1.807365966796875,0.012131167298555373,0.7271382165074348,1.6606395480811595
1761379816438449400,1.817449462890625,-0.09989128381609916,1.0342115305572748,1.2280549173988402
1761379816448532200,1.8275322265625,-0.24490356586277484,1.2703858465194702,0.9657670860148966
1761379816458615300,1.837615234375,-0.426467170715332,1.3454852189064026,0.8653755245264619
1761379816468699100,1.84769921875,-0.5277431868880987,1.3734376401931048,0.8253855325087904
1761379816478782500,1.857782470703125,-0.42758126943707464,1.4168456970259546,0.791669871520251
1761379816488865300,1.867865234375,-0.22239830406606195,1.4645289469599723,0.8906218286596238
1761379816498948400,1.8779482421875,0.024245967984199524,1.3834195205032824,1.2016913727387786
1761379816509031200,1.88803125,0.29251930351853367,1.2259583835110068,1.5979282403632997
1761379816519114200,1.8981142578125,0.6232178233057261,1.1324904107406735,1.9292755794480443
1761379816529197300,1.908197265625,0.8568366095662117,1.1029878374025226,2.171506418970227
1761379816539280400,1.9182802734375,0.9170417796820401,1.0496747648879885,2.390711626083404
1761379816549363500,1.928363525390625,0.7920031951278448,0.9863801043242215,2.5978555162638424
1761379816559446300,1.9384462890625,0.5739186626076698,0.9782765851065516,2.739199338930845
1761379816569529300,1.948529296875,0.3719336164951324,1.0264578476905821,2.7854978565081954
1761379816579612200,1.958612060546875,0.15095920775234697,1.0916805537074803,2.7464427341878412
1761379816589695200,1.9686953125,-0.01809212152957916,1.223746260419488,2.6183690197214484
1761379816599778300,1.9787783203125,-0.1949164229005575,1.309987789067626,2.5301120595976707
1761379816609861400,1.988861328125,-0.25282851364314557,1.37490128300488,2.4076982705891132
1761379816619944400,1.9989443359375,-0.30172786136865615,1.5052262835294008,2.2681958380050955
1761379816630027300,2.00902734375,-0.30871289795041085,1.6242352325305343,2.154124783797562
1761379816640110300,2.0191103515625,-0.3633686172455549,1.7136165205091236,2.038958773960173
1761379816650193200,2.029193115234375,-0.43594577767848963,1.8161285082176326,1.8895541021734474
1761379816660276500,2.0392763671875,-0.5342950927495956,1.9588056253150103,1.7694310544505714
1761379816670359300,2.049359375,-0.6272136149436235,2.0607211084350943,1.6638513497345149
1761379816680442400,2.0594423828125,-0.6271797126740217,2.1462834226474166,1.5246822407580911
1761379816690525200,2.069525146484375,-0.5812737015455961,2.2370254775851963,1.3848320176497102
1761379816700608300,2.079608154296875,-0.5494301180392503,2.2547429205834866,1.3322431677564979
1761379816710691300,2.08969140625,-0.5906330660432577,2.224517585928738,1.333130471985042
1761379816720774400,2.0997744140625,-0.6024626200467348,2.235318381406367,1.2753329475328326
1761379816730857500,2.109857421875,-0.6241495511978864,2.218238067267835,1.2204745452724397
1761379816740940300,2.119940185546875,-0.7406172912836074,2.158534124672413,1.1663709069021047
1761379816751023400,2.1300234375,-0.8671399769157171,2.13957223457098,1.0787863661471753
1761379816761106200,2.140106201171875,-0.9306430195331573,2.160139806303382,0.9132983553700148
1761379816771190500,2.1501904296875,-0.8894500084012746,2.169598831783235,0.7723185437098145
1761379816781273300,2.1602734375,-0.7704863598465919,2.1503695229172703,0.6703565180342644
1761379816791356400,2.1703564453125,-0.6563350800096989,2.11591400334686,0.6258767403166741
1761379816801439200,2.180439208984375,-0.6437129143238067,2.0696245458588,0.634293197941035
1761379816811522300,2.190522216796875,-0.6423948174625634,2.0218945341736076,0.6832283476322889
1761379816821605000,2.200605224609375,-0.6221861421704292,1.9732240267679093,0.7312405372597277
1761379816831688400,2.2106884765625,-0.5998509762436152,1.9802908964142203,0.7483798881091177
1761379816841771300,2.220771240234375,-0.5824181954056025,2.0065718773573638,0.7903970751054584
1761379816851854300,2.230854248046875,-0.5165963544517755,1.982540428906679,0.8408668870180844
1761379816861937400,2.2409375,-0.4046861315399408,1.971928726260364,0.8656763341039418
1761379816872020200,2.251020263671875,-0.3086947777718305,1.9550570864364503,0.8943771626051514
1761379816882103300,2.261103271484375,-0.24905951649844646,1.883424805638194,0.8699452435947954
1761379816892186400,2.271186279296875,-0.26639117504954335,1.8232143748253582,0.8861406646575778
1761379816902269400,2.28126953125,-0.2861918540626764,1.7627865018695592,0.9376651001896709
1761379816912352300,2.291352294921875,-0.3623106326252222,1.752010840833187,0.9951586001940071
1761379816922435300,2.301435302734375,-0.44420741006731984,1.8082453537523746,1.1310264756679533
1761379816932518100,2.31151806640625,-0.4773264203369617,1.8576345308214426,1.262887307457626
1761379816942601200,2.321601318359375,-0.4790525134772062,1.8420733890742063,1.3941026809506119
1761379816952684300,2.331684326171875,-0.5240764810740948,1.8044933077424763,1.5168755125299096
1761379816962767400,2.341767333984375,-0.40420916167795656,1.6669588142305611,1.7106674614451824
1761379816972850400,2.351850341796875,-0.04255553165674209,0.9751578685641288,2.4039104226134715
1761379816982933200,2.361933349609375,-0.084195702034235,0.33007162006050345,3.0742835264563557
1761379816993016300,2.372016357421875,-0.6603928309679031,0.23936522095799445,3.0770068139404056
1761379817003099100,2.38209912109375,-1.7321370965838432,0.40790743167400356,2.6272365090489385
1761379817013182500,2.392182373046875,-3.0016549280971287,0.5976166413202881,2.1186568723142147
1761379817023265300,2.402265380859375,-4.020291872903704,1.0855465809971094,1.4698631475947797
1761379817033348400,2.412348388671875,-4.89010194581151,1.904281131184101,0.72860880051665
1761379817043431200,2.42243115234375,-4.851678399392962,2.8261659669831394,0.13918737528547645
1761379817053514200,2.43251416015625,-3.786463827806711,3.6579727647110816,-0.17595999442553148
1761379817063597300,2.442597412109375,-2.3399229574799536,4.14618795107007,-0.14215239910352975
1761379817073680400,2.452680419921875,-1.4119412661105393,3.9448128535494207,0.2882570429641753
1761379817083764200,2.46276416015625,-0.8485451665610074,3.438638816651702,0.9313483913235365
1761379817093847300,2.472847412109375,-0.12593348756730555,3.1170991703540083,1.4411960021674632
1761379817103930000,2.48293017578125,0.17650515241920947,2.7479399870082735,1.5481407116264103
1761379817114013200,2.49301318359375,0.11248013175427914,2.3541218709632754,1.5371945163287222
1761379817124096500,2.503096435546875,-0.05407587358057499,2.0075532896101476,1.5696242291599511
1761379817134179300,2.513179443359375,-0.2910340333968401,1.7561536397263406,1.619293392214179
1761379817144262400,2.523262451171875,-0.5248065489143133,1.6070090801805257,1.6437486190348862
1761379817154345200,2.53334521484375,-0.5078606748104095,1.4755264340534806,1.6790727381333708
1761379817164428300,2.54342822265625,-0.46824470373690125,1.3890990274444222,1.5777850315228104
1761379817174511000,2.553510986328125,-0.5073147313654423,1.2637184975847602,1.4633680864870546
1761379817184594400,2.563594482421875,-0.22328794638216495,1.0976397543728351,1.4607245862409473
1761379817194677200,2.57367724609375,0.03223462865054607,1.053025536620617,1.5293734673142432
1761379817204760300,2.58376025390625,0.15588380467295646,0.9387222810924053,1.6767856501094995
1761379817214843400,2.593843505859375,0.22580723572671413,0.7711211506187915,1.871828914260119
1761379817224926200,2.60392626953125,0.24236674086153506,0.6150625739008188,2.02306474699676
1761379817235009300,2.61400927734375,0.2432920390129089,0.4842079965442419,2.169273837612569
1761379817245092400,2.62409228515625,0.2316074464380741,0.3777472712099552,2.2734996435016392
1761379817255175400,2.634175537109375,0.11447510496377944,0.2547156425639987,2.4172936357997354
1761379817265258200,2.64425830078125,-0.07056406704485416,0.19774813919514417,2.511200438378751
1761379817275341300,2.65434130859375,-0.2413935119152069,0.21304420026540755,2.4887083283245564
1761379817285424000,2.664424072265625,-0.37946167391240593,0.28715543839782476,2.3538921538606283
1761379817295507200,2.674507080078125,-0.5421300241589546,0.4132543456599116,2.1518455868192015
1761379817305590300,2.68459033203125,-0.7939689422428607,0.5236088635623455,1.940706489522755
1761379817315673300,2.69467333984375,-1.1176210506498814,0.6111921622082591,1.7686627004265785
1761379817325756400,2.70475634765625,-1.4788649308264255,0.62911301882416,1.6103117749877274
1761379817335839200,2.714839111328125,-1.7097136678516864,0.7189183774337172,1.3459285787597297
1761379817345922300,2.72492236328125,-1.7862609009593724,0.8229603511884808,1.0718761483673005
1761379817356005600,2.735005615234375,-1.7193857515603304,0.8696595585212111,0.8162466788940131
1761379817366088700,2.745088623046875,-1.580081910288334,0.8876166554942727,0.5854925613496452
1761379817376172500,2.755172607421875,-1.3029255955964325,0.8519532214388251,0.3435890540856868
1761379817386255600,2.765255615234375,-0.9070558077186346,0.8007879746079445,0.10584091293551028
1761379817396338700,2.775338623046875,-0.4923199913293123,0.7328215228408574,-0.1465758781015873
1761379817406421800,2.785421875,-0.12611235126554965,0.6630503597393631,-0.3555526097323745
1761379817416504600,2.795504638671875,0.22863807523846624,0.5107385683342814,-0.4278106942787766
1761379817426587600,2.805587646484375,0.47401861096322534,0.27285394132286306,-0.4445174989297986
1761379817436670500,2.81567041015625,0.5811316627264023,0.06402092901170253,-0.4354829094070941
1761379817446753800,2.82575390625,0.6407242539018392,-0.08851122714579104,-0.46029367166720325
1761379817456836600,2.835836669921875,0.7020768404871225,-0.18587445378899572,-0.5569146285757423
1761379817466919700,2.845919677734375,0.7278115857243538,-0.2907169302716851,-0.6517939294487237
1761379817477002500,2.85600244140625,0.8772527901291847,-0.46043666033446784,-0.6444304880086332
1761379817487085600,2.86608544921875,0.8935100974470377,-0.6261465702340007,-0.6255160903107374
1761379817497168600,2.876168701171875,0.8190554527044296,-0.7322247259914875,-0.5867598048064857
1761379817507251700,2.886251708984375,0.9072375940263271,-0.7558779887795448,-0.5612781575474888
1761379817517334800,2.896334716796875,1.1005150175482035,-0.7855994655653834,-0.4910945411875844
1761379817527417600,2.90641748046875,0.9765501997053623,-0.8045335908770561,-0.38792723137550056
1761379817537500700,2.916500732421875,0.9905056598216294,-0.9181482796192169,-0.2998739771302789
1761379817547583500,2.92658349609375,0.9175999980866908,-0.9537737197518348,-0.24074089322537182
1761379817557666600,2.93666650390625,0.522772412738204,-0.936264658807218,-0.16790559331290422
1761379817567749600,2.94674951171875,0.28668109888434407,-1.0080708348676561,0.008958820872753858
1761379817577832700,2.956832763671875,0.133469143769145,-1.149895426788926,0.1352438252914697
1761379817587915800,2.966915771484375,-0.028593641799688336,-1.2298004458919167,0.25629487457945943
1761379817597998600,2.97699853515625,-0.21204642139971255,-1.4044532484427095,0.32726372303292156
1761379817608081700,2.98708154296875,-0.49862289086580275,-1.542045025099814,0.22668021916896103
1761379817618164500,2.99716455078125,-0.5245476057171822,-1.5575065058648585,-0.03650222296714783
1761379817628247800,3.007247802734375,-0.6063017598181962,-1.3533797715485094,-0.36592012835927307
1761379817638330600,3.01733056640625,-0.6446411350846291,-1.1117930751487612,-0.6455269049432129
1761379817648413700,3.02741357421875,-0.5613841752052307,-0.8684148191571235,-0.8435233928762376
1761379817658497500,3.03749755859375,-0.38158231932818887,-0.5983206979364156,-0.8654735780734568
1761379817668580600,3.04758056640625,-0.06612871494591235,-0.2952142416909337,-0.8418601358391344
1761379817678663700,3.05766357421875,0.23426351390480993,-0.18200901053249835,-0.7804026275746524
1761379817688746800,3.067746826171875,0.3217506586998701,-0.18273323315382003,-0.698313250169903
1761379817698829600,3.07782958984375,0.19271745155155656,-0.24477935496121644,-0.6377110435605049
1761379817708912600,3.08791259765625,-0.09701660516262053,-0.2927887681096792,-0.6938350818425416
1761379817718995500,3.097995361328125,-0.3846586580336094,-0.20696049643754957,-0.8236238565985113
1761379817729078500,3.10807861328125,-0.5349257918685675,-0.037032092060148715,-0.9736366503462195
1761379817739161900,3.118161865234375,-0.6015022505819797,0.14261749586462974,-1.078147556786984
1761379817749244700,3.12824462890625,-0.5882786118716001,0.22554624670296905,-1.1486189040470867
1761379817759327700,3.13832763671875,-0.5973831248253584,0.26656127091944215,-1.217405732286349
1761379817769410600,3.14841064453125,-0.5702151319146156,0.32065818728804585,-1.3410963362976909
1761379817779493600,3.15849365234375,-0.4231289662033319,0.4015490025579929,-1.4717550988212227
1761379817789576400,3.168576416015625,-0.27957623531520365,0.5090300108507275,-1.5745836051329969
1761379817799659800,3.17865966796875,-0.1520873349994421,0.5893783898070454,-1.5592413668334484
1761379817809742600,3.18874267578125,-0.0008680150061845779,0.64949763520509,-1.4848489736720918
1761379817819825700,3.19882568359375,0.04876724577844142,0.7376034964203834,-1.3723345012567936
1761379817829908700,3.20890869140625,0.013432897546887397,0.7996881966724991,-1.233261400000751
1761379817839991600,3.218991455078125,-0.08749415905773639,0.8721347164630889,-1.117767546448484
1761379817850074600,3.22907470703125,-0.3086918551623821,0.9341045581638813,-1.0228646455042063
1761379817860157700,3.23915771484375,-0.49296997967064377,1.001023254443705,-0.9391355380684137
1761379817870240800,3.24924072265625,-0.6115992817044258,1.0053469628617167,-0.827129307436198
1761379817880323600,3.259323486328125,-0.6747603790163993,0.9422899104461073,-0.7125793836705386
1761379817890406700,3.26940673828125,-0.635592151710391,0.8737775152340531,-0.7320433050099759
1761379817900489500,3.279489501953125,-0.5442448243558407,0.7876511373981833,-0.838319759818539
1761379817910572500,3.289572509765625,-0.4096837936967611,0.6762886114969849,-0.9556513501919806
1761379817920656600,3.29965673828125,-0.22082594018280505,0.6205538647934794,-1.0215102352205663
1761379817930739700,3.30973974609375,0.004871405428647994,0.5463552406385541,-1.0310632225941867
1761379817940822500,3.319822509765625,0.23321605067849158,0.4531210766240954,-0.9722107822615653
1761379817950905600,3.329905517578125,0.446344422096014,0.3858233178988099,-0.8436122402034699
1761379817960988400,3.339988525390625,0.6584171469807625,0.2835056837186217,-0.6980290264010429
1761379817971071700,3.35007177734375,0.8047714912861585,0.14643851545751094,-0.5281842086538672
1761379817981154600,3.360154541015625,0.9929781874150038,-0.00352875864803791,-0.41183045033663507
1761379817991237600,3.370237548828125,1.1440361793667078,-0.15533698444515465,-0.3319729967024177
1761379818001320700,3.38032080078125,1.225400457367301,-0.2665390590876341,-0.308650573303923
1761379818011403500,3.390403564453125,1.2885071941435335,-0.36765725435018537,-0.279893484570831
1761379818021486600,3.400486572265625,1.2743582572817802,-0.4978071905687451,-0.2278371341191232
1761379818031569700,3.410569580078125,1.2058937928646802,-0.6545575489431619,-0.2074710032429546
1761379818041652700,3.42065283203125,1.0406178904682397,-0.7430088625952601,-0.2766685311749577
1761379818051735600,3.430735595703125,0.8395593115508556,-0.7741796614065766,-0.4054718020249158
1761379818061818600,3.440818603515625,0.8837813151150942,-0.7920040719106793,-0.49252566996924574
1761379818071901400,3.4509013671875,1.013280386209488,-0.7535141822576522,-0.5168053210273384
1761379818081984500,3.460984619140625,1.161253271627426,-0.7670669067919254,-0.47240883767902847
1761379818092067800,3.47106787109375,1.3179787878215312,-0.8242734796136617,-0.4071737105719745
1761379818102150700,3.481150634765625,1.4641384863376616,-0.8545777247235179,-0.33085794813260433
1761379818112233700,3.491233642578125,1.592597692990303,-0.9119064626201987,-0.25417956292591987
1761379818122316500,3.501316650390625,1.7684096024483442,-1.0016016388535498,-0.1667233977910131
1761379818132399600,3.511399658203125,1.8311930986195801,-1.1576724905312061,-0.0867597073033452
1761379818142482400,3.521482421875,1.7843816630840301,-1.3222653790995478,-0.056975905871018764
1761379818152565800,3.531565673828125,1.744125640541315,-1.4488678519695997,-0.042540041826665397
1761379818162648600,3.541648681640625,1.6787836920589208,-1.4924632480680942,-0.09290347075536846
1761379818172731600,3.551731689453125,1.5754098268240688,-1.5272083982348441,-0.12531214079856873
1761379818182814700,3.561814697265625,1.4252923305928706,-1.5744070795223115,-0.11809453756995499
1761379818192898600,3.571898681640625,1.2329688467949629,-1.505848799341917,-0.1432463683526963
1761379818202981600,3.581981689453125,0.9985001657068728,-1.4544953364625572,-0.11918145602382718
1761379818213064700,3.592064697265625,0.7947802586257458,-1.4540604521766305,-0.07548990607447922
1761379818223147500,3.6021474609375,0.6438631364494561,-1.459857740278542,-0.018212606104090808
1761379818233230600,3.612230712890625,0.45141281140148637,-1.5494573471829294,0.08352364799156785
1761379818243313700,3.622313720703125,0.19453122297525405,-1.6883742349639534,0.2124599706366658
1761379818253396700,3.632396728515625,-0.0690676910072565,-1.864495064240694,0.3294396057672798
1761379818263479800,3.642479736328125,-0.4933569331616163,-2.0727830098897218,0.4365859752781689
1761379818273562600,3.652562744140625,-1.00333591530025,-2.2192072045609352,0.5731693055450916
1761379818283645700,3.662645751953125,-1.5392138933271169,-2.278847142009437,0.7487783859074115
1761379818293728500,3.672728515625,-2.0081132615804673,-2.2912056883230805,0.9139969320934266
1761379818303811600,3.6828115234375,-2.1318425171017648,-2.236555814246833,1.0046505780953914
1761379818313894700,3.692894775390625,-2.233579136523604,-2.2089958994090555,1.235553018069267
1761379818323977700,3.702977783203125,-2.090498114800453,-2.48276111035794,1.5653456750579178
1761379818334060500,3.713060546875,-2.1751105809420346,-2.627270703579485,1.8585142362654208
1761379818344143600,3.7231435546875,-2.208048973947763,-2.76318373336941,1.972984372793138
1761379818354226000,3.733225830078125,-2.461983403006196,-2.7169278858900068,1.8010621642500162
1761379818364308700,3.743308837890625,-2.832225997674465,-2.641409411308169,1.51505136584267
1761379818374392000,3.75339208984375,-3.2787294097244737,-2.264656704093516,1.2233636177774518
1761379818384475000,3.763474853515625,-3.6251322791218756,-1.61598119892627,0.7681069173641503
1761379818394558000,3.773557861328125,-3.5611838308244943,-0.8712249081417918,0.46974122590497136
1761379818404641000,3.78364111328125,-3.1307302208214995,-0.2140004780769348,0.32187326216623185
1761379818414723800,3.793723876953125,-2.3923446341127157,0.33437925412654873,0.29662768868543204
1761379818424807000,3.803806884765625,-1.7033499780386685,0.7179729132771492,0.4250819999672472
1761379818434890000,3.813889892578125,-0.9686059627026319,0.9296505013644695,0.4688801520962268
1761379818444973000,3.82397314453125,-0.28773849898278714,1.0821356035098433,0.40301644476205106
1761379818455056000,3.834055908203125,0.25554361782073975,1.140930322305858,0.24305253116860984
1761379818465140000,3.844139892578125,0.4852870239526033,1.2074018593400717,0.14119374667182563
1761379818475222800,3.854222900390625,0.5599918440639973,1.3039745201274753,0.20298530919626354
1761379818485306000,3.86430615234375,0.7981564570605755,1.4210530855879187,0.20250607431195675
1761379818495389000,3.874388916015625,1.0372498753398656,1.5656456809177994,0.13408771405890582
1761379818505472000,3.884471923828125,1.1297697536051272,1.6564967491880058,0.016363324975594878
1761379818515554800,3.894554931640625,1.120801434251666,1.618021180321276,-0.10188180004619062
1761379818525638000,3.904637939453125,1.1765151381671428,1.5930062737911939,-0.22639614153057336
1761379818535720700,3.914720703125,1.2176724934637546,1.634144339865446,-0.3705482996165752
1761379818545804000,3.924803955078125,1.2794003431022167,1.6672727024853229,-0.44485710614770646
1761379818555887000,3.93488720703125,1.2957646179258822,1.6943676301598547,-0.4418145235814154
1761379818565970000,3.944969970703125,1.3588012120753525,1.7476061761334538,-0.3722898825868964
1761379818576053000,3.955052978515625,1.4986644407957792,1.7347130845516918,-0.2551917356431484
1761379818586135800,3.9651357421875,1.6814099489092826,1.6604054470643401,-0.12306889191642403
1761379818596219000,3.975218994140625,1.8317817121624946,1.511208865070343,-0.02940057426840067
1761379818606302000,3.985302001953125,1.9783879854023456,1.3444628901213407,0.005878171318396926
1761379818616385000,3.995385009765625,2.0566566354751585,1.2264099266707897,0.04186871843636036
1761379818626467800,4.0054677734375,2.0734452731907367,1.0907985101759432,0.13178557459637522
1761379818636551000,4.015551025390625,2.1195640502870083,0.9088803927972913,0.22794819327816365
1761379818646634000,4.025634033203125,2.1727567112922666,0.737497990219295,0.33986104653850197
1761379818656716800,4.035716796875,2.1474445753812788,0.5960682428345084,0.46792000182718035
1761379818666800000,4.045800048828125,2.0554829155206678,0.38275954641401766,0.5441114072345197
1761379818676883000,4.055883056640625,1.9485101490110157,0.22829320732355116,0.5641005945570766
1761379818686966000,4.065966064453125,1.8852040902704,0.1788742196381092,0.5035688228353857
1761379818697048800,4.076048828125,1.7615923236489295,0.1835018794387579,0.4381995479546487
1761379818707132000,4.0861318359375,1.5746499483674763,0.12902414705902338,0.3585470423080027
1761379818717216000,4.096216064453125,1.5220102450698614,0.11573299607038497,0.25669950985759493
1761379818727299000,4.106299072265625,1.5162082807928323,0.21134850226342677,0.13646248036623002
1761379818737382000,4.1163818359375,1.511511062887311,0.2156996832102537,0.03139963913112879
1761379818747465000,4.12646484375,1.312937871044874,0.11743950772732495,-0.07506751594394445
1761379818757547800,4.1365478515625,1.213044833663106,-0.0054696635827422135,-0.19984934925809503
1761379818767630800,4.146630859375,1.070901385051012,-0.0865004718452692,-0.3501896213945001
1761379818777714000,4.1567138671875,0.900973272934556,-0.20611089387089013,-0.4728320315271616
1761379818787797000,4.166796875,0.7264478961557149,-0.3915016557961702,-0.5328673249688
1761379818797879800,4.1768798828125,0.5532569828510284,-0.6118754682973027,-0.5509349696442485
1761379818807963000,4.186962890625,0.3621539807587862,-0.7501885449662804,-0.5478702483113855
1761379818818046000,4.1970458984375,0.17331190933585167,-0.8993933102667331,-0.5495175771269947
1761379818828128800,4.207128662109375,-0.15446867717802523,-1.06806996101737,-0.5107178908724338
1761379818838212000,4.217212158203125,-0.4614548974663019,-1.1947560205176473,-0.524751311595738
1761379818848295000,4.227294921875,-0.6675257515877485,-1.2911781669184565,-0.5374030687022954
1761379818858378000,4.2373779296875,-0.9654068744003772,-1.3539686773523687,-0.5008421743504703
1761379818868460800,4.247460693359375,-1.2292325828760862,-1.3640619090825319,-0.48443676379881795
1761379818878544000,4.2575439453125,-1.47162036652565,-1.3547399539858103,-0.4587411084629595
1761379818888626700,4.267626708984375,-1.7197808883577583,-1.3278592535838485,-0.43524150186665356
1761379818898710000,4.2777099609375,-1.8209698107689618,-1.2311010070964694,-0.4365672340450808
1761379818908793000,4.28779296875,-1.8181471545636654,-1.1255614882603286,-0.43293676858823743
1761379818918876000,4.2978759765625,-1.7439812636345624,-1.0913982296347617,-0.3454624102095142
1761379818928959000,4.307958984375,-1.477922097018361,-1.366366971154511,0.02163531056176871
1761379818939041800,4.318041748046875,-1.4010533768713473,-1.667177425417304,0.3806149356007576
1761379818949124900,4.328124755859375,-1.415291745582223,-1.8117177060380576,0.6031560456709936
1761379818959208000,4.3382080078125,-1.3532301339447497,-1.9786375762492416,0.5575790107686073
1761379818969291000,4.348291015625,-1.6520751333534716,-1.8595175680890679,0.321434213161841
1761379818979374800,4.358374755859375,-2.044219763228297,-1.6348896052747963,0.02553907653465867
1761379818989458000,4.3684580078125,-2.3518162243694065,-1.210870119972527,-0.35521044523119927
1761379818999540700,4.378540771484375,-2.5574755750805136,-0.5920668982386589,-0.6245752292640507
1761379819009624000,4.3886240234375,-2.544621938726306,-0.11129939753711222,-0.6409193380825221
1761379819019707000,4.398706787109375,-2.178191011300683,0.26022154650390145,-0.5633901082001627
1761379819029790000,4.4087900390625,-1.7766373325675724,0.5571031368851661,-0.5521343354966491
1761379819039872800,4.418872802734375,-1.3345312786936758,0.6817723036050796,-0.5744636562045663
1761379819049955800,4.428955810546875,-1.142450371479988,0.8679089154615998,-0.500098004919663
1761379819060039000,4.439038818359375,-0.9922761766254902,1.0474304930925369,-0.5091268222887069
1761379819070122000,4.4491220703125,-0.7048696860760449,1.1652557852670549,-0.6816881324529648
1761379819080205000,4.459205078125,-0.22318448600769042,1.3484984292477369,-0.9242463042333722
1761379819090287900,4.469287841796875,0.24613164635300636,1.4638625920057295,-1.102341648453474
1761379819100371000,4.479370849609375,0.4712473926842212,1.4066820304080843,-1.1998908991880715
1761379819110453800,4.489453857421875,0.4563935224235058,1.3074430730208755,-1.2551736643403768
1761379819120536800,4.499536865234375,0.6096341191112995,1.206905015733838,-1.3219533905409275
1761379819130620000,4.509619873046875,0.840254308077693,1.1279802398398517,-1.3827908672109246
1761379819140703000,4.519702880859375,1.0584966615080833,1.0564695395946502,-1.3875032826855778
1761379819150786000,4.5297861328125,1.292988138949871,0.9532032263875007,-1.329659873265028
1761379819160868900,4.539868896484375,1.4705594592958688,0.889108063095808,-1.2531824905231594
1761379819170952000,4.549951904296875,1.5545593464970588,0.873496067944169,-1.127549154946208
1761379819181034800,4.56003466796875,1.5538696106672285,0.8570397309228778,-0.9645013038627803
1761379819191118000,4.5701181640625,1.4869295793384312,0.8804875342667102,-0.809559894606471
1761379819201201000,4.580200927734375,1.3994447726309298,0.9837389421656727,-0.6554344779081642
1761379819211284000,4.590283935546875,1.3765771072626114,1.0173901596158743,-0.4164807968931272
1761379819221366800,4.60036669921875,1.354667473271489,0.9664669048473238,-0.13355514155216514
1761379819231451100,4.610451171875,1.3945336197137832,0.8832096527069807,0.15717136026546358
1761379819241534000,4.620533935546875,1.412428757366538,0.7805413053929805,0.4219185675002634
1761379819251617000,4.630616943359375,1.4079939897894858,0.6308835356280207,0.6267597336962819
1761379819261699800,4.640699951171875,1.3224059566140174,0.4771043020188808,0.7471114025432616
1761379819271783000,4.650782958984375,1.2684674456775187,0.4037549881696701,0.7719872659288346
1761379819281865700,4.66086572265625,1.270747665569186,0.3443257708624005,0.7691250083655119
1761379819291949000,4.670948974609375,1.2728881847292184,0.25904139680862426,0.7714494327250868
1761379819302032000,4.681031982421875,1.2043179218500852,0.1906120037049055,0.7751826279040426
1761379819312115000,4.691114990234375,1.1363175678133963,0.10491641850173472,0.7667480501011014
1761379819322198000,4.701197998046875,1.0979846222877503,0.006617956835031509,0.7653591530259698
1761379819332280800,4.71128076171875,1.0828531041294336,-0.0808034292474389,0.7694918689165264
1761379819342364000,4.721364013671875,1.0776426760047673,-0.1547553851649165,0.7729590335704386
1761379819352447000,4.731447021484375,1.06726799698472,-0.2510930681526661,0.7561467957835644
1761379819362530000,4.741530029296875,1.0267466015040874,-0.3264215731203556,0.7145876547530293
1761379819372612900,4.75161279296875,0.9684709381461143,-0.36792934928983445,0.6346877502165734
1761379819382696000,4.761696044921875,0.8598211783349513,-0.40369770502448077,0.5585165838796645
1761379819392778800,4.77177880859375,0.6950678385078907,-0.411715007263422,0.5032495277531445
1761379819402861800,4.78186181640625,0.512003765964508,-0.37994156638383864,0.42469877280332147
1761379819412945200,4.791945068359375,0.34485154830217357,-0.34695962649732826,0.3706630120374262
1761379819423028000,4.802028076171875,0.2564735921472311,-0.3260688141599297,0.3249425866089761
1761379819433111000,4.812111083984375,0.26596622763574124,-0.31162089435160156,0.31160891165286303
1761379819443193900,4.82219384765625,0.2828074723213911,-0.38653994173556566,0.40791020815297957
1761379819453277000,4.83227685546875,0.3657826926499605,-0.5739841290593147,0.5301443297456949
1761379819463359700,4.84235986328125,0.4762742809355259,-0.7448480607211589,0.6279551540259272
1761379819473443000,4.852443115234375,0.5862766243994235,-0.9200006294876336,0.6822283768095075
1761379819483526000,4.86252587890625,0.591591097420454,-1.0972989781111477,0.7262572689544409
1761379819493610000,4.87260986328125,0.4686205513119697,-1.2338435838028787,0.7842011430747806
1761379819503692800,4.88269287109375,0.2918646390020847,-1.32704530685246,0.8455511723767966
1761379819513775900,4.89277587890625,0.053930912151932714,-1.3598907608777284,0.8428051616042852
1761379819523859000,4.90285888671875,-0.211150349342823,-1.3394701964005826,0.8142622270785271
1761379819533942000,4.91294189453125,-0.6182429575026035,-1.3214511401072144,0.80703234889023
1761379819544024800,4.92302490234375,-0.8899263937413692,-1.3066945927411318,0.7560534184116869
1761379819554108000,4.93310791015625,-1.092545061582327,-1.2276277780279516,0.701975791265443
1761379819564191000,4.94319091796875,-1.175871579566598,-1.160484917603433,0.6581185293603689
1761379819574273800,4.953273681640625,-1.1154138959944249,-1.1796388231456278,0.766808913442865
1761379819584357000,4.963357177734375,-0.9225842162400484,-1.5481456800624727,1.1483161217082292
1761379819594440000,4.97343994140625,-0.8484908060252666,-1.8460905157610772,1.6058105180457234
1761379819604523000,4.98352294921875,-0.9124293174505234,-1.8865137115642427,1.9213928633742032
1761379819614605800,4.993605712890625,-1.0076631308495998,-1.732821863977611,1.7896870760157704
1761379819624689000,5.00368896484375,-1.3003712349385022,-1.4293781386017799,1.4134259517103434
1761379819634771700,5.013771728515625,-1.8223329158157109,-1.177152559287846,0.9277917217552661
1761379819644855000,5.02385498046875,-2.3765198729932306,-0.8860837468385696,0.4598673360139131
1761379819654937900,5.033937744140625,-2.6021400617152453,-0.4984337980344891,0.18470877101048827
1761379819665021000,5.04402099609375,-2.5652713435232637,-0.08268325164467095,0.11263890251256525
1761379819675104000,5.05410400390625,-2.164611983281374,0.28259441409260033,-0.0031123598668724296
1761379819685186800,5.064186767578125,-1.597879432785511,0.7781020955473185,-0.0718389092862606
1761379819695270000,5.074269775390625,-1.16061205111444,1.216852993774414,-0.25361812965087593
1761379819705353000,5.08435302734375,-0.7854314155220985,1.4146362042829395,-0.3624083939112723
1761379819715436000,5.09443603515625,-0.49558571512699123,1.4815630838692186,-0.3656335665028542
1761379819725518800,5.104518798828125,-0.18405951332151888,1.4676865342080592,-0.3689193832404911
1761379819735602000,5.114601806640625,0.31964696441888807,1.5260612740263342,-0.4021280445549637
1761379819745684700,5.124684814453125,0.7692530186593532,1.6059160242468118,-0.392800171174109
1761379819755769000,5.13476904296875,1.230311025762558,1.5081225894927979,-0.2401446078326553
1761379819765852000,5.144851806640625,1.4505384155303238,1.2792030669644474,-0.06800839121267199
1761379819775935000,5.15493505859375,1.5295628524065017,1.029964394506812,0.05333893760815262
1761379819786017800,5.165017822265625,1.5065730219632387,0.88861940279603,0.09175298554599284
1761379819796100900,5.175100830078125,1.2784288677215576,0.7549956529870628,0.0219579301122576
1761379819806184000,5.185183837890625,0.9825526549905538,0.6978679906204343,-0.0935450565945357
1761379819816267000,5.19526708984375,0.7248609192252159,0.7254454411149025,-0.33585509883277115
1761379819826350000,5.20535009765625,0.5370820931196213,0.8466761578187346,-0.6376002766624093
1761379819836433000,5.215432861328125,0.3407113797575235,0.9397849418878554,-0.7713646770510822
1761379819846516000,5.225515869140625,0.1825824265062809,0.9196627758353948,-0.8026675778094678
1761379819856598800,5.235598876953125,0.15917641647756098,0.9651388711139559,-0.853671131272614
1761379819866681900,5.245681884765625,0.2613788998454809,0.9786480487674474,-0.9061340166985988
1761379819876765000,5.255764892578125,0.3408855672806501,0.9366174177676438,-0.853820184354484
1761379819886848000,5.265847900390625,0.6524906795412302,0.8762272464737295,-0.7479932999443263
1761379819896930800,5.275930908203125,0.9394412430167197,0.8119424058288335,-0.5386139788620173
1761379819907014000,5.286013916015625,0.9817524445235729,0.6499152760952711,-0.19923443223014473
1761379819917097000,5.296096923828125,0.9633259764730929,0.43157589203119273,0.11873846149668096
1761379819927179800,5.3061796875,0.9971633641451597,0.3070607468292117,0.22863412971571087
1761379819937263000,5.31626318359375,0.9655074121654033,0.24373656791001558,0.20653277254477143
1761379819947346000,5.326345947265625,0.8582669346302747,0.16212240680158138,0.1610956941023469
1761379819957429000,5.336428955078125,0.607995704254508,0.09897446123212575,0.11462700758986175
1761379819967511800,5.34651171875,0.3907499606460333,0.11412672991752623,-0.02227327967174351
1761379819977595000,5.356594970703125,0.2668985400497913,0.11120119785964488,-0.10401303992122411
1761379819987677700,5.366677734375,0.16484510976374148,0.05030570739209651,-0.17259908489137887
1761379819997761000,5.376760986328125,0.2940425675630569,-0.03633037353157997,-0.35755635077022013
1761379820007844000,5.386843994140625,0.27152853793799875,-0.10747574759572744,-0.40709757659584284
1761379820017927000,5.396927001953125,0.041889176702499385,-0.226072316403687,-0.2923310874700546
1761379820028010000,5.407010009765625,-0.04689151503443718,-0.20453940677046775,-0.28124029606990514
1761379820038092800,5.4170927734375,-0.03492869004011154,-0.20270868421196936,-0.3490336562924087
1761379820048177000,5.427177001953125,0.11486615010797976,-0.3512742748260498,-0.38731275273896754
1761379820058260000,5.437260009765625,0.24547815088033675,-0.5500765992492437,-0.47011064373925326
1761379820068343000,5.447343017578125,0.3200713273108005,-0.7070075748875737,-0.444152026618272
1761379820078425900,5.45742578125,0.2656786428660154,-0.7470499546796083,-0.36994485383071
1761379820088509000,5.467509033203125,0.19575930346548556,-0.877257758565247,-0.29344043695144356
1761379820098591700,5.477591796875,0.023822189614176748,-1.004624493806064,-0.29701573815494775
1761379820108675000,5.487675048828125,-0.019824059888720512,-1.018858186341822,-0.3382280385091901
1761379820118758000,5.4977578125,-0.08736264163255691,-1.0121695023581385,-0.4111733746673912
1761379820128841000,5.507841064453125,-0.22694237723648547,-1.0082084897726773,-0.43588564498908816
1761379820138923800,5.517923828125,-0.27898645272850986,-0.956015068937838,-0.45628282859064634
1761379820149006800,5.5280068359375,-0.4931044197052717,-0.8962810234650969,-0.38343203884810206
1761379820159090000,5.53808984375,-0.6845417683184146,-0.7913225193873047,-0.35241694205515084
1761379820169173000,5.548173095703125,-0.7983201231896877,-0.607889321270585,-0.40955921746902163
1761379820179256000,5.558256103515625,-0.8677367737650871,-0.458841792358458,-0.47430568427629766
1761379820189339000,5.5683388671875,-0.9203981043726205,-0.3428168276041746,-0.47605194342173635
1761379820199422000,5.578421875,-0.9961433734476566,-0.2470157357111573,-0.36418592497780916
1761379820209504800,5.5885048828125,-0.9256962107807397,-0.3064776862442493,-0.29675065747797486
1761379820219588000,5.598588134765625,-0.8047545401513576,-0.3837476806685328,-0.1475250685852021
1761379820229671000,5.6086708984375,-0.464960859760642,-0.8361553483262658,0.2536342770680785
1761379820239754000,5.61875390625,-0.10857844814062118,-1.418452547700703,0.7228184536121786
1761379820249836800,5.6288369140625,-0.13682605298161507,-1.5713114515945314,0.9120758278377353
1761379820259920000,5.638919921875,-0.09733926124572753,-1.5078344202011822,0.6761199769318104
1761379820270003000,5.6490029296875,-0.5842319668292999,-1.1799003966912627,0.2570014154136181
1761379820280086000,5.6590859375,-1.1666641907602548,-0.8272741227343678,-0.13634784101061523
1761379820290169000,5.669169189453125,-1.6762994740277528,-0.3929278892070055,-0.5023074976626783
1761379820300252000,5.679251953125,-1.9656477462947368,0.1540524975925684,-0.6766331871509551
1761379820310335000,5.6893349609375,-1.9112772736817598,0.7612202265903353,-0.9528894842632114
1761379820320417800,5.699417724609375,-1.2463736872911453,1.0444064690962434,-1.0383135590486228
1761379820330500900,5.7095009765625,-0.5236848514080047,1.0042881014585494,-0.8834549327049404
1761379820340584000,5.719583984375,-0.026903789016604424,0.8911872074574232,-0.4126476850036531
1761379820350667300,5.729667236328125,0.2535872230559587,0.8775096874997019,0.033787337985262275
1761379820360750000,5.73975,0.4046042984753847,0.9476730647891759,0.15385734034664927
1761379820370834200,5.749834228515625,0.6015455052018165,0.9485516011893749,0.07962759040109813
1761379820380917000,5.7599169921875,0.7502998963862657,0.8230322473809123,-0.0510529455628246
1761379820391000000,5.77,0.8015805862903594,0.7271829324319958,-0.22209522946625945
1761379820401083100,5.780083251953125,0.8387550094306468,0.8193766474828124,-0.4312456371635198
1761379820411166200,5.790166259765625,0.7516255920320749,1.021004842981696,-0.5613379979759454
1761379820421249000,5.8002490234375,0.6006967794179916,1.0913260411813854,-0.5339413108758628
1761379820431332000,5.81033203125,0.4854436758190393,1.0635597901165486,-0.46040210047774016
1761379820441415200,5.820415283203125,0.377917367079854,1.0540431892305613,-0.43509299677405505
1761379820451498000,5.830498046875,0.4195277268409729,0.9987550172507762,-0.5201018418220803
1761379820461581300,5.840581298828125,0.4406628693282604,0.9317281844213604,-0.5193081341611221
1761379820471664000,5.8506640625,0.39061552061140536,0.9402280094802379,-0.459524879251793
1761379820481747200,5.860747314453125,0.3355214098989963,0.904417860430479,-0.29023579569123686
1761379820491830000,5.870830078125,0.2572217801660299,0.8195864908412098,-0.1323011594356969
1761379820501913000,5.8809130859375,0.38639351900219915,0.7492612009882926,0.015920257383212445
1761379820511996000,5.890995849609375,0.627803982052207,0.6560407732382416,0.13811061289943755
1761379820522079200,5.901079345703125,0.9194482563018799,0.49507045908123254,0.24097952428683636
1761379820532162300,5.911162353515625,1.1374082856595515,0.31549042926132675,0.3872809693612158
1761379820542245000,5.9212451171875,1.1207599331974982,0.16385317611694336,0.5455663552831858
1761379820552328200,5.931328125,1.0638356844484806,0.03877250598669052,0.6462028314433992
1761379820562411000,5.941410888671875,1.0823960080116986,0.00426379492431879,0.6447147117774933
1761379820572494000,5.951494140625,1.0960066002130509,-0.00017857143729925153,0.6097565764471888
1761379820582577200,5.9615771484375,0.9806459445863962,-0.06606704788655042,0.5842446071151643
1761379820592660200,5.97166015625,0.8546130882978439,-0.11681290026158093,0.569389056354016
1761379820602743000,5.981742919921875,0.7281278120666742,-0.12961539095044136,0.5548611301120371
1761379820612826000,5.991826171875,0.6180985805958509,-0.1465896143659949,0.501373723943904
1761379820622909200,6.0019091796875,0.45417701541781424,-0.13649988976716995,0.4695937802582979
1761379820632992000,6.011991943359375,0.39953824725747106,-0.09956395155787467,0.428615215594694
1761379820643075300,6.022075439453125,0.37727439300119875,-0.15079437257945535,0.42724582693763075
1761379820653158100,6.032158203125,0.3820622117996216,-0.27233400910198685,0.41069662400111556
1761379820663241200,6.0422412109375,0.36632045278847214,-0.2803165322884917,0.3266667069878429
1761379820673324000,6.052323974609375,0.2752811684697866,-0.329412279368937,0.2905400393348187
1761379820683407000,6.062406982421875,0.1538730493724346,-0.38505262578725813,0.2646476193178445
1761379820693490000,6.072489990234375,0.03830956465005875,-0.35135347754210233,0.27061040017977356
1761379820703574300,6.08257421875,0.023968320086598396,-0.33574498952180143,0.25572138554044066
1761379820713657000,6.092656982421875,0.059980713710188864,-0.30213556538671255,0.22346344907954335
1761379820723740200,6.102740234375,0.1165337910592556,-0.32574645033776756,0.18156207048259673
1761379820733823000,6.112822998046875,0.08704173911511898,-0.36232115401923654,0.14107348129302263
1761379820743906000,6.122906005859375,0.024089316117763517,-0.39305473045706746,0.11625336668267845
1761379820753989000,6.132989013671875,0.00968786579966545,-0.40908670458644625,0.0386252064704895
1761379820764072200,6.143072265625,0.041080782929062844,-0.4130485939547419,0.0339556072242558
1761379820774155300,6.1531552734375,0.05162205068767071,-0.45765404387861486,0.12883578488007186
1761379820784238000,6.163238037109375,0.1301537356108427,-0.5079617970973253,0.1575387322731316
1761379820794321200,6.173321044921875,0.21585458151102066,-0.5424591099828482,0.16931334121897815
1761379820804404000,6.183404052734375,0.15329963339865207,-0.6598232143864036,0.20734657314568758
1761379820814487300,6.1934873046875,0.09168459648489952,-0.6704860626980662,0.1442144096672535
1761379820824570000,6.203570068359375,-0.0808843855291605,-0.5756544003590941,0.09935717693939805
1761379820834653200,6.213653076171875,-0.32261575109660623,-0.4518634777784347,0.06362608447521925
1761379820844736000,6.223736083984375,-0.48771278979480265,-0.3369964508876204,0.06730623429268598
1761379820854819000,6.233819091796875,-0.6709849521309137,-0.26442718150019645,0.10046206944137812
1761379820864902100,6.243902099609375,-0.6094488256722689,-0.18380115464627741,0.04356755824349821
1761379820874985200,6.253985107421875,-0.5820937857568264,-0.15382073466330765,0.10088679765947163
1761379820885068300,6.264068359375,-0.45045536454617974,-0.3955503466650843,0.4289052115172147
1761379820895151000,6.274151123046875,-0.23786124613583087,-0.7177087093830108,0.8632134511217474
1761379820905234200,6.284234130859375,-0.3263029151767492,-0.7370216048792004,1.1083220380373298
1761379820915317000,6.29431689453125,-0.46363925576806064,-0.7695289129912852,1.063507329276949
1761379820925400000,6.304400146484375,-0.8444961834311485,-0.636658904159069,0.8553034086495638
1761379820935483100,6.314483154296875,-1.3340940563201904,-0.506093665137887,0.6766422472402454
1761379820945566200,6.324566162109375,-1.672140016260743,-0.4377309075295925,0.48485367403663693
1761379820955649000,6.33464892578125,-1.7005109552204607,-0.2035372439906001,0.13702844368591904
1761379820965732000,6.344732177734375,-1.5448521914750337,0.058231239694356916,-0.14197291435077786
1761379820975815200,6.354815185546875,-1.4083774361491201,0.22531769864410162,-0.20297939091213046
1761379820985898000,6.36489794921875,-1.3277765437364577,0.4279632544919848,-0.3263480694927275
1761379820995981300,6.374981201171875,-1.0610890160888433,0.6488853485256433,-0.47332726769819855
1761379821006064000,6.385064208984375,-0.9435147760659456,0.7749635052606463,-0.4780216360595077
1761379821016147200,6.395147216796875,-0.9192717306911945,0.9054694153100251,-0.43015893790535625
1761379821026230000,6.40522998046875,-0.7410048292964696,1.0998887023434043,-0.3690932785026729
1761379821036313000,6.41531298828125,-0.618034867709875,1.393265791735053,-0.40895007259473204
1761379821046396000,6.42539599609375,-0.3640145139336586,1.7304565961509941,-0.42734775294214483
1761379821056479200,6.435479248046875,0.029063012877106664,1.8526561578869818,-0.27275172305740414
1761379821066563000,6.44556298828125,0.36130876210629936,1.7519032888054846,-0.07233078445643186
1761379821076645000,6.45564501953125,0.6835182704895735,1.5718603176489472,0.05680639452300965
1761379821086729000,6.46572900390625,0.830755827370286,1.3147279693320393,0.12318638081625104
1761379821096812300,6.475812255859375,1.0554986487358808,1.081360527484119,0.06981383319944143
1761379821106895000,6.48589501953125,1.1409943274527787,0.9169602388784289,0.0640996933363378
1761379821116978200,6.495978271484375,0.9649421794980764,0.7417877963677049,0.14498393273502588
1761379821127061200,6.506061279296875,0.8202654130160808,0.5629895645752548,0.218339968585968
1761379821137144000,6.51614404296875,0.694198069936037,0.48338294389694925,0.10760814180374145
1761379821147227100,6.52622705078125,0.5614724380105733,0.533632244926691,-0.09601349253468215
1761379821157310200,6.536310302734375,0.43538814379572865,0.6627794338434935,-0.29282069761790336
1761379821167393300,6.546393310546875,0.554388032707572,0.9150888920485973,-0.48595695910342035
1761379821177476000,6.55647607421875,0.0332704014390707,1.0634662666141985,-0.38639359206743534
1761379821187559200,6.56655908203125,-0.1907417675644159,0.9507195928782224,-0.27361257767044006
1761379821197642000,6.57664208984375,-0.1393944421648979,0.9395876657500862,-0.32078575919047
1761379821207725000,6.58672509765625,-0.08567337337136269,0.9102411597564816,-0.3042343642968684
1761379821217808100,6.59680810546875,-0.053933834761381146,0.7804463205859065,-0.28311719585768874
1761379821227891200,6.60689111328125,0.08470189799070357,0.7058689262464642,-0.2334133268162608
1761379821237974300,6.616974365234375,0.226068517011404,0.6693938835471868,-0.1511725582420826
1761379821248057000,6.62705712890625,0.2913894227057695,0.577558772675693,0.011703078079596162
1761379821258140200,6.63714013671875,0.40669747136235235,0.4612222577542066,0.18782339589968322
1761379821268223000,6.647222900390625,0.5324444964468479,0.4174675794407725,0.34292591400183736
1761379821278306300,6.657306396484375,0.6980728655427694,0.3352989993199706,0.4355073131959885
