time,seconds_elapsed,z,y,x
1761379814668880400,0.04788037109375,-0.9730072021484375,-0.34637451171875,0.079742431640625
1761379814678963500,0.05796337890625,-0.962005615234375,-0.3485565185546875,0.06036376953125
1761379814689046500,0.068046630859375,-0.940185546875,-0.3614654541015625,0.0465240478515625
1761379814699129600,0.078129638671875,-0.9170989990234375,-0.3798675537109375,0.0370025634765625
1761379814709212400,0.08821240234375,-0.89569091796875,-0.3933868408203125,0.0409088134765625
1761379814719295500,0.09829541015625,-0.8810272216796875,-0.4066162109375,0.0482025146484375
1761379814729378600,0.108378662109375,-0.86810302734375,-0.4217376708984375,0.058624267578125
1761379814739461400,0.11846142578125,-0.865142822265625,-0.430023193359375,0.067352294921875
1761379814749544700,0.128544677734375,-0.8718414306640625,-0.435577392578125,0.066619873046875
1761379814759627500,0.13862744140625,-0.877899169921875,-0.437652587890625,0.067474365234375
1761379814769710600,0.148710693359375,-0.9045562744140625,-0.438323974609375,0.06182861328125
1761379814779793400,0.15879345703125,-0.9385528564453125,-0.432891845703125,0.058929443359375
1761379814789876500,0.16887646484375,-0.966522216796875,-0.424560546875,0.056304931640625
1761379814799959300,0.178959228515625,-0.989837646484375,-0.4160308837890625,0.0495147705078125
1761379814810042600,0.189042724609375,-1.0076751708984375,-0.406219482421875,0.048370361328125
1761379814820125700,0.199125732421875,-1.019134521484375,-0.4023284912109375,0.052947998046875
1761379814830208500,0.20920849609375,-1.0195770263671875,-0.405548095703125,0.061126708984375
1761379814840291600,0.21929150390625,-1.0099639892578125,-0.42388916015625,0.08660888671875
1761379814850374400,0.22937451171875,-0.9950408935546875,-0.472564697265625,0.1400909423828125
1761379814860457500,0.23945751953125,-1.0223236083984375,-0.4872894287109375,0.1712799072265625
1761379814870540500,0.24954052734375,-1.070343017578125,-0.4706878662109375,0.1609039306640625
1761379814880623600,0.25962353515625,-1.1467437744140625,-0.4386749267578125,0.115966796875
1761379814890706400,0.26970654296875,-1.2136383056640625,-0.4094390869140625,0.0735626220703125
1761379814900789500,0.27978955078125,-1.24053955078125,-0.372650146484375,0.00885009765625
1761379814910872600,0.28987255859375,-1.240386962890625,-0.3175811767578125,-0.0617218017578125
1761379814920955400,0.299955322265625,-1.188995361328125,-0.2409820556640625,-0.10919189453125
1761379814931038700,0.310038818359375,-1.1156463623046875,-0.1947021484375,-0.11614990234375
1761379814941121500,0.32012158203125,-1.064605712890625,-0.2065887451171875,-0.07244873046875
1761379814951204600,0.33020458984375,-1.005889892578125,-0.231842041015625,0.009735107421875
1761379814961287400,0.340287353515625,-0.965911865234375,-0.24822998046875,0.066497802734375
1761379814971370500,0.35037060546875,-0.94073486328125,-0.274810791015625,0.097747802734375
1761379814981453300,0.360453369140625,-0.924652099609375,-0.2809906005859375,0.096343994140625
1761379814991536600,0.37053662109375,-0.9004974365234375,-0.2791290283203125,0.069915771484375
1761379815001619500,0.380619384765625,-0.8778076171875,-0.27349853515625,0.029144287109375
1761379815011702500,0.39070263671875,-0.8747100830078125,-0.2669677734375,-0.0184783935546875
1761379815021785600,0.40078564453125,-0.8928375244140625,-0.266326904296875,-0.0550384521484375
1761379815031868400,0.410868408203125,-0.9116363525390625,-0.2694549560546875,-0.0840606689453125
1761379815041951500,0.420951416015625,-0.9248199462890625,-0.2681427001953125,-0.108184814453125
1761379815052034600,0.43103466796875,-0.9275970458984375,-0.26434326171875,-0.1227874755859375
1761379815062117600,0.44111767578125,-0.922576904296875,-0.261322021484375,-0.1197052001953125
1761379815072200400,0.451200439453125,-0.9201507568359375,-0.2601776123046875,-0.092010498046875
1761379815082283500,0.461283447265625,-0.924530029296875,-0.2573089599609375,-0.04815673828125
1761379815092366300,0.471366455078125,-0.925140380859375,-0.2544097900390625,-0.005584716796875
1761379815102449400,0.481449462890625,-0.9187774658203125,-0.254241943359375,0.0263824462890625
1761379815112532700,0.49153271484375,-0.908599853515625,-0.25738525390625,0.04559326171875
1761379815122615600,0.501615478515625,-0.8913116455078125,-0.272186279296875,0.0592803955078125
1761379815132698600,0.51169873046875,-0.8690185546875,-0.28863525390625,0.06573486328125
1761379815142781400,0.521781494140625,-0.8450927734375,-0.303497314453125,0.0685882568359375
1761379815152864500,0.531864501953125,-0.81903076171875,-0.32257080078125,0.0762481689453125
1761379815162947300,0.541947265625,-0.796539306640625,-0.34429931640625,0.082855224609375
1761379815173030700,0.55203076171875,-0.7806243896484375,-0.3634185791015625,0.0908355712890625
1761379815183113500,0.562113525390625,-0.77264404296875,-0.3805694580078125,0.09576416015625
1761379815193196500,0.572196533203125,-0.778411865234375,-0.3926239013671875,0.0969696044921875
1761379815203279600,0.582279541015625,-0.79400634765625,-0.40057373046875,0.0932769775390625
1761379815213362400,0.592362548828125,-0.8097076416015625,-0.399169921875,0.0841217041015625
1761379815223445500,0.602445556640625,-0.824066162109375,-0.3945770263671875,0.0722198486328125
1761379815233528600,0.612528564453125,-0.8435211181640625,-0.388702392578125,0.068450927734375
1761379815243611600,0.622611572265625,-0.8592529296875,-0.382537841796875,0.0675201416015625
1761379815253694500,0.632694580078125,-0.8689117431640625,-0.3751373291015625,0.068572998046875
1761379815263777500,0.642777587890625,-0.870147705078125,-0.3656768798828125,0.0673065185546875
1761379815273860400,0.6528603515625,-0.8726654052734375,-0.3610992431640625,0.0765380859375
1761379815283943400,0.662943359375,-0.875152587890625,-0.364532470703125,0.086578369140625
1761379815294026500,0.673026611328125,-0.8800811767578125,-0.3636932373046875,0.093780517578125
1761379815304109600,0.683109619140625,-0.8740692138671875,-0.369903564453125,0.1008453369140625
1761379815314192600,0.693192626953125,-0.8616943359375,-0.3805389404296875,0.1038055419921875
1761379815324275500,0.703275390625,-0.8545379638671875,-0.3876190185546875,0.1023406982421875
1761379815334358500,0.713358642578125,-0.8446197509765625,-0.3982391357421875,0.1009521484375
1761379815344441300,0.72344140625,-0.832916259765625,-0.412322998046875,0.0976104736328125
1761379815354526500,0.7335263671875,-0.82489013671875,-0.4272308349609375,0.092376708984375
1761379815364609500,0.743609619140625,-0.8246002197265625,-0.437164306640625,0.0892181396484375
1761379815374692400,0.7536923828125,-0.8213653564453125,-0.4448089599609375,0.0848846435546875
1761379815384775400,0.763775390625,-0.8209991455078125,-0.4506988525390625,0.082977294921875
1761379815394858500,0.7738583984375,-0.826629638671875,-0.453857421875,0.0852813720703125
1761379815404941600,0.783941650390625,-0.836151123046875,-0.458770751953125,0.0860748291015625
1761379815415024600,0.794024658203125,-0.838226318359375,-0.45941162109375,0.08758544921875
1761379815425107500,0.804107421875,-0.8392486572265625,-0.462005615234375,0.090057373046875
1761379815435190500,0.8141904296875,-0.844512939453125,-0.46490478515625,0.0935821533203125
1761379815445273300,0.8242734375,-0.858856201171875,-0.4579010009765625,0.100799560546875
1761379815455356700,0.834356689453125,-0.8895721435546875,-0.44903564453125,0.1148834228515625
1761379815465439500,0.844439453125,-0.917999267578125,-0.4415740966796875,0.1294708251953125
1761379815475522600,0.8545224609375,-0.949951171875,-0.430267333984375,0.1420135498046875
1761379815485605400,0.86460546875,-0.9750213623046875,-0.4272003173828125,0.1465911865234375
1761379815495688400,0.8746884765625,-0.9925994873046875,-0.423187255859375,0.1449432373046875
1761379815505771500,0.884771484375,-1.005218505859375,-0.4213409423828125,0.144256591796875
1761379815515854600,0.8948544921875,-0.995025634765625,-0.4532318115234375,0.1750030517578125
1761379815525937700,0.904937744140625,-1.0079498291015625,-0.498687744140625,0.21527099609375
1761379815536020500,0.9150205078125,-1.0709381103515625,-0.488433837890625,0.21441650390625
1761379815546103600,0.925103515625,-1.105865478515625,-0.4713134765625,0.1890869140625
1761379815556186400,0.935186279296875,-1.15997314453125,-0.4589385986328125,0.1490478515625
1761379815566269400,0.94526953125,-1.2169036865234375,-0.4372406005859375,0.0951995849609375
1761379815576352500,0.9553525390625,-1.23992919921875,-0.3992462158203125,0.04840087890625
1761379815586435600,0.965435546875,-1.2365875244140625,-0.36590576171875,0.0194854736328125
1761379815596518400,0.975518310546875,-1.1877288818359375,-0.3355865478515625,0.01123046875
1761379815606601500,0.9856015625,-1.13116455078125,-0.31298828125,0.0279541015625
1761379815616684500,0.9956845703125,-1.09320068359375,-0.310791015625,0.0682373046875
1761379815626767400,1.005767333984375,-1.0595855712890625,-0.294647216796875,0.1000213623046875
1761379815636850700,1.0158505859375,-1.0151824951171875,-0.2784881591796875,0.1126861572265625
1761379815646933500,1.02593359375,-0.983978271484375,-0.270538330078125,0.1149444580078125
1761379815657016600,1.0360166015625,-0.959869384765625,-0.2558135986328125,0.1182708740234375
1761379815667099400,1.046099365234375,-0.919219970703125,-0.236175537109375,0.116607666015625
1761379815677182500,1.056182373046875,-0.8878021240234375,-0.219635009765625,0.1182708740234375
1761379815687265300,1.066265380859375,-0.8605194091796875,-0.2192230224609375,0.1327362060546875
1761379815697348600,1.0763486328125,-0.8370819091796875,-0.233123779296875,0.151336669921875
1761379815707431700,1.086431640625,-0.8217315673828125,-0.2550506591796875,0.1646881103515625
1761379815717514500,1.096514404296875,-0.8236541748046875,-0.28424072265625,0.1747589111328125
1761379815727597600,1.10659765625,-0.8413238525390625,-0.30328369140625,0.1684112548828125
1761379815737680400,1.116680419921875,-0.86614990234375,-0.3123321533203125,0.1544952392578125
1761379815747763500,1.126763427734375,-0.892364501953125,-0.3229827880859375,0.138214111328125
1761379815757846500,1.136846435546875,-0.9118499755859375,-0.3281707763671875,0.119171142578125
1761379815767929600,1.1469296875,-0.9117584228515625,-0.3239288330078125,0.0940093994140625
1761379815778012400,1.157012451171875,-0.909515380859375,-0.309814453125,0.0635223388671875
1761379815788095500,1.167095458984375,-0.9147796630859375,-0.29705810546875,0.044769287109375
1761379815798178600,1.177178466796875,-0.9204254150390625,-0.29296875,0.0389251708984375
1761379815808261400,1.187261474609375,-0.9200897216796875,-0.2886962890625,0.0395050048828125
1761379815818344700,1.1973447265625,-0.918365478515625,-0.2833099365234375,0.0401458740234375
1761379815828427500,1.207427490234375,-0.9072265625,-0.2823028564453125,0.0435028076171875
1761379815838510600,1.217510498046875,-0.894805908203125,-0.2848358154296875,0.05584716796875
1761379815848593400,1.227593505859375,-0.8834075927734375,-0.290252685546875,0.0676422119140625
1761379815858676500,1.237676513671875,-0.8703460693359375,-0.29254150390625,0.072509765625
1761379815868759300,1.24775927734375,-0.8529815673828125,-0.292266845703125,0.084320068359375
1761379815878843600,1.25784375,-0.836669921875,-0.301971435546875,0.102569580078125
1761379815888926500,1.267926513671875,-0.8224945068359375,-0.3161773681640625,0.1220550537109375
1761379815899009500,1.278009521484375,-0.8197479248046875,-0.3320159912109375,0.1325836181640625
1761379815909092400,1.28809228515625,-0.8227691650390625,-0.3459625244140625,0.1352081298828125
1761379815919175700,1.29817578125,-0.83074951171875,-0.356414794921875,0.136138916015625
1761379815929258500,1.308258544921875,-0.830718994140625,-0.3630218505859375,0.130096435546875
1761379815939341600,1.318341552734375,-0.8372650146484375,-0.3654327392578125,0.118682861328125
1761379815949424400,1.32842431640625,-0.84552001953125,-0.3717041015625,0.1099395751953125
1761379815959507500,1.338507568359375,-0.8566741943359375,-0.3734893798828125,0.0989990234375
1761379815969590500,1.348590576171875,-0.8704681396484375,-0.3741302490234375,0.089080810546875
1761379815979673600,1.358673583984375,-0.883331298828125,-0.3734130859375,0.0741424560546875
1761379815989756700,1.368756591796875,-0.8895263671875,-0.3699798583984375,0.05828857421875
1761379815999839500,1.378839599609375,-0.8857421875,-0.37261962890625,0.0507049560546875
1761379816009922600,1.388922607421875,-0.8816986083984375,-0.3829803466796875,0.0505218505859375
1761379816020005400,1.39900537109375,-0.8762359619140625,-0.3940582275390625,0.0517120361328125
1761379816030088400,1.40908837890625,-0.8620758056640625,-0.4061126708984375,0.055511474609375
1761379816040171500,1.419171630859375,-0.8541717529296875,-0.4149017333984375,0.05841064453125
1761379816050254600,1.429254638671875,-0.854522705078125,-0.4229583740234375,0.0608978271484375
1761379816060337700,1.439337646484375,-0.8560333251953125,-0.4306182861328125,0.0665740966796875
1761379816070420500,1.44942041015625,-0.8658447265625,-0.4480438232421875,0.073516845703125
1761379816080503600,1.459503662109375,-0.8758544921875,-0.45758056640625,0.0743560791015625
1761379816090586400,1.46958642578125,-0.8840484619140625,-0.4562225341796875,0.067840576171875
1761379816100669700,1.479669677734375,-0.895904541015625,-0.457366943359375,0.059661865234375
1761379816110752500,1.48975244140625,-0.9166717529296875,-0.4609527587890625,0.0516204833984375
1761379816120835600,1.499835693359375,-0.939453125,-0.46319580078125,0.0472869873046875
1761379816130918400,1.50991845703125,-0.9623260498046875,-0.4622955322265625,0.0467071533203125
1761379816141001500,1.52000146484375,-0.9816741943359375,-0.45623779296875,0.0492095947265625
1761379816151084500,1.53008447265625,-0.998199462890625,-0.4535675048828125,0.053741455078125
1761379816161167600,1.540167724609375,-1.0060272216796875,-0.45074462890625,0.0577239990234375
1761379816171250700,1.550250732421875,-1.0093994140625,-0.4530792236328125,0.068023681640625
1761379816181333500,1.56033349609375,-1.011505126953125,-0.458831787109375,0.0803985595703125
1761379816191416600,1.57041650390625,-1.014556884765625,-0.460723876953125,0.0870208740234375
1761379816201499400,1.58049951171875,-1.014434814453125,-0.4654388427734375,0.0990142822265625
1761379816211582500,1.59058251953125,-0.991668701171875,-0.5161895751953125,0.1562652587890625
1761379816221665500,1.60066552734375,-0.997833251953125,-0.563385009765625,0.2147369384765625
1761379816231748600,1.61074853515625,-1.033843994140625,-0.5351715087890625,0.2162322998046875
1761379816241831400,1.62083154296875,-1.100128173828125,-0.5032196044921875,0.1785430908203125
1761379816251914500,1.63091455078125,-1.1767425537109375,-0.487548828125,0.139251708984375
1761379816261997600,1.64099755859375,-1.2080841064453125,-0.4689178466796875,0.084808349609375
1761379816272081700,1.65108154296875,-1.24224853515625,-0.4210968017578125,0.0082244873046875
1761379816282164500,1.66116455078125,-1.235992431640625,-0.3493804931640625,-0.0506591796875
1761379816292247600,1.67124755859375,-1.191253662109375,-0.2861480712890625,-0.084808349609375
1761379816302330400,1.681330322265625,-1.137969970703125,-0.24517822265625,-0.07672119140625
1761379816312413400,1.691413330078125,-1.09686279296875,-0.2317352294921875,-0.0241546630859375
1761379816322496500,1.70149658203125,-1.054473876953125,-0.2313995361328125,0.037353515625
1761379816332579600,1.71157958984375,-0.9906768798828125,-0.2267303466796875,0.0723114013671875
1761379816342662700,1.72166259765625,-0.9265289306640625,-0.2342681884765625,0.0836029052734375
1761379816352744400,1.731744384765625,-0.86846923828125,-0.247467041015625,0.0860137939453125
1761379816362827300,1.7418271484375,-0.8147125244140625,-0.2470703125,0.0882110595703125
1761379816372910300,1.751910400390625,-0.7726287841796875,-0.255157470703125,0.0967254638671875
1761379816382993200,1.7619931640625,-0.7636260986328125,-0.2740325927734375,0.1105804443359375
1761379816393076200,1.772076171875,-0.784088134765625,-0.3007659912109375,0.14007568359375
1761379816403159300,1.7821591796875,-0.815704345703125,-0.330535888671875,0.1724853515625
1761379816413242400,1.792242431640625,-0.85699462890625,-0.3544769287109375,0.193756103515625
1761379816423325200,1.8023251953125,-0.8952178955078125,-0.3582611083984375,0.190185546875
1761379816433408300,1.812408203125,-0.90875244140625,-0.3380889892578125,0.1436767578125
1761379816443491300,1.8224912109375,-0.918487548828125,-0.312835693359375,0.096435546875
1761379816453574100,1.83257421875,-0.9336090087890625,-0.306396484375,0.0731658935546875
1761379816463657500,1.842657470703125,-0.946563720703125,-0.3076171875,0.0595245361328125
1761379816473740300,1.852740234375,-0.9407806396484375,-0.3095703125,0.049560546875
1761379816483823400,1.8628232421875,-0.9203338623046875,-0.3083038330078125,0.049896240234375
1761379816493906200,1.87290625,-0.893890380859375,-0.314910888671875,0.0741119384765625
1761379816503989200,1.8829892578125,-0.8665771484375,-0.3331146240234375,0.1159820556640625
1761379816514072000,1.893072021484375,-0.83319091796875,-0.3486328125,0.15838623046875
1761379816524155400,1.9031552734375,-0.8026275634765625,-0.35491943359375,0.1922607421875
1761379816534238500,1.913238525390625,-0.790008544921875,-0.359649658203125,0.222564697265625
1761379816544321300,1.9233212890625,-0.7952880859375,-0.366729736328125,0.251739501953125
1761379816554404400,1.933404296875,-0.8165130615234375,-0.3697967529296875,0.2769012451171875
1761379816564487200,1.943487060546875,-0.8380279541015625,-0.3655853271484375,0.2911376953125
1761379816574570200,1.9535703125,-0.86041259765625,-0.358856201171875,0.29534912109375
1761379816584653300,1.9636533203125,-0.8797149658203125,-0.3475341796875,0.28887939453125
1761379816594736400,1.973736328125,-0.8977203369140625,-0.3354949951171875,0.279754638671875
1761379816604819200,1.983819091796875,-0.90850830078125,-0.330535888671875,0.271881103515625
1761379816614902300,1.99390234375,-0.9121856689453125,-0.320281982421875,0.2581024169921875
1761379816624985300,2.0039853515625,-0.913909912109375,-0.307647705078125,0.2470855712890625
1761379816635069400,2.0140693359375,-0.9163970947265625,-0.2993927001953125,0.2364654541015625
1761379816645152300,2.02415234375,-0.9229736328125,-0.291046142578125,0.2237091064453125
1761379816655235300,2.0342353515625,-0.93121337890625,-0.2779541015625,0.210113525390625
1761379816665318100,2.044318115234375,-0.941558837890625,-0.266448974609375,0.20062255859375
1761379816675401200,2.054401123046875,-0.945770263671875,-0.2581024169921875,0.189056396484375
1761379816685484300,2.064484375,-0.9414215087890625,-0.248565673828125,0.17523193359375
1761379816695567400,2.0745673828125,-0.9366455078125,-0.2432708740234375,0.166961669921875
1761379816705650400,2.084650390625,-0.938812255859375,-0.24578857421875,0.1699371337890625
1761379816715733200,2.094733154296875,-0.9415740966796875,-0.24609375,0.16754150390625
1761379816725816300,2.10481640625,-0.9414215087890625,-0.246337890625,0.163726806640625
1761379816735899100,2.114899169921875,-0.9495391845703125,-0.2522430419921875,0.1597442626953125
1761379816745982500,2.124982421875,-0.9631805419921875,-0.25732421875,0.1531524658203125
1761379816756065300,2.135065185546875,-0.971435546875,-0.257781982421875,0.13812255859375
1761379816766148400,2.1451484375,-0.970703125,-0.2575531005859375,0.1199798583984375
1761379816776231200,2.155231201171875,-0.9598236083984375,-0.2600860595703125,0.1059722900390625
1761379816786314200,2.165314208984375,-0.94598388671875,-0.2659759521484375,0.095733642578125
1761379816796397300,2.175397216796875,-0.9388427734375,-0.271759033203125,0.0920867919921875
1761379816806480400,2.18548046875,-0.93939208984375,-0.27874755859375,0.091339111328125
1761379816816563500,2.1955634765625,-0.9359588623046875,-0.2860107421875,0.09368896484375
1761379816826646300,2.205646240234375,-0.933380126953125,-0.289825439453125,0.091888427734375
1761379816836729300,2.215729248046875,-0.9300994873046875,-0.2883453369140625,0.0907135009765625
1761379816846812200,2.225812255859375,-0.9253692626953125,-0.29107666015625,0.0929412841796875
1761379816856895200,2.235895263671875,-0.9133148193359375,-0.29583740234375,0.09149169921875
1761379816866978300,2.245978271484375,-0.9015655517578125,-0.297760009765625,0.091400146484375
1761379816877061400,2.256061279296875,-0.8928985595703125,-0.3055572509765625,0.0877227783203125
1761379816887144400,2.26614453125,-0.89117431640625,-0.312957763671875,0.0830841064453125
1761379816897227300,2.276227294921875,-0.893280029296875,-0.319793701171875,0.086456298828125
1761379816907310300,2.286310302734375,-0.8983917236328125,-0.3231964111328125,0.089599609375
1761379816917393200,2.29639306640625,-0.907928466796875,-0.31982421875,0.1006927490234375
1761379816927476500,2.3064765625,-0.913330078125,-0.3130645751953125,0.11553955078125
1761379816937560300,2.316560302734375,-0.913787841796875,-0.3122711181640625,0.1291961669921875
1761379816947643400,2.326643310546875,-0.91741943359375,-0.315399169921875,0.1458892822265625
1761379816957726200,2.336726318359375,-0.9160308837890625,-0.3201446533203125,0.160858154296875
1761379816967809300,2.346809326171875,-0.8837127685546875,-0.3673553466796875,0.217681884765625
1761379816977892400,2.356892333984375,-0.867340087890625,-0.4467620849609375,0.304595947265625
1761379816987975400,2.366975341796875,-0.90753173828125,-0.4729156494140625,0.340362548828125
1761379816998058200,2.377058349609375,-1.0008392333984375,-0.4563446044921875,0.307037353515625
1761379817008141300,2.387141357421875,-1.136505126953125,-0.4293060302734375,0.255126953125
1761379817018224000,2.39722412109375,-1.2541046142578125,-0.383575439453125,0.1876220703125
1761379817028307200,2.40730712890625,-1.360595703125,-0.2975616455078125,0.1027374267578125
1761379817038390300,2.417390380859375,-1.4042205810546875,-0.1936798095703125,0.0230255126953125
1761379817048473300,2.427473388671875,-1.3336944580078125,-0.0973968505859375,-0.0308074951171875
1761379817058556400,2.437556396484375,-1.1910552978515625,-0.0255279541015625,-0.046356201171875
1761379817068639200,2.44763916015625,-1.0704498291015625,-0.01849365234375,-0.0174102783203125
1761379817078722300,2.457722412109375,-1.007598876953125,-0.06951904296875,0.0474700927734375
1761379817088805000,2.46780517578125,-0.9384307861328125,-0.1103668212890625,0.1145172119140625
1761379817098888400,2.477888427734375,-0.8833160400390625,-0.1442413330078125,0.1470489501953125
1761379817108971300,2.48797119140625,-0.884033203125,-0.18511962890625,0.1516571044921875
1761379817119054300,2.498054443359375,-0.8957672119140625,-0.22076416015625,0.1589202880859375
1761379817129137200,2.50813720703125,-0.9205322265625,-0.24945068359375,0.1666412353515625
1761379817139220200,2.51822021484375,-0.9460296630859375,-0.2658843994140625,0.1701507568359375
1761379817149303300,2.52830322265625,-0.95697021484375,-0.278350830078125,0.1737518310546875
1761379817159386400,2.538386474609375,-0.9471893310546875,-0.289459228515625,0.1678619384765625
1761379817169469400,2.548469482421875,-0.954498291015625,-0.299072265625,0.1513214111328125
1761379817179552300,2.55855224609375,-0.9359130859375,-0.3186492919921875,0.1462554931640625
1761379817189635300,2.56863525390625,-0.9038848876953125,-0.327850341796875,0.1505279541015625
1761379817199718100,2.57871826171875,-0.887359619140625,-0.3355560302734375,0.16461181640625
1761379817209801200,2.58880126953125,-0.8783111572265625,-0.3521881103515625,0.186981201171875
1761379817219884300,2.59888427734375,-0.8753509521484375,-0.36761474609375,0.2091827392578125
1761379817229968400,2.608968505859375,-0.87554931640625,-0.3807373046875,0.2310638427734375
1761379817240051200,2.61905126953125,-0.876861572265625,-0.3897552490234375,0.25
1761379817250134300,2.62913427734375,-0.8845977783203125,-0.3985595703125,0.2710113525390625
1761379817260217000,2.639217041015625,-0.9043731689453125,-0.40496826171875,0.2924346923828125
1761379817270300400,2.649300537109375,-0.9240570068359375,-0.4006195068359375,0.3023834228515625
1761379817280383200,2.65938330078125,-0.941436767578125,-0.3910980224609375,0.3002777099609375
1761379817290466300,2.66946630859375,-0.95806884765625,-0.373046875,0.2882232666015625
1761379817300549400,2.67954931640625,-0.98223876953125,-0.3549652099609375,0.2728118896484375
1761379817310632200,2.689632080078125,-1.0152130126953125,-0.338775634765625,0.2588653564453125
1761379817320715300,2.69971533203125,-1.0537872314453125,-0.3287353515625,0.2479095458984375
1761379817330798300,2.70979833984375,-1.085906982421875,-0.319183349609375,0.22894287109375
1761379817340881400,2.71988134765625,-1.0999298095703125,-0.3043975830078125,0.202606201171875
1761379817350964500,2.729964599609375,-1.0989837646484375,-0.295745849609375,0.1785888671875
1761379817361047800,2.7400478515625,-1.0867767333984375,-0.2933807373046875,0.15631103515625
1761379817371130600,2.750130615234375,-1.0642242431640625,-0.295379638671875,0.134307861328125
1761379817381213700,2.760213623046875,-1.0265655517578125,-0.3016510009765625,0.111541748046875
1761379817391296500,2.770296630859375,-0.9827880859375,-0.3091888427734375,0.08880615234375
1761379817401379600,2.780379638671875,-0.9435272216796875,-0.31732177734375,0.066802978515625
1761379817411462700,2.790462646484375,-0.90557861328125,-0.3285369873046875,0.0583648681640625
1761379817421545700,2.800545654296875,-0.875,-0.351715087890625,0.0591888427734375
1761379817431628800,2.81062890625,-0.8585662841796875,-0.3742218017578125,0.063720703125
1761379817441711600,2.820711669921875,-0.8515472412109375,-0.3925323486328125,0.0682220458984375
1761379817451794700,2.830794677734375,-0.8444366455078125,-0.4040069580078125,0.06365966796875
1761379817461877500,2.84087744140625,-0.840423583984375,-0.4143829345703125,0.0554656982421875
1761379817471960600,2.850960693359375,-0.8297882080078125,-0.4298248291015625,0.055267333984375
1761379817482043600,2.861043701171875,-0.819549560546875,-0.447784423828125,0.0577392578125
1761379817492126700,2.871126708984375,-0.8255157470703125,-0.463043212890625,0.0624542236328125
1761379817502209500,2.88120947265625,-0.826934814453125,-0.46832275390625,0.06500244140625
1761379817512292600,2.891292724609375,-0.8016204833984375,-0.473419189453125,0.0702056884765625
1761379817522376400,2.90137646484375,-0.8054962158203125,-0.47637939453125,0.07867431640625
1761379817532459800,2.911459716796875,-0.8106842041015625,-0.4874114990234375,0.0877532958984375
1761379817542542600,2.92154248046875,-0.80718994140625,-0.498626708984375,0.093109130859375
1761379817552625700,2.931625732421875,-0.836883544921875,-0.500640869140625,0.096954345703125
1761379817562708700,2.941708740234375,-0.8709259033203125,-0.5062103271484375,0.106903076171875
1761379817572791600,2.95179150390625,-0.88336181640625,-0.5255279541015625,0.12176513671875
1761379817582874600,2.96187451171875,-0.9002838134765625,-0.5393829345703125,0.1267852783203125
1761379817592957700,2.971957763671875,-0.910614013671875,-0.5614013671875,0.13525390625
1761379817603040800,2.982040771484375,-0.9397125244140625,-0.5842437744140625,0.124908447265625
1761379817613123600,2.99212353515625,-0.9487457275390625,-0.59893798828125,0.097808837890625
1761379817623206700,3.00220654296875,-0.94989013671875,-0.5898895263671875,0.056884765625
1761379817633289500,3.01228955078125,-0.958648681640625,-0.569183349609375,0.01873779296875
1761379817643372500,3.02237255859375,-0.9516143798828125,-0.546478271484375,-0.01300048828125
1761379817653455600,3.03245556640625,-0.938720703125,-0.522979736328125,-0.02655029296875
1761379817663538700,3.04253857421875,-0.910186767578125,-0.49169921875,-0.0279541015625
1761379817673621800,3.052621826171875,-0.876220703125,-0.4723052978515625,-0.02294921875
1761379817683704600,3.06270458984375,-0.857635498046875,-0.4697265625,-0.013458251953125
1761379817693787600,3.07278759765625,-0.863800048828125,-0.472869873046875,-0.001861572265625
1761379817703870500,3.082870361328125,-0.8877716064453125,-0.4781036376953125,0.0006866455078125
1761379817713953800,3.092953857421875,-0.9218902587890625,-0.4731903076171875,-0.0067596435546875
1761379817724036600,3.10303662109375,-0.9415130615234375,-0.45654296875,-0.0196075439453125
1761379817734119700,3.11311962890625,-0.952423095703125,-0.436370849609375,-0.0296783447265625
1761379817744202500,3.123202392578125,-0.9526214599609375,-0.4246368408203125,-0.0371856689453125
1761379817754285600,3.13328564453125,-0.9516448974609375,-0.421112060546875,-0.0428009033203125
1761379817764368600,3.14336865234375,-0.9509429931640625,-0.418121337890625,-0.053436279296875
1761379817774451700,3.15345166015625,-0.9388427734375,-0.413818359375,-0.06683349609375
1761379817784534800,3.16353466796875,-0.9212493896484375,-0.4059600830078125,-0.0800323486328125
1761379817794618600,3.17361865234375,-0.907073974609375,-0.3985748291015625,-0.082122802734375
1761379817804701400,3.183701416015625,-0.8906097412109375,-0.3947906494140625,-0.07513427734375
1761379817814784500,3.193784423828125,-0.8799285888671875,-0.387420654296875,-0.0636138916015625
1761379817824867800,3.203867919921875,-0.880950927734375,-0.3805999755859375,-0.0483856201171875
1761379817834950700,3.21395068359375,-0.8882598876953125,-0.3730010986328125,-0.0333251953125
1761379817845033700,3.22403369140625,-0.907135009765625,-0.36474609375,-0.021514892578125
1761379817855116500,3.234116455078125,-0.9302215576171875,-0.3567047119140625,-0.0111541748046875
1761379817865199600,3.24419970703125,-0.94403076171875,-0.3517913818359375,-0.0006866455078125
1761379817875282400,3.254282470703125,-0.9533843994140625,-0.3561859130859375,0.012908935546875
1761379817885365800,3.26436572265625,-0.9534759521484375,-0.363494873046875,0.01580810546875
1761379817895448600,3.274448486328125,-0.9451141357421875,-0.37103271484375,0.0054168701171875
1761379817905531600,3.28453173828125,-0.9342041015625,-0.3829193115234375,-0.010498046875
1761379817915614700,3.29461474609375,-0.9169769287109375,-0.3902130126953125,-0.0225067138671875
1761379817925697500,3.304697509765625,-0.8956756591796875,-0.395843505859375,-0.02996826171875
1761379817935780600,3.314780517578125,-0.8729400634765625,-0.4036712646484375,-0.03009033203125
1761379817945863700,3.32486376953125,-0.8527374267578125,-0.40960693359375,-0.0216827392578125
1761379817955946800,3.33494677734375,-0.831329345703125,-0.414764404296875,-0.008941650390625
1761379817966029600,3.345029541015625,-0.8163604736328125,-0.4247283935546875,0.0082244873046875
1761379817976112600,3.355112548828125,-0.801666259765625,-0.434844970703125,0.0228729248046875
1761379817986195500,3.365195556640625,-0.785430908203125,-0.4456024169921875,0.0340728759765625
1761379817996278500,3.375278564453125,-0.7783203125,-0.4528045654296875,0.0404052734375
1761379818006361600,3.385361572265625,-0.774200439453125,-0.4555206298828125,0.0452117919921875
1761379818016444700,3.395444580078125,-0.774688720703125,-0.4598846435546875,0.052734375
1761379818026527700,3.40552783203125,-0.784027099609375,-0.467254638671875,0.060302734375
1761379818036610600,3.415610595703125,-0.799652099609375,-0.4716644287109375,0.0594329833984375
1761379818046693600,3.425693603515625,-0.82562255859375,-0.467559814453125,0.05023193359375
1761379818056777700,3.43577783203125,-0.8333587646484375,-0.463714599609375,0.041900634765625
1761379818066860800,3.44586083984375,-0.8238983154296875,-0.454986572265625,0.0390625
1761379818076943600,3.455943603515625,-0.810699462890625,-0.4486541748046875,0.0447845458984375
1761379818087026700,3.466026611328125,-0.796478271484375,-0.450286865234375,0.0540313720703125
1761379818097109500,3.476109619140625,-0.7806396484375,-0.4519805908203125,0.06512451171875
1761379818107192600,3.486192626953125,-0.7683563232421875,-0.4550933837890625,0.0764923095703125
1761379818117275600,3.496275634765625,-0.750946044921875,-0.462554931640625,0.0872039794921875
1761379818127358700,3.506358642578125,-0.7381744384765625,-0.476715087890625,0.0988311767578125
1761379818137441500,3.516441650390625,-0.7394256591796875,-0.4951629638671875,0.105560302734375
1761379818147524600,3.526524658203125,-0.7436676025390625,-0.512176513671875,0.1077728271484375
1761379818157607700,3.536607666015625,-0.7477264404296875,-0.521636962890625,0.1052703857421875
1761379818167690500,3.5466904296875,-0.7565155029296875,-0.52557373046875,0.098297119140625
1761379818177773800,3.55677392578125,-0.7696990966796875,-0.53338623046875,0.0973968505859375
1761379818187856600,3.566856689453125,-0.7870941162109375,-0.532684326171875,0.0934600830078125
1761379818197939700,3.576939697265625,-0.8086090087890625,-0.526824951171875,0.0919342041015625
1761379818208022500,3.5870224609375,-0.8316650390625,-0.527740478515625,0.095001220703125
1761379818218105600,3.597105712890625,-0.847442626953125,-0.5290069580078125,0.09844970703125
1761379818228188400,3.6071884765625,-0.8640289306640625,-0.5357818603515625,0.10675048828125
1761379818238271700,3.617271728515625,-0.888458251953125,-0.5497283935546875,0.1196441650390625
1761379818248354600,3.6273544921875,-0.91351318359375,-0.56622314453125,0.132720947265625
1761379818258437600,3.637437744140625,-0.9492340087890625,-0.5874481201171875,0.1447906494140625
1761379818268520700,3.647520751953125,-1.000091552734375,-0.6066131591796875,0.15838623046875
1761379818278603500,3.657603515625,-1.0512542724609375,-0.61669921875,0.1736297607421875
1761379818288686600,3.6676865234375,-1.1085205078125,-0.620452880859375,0.1921234130859375
1761379818298769700,3.677769775390625,-1.1271209716796875,-0.6233978271484375,0.1999664306640625
1761379818308852700,3.687852783203125,-1.139801025390625,-0.6172637939453125,0.214447021484375
1761379818318935600,3.697935546875,-1.1291046142578125,-0.64398193359375,0.2452239990234375
1761379818329019600,3.70801953125,-1.124664306640625,-0.671051025390625,0.2755584716796875
1761379818339102700,3.718102783203125,-1.12982177734375,-0.691192626953125,0.296142578125
1761379818349185000,3.72818505859375,-1.140777587890625,-0.69873046875,0.286346435546875
1761379818359267800,3.738267822265625,-1.1779937744140625,-0.6927032470703125,0.2565460205078125
1761379818369351000,3.748350830078125,-1.218353271484375,-0.6701202392578125,0.2269439697265625
1761379818379434000,3.75843408203125,-1.26641845703125,-0.608306884765625,0.180084228515625
1761379818389516800,3.768516845703125,-1.2755889892578125,-0.532196044921875,0.1408233642578125
1761379818399600000,3.77860009765625,-1.248382568359375,-0.4583587646484375,0.11968994140625
1761379818409683000,3.788682861328125,-1.17877197265625,-0.3981170654296875,0.1141510009765625
1761379818419766000,3.79876611328125,-1.1060943603515625,-0.3535919189453125,0.1265411376953125
1761379818429848800,3.808848876953125,-1.0306854248046875,-0.3300018310546875,0.1416015625
1761379818439932000,3.818931884765625,-0.9546661376953125,-0.317230224609375,0.1437835693359375
1761379818450014700,3.8290146484375,-0.890777587890625,-0.3130035400390625,0.1370086669921875
1761379818460098000,3.83909814453125,-0.8487396240234375,-0.31280517578125,0.126495361328125
1761379818470180900,3.849180908203125,-0.8398284912109375,-0.3092193603515625,0.1329498291015625
1761379818480264000,3.859263916015625,-0.8165283203125,-0.303192138671875,0.1404571533203125
1761379818490347000,3.869346923828125,-0.78857421875,-0.295013427734375,0.13671875
1761379818500429800,3.879429931640625,-0.7678680419921875,-0.287261962890625,0.1279144287109375
1761379818510513000,3.889512939453125,-0.76611328125,-0.29315185546875,0.113922119140625
1761379818520596000,3.899595947265625,-0.7590179443359375,-0.3028106689453125,0.10101318359375
1761379818530679000,3.909678955078125,-0.75274658203125,-0.304779052734375,0.084716796875
1761379818540761900,3.919761962890625,-0.744964599609375,-0.3036041259765625,0.07177734375
1761379818550845000,3.929844970703125,-0.7407989501953125,-0.3042144775390625,0.06878662109375
1761379818560927700,3.939927734375,-0.7362213134765625,-0.3007049560546875,0.07354736328125
1761379818571010800,3.9500107421875,-0.723785400390625,-0.2997894287109375,0.0846099853515625
1761379818581095000,3.960094970703125,-0.7060089111328125,-0.305816650390625,0.099395751953125
1761379818591178000,3.970177978515625,-0.68902587890625,-0.317138671875,0.1138763427734375
1761379818601260800,3.9802607421875,-0.674163818359375,-0.33343505859375,0.122100830078125
1761379818611344000,3.99034375,-0.663482666015625,-0.344451904296875,0.1290740966796875
1761379818621427000,4.000427001953125,-0.6616058349609375,-0.353759765625,0.1406707763671875
1761379818631510000,4.010510009765625,-0.659332275390625,-0.36767578125,0.1563720703125
1761379818641593000,4.020593017578125,-0.6546173095703125,-0.3831024169921875,0.1710205078125
1761379818651676000,4.030676025390625,-0.6536102294921875,-0.3943328857421875,0.19024658203125
1761379818661759000,4.040759033203125,-0.663116455078125,-0.409942626953125,0.2038116455078125
1761379818671841800,4.050841796875,-0.6745452880859375,-0.4268341064453125,0.2126312255859375
1761379818681924900,4.0609248046875,-0.6846923828125,-0.4322967529296875,0.2101593017578125
1761379818692008000,4.071008056640625,-0.6935882568359375,-0.42919921875,0.204376220703125
1761379818702091000,4.081091064453125,-0.7151031494140625,-0.428680419921875,0.1955718994140625
1761379818712173800,4.091173828125,-0.7285308837890625,-0.4312896728515625,0.1829833984375
1761379818722257000,4.1012568359375,-0.732025146484375,-0.42083740234375,0.1658935546875
1761379818732340000,4.111340087890625,-0.7321319580078125,-0.413330078125,0.1488037109375
1761379818742422800,4.1214228515625,-0.7485198974609375,-0.4182891845703125,0.1309967041015625
1761379818752506000,4.131506103515625,-0.766265869140625,-0.4290313720703125,0.111724853515625
1761379818762589000,4.1415888671875,-0.7782745361328125,-0.4369049072265625,0.0888519287109375
1761379818772672000,4.151672119140625,-0.79852294921875,-0.4443206787109375,0.067169189453125
1761379818782754800,4.1617548828125,-0.8173828125,-0.45941162109375,0.0517120361328125
1761379818792838000,4.171837890625,-0.8363189697265625,-0.480499267578125,0.0420989990234375
1761379818802920700,4.181920654296875,-0.8566741943359375,-0.4959564208984375,0.0366363525390625
1761379818813004000,4.192004150390625,-0.87628173828125,-0.508544921875,0.0320281982421875
1761379818823087000,4.202087158203125,-0.9041900634765625,-0.5246734619140625,0.030364990234375
1761379818833170000,4.212169921875,-0.94091796875,-0.538421630859375,0.0281219482421875
1761379818843253800,4.222253662109375,-0.9642791748046875,-0.548614501953125,0.021453857421875
1761379818853336800,4.2323369140625,-0.990814208984375,-0.555023193359375,0.0207061767578125
1761379818863420000,4.242419921875,-1.02166748046875,-0.5588226318359375,0.01934814453125
1761379818873503000,4.2525029296875,-1.046234130859375,-0.5565643310546875,0.018096923828125
1761379818883586000,4.2625859375,-1.072265625,-0.5560455322265625,0.017547607421875
1761379818893668900,4.2726689453125,-1.0897369384765625,-0.5494842529296875,0.0156097412109375
1761379818903752000,4.282751953125,-1.0911407470703125,-0.539825439453125,0.0128631591796875
1761379818913834800,4.292834716796875,-1.0863494873046875,-0.5335693359375,0.0165252685546875
1761379818923918000,4.30291796875,-1.066314697265625,-0.549407958984375,0.0428466796875
1761379818934001000,4.3130009765625,-1.04241943359375,-0.589599609375,0.087005615234375
1761379818944084000,4.323083984375,-1.0491943359375,-0.605438232421875,0.1163787841796875
1761379818954166800,4.333166748046875,-1.038116455078125,-0.6257171630859375,0.1251678466796875
1761379818964249900,4.343249755859375,-1.057830810546875,-0.621185302734375,0.1062164306640625
1761379818974333000,4.3533330078125,-1.0986328125,-0.5960693359375,0.078704833984375
1761379818984416000,4.363416015625,-1.1392822265625,-0.5545196533203125,0.0409393310546875
1761379818994499000,4.3734990234375,-1.1667938232421875,-0.48724365234375,0.00616455078125
1761379819004582000,4.383581787109375,-1.18206787109375,-0.42059326171875,-0.0043182373046875
1761379819014665000,4.3936650390625,-1.15838623046875,-0.3738250732421875,0.0041656494140625
1761379819024747800,4.403747802734375,-1.120147705078125,-0.3307647705078125,0.011016845703125
1761379819034830800,4.413830810546875,-1.075653076171875,-0.310516357421875,0.01263427734375
1761379819044914000,4.423913818359375,-1.045928955078125,-0.2930755615234375,0.019439697265625
1761379819054997000,4.4339970703125,-1.032684326171875,-0.2723541259765625,0.0274810791015625
1761379819065079800,4.444079833984375,-1.0089111328125,-0.261749267578125,0.0159149169921875
1761379819075163000,4.454162841796875,-0.964263916015625,-0.2501983642578125,-0.0075836181640625
1761379819085246000,4.464245849609375,-0.9098052978515625,-0.23974609375,-0.030792236328125
1761379819095328800,4.474328857421875,-0.8716583251953125,-0.248992919921875,-0.04571533203125
1761379819105412900,4.484412841796875,-0.863922119140625,-0.2694244384765625,-0.056396484375
1761379819115496000,4.494495849609375,-0.8527374267578125,-0.2902984619140625,-0.067169189453125
1761379819125579000,4.5045791015625,-0.824615478515625,-0.3103179931640625,-0.0810546875
1761379819135661800,4.514661865234375,-0.7980194091796875,-0.3271484375,-0.0903778076171875
1761379819145745200,4.5247451171875,-0.7704315185546875,-0.3451385498046875,-0.09234619140625
1761379819155828000,4.534827880859375,-0.746917724609375,-0.3604888916015625,-0.0908355712890625
1761379819165911000,4.5449111328125,-0.732269287109375,-0.3667449951171875,-0.083251953125
1761379819175993900,4.554993896484375,-0.7295684814453125,-0.369384765625,-0.0695037841796875
1761379819186077000,4.565076904296875,-0.73394775390625,-0.3679962158203125,-0.052093505859375
1761379819196159700,4.57515966796875,-0.7460174560546875,-0.35650634765625,-0.034637451171875
1761379819206243000,4.5852431640625,-0.7510528564453125,-0.3452911376953125,-0.009552001953125
1761379819216326000,4.595325927734375,-0.756256103515625,-0.343475341796875,0.024658203125
1761379819226409000,4.605408935546875,-0.755401611328125,-0.3470611572265625,0.06024169921875
1761379819236492000,4.615491943359375,-0.7545623779296875,-0.35223388671875,0.095703125
1761379819246574800,4.625574951171875,-0.753997802734375,-0.3618316650390625,0.1250762939453125
1761379819256658000,4.635657958984375,-0.7619781494140625,-0.3755340576171875,0.14569091796875
1761379819266741000,4.645740966796875,-0.7706756591796875,-0.3830413818359375,0.1553497314453125
1761379819276824000,4.655823974609375,-0.7729644775390625,-0.3867034912109375,0.157928466796875
1761379819286907000,4.665906982421875,-0.7719573974609375,-0.3933868408203125,0.1604156494140625
1761379819296990000,4.675989990234375,-0.77667236328125,-0.40081787109375,0.1613616943359375
1761379819307072800,4.68607275390625,-0.7843170166015625,-0.4083404541015625,0.1621551513671875
1761379819317155800,4.69615576171875,-0.7891082763671875,-0.419158935546875,0.1620330810546875
1761379819327239000,4.706239013671875,-0.790679931640625,-0.429290771484375,0.1626434326171875
1761379819337322000,4.716322021484375,-0.7914886474609375,-0.4383087158203125,0.163482666015625
1761379819347405000,4.726405029296875,-0.7913055419921875,-0.4474334716796875,0.163055419921875
1761379819357489000,4.736489013671875,-0.79376220703125,-0.45758056640625,0.1602020263671875
1761379819367571700,4.74657177734375,-0.7991180419921875,-0.46270751953125,0.153594970703125
1761379819377655000,4.756655029296875,-0.8082122802734375,-0.4658660888671875,0.1451263427734375
1761379819387738000,4.766738037109375,-0.823211669921875,-0.4675140380859375,0.138916015625
1761379819397821000,4.776821044921875,-0.843231201171875,-0.463531494140625,0.13189697265625
1761379819407904000,4.786904052734375,-0.8612060546875,-0.4578094482421875,0.12603759765625
1761379819417986800,4.79698681640625,-0.8758392333984375,-0.4533538818359375,0.121917724609375
1761379819428070000,4.80706982421875,-0.877532958984375,-0.4501800537109375,0.1202545166015625
1761379819438153000,4.817153076171875,-0.8760833740234375,-0.4526824951171875,0.1278533935546875
1761379819448236000,4.827236083984375,-0.870269775390625,-0.468902587890625,0.143096923828125
1761379819458318800,4.83731884765625,-0.858917236328125,-0.4880523681640625,0.1565399169921875
1761379819468402000,4.84740185546875,-0.84649658203125,-0.5062103271484375,0.1646881103515625
1761379819478485000,4.857485107421875,-0.8397064208984375,-0.5259246826171875,0.1709747314453125
1761379819488567800,4.86756787109375,-0.848876953125,-0.5425262451171875,0.1752777099609375
1761379819498651100,4.877651123046875,-0.8633575439453125,-0.5542755126953125,0.181640625
1761379819508734000,4.88773388671875,-0.887054443359375,-0.5609130859375,0.1826324462890625
1761379819518817000,4.897817138671875,-0.9105987548828125,-0.5614166259765625,0.1771697998046875
1761379819528899800,4.90789990234375,-0.947967529296875,-0.5595703125,0.174896240234375
1761379819538983000,4.91798291015625,-0.9834442138671875,-0.5599822998046875,0.1690216064453125
1761379819549065700,4.928065673828125,-1.004119873046875,-0.554779052734375,0.161590576171875
1761379819559149000,4.938149169921875,-1.0190277099609375,-0.5476837158203125,0.1556854248046875
1761379819569232000,4.94823193359375,-1.017822265625,-0.5445556640625,0.1591796875
1761379819579315000,4.95831494140625,-1.0007781982421875,-0.5676727294921875,0.1907958984375
1761379819589398000,4.96839794921875,-0.9847564697265625,-0.6096649169921875,0.2409820556640625
1761379819599480800,4.978480712890625,-0.9906158447265625,-0.6182708740234375,0.28546142578125
1761379819609564000,4.98856396484375,-0.996307373046875,-0.6110687255859375,0.2927093505859375
1761379819619648000,4.99864794921875,-1.0204315185546875,-0.57781982421875,0.2602996826171875
1761379819629730800,5.008730712890625,-1.0670623779296875,-0.5464935302734375,0.21356201171875
1761379819639814000,5.01881396484375,-1.12994384765625,-0.5132293701171875,0.16033935546875
1761379819649897000,5.02889697265625,-1.1714935302734375,-0.4703216552734375,0.1195068359375
1761379819659979800,5.038979736328125,-1.17938232421875,-0.4210662841796875,0.1059112548828125
1761379819670063000,5.04906298828125,-1.1555023193359375,-0.3768310546875,0.093963623046875
1761379819680146000,5.05914599609375,-1.10235595703125,-0.3284912109375,0.0854339599609375
1761379819690229000,5.06922900390625,-1.0514373779296875,-0.2744903564453125,0.0732574462890625
1761379819700311800,5.079311767578125,-1.0136871337890625,-0.244171142578125,0.056732177734375
1761379819710395000,5.089394775390625,-0.9788360595703125,-0.2329254150390625,0.0556640625
1761379819720477700,5.099477783203125,-0.95355224609375,-0.2316131591796875,0.056854248046875
1761379819730561000,5.10956103515625,-0.9056243896484375,-0.230438232421875,0.056976318359375
1761379819740644000,5.11964404296875,-0.8572540283203125,-0.2206573486328125,0.058013916015625
1761379819750727000,5.129726806640625,-0.8079681396484375,-0.225067138671875,0.0724639892578125
1761379819760810000,5.13981005859375,-0.772674560546875,-0.2472686767578125,0.0959014892578125
1761379819770892800,5.149892822265625,-0.7606658935546875,-0.2763671875,0.1132354736328125
1761379819780975900,5.159975830078125,-0.7556610107421875,-0.2979736328125,0.1231689453125
1761379819791059000,5.170058837890625,-0.7704925537109375,-0.3131866455078125,0.11865234375
1761379819801142000,5.18014208984375,-0.799774169921875,-0.3248291015625,0.1061248779296875
1761379819811224800,5.190224853515625,-0.828277587890625,-0.3260345458984375,0.0823211669921875
1761379819821308000,5.200307861328125,-0.8506927490234375,-0.31756591796875,0.04522705078125
1761379819831391000,5.210390869140625,-0.8695220947265625,-0.305206298828125,0.0165557861328125
1761379819841473800,5.220473876953125,-0.889373779296875,-0.3034515380859375,0.006256103515625
1761379819851557000,5.23055712890625,-0.8989410400390625,-0.3015899658203125,-0.0033721923828125
1761379819861640000,5.240639892578125,-0.89166259765625,-0.296783447265625,-0.013641357421875
1761379819871723000,5.250722900390625,-0.885467529296875,-0.2967376708984375,-0.0145416259765625
1761379819881805800,5.260805908203125,-0.86431884765625,-0.30145263671875,-0.00469970703125
1761379819891889000,5.270888916015625,-0.829864501953125,-0.3047027587890625,0.01312255859375
1761379819901971700,5.2809716796875,-0.8170166015625,-0.313690185546875,0.047027587890625
1761379819912056000,5.29105615234375,-0.8217315673828125,-0.33294677734375,0.0869140625
1761379819922139000,5.301138916015625,-0.8191680908203125,-0.346160888671875,0.1092071533203125
1761379819932222000,5.311221923828125,-0.82135009765625,-0.3507080078125,0.113555908203125
1761379819942304800,5.3213046875,-0.829437255859375,-0.3542022705078125,0.110015869140625
1761379819952387800,5.331387939453125,-0.85186767578125,-0.3588409423828125,0.107330322265625
1761379819962471000,5.341470947265625,-0.87884521484375,-0.3565521240234375,0.09735107421875
1761379819972554000,5.351553955078125,-0.89410400390625,-0.35260009765625,0.084503173828125
1761379819982637000,5.361636962890625,-0.9091644287109375,-0.3535003662109375,0.07958984375
1761379819992720000,5.371719970703125,-0.9047088623046875,-0.3607330322265625,0.0650177001953125
1761379820002803000,5.381802978515625,-0.8963470458984375,-0.3643798828125,0.0507354736328125
1761379820012885800,5.3918857421875,-0.9180450439453125,-0.37188720703125,0.059356689453125
1761379820022969000,5.401968994140625,-0.935638427734375,-0.3740234375,0.0654449462890625
1761379820033052000,5.412052001953125,-0.9394378662109375,-0.36370849609375,0.057586669921875
1761379820043135000,5.422135009765625,-0.9295654296875,-0.3731689453125,0.052276611328125
1761379820053217800,5.4322177734375,-0.9147186279296875,-0.3898468017578125,0.043304443359375
1761379820063300900,5.44230078125,-0.9040069580078125,-0.4109344482421875,0.0411529541015625
1761379820073384000,5.452384033203125,-0.9055633544921875,-0.417999267578125,0.0468597412109375
1761379820083467000,5.462467041015625,-0.9106903076171875,-0.4285736083984375,0.05584716796875
1761379820093550000,5.472550048828125,-0.9246978759765625,-0.446533203125,0.0562744140625
1761379820103633000,5.4826328125,-0.9352264404296875,-0.4539031982421875,0.0525054931640625
1761379820113716000,5.492716064453125,-0.936370849609375,-0.4556427001953125,0.0426177978515625
1761379820123798800,5.502798828125,-0.950469970703125,-0.4580078125,0.0360260009765625
1761379820133881900,5.5128818359375,-0.9567718505859375,-0.4561309814453125,0.03173828125
1761379820143965000,5.52296484375,-0.9714813232421875,-0.4517669677734375,0.032257080078125
1761379820154048000,5.533048095703125,-0.994537353515625,-0.4442138671875,0.0386962890625
1761379820164130800,5.543130859375,-1.0079345703125,-0.428680419921875,0.0325164794921875
1761379820174214000,5.5532138671875,-1.0163421630859375,-0.411285400390625,0.025238037109375
1761379820184297000,5.563296875,-1.022247314453125,-0.400634765625,0.0202484130859375
1761379820194379800,5.5733798828125,-1.02691650390625,-0.390289306640625,0.0294952392578125
1761379820204463900,5.5834638671875,-1.028472900390625,-0.3936004638671875,0.0384368896484375
1761379820214547000,5.593546875,-1.012176513671875,-0.404205322265625,0.049407958984375
1761379820224629800,5.603629638671875,-0.9919281005859375,-0.433441162109375,0.0799102783203125
1761379820234712800,5.613712890625,-0.9394683837890625,-0.5040740966796875,0.13336181640625
1761379820244796200,5.623796142578125,-0.938323974609375,-0.537200927734375,0.166717529296875
1761379820254879000,5.63387890625,-0.92645263671875,-0.54119873046875,0.1584014892578125
1761379820264962000,5.643962158203125,-0.9595794677734375,-0.5149993896484375,0.115264892578125
1761379820275044900,5.654044921875,-1.0204620361328125,-0.475128173828125,0.069061279296875
1761379820285128000,5.6641279296875,-1.080322265625,-0.4287109375,0.024505615234375
1761379820295210800,5.674210693359375,-1.1218414306640625,-0.3706207275390625,-0.0063323974609375
1761379820305294000,5.684294189453125,-1.137603759765625,-0.2980499267578125,-0.031494140625
1761379820315377000,5.694376953125,-1.0925750732421875,-0.2480316162109375,-0.051177978515625
1761379820325460000,5.7044599609375,-1.0167083740234375,-0.236846923828125,-0.041290283203125
1761379820335543000,5.71454296875,-0.95574951171875,-0.2475433349609375,0.0015411376953125
1761379820345625900,5.7246259765625,-0.920806884765625,-0.252410888671875,0.0612945556640625
1761379820355709200,5.734709228515625,-0.89990234375,-0.249542236328125,0.0900421142578125
1761379820365792000,5.7447919921875,-0.88238525390625,-0.247161865234375,0.090118408203125
1761379820375875300,5.754875244140625,-0.8611297607421875,-0.2587127685546875,0.0772857666015625
1761379820385958100,5.764958251953125,-0.8542022705078125,-0.2748870849609375,0.057861328125
1761379820396041200,5.775041259765625,-0.84832763671875,-0.2747650146484375,0.0330963134765625
1761379820406124000,5.7851240234375,-0.85113525390625,-0.257293701171875,0.00946044921875
1761379820416207000,5.79520703125,-0.8663177490234375,-0.2454071044921875,0.0021209716796875
1761379820426290000,5.8052900390625,-0.878448486328125,-0.2466278076171875,0.00482177734375
1761379820436373200,5.815373291015625,-0.890350341796875,-0.2507476806640625,0.00750732421875
1761379820446456300,5.825456298828125,-0.8933563232421875,-0.25238037109375,-0.000091552734375
1761379820456539100,5.8355390625,-0.8861236572265625,-0.261260986328125,-0.0053253173828125
1761379820466622200,5.845622314453125,-0.8919677734375,-0.2609710693359375,0.0000152587890625
1761379820476705000,5.855705078125,-0.8961181640625,-0.2605743408203125,0.01513671875
1761379820486788000,5.8657880859375,-0.90679931640625,-0.265838623046875,0.03546142578125
1761379820496871200,5.87587109375,-0.9025115966796875,-0.271148681640625,0.0543060302734375
1761379820506954200,5.885954345703125,-0.881195068359375,-0.276885986328125,0.072265625
1761379820517037000,5.896037109375,-0.8537445068359375,-0.2889556884765625,0.088226318359375
1761379820527121200,5.90612109375,-0.8252105712890625,-0.3063201904296875,0.1065826416015625
1761379820537204000,5.916203857421875,-0.8191375732421875,-0.3211517333984375,0.128509521484375
1761379820547287300,5.926287353515625,-0.8262939453125,-0.3335113525390625,0.1463775634765625
1761379820557370000,5.9363701171875,-0.8274993896484375,-0.3396148681640625,0.154388427734375
1761379820567453200,5.946453125,-0.823272705078125,-0.3381500244140625,0.1540069580078125
1761379820577536000,5.956535888671875,-0.831695556640625,-0.341552734375,0.15576171875
1761379820587619000,5.966619140625,-0.8438262939453125,-0.347747802734375,0.1563262939453125
1761379820597702100,5.9767021484375,-0.85833740234375,-0.34893798828125,0.15875244140625
1761379820607785200,5.98678515625,-0.8676910400390625,-0.349517822265625,0.1573944091796875
1761379820617868300,5.996868408203125,-0.884368896484375,-0.35009765625,0.156829833984375
1761379820627951000,6.006951171875,-0.8936767578125,-0.345977783203125,0.1555328369140625
1761379820638034200,6.0170341796875,-0.8963165283203125,-0.346588134765625,0.156890869140625
1761379820648117000,6.027116943359375,-0.896331787109375,-0.359832763671875,0.1600799560546875
1761379820658200000,6.037199951171875,-0.89581298828125,-0.36553955078125,0.1552734375
1761379820668283100,6.047283203125,-0.9011688232421875,-0.367767333984375,0.1513214111328125
1761379820678366200,6.0573662109375,-0.912933349609375,-0.3758392333984375,0.1494293212890625
1761379820688449000,6.067448974609375,-0.9251708984375,-0.375640869140625,0.149444580078125
1761379820698532000,6.077531982421875,-0.9315032958984375,-0.372894287109375,0.149871826171875
1761379820708615200,6.087615234375,-0.9281005859375,-0.3704986572265625,0.147491455078125
1761379820718698000,6.097697998046875,-0.9224853515625,-0.37103271484375,0.1445159912109375
1761379820728781300,6.10778125,-0.9205474853515625,-0.376312255859375,0.1413116455078125
1761379820738864000,6.117864013671875,-0.9268646240234375,-0.380126953125,0.1392822265625
1761379820748947200,6.127947265625,-0.92962646484375,-0.3851165771484375,0.135162353515625
1761379820759030000,6.138030029296875,-0.9266815185546875,-0.38714599609375,0.1308441162109375
1761379820769113000,6.148113037109375,-0.923126220703125,-0.392578125,0.138946533203125
1761379820779196000,6.15819580078125,-0.9187164306640625,-0.4020538330078125,0.1470489501953125
1761379820789279200,6.168279296875,-0.90484619140625,-0.4078216552734375,0.145263671875
1761379820799362300,6.1783623046875,-0.9060211181640625,-0.420654296875,0.1502685546875
1761379820809445000,6.188445068359375,-0.9125213623046875,-0.4306182861328125,0.1461639404296875
1761379820819528200,6.198528076171875,-0.9217376708984375,-0.4254150390625,0.138427734375
1761379820829611000,6.208611083984375,-0.9477691650390625,-0.4159088134765625,0.13470458984375
1761379820839694000,6.218694091796875,-0.96478271484375,-0.404754638671875,0.131103515625
1761379820849777200,6.228777099609375,-0.984344482421875,-0.3984832763671875,0.1344757080078125
1761379820859860200,6.238860107421875,-0.98681640625,-0.393951416015625,0.13092041015625
1761379820869943000,6.248943115234375,-0.9768524169921875,-0.3899383544921875,0.1290283203125
1761379820880026000,6.259026123046875,-0.9723663330078125,-0.4065093994140625,0.15289306640625
1761379820890110000,6.26910986328125,-0.943328857421875,-0.4484710693359375,0.1992034912109375
1761379820900193300,6.279193359375,-0.93975830078125,-0.4649200439453125,0.234466552734375
1761379820910276000,6.289276123046875,-0.9511871337890625,-0.472686767578125,0.24359130859375
1761379820920359200,6.299359130859375,-0.976287841796875,-0.471282958984375,0.2233123779296875
1761379820930442000,6.30944189453125,-1.0247955322265625,-0.45684814453125,0.2014007568359375
1761379820940525000,6.319525146484375,-1.06695556640625,-0.4522552490234375,0.179534912109375
1761379820950608100,6.329608154296875,-1.083740234375,-0.4355621337890625,0.1463165283203125
1761379820960691200,6.339691162109375,-1.0716705322265625,-0.4065704345703125,0.1060943603515625
1761379820970774300,6.349774169921875,-1.0547332763671875,-0.3878173828125,0.0923309326171875
1761379820980857000,6.359857177734375,-1.0479278564453125,-0.3712005615234375,0.082183837890625
1761379820990940200,6.369940185546875,-1.0255584716796875,-0.3489227294921875,0.0643157958984375
1761379821001023000,6.38002294921875,-1.0049591064453125,-0.3326568603515625,0.056976318359375
1761379821011106000,6.39010595703125,-1.003265380859375,-0.32098388671875,0.0579833984375
1761379821021189000,6.400189208984375,-0.991241455078125,-0.3021697998046875,0.064422607421875
1761379821031272200,6.410272216796875,-0.9758758544921875,-0.2743682861328125,0.0622406005859375
1761379821041355000,6.42035498046875,-0.959625244140625,-0.2386932373046875,0.05889892578125
1761379821051438000,6.43043798828125,-0.920257568359375,-0.2154083251953125,0.0697784423828125
1761379821061521200,6.440521240234375,-0.883697509765625,-0.2205963134765625,0.094451904296875
1761379821071604000,6.45060400390625,-0.84808349609375,-0.2395477294921875,0.1143951416015625
1761379821081687300,6.460687255859375,-0.8232879638671875,-0.2658538818359375,0.12652587890625
1761379821091770000,6.47077001953125,-0.80517578125,-0.297027587890625,0.1283111572265625
1761379821101853200,6.480853271484375,-0.78167724609375,-0.3197021484375,0.124786376953125
1761379821111936000,6.49093603515625,-0.7917022705078125,-0.34136962890625,0.1312255859375
1761379821122019000,6.50101904296875,-0.8082275390625,-0.3636627197265625,0.1395263671875
1761379821132102000,6.511101806640625,-0.8197479248046875,-0.3787841796875,0.1341552734375
1761379821142185200,6.521185302734375,-0.83343505859375,-0.3785247802734375,0.1091156005859375
1761379821152268300,6.531268310546875,-0.8495635986328125,-0.3670806884765625,0.0865020751953125
1761379821162351000,6.54135107421875,-0.8460693359375,-0.3456573486328125,0.0595703125
1761379821172434200,6.55143408203125,-0.86834716796875,-0.317718505859375,0.053192138671875
1761379821182517000,6.56151708984375,-0.9225006103515625,-0.3211822509765625,0.0690460205078125
1761379821192600000,6.57160009765625,-0.9161529541015625,-0.3254852294921875,0.0625762939453125
1761379821202683100,6.58168310546875,-0.9167327880859375,-0.3206634521484375,0.0603790283203125
1761379821212766200,6.59176611328125,-0.9119415283203125,-0.3290252685546875,0.0601959228515625
1761379821222849000,6.60184912109375,-0.9068450927734375,-0.335479736328125,0.0652618408203125
1761379821232932000,6.61193212890625,-0.889984130859375,-0.335906982421875,0.0733642578125
1761379821243015200,6.62201513671875,-0.883636474609375,-0.3381195068359375,0.090118408203125
1761379821253098200,6.63209814453125,-0.876007080078125,-0.3463287353515625,0.1131439208984375
1761379821263182000,6.64218212890625,-0.8636322021484375,-0.349029541015625,0.13421630859375
1761379821273265200,6.65226513671875,-0.8521728515625,-0.348541259765625,0.1534271240234375
