time,seconds_elapsed,z,y,x
1761379814668880400,0.04788037109375,-0.1051676943898201,-0.5491132140159607,0.26219114661216736
1761379814678963500,0.05796337890625,-0.1736210584640503,-0.5812711119651794,0.4530321955680847
1761379814689046500,0.068046630859375,-0.23197996616363525,-0.5621901154518127,0.5587714314460754
1761379814699129600,0.078129638671875,-0.2847009599208832,-0.4933418035507202,0.5726107954978943
1761379814709212400,0.08821240234375,-0.31839582324028015,-0.40358367562294006,0.526823878288269
1761379814719295500,0.09829541015625,-0.3190445601940155,-0.3080502450466156,0.43561965227127075
1761379814729378600,0.108378662109375,-0.32233330607414246,-0.22878789901733398,0.3273507058620453
1761379814739461400,0.11846142578125,-0.330771803855896,-0.18763887882232666,0.2037491351366043
1761379814749544700,0.128544677734375,-0.34200581908226013,-0.15339061617851257,0.0987153947353363
1761379814759627500,0.13862744140625,-0.3433254063129425,-0.1335066556930542,0.0380384624004364
1761379814769710600,0.148710693359375,-0.3492085933685303,-0.1491450071334839,0.02833496779203415
1761379814779793400,0.15879345703125,-0.37259620428085327,-0.19064770638942719,0.07442203909158707
1761379814789876500,0.16887646484375,-0.39438194036483765,-0.2341216802597046,0.16660335659980774
1761379814799959300,0.178959228515625,-0.4260479807853699,-0.2594510018825531,0.27682173252105713
1761379814810042600,0.189042724609375,-0.442325234413147,-0.28075817227363586,0.37649720907211304
1761379814820125700,0.199125732421875,-0.4369717240333557,-0.2846037745475769,0.4515301585197449
1761379814830208500,0.20920849609375,-0.39994633197784424,-0.25343626737594604,0.49849236011505127
1761379814840291600,0.21929150390625,-0.3566150963306427,-0.12217863649129868,0.5453027486801147
1761379814850374400,0.22937451171875,-0.30831921100616455,-0.06569778919219971,0.562019944190979
1761379814860457500,0.23945751953125,-0.26861733198165894,-0.16032949090003967,0.4853579103946686
1761379814870540500,0.24954052734375,-0.248398095369339,-0.4475138485431671,0.2928664982318878
1761379814880623600,0.25962353515625,-0.29252320528030396,-0.8277304172515869,-0.015854597091674805
1761379814890706400,0.26970654296875,-0.3707735538482666,-1.087063193321228,-0.310602605342865
1761379814900789500,0.27978955078125,-0.4220484495162964,-1.0965919494628906,-0.4876125454902649
1761379814910872600,0.28987255859375,-0.4631732404232025,-0.833846390247345,-0.5247737765312195
1761379814920955400,0.299955322265625,-0.47229671478271484,-0.33760201930999756,-0.3984304666519165
1761379814931038700,0.310038818359375,-0.4096730053424835,0.18893876671791077,-0.13393409550189972
1761379814941121500,0.32012158203125,-0.27762123942375183,0.5527880787849426,0.1694798469543457
1761379814951204600,0.33020458984375,-0.17288735508918762,0.6482187509536743,0.42192113399505615
1761379814961287400,0.340287353515625,-0.08980871737003326,0.49939942359924316,0.578007161617279
1761379814971370500,0.35037060546875,-0.05712347477674484,0.17967495322227478,0.6426183581352234
1761379814981453300,0.360453369140625,-0.059896089136600494,-0.18329046666622162,0.6514150500297546
1761379814991536600,0.37053662109375,-0.09211687743663788,-0.4728778004646301,0.6390851736068726
1761379815001619500,0.380619384765625,-0.13726277649402618,-0.6533466577529907,0.6133720874786377
1761379815011702500,0.39070263671875,-0.20285724103450775,-0.7613045573234558,0.5662186741828918
1761379815021785600,0.40078564453125,-0.30375829339027405,-0.8158662915229797,0.4966217577457428
1761379815031868400,0.410868408203125,-0.436646044254303,-0.8122249841690063,0.3896377682685852
1761379815041951500,0.420951416015625,-0.5913472175598145,-0.7105686664581299,0.24697862565517426
1761379815052034600,0.43103466796875,-0.7362220883369446,-0.5034221410751343,0.06896362453699112
1761379815062117600,0.44111767578125,-0.8394421935081482,-0.22702090442180634,-0.10729396343231201
1761379815072200400,0.451200439453125,-0.8922691941261292,0.03513108938932419,-0.25412946939468384
1761379815082283500,0.461283447265625,-0.8846182227134705,0.23325376212596893,-0.34829431772232056
1761379815092366300,0.471366455078125,-0.8241702914237976,0.35615119338035583,-0.3787928521633148
1761379815102449400,0.481449462890625,-0.7339357733726501,0.4147641658782959,-0.34098929166793823
1761379815112532700,0.49153271484375,-0.643393337726593,0.41307997703552246,-0.2453138828277588
1761379815122615600,0.501615478515625,-0.5656543374061584,0.35654667019844055,-0.10538048297166824
1761379815132698600,0.51169873046875,-0.5202487707138062,0.25731515884399414,0.03934607282280922
1761379815142781400,0.521781494140625,-0.49744412302970886,0.13859063386917114,0.166938915848732
1761379815152864500,0.531864501953125,-0.47503337264060974,0.031310517340898514,0.24929878115653992
1761379815162947300,0.541947265625,-0.4532146155834198,-0.05630774796009064,0.2837587594985962
1761379815173030700,0.55203076171875,-0.4256916642189026,-0.11714526265859604,0.2717241942882538
1761379815183113500,0.562113525390625,-0.4006430208683014,-0.16529788076877594,0.22042956948280334
1761379815193196500,0.572196533203125,-0.3856648802757263,-0.19826515018939972,0.13960476219654083
1761379815203279600,0.582279541015625,-0.38762468099594116,-0.21856562793254852,0.05474314093589783
1761379815213362400,0.592362548828125,-0.39946484565734863,-0.21983382105827332,-0.02257321961224079
1761379815223445500,0.602445556640625,-0.4028331935405731,-0.19609680771827698,-0.09004414081573486
1761379815233528600,0.612528564453125,-0.40587666630744934,-0.15602022409439087,-0.13985270261764526
1761379815243611600,0.622611572265625,-0.40187206864356995,-0.10160918533802032,-0.15706871449947357
1761379815253694500,0.632694580078125,-0.3825726807117462,-0.028837241232395172,-0.1477641612291336
1761379815263777500,0.642777587890625,-0.34800031781196594,0.038493331521749496,-0.12395789474248886
1761379815273860400,0.6528603515625,-0.3042975664138794,0.07173410803079605,-0.091856949031353
1761379815283943400,0.662943359375,-0.2552677094936371,0.06297843158245087,-0.048715874552726746
1761379815294026500,0.673026611328125,-0.20937612652778625,0.03572976961731911,-0.011295797303318977
1761379815304109600,0.683109619140625,-0.15765488147735596,0.013289174064993858,0.038012631237506866
1761379815314192600,0.693192626953125,-0.10746148228645325,-0.01672518439590931,0.09526153653860092
1761379815324275500,0.703275390625,-0.07063422352075577,-0.047929443418979645,0.1538635939359665
1761379815334358500,0.713358642578125,-0.040937844663858414,-0.07611740380525589,0.19018486142158508
1761379815344441300,0.72344140625,-0.016685502603650093,-0.10182622820138931,0.20565462112426758
1761379815354526500,0.7335263671875,-0.0026202842127531767,-0.12722985446453094,0.2000795602798462
1761379815364609500,0.743609619140625,0.004293282050639391,-0.1355610191822052,0.19393858313560486
1761379815374692400,0.7536923828125,0.02340172976255417,-0.11721663922071457,0.18861305713653564
1761379815384775400,0.763775390625,0.04571635648608208,-0.10545984655618668,0.19283230602741241
1761379815394858500,0.7738583984375,0.06229506433010101,-0.10909160226583481,0.1992209553718567
1761379815404941600,0.783941650390625,0.058929361402988434,-0.11496040970087051,0.21049225330352783
1761379815415024600,0.794024658203125,0.04939284920692444,-0.11359580606222153,0.19570346176624298
1761379815425107500,0.804107421875,0.04116794094443321,-0.09414567053318024,0.15315014123916626
1761379815435190500,0.8141904296875,0.046779222786426544,-0.06377232074737549,0.0885343924164772
1761379815445273300,0.8242734375,0.06247589364647865,-0.050461310893297195,0.028256937861442566
1761379815455356700,0.834356689453125,0.08865822851657867,-0.04597894474864006,-0.014141918160021305
1761379815465439500,0.844439453125,0.13750779628753662,-0.06228947266936302,-0.03187830373644829
1761379815475522600,0.8545224609375,0.18669664859771729,-0.08157821744680405,-0.03605866804718971
1761379815485605400,0.86460546875,0.23751455545425415,-0.0961821898818016,-0.02731923945248127
1761379815495688400,0.8746884765625,0.28436222672462463,-0.10365289449691772,-0.019290873780846596
1761379815505771500,0.884771484375,0.3220707178115845,-0.044309407472610474,0.0034791536163538694
1761379815515854600,0.8948544921875,0.34771108627319336,0.08198967576026917,0.05534767732024193
1761379815525937700,0.904937744140625,0.37451794743537903,-0.010965566150844097,0.03309217467904091
1761379815536020500,0.9150205078125,0.40361565351486206,-0.27819326519966125,-0.0912468209862709
1761379815546103600,0.925103515625,0.4154784381389618,-0.5503637790679932,-0.2960268557071686
1761379815556186400,0.935186279296875,0.4209855794906616,-0.7571859359741211,-0.5121133327484131
1761379815566269400,0.94526953125,0.40618371963500977,-0.811204731464386,-0.6424719095230103
1761379815576352500,0.9553525390625,0.3767736554145813,-0.7160579562187195,-0.6675687432289124
1761379815586435600,0.965435546875,0.3655659854412079,-0.4484555423259735,-0.5736299753189087
1761379815596518400,0.975518310546875,0.3900449872016907,-0.07940587401390076,-0.4012145400047302
1761379815606601500,0.9856015625,0.4646398425102234,0.23345616459846497,-0.20572413504123688
1761379815616684500,0.9956845703125,0.5300332307815552,0.3484344184398651,-0.052503686398267746
1761379815626767400,1.005767333984375,0.557843029499054,0.3208027780056,0.019404323771595955
1761379815636850700,1.0158505859375,0.5774793028831482,0.24115882813930511,0.013763482682406902
1761379815646933500,1.02593359375,0.5810796618461609,0.14354172348976135,-0.03653377667069435
1761379815657016600,1.0360166015625,0.5858277678489685,0.12351341545581818,-0.0652485117316246
1761379815667099400,1.046099365234375,0.6302785873413086,0.19089645147323608,-0.037334054708480835
1761379815677182500,1.056182373046875,0.7002672553062439,0.29502472281455994,0.05453408136963844
1761379815687265300,1.066265380859375,0.7726671695709229,0.389201283454895,0.17140264809131622
1761379815697348600,1.0763486328125,0.8459264636039734,0.440425843000412,0.2795645296573639
1761379815707431700,1.086431640625,0.9057514667510986,0.4240466058254242,0.36082956194877625
1761379815717514500,1.096514404296875,0.944718599319458,0.34408414363861084,0.42740991711616516
1761379815727597600,1.10659765625,0.9312618970870972,0.2086309790611267,0.46343448758125305
1761379815737680400,1.116680419921875,0.859621524810791,0.017737984657287598,0.4693629741668701
1761379815747763500,1.126763427734375,0.7599681615829468,-0.2008175253868103,0.4279337525367737
1761379815757846500,1.136846435546875,0.6589611172676086,-0.3856837749481201,0.3461132049560547
1761379815767929600,1.1469296875,0.5739516615867615,-0.4560799300670624,0.2482614666223526
1761379815778012400,1.157012451171875,0.511361300945282,-0.4157561957836151,0.14972877502441406
1761379815788095500,1.167095458984375,0.4668492078781128,-0.3147504925727844,0.06085536256432533
1761379815798178600,1.177178466796875,0.43027547001838684,-0.17337338626384735,-0.014063887298107147
1761379815808261400,1.187261474609375,0.4043155312538147,-0.026089657098054886,-0.07995688170194626
1761379815818344700,1.1973447265625,0.38472291827201843,0.12527696788311005,-0.13602334260940552
1761379815828427500,1.207427490234375,0.37461620569229126,0.2548930048942566,-0.19935891032218933
1761379815838510600,1.217510498046875,0.3815945088863373,0.35562682151794434,-0.26214826107025146
1761379815848593400,1.227593505859375,0.40313521027565,0.4368138015270233,-0.29219722747802734
1761379815858676500,1.237676513671875,0.4271204471588135,0.5028601884841919,-0.28033605217933655
1761379815868759300,1.24775927734375,0.460781991481781,0.5314763784408569,-0.23778006434440613
1761379815878843600,1.25784375,0.5039923191070557,0.5188834071159363,-0.1904841959476471
1761379815888926500,1.267926513671875,0.5575181245803833,0.4595295190811157,-0.1580820381641388
1761379815899009500,1.278009521484375,0.6030334234237671,0.36740463972091675,-0.1376342922449112
1761379815909092400,1.28809228515625,0.6394984722137451,0.264648973941803,-0.13147041201591492
1761379815919175700,1.29817578125,0.6664571166038513,0.16923004388809204,-0.12512089312076569
1761379815929258500,1.308258544921875,0.6657809615135193,0.10546091198921204,-0.11542033404111862
1761379815939341600,1.318341552734375,0.667234480381012,0.05950433760881424,-0.11400273442268372
1761379815949424400,1.32842431640625,0.6748647093772888,0.031264446675777435,-0.12666499614715576
1761379815959507500,1.338507568359375,0.6796826720237732,0.017367271706461906,-0.13738982379436493
1761379815969590500,1.348590576171875,0.6921369433403015,0.024635305628180504,-0.13193672895431519
1761379815979673600,1.358673583984375,0.706459641456604,0.04506414756178856,-0.0992613360285759
1761379815989756700,1.368756591796875,0.7188004851341248,0.08705420792102814,-0.050758518278598785
1761379815999839500,1.378839599609375,0.7245571613311768,0.1358715444803238,0.0037294907961040735
1761379816009922600,1.388922607421875,0.7351735830307007,0.17769277095794678,0.05372874066233635
1761379816020005400,1.39900537109375,0.7398455739021301,0.21466436982154846,0.10274635255336761
1761379816030088400,1.40908837890625,0.73992919921875,0.24367204308509827,0.15507426857948303
1761379816040171500,1.419171630859375,0.7364974617958069,0.2497006505727768,0.1903795301914215
1761379816050254600,1.429254638671875,0.7317737936973572,0.2416728138923645,0.21923914551734924
1761379816060337700,1.439337646484375,0.7095750570297241,0.21633443236351013,0.23760190606117249
1761379816070420500,1.44942041015625,0.6927617192268372,0.1682390719652176,0.24848118424415588
1761379816080503600,1.459503662109375,0.6650789380073547,0.1139763668179512,0.2599378228187561
1761379816090586400,1.46958642578125,0.6286320090293884,0.06836387515068054,0.2688988447189331
1761379816100669700,1.479669677734375,0.5907096266746521,0.03369937464594841,0.2708466649055481
1761379816110752500,1.48975244140625,0.5433738231658936,0.003996872343122959,0.26726365089416504
1761379816120835600,1.499835693359375,0.4993014335632324,-0.005425391718745232,0.2804902493953705
1761379816130918400,1.50991845703125,0.4676865041255951,0.00703793577849865,0.3103000819683075
1761379816141001500,1.52000146484375,0.45115146040916443,0.033670347183942795,0.3529825508594513
1761379816151084500,1.53008447265625,0.4446765184402466,0.07316742092370987,0.40494510531425476
1761379816161167600,1.540167724609375,0.44413670897483826,0.11267808079719543,0.4407355785369873
1761379816171250700,1.550250732421875,0.4542287588119507,0.13850940763950348,0.45455899834632874
1761379816181333500,1.56033349609375,0.4611862599849701,0.15747244656085968,0.44431114196777344
1761379816191416600,1.57041650390625,0.467060923576355,0.16717274487018585,0.4356156587600708
1761379816201499400,1.58049951171875,0.47850507497787476,0.25250309705734253,0.43985167145729065
1761379816211582500,1.59058251953125,0.5111863017082214,0.3945843279361725,0.4636502265930176
1761379816221665500,1.60066552734375,0.5707716345787048,0.38614076375961304,0.4254903197288513
1761379816231748600,1.61074853515625,0.6304996609687805,0.16146984696388245,0.29543882608413696
1761379816241831400,1.62083154296875,0.6341679096221924,-0.25274357199668884,0.014070545323193073
1761379816251914500,1.63091455078125,0.5683161616325378,-0.6310919523239136,-0.3501303195953369
1761379816261997600,1.64099755859375,0.49641454219818115,-0.821735143661499,-0.6564055681228638
1761379816272081700,1.65108154296875,0.40377914905548096,-0.7888248562812805,-0.8209612369537354
1761379816282164500,1.66116455078125,0.3014192283153534,-0.4745531976222992,-0.815381646156311
1761379816292247600,1.67124755859375,0.2818220853805542,0.03182237967848778,-0.6837178468704224
1761379816302330400,1.681330322265625,0.37441515922546387,0.5397799015045166,-0.504794180393219
1761379816312413400,1.691413330078125,0.5593045949935913,0.9044930934906006,-0.3291403353214264
1761379816322496500,1.70149658203125,0.763691246509552,1.1316189765930176,-0.1637021154165268
1761379816332579600,1.71157958984375,0.9576144218444824,1.2570077180862427,-0.0015624766238033772
1761379816342662700,1.72166259765625,1.1303942203521729,1.3093141317367554,0.15796007215976715
1761379816352744400,1.731744384765625,1.2678580284118652,1.336112380027771,0.31301170587539673
1761379816362827300,1.7418271484375,1.3579649925231934,1.3217923641204834,0.4437026083469391
1761379816372910300,1.751910400390625,1.4044294357299805,1.2317516803741455,0.5527042150497437
1761379816382993200,1.7619931640625,1.4083250761032104,1.0125609636306763,0.6067008376121521
1761379816393076200,1.772076171875,1.3597689867019653,0.6881440281867981,0.614547073841095
1761379816403159300,1.7821591796875,1.2884716987609863,0.2885247468948364,0.5747037529945374
1761379816413242400,1.792242431640625,1.2051267623901367,-0.11996129155158997,0.5392360687255859
1761379816423325200,1.8023251953125,1.137555718421936,-0.4310310184955597,0.5468665361404419
1761379816433408300,1.812408203125,1.1004362106323242,-0.5726677775382996,0.5806506276130676
1761379816443491300,1.8224912109375,1.052978754043579,-0.5971821546554565,0.6172171235084534
1761379816453574100,1.83257421875,1.0041714906692505,-0.520114004611969,0.6247472167015076
1761379816463657500,1.842657470703125,0.9573521018028259,-0.3536861538887024,0.6073274612426758
1761379816473740300,1.852740234375,0.9147526621818542,-0.07476691901683807,0.5843827724456787
1761379816483823400,1.8628232421875,0.8941283822059631,0.2588944137096405,0.5387553572654724
1761379816493906200,1.87290625,0.9024853706359863,0.5900973677635193,0.47051265835762024
1761379816503989200,1.8829892578125,0.9432873725891113,0.877923846244812,0.3757816255092621
1761379816514072000,1.893072021484375,1.003006100654602,1.129286766052246,0.2796870470046997
1761379816524155400,1.9031552734375,1.067427396774292,1.3256217241287231,0.18268485367298126
1761379816534238500,1.913238525390625,1.1392267942428589,1.4476603269577026,0.08796633780002594
1761379816544321300,1.9233212890625,1.2142446041107178,1.4767025709152222,-0.004744421225041151
1761379816554404400,1.933404296875,1.296279788017273,1.438298225402832,-0.0750311017036438
1761379816564487200,1.943487060546875,1.3759688138961792,1.3537808656692505,-0.10269814729690552
1761379816574570200,1.9535703125,1.4512115716934204,1.251734733581543,-0.08941669762134552
1761379816584653300,1.9636533203125,1.5278080701828003,1.1577993631362915,-0.04734887182712555
1761379816594736400,1.973736328125,1.5988444089889526,1.0797109603881836,-0.007197459228336811
1761379816604819200,1.983819091796875,1.682707667350769,1.046417236328125,0.037580929696559906
1761379816614902300,1.99390234375,1.7632964849472046,1.0476346015930176,0.07072290778160095
1761379816624985300,2.0039853515625,1.846274495124817,1.0779030323028564,0.08086342364549637
1761379816635069400,2.0140693359375,1.932328701019287,1.1162618398666382,0.07942238450050354
1761379816645152300,2.02415234375,2.011914014816284,1.1626935005187988,0.06153739616274834
1761379816655235300,2.0342353515625,2.070587158203125,1.1949214935302734,0.02780686318874359
1761379816665318100,2.044318115234375,2.1313529014587402,1.2285950183868408,-0.01136823557317257
1761379816675401200,2.054401123046875,2.1994564533233643,1.2942537069320679,-0.043287552893161774
1761379816685484300,2.064484375,2.273829221725464,1.3823446035385132,-0.06622882187366486
1761379816695567400,2.0745673828125,2.351445198059082,1.4787307977676392,-0.08642836660146713
1761379816705650400,2.084650390625,2.439110040664673,1.5453287363052368,-0.08949632942676544
1761379816715733200,2.094733154296875,2.528578519821167,1.5846987962722778,-0.07786097377538681
1761379816725816300,2.10481640625,2.6049246788024902,1.5856812000274658,-0.05235321819782257
1761379816735899100,2.114899169921875,2.6619136333465576,1.5299218893051147,-0.020962007343769073
1761379816745982500,2.124982421875,2.6866965293884277,1.4281967878341675,0.015208248049020767
1761379816756065300,2.135065185546875,2.681894302368164,1.315786361694336,0.056588176637887955
1761379816766148400,2.1451484375,2.6625444889068604,1.2214292287826538,0.09297122061252594
1761379816776231200,2.155231201171875,2.6586482524871826,1.1530760526657104,0.12304576486349106
1761379816786314200,2.165314208984375,2.6591956615448,1.1053743362426758,0.14259390532970428
1761379816796397300,2.175397216796875,2.6572136878967285,1.054339051246643,0.1511804610490799
1761379816806480400,2.18548046875,2.656733512878418,1.0256747007369995,0.14894899725914001
1761379816816563500,2.1955634765625,2.671708106994629,1.0236905813217163,0.15011386573314667
1761379816826646300,2.205646240234375,2.696192979812622,1.044346570968628,0.16288745403289795
1761379816836729300,2.215729248046875,2.7263176441192627,1.0712491273880005,0.188512921333313
1761379816846812200,2.225812255859375,2.750659942626953,1.103588342666626,0.21654722094535828
1761379816856895200,2.235895263671875,2.772459030151367,1.1381274461746216,0.23019884526729584
1761379816866978300,2.245978271484375,2.7829699516296387,1.1789169311523438,0.21447767317295074
1761379816877061400,2.256061279296875,2.7816803455352783,1.2265750169754028,0.16271381080150604
1761379816887144400,2.26614453125,2.7710394859313965,1.2840298414230347,0.09521839767694473
1761379816897227300,2.276227294921875,2.7643978595733643,1.3717482089996338,0.03970453515648842
1761379816907310300,2.286310302734375,2.7640132904052734,1.4800543785095215,0.0184027086943388
1761379816917393200,2.29639306640625,2.7715492248535156,1.5911716222763062,0.029986927285790443
1761379816927476500,2.3064765625,2.7995071411132812,1.7016853094100952,0.02948332391679287
1761379816937560300,2.316560302734375,2.8485844135284424,1.8137452602386475,-0.0073316823691129684
1761379816947643400,2.326643310546875,2.9160754680633545,1.9475297927856445,-0.059306200593709946
1761379816957726200,2.336726318359375,2.990523338317871,2.179675579071045,-0.09091579169034958
1761379816967809300,2.346809326171875,3.0764517784118652,2.515016794204712,-0.09254883974790573
1761379816977892400,2.356892333984375,3.1799774169921875,2.692518472671509,-0.1807442158460617
1761379816987975400,2.366975341796875,3.3192105293273926,2.5368993282318115,-0.41660040616989136
1761379816998058200,2.377058349609375,3.404043436050415,2.0248897075653076,-0.8115743398666382
1761379817008141300,2.387141357421875,3.341202974319458,1.332074522972107,-1.2073677778244019
1761379817018224000,2.39722412109375,3.149125814437866,0.6710308194160461,-1.4107248783111572
1761379817028307200,2.40730712890625,2.9023284912109375,0.18445266783237457,-1.3489075899124146
1761379817038390300,2.417390380859375,2.6943843364715576,0.052739109843969345,-1.0385677814483643
1761379817048473300,2.427473388671875,2.60267972946167,0.3584255278110504,-0.5898326635360718
1761379817058556400,2.437556396484375,2.67405104637146,0.959064245223999,-0.1352986991405487
1761379817068639200,2.44763916015625,2.915296792984009,1.5646255016326904,0.1659354418516159
1761379817078722300,2.457722412109375,3.205052614212036,2.009873628616333,0.2578906714916229
1761379817088805000,2.46780517578125,3.3862199783325195,2.3147151470184326,0.20844241976737976
1761379817098888400,2.477888427734375,3.4865615367889404,2.413891553878784,0.071486696600914
1761379817108971300,2.48797119140625,3.516064405441284,2.344815492630005,-0.07185102254152298
1761379817119054300,2.498054443359375,3.4756784439086914,2.1371102333068848,-0.1768389493227005
1761379817129137200,2.50813720703125,3.36295747756958,1.8583290576934814,-0.2048676609992981
1761379817139220200,2.51822021484375,3.2183592319488525,1.5436195135116577,-0.17309534549713135
1761379817149303300,2.52830322265625,3.0554113388061523,1.3097708225250244,-0.09106359630823135
1761379817159386400,2.538386474609375,2.889151096343994,1.1644634008407593,0.02304619736969471
1761379817169469400,2.548469482421875,2.7704029083251953,1.1083834171295166,0.10039930790662766
1761379817179552300,2.55855224609375,2.684910535812378,1.1933917999267578,0.1408705711364746
1761379817189635300,2.56863525390625,2.619694709777832,1.3356149196624756,0.11575935781002045
1761379817199718100,2.57871826171875,2.5671494007110596,1.498253345489502,0.048781655728816986
1761379817209801200,2.58880126953125,2.530517101287842,1.6589256525039673,-0.04417598247528076
1761379817219884300,2.59888427734375,2.485476493835449,1.8012065887451172,-0.14368925988674164
1761379817229968400,2.608968505859375,2.439049243927002,1.9151833057403564,-0.24301956593990326
1761379817240051200,2.61905126953125,2.392879009246826,1.9867671728134155,-0.3347380459308624
1761379817250134300,2.62913427734375,2.3362700939178467,1.9985721111297607,-0.4239802956581116
1761379817260217000,2.639217041015625,2.266282081604004,1.9500051736831665,-0.5228349566459656
1761379817270300400,2.649300537109375,2.205482006072998,1.8632915019989014,-0.6238886117935181
1761379817280383200,2.65938330078125,2.156290054321289,1.7666294574737549,-0.7153668999671936
1761379817290466300,2.66946630859375,2.135032892227173,1.6760671138763428,-0.7818790674209595
1761379817300549400,2.67954931640625,2.1235978603363037,1.5809704065322876,-0.8169116377830505
1761379817310632200,2.689632080078125,2.1198761463165283,1.4714974164962769,-0.8140748143196106
1761379817320715300,2.69971533203125,2.133392333984375,1.3480777740478516,-0.7539419531822205
1761379817330798300,2.70979833984375,2.1573970317840576,1.2565808296203613,-0.634498655796051
1761379817340881400,2.71988134765625,2.1861069202423096,1.1911264657974243,-0.46771714091300964
1761379817350964500,2.729964599609375,2.2111542224884033,1.156238317489624,-0.297258585691452
1761379817361047800,2.7400478515625,2.2185213565826416,1.1162728071212769,-0.17423544824123383
1761379817371130600,2.750130615234375,2.2007570266723633,1.0959410667419434,-0.09967013448476791
1761379817381213700,2.760213623046875,2.1710801124572754,1.1019630432128906,-0.07417888939380646
1761379817391296500,2.770296630859375,2.1244702339172363,1.1411166191101074,-0.08310367166996002
1761379817401379600,2.780379638671875,2.0657436847686768,1.1923667192459106,-0.11798708885908127
1761379817411462700,2.790462646484375,2.0107545852661133,1.2536929845809937,-0.17031501233577728
1761379817421545700,2.800545654296875,1.969164252281189,1.2924957275390625,-0.20879022777080536
1761379817431628800,2.81062890625,1.9302042722702026,1.2734408378601074,-0.2285543531179428
1761379817441711600,2.820711669921875,1.8761874437332153,1.2142571210861206,-0.21613043546676636
1761379817451794700,2.830794677734375,1.8086634874343872,1.1209101676940918,-0.1923137903213501
1761379817461877500,2.84087744140625,1.7193924188613892,0.9862138032913208,-0.17560617625713348
1761379817471960600,2.850960693359375,1.60807204246521,0.867689847946167,-0.1525983363389969
1761379817482043600,2.861043701171875,1.4865237474441528,0.7481043338775635,-0.12161777913570404
1761379817492126700,2.871126708984375,1.3739354610443115,0.6127049326896667,-0.08135876804590225
1761379817502209500,2.88120947265625,1.2925671339035034,0.5225513577461243,-0.026914171874523163
1761379817512292600,2.891292724609375,1.2238855361938477,0.47219178080558777,0.04493977874517441
1761379817522376400,2.90137646484375,1.1641550064086914,0.3934929668903351,0.10450057685375214
1761379817532459800,2.911459716796875,1.112383246421814,0.3260340392589569,0.14961744844913483
1761379817542542600,2.92154248046875,1.0502561330795288,0.25042927265167236,0.18682634830474854
1761379817552625700,2.931625732421875,0.996128499507904,0.1315883845090866,0.22617241740226746
1761379817562708700,2.941708740234375,0.961845338344574,0.04981469362974167,0.29416531324386597
1761379817572791600,2.95179150390625,0.9499668478965759,-0.0006186523241922259,0.4198257625102997
1761379817582874600,2.96187451171875,0.9334163665771484,-0.03357340767979622,0.5634652376174927
1761379817592957700,2.971957763671875,0.8860883116722107,-0.13404488563537598,0.6570225954055786
1761379817603040800,2.982040771484375,0.8191494345664978,-0.30166077613830566,0.6464349627494812
1761379817613123600,2.99212353515625,0.7262858152389526,-0.4613140821456909,0.5732126832008362
1761379817623206700,3.00220654296875,0.5836767554283142,-0.5955632328987122,0.4471000134944916
1761379817633289500,3.01228955078125,0.4012760519981384,-0.6547698378562927,0.3199116885662079
1761379817643372500,3.02237255859375,0.24037319421768188,-0.6107792258262634,0.21591338515281677
1761379817653455600,3.03245556640625,0.1162152886390686,-0.4537280797958374,0.13298122584819794
1761379817663538700,3.04253857421875,0.05348373204469681,-0.19838713109493256,0.08452393859624863
1761379817673621800,3.052621826171875,0.053468283265829086,0.09523463994264603,0.028026042506098747
1761379817683704600,3.06270458984375,0.07845965772867203,0.3273690640926361,-0.043600209057331085
1761379817693787600,3.07278759765625,0.08327225595712662,0.43842288851737976,-0.13880209624767303
1761379817703870500,3.082870361328125,0.05499880388379097,0.4197583794593811,-0.20773881673812866
1761379817713953800,3.092953857421875,0.00854475237429142,0.3448069095611572,-0.2062506377696991
1761379817724036600,3.10303662109375,-0.032882317900657654,0.2516860365867615,-0.14056377112865448
1761379817734119700,3.11311962890625,-0.049196042120456696,0.16065280139446259,-0.028724588453769684
1761379817744202500,3.123202392578125,-0.052872803062200546,0.0669204443693161,0.09347721934318542
1761379817754285600,3.13328564453125,-0.05174175649881363,-0.01966984197497368,0.18848282098770142
1761379817764368600,3.14336865234375,-0.06241730600595474,-0.07808494567871094,0.2592233121395111
1761379817774451700,3.15345166015625,-0.08077260851860046,-0.07760398089885712,0.3041953146457672
1761379817784534800,3.16353466796875,-0.10949186980724335,-0.05031616613268852,0.3100614547729492
1761379817794618600,3.17361865234375,-0.14558996260166168,-0.006368150934576988,0.27522677183151245
1761379817804701400,3.183701416015625,-0.17838092148303986,0.03593829274177551,0.21314716339111328
1761379817814784500,3.193784423828125,-0.20479682087898254,0.06450176239013672,0.11148551851511002
1761379817824867800,3.203867919921875,-0.22051826119422913,0.06929438561201096,0.0032530513126403093
1761379817834950700,3.21395068359375,-0.2253742665052414,0.06788557022809982,-0.08472367376089096
1761379817845033700,3.22403369140625,-0.2177022248506546,0.05303525552153587,-0.1316286027431488
1761379817855116500,3.234116455078125,-0.1864716112613678,0.030305441468954086,-0.1191471666097641
1761379817865199600,3.24419970703125,-0.13705505430698395,-0.0062610916793346405,-0.07020385563373566
1761379817875282400,3.254282470703125,-0.08291858434677124,-0.07392162829637527,-0.007048055995255709
1761379817885365800,3.26436572265625,-0.03921344876289368,-0.17361865937709808,0.03596838563680649
1761379817895448600,3.274448486328125,-0.03244582563638687,-0.297112375497818,0.04487958922982216
1761379817905531600,3.28453173828125,-0.06689994037151337,-0.4216737449169159,0.0247237216681242
1761379817915614700,3.29461474609375,-0.12874972820281982,-0.5152561664581299,-0.025408953428268433
1761379817925697500,3.304697509765625,-0.19747471809387207,-0.53803551197052,-0.09148251265287399
1761379817935780600,3.314780517578125,-0.25999242067337036,-0.5016628503799438,-0.15859337151050568
1761379817945863700,3.32486376953125,-0.30312472581863403,-0.40262600779533386,-0.23489639163017273
1761379817955946800,3.33494677734375,-0.32794538140296936,-0.282210111618042,-0.3171398639678955
1761379817966029600,3.345029541015625,-0.34506845474243164,-0.17335234582424164,-0.40389448404312134
1761379817976112600,3.355112548828125,-0.36952078342437744,-0.08335667848587036,-0.48960113525390625
1761379817986195500,3.365195556640625,-0.40610116720199585,-0.016202671453356743,-0.5739125609397888
1761379817996278500,3.375278564453125,-0.4391568601131439,0.03612604737281799,-0.666320264339447
1761379818006361600,3.385361572265625,-0.4699278175830841,0.07479914277791977,-0.7574882507324219
1761379818016444700,3.395444580078125,-0.4792419672012329,0.095890574157238,-0.825110137462616
1761379818026527700,3.40552783203125,-0.4691767990589142,0.10603003203868866,-0.8613552451133728
1761379818036610600,3.415610595703125,-0.4545014500617981,0.09169130772352219,-0.8493768572807312
1761379818046693600,3.425693603515625,-0.4360191226005554,0.06937321275472641,-0.7987983822822571
1761379818056777700,3.43577783203125,-0.42682084441185,0.08972269296646118,-0.6942855715751648
1761379818066860800,3.44586083984375,-0.42018556594848633,0.1257997453212738,-0.5671132206916809
1761379818076943600,3.455943603515625,-0.41127142310142517,0.1650022715330124,-0.42791351675987244
1761379818087026700,3.466026611328125,-0.38731417059898376,0.19541557133197784,-0.29127392172813416
1761379818097109500,3.476109619140625,-0.35418418049812317,0.209583580493927,-0.163688525557518
1761379818107192600,3.486192626953125,-0.3033044934272766,0.20610496401786804,-0.047988299280405045
1761379818117275600,3.496275634765625,-0.24484996497631073,0.1887454092502594,0.05383899807929993
1761379818127358700,3.506358642578125,-0.19548560678958893,0.13293248414993286,0.13460122048854828
1761379818137441500,3.516441650390625,-0.17175151407718658,0.038188397884368896,0.1872820109128952
1761379818147524600,3.526524658203125,-0.1800541877746582,-0.06832419335842133,0.22009588778018951
1761379818157607700,3.536607666015625,-0.2106829434633255,-0.17625679075717926,0.23289449512958527
1761379818167690500,3.5466904296875,-0.25311827659606934,-0.26820749044418335,0.23252804577350616
1761379818177773800,3.55677392578125,-0.2908448874950409,-0.32235488295555115,0.23626446723937988
1761379818187856600,3.566856689453125,-0.32546839118003845,-0.3503952920436859,0.24683162569999695
1761379818197939700,3.576939697265625,-0.35161662101745605,-0.35397830605506897,0.2500966489315033
1761379818208022500,3.5870224609375,-0.3787715435028076,-0.32064005732536316,0.24021686613559723
1761379818218105600,3.597105712890625,-0.3949339985847473,-0.2588709592819214,0.21301107108592987
1761379818228188400,3.6071884765625,-0.3912186324596405,-0.19142375886440277,0.16329865157604218
1761379818238271700,3.617271728515625,-0.3725709021091461,-0.12408945709466934,0.11840680241584778
1761379818248354600,3.6273544921875,-0.3469070792198181,-0.061176005750894547,0.08997010439634323
1761379818258437600,3.637437744140625,-0.3192962408065796,-0.04827432334423065,0.08345600962638855
1761379818268520700,3.647520751953125,-0.3002098798751831,-0.08823611587285995,0.11717616021633148
1761379818278603500,3.657603515625,-0.29256927967071533,-0.19930511713027954,0.18556666374206543
1761379818288686600,3.6676865234375,-0.2749498188495636,-0.3095024526119232,0.29053568840026855
1761379818298769700,3.677769775390625,-0.25464001297950745,-0.3630674183368683,0.44221043586730957
1761379818308852700,3.687852783203125,-0.21396315097808838,-0.32455703616142273,0.5831207036972046
1761379818318935600,3.697935546875,-0.118930384516716,-0.22581902146339417,0.6872026324272156
1761379818329019600,3.70801953125,0.0011741877533495426,-0.1417379528284073,0.6986696720123291
1761379818339102700,3.718102783203125,0.1071925014257431,-0.10414078086614609,0.5935400128364563
1761379818349185000,3.72818505859375,0.16526725888252258,-0.14994102716445923,0.3730763792991638
1761379818359267800,3.738267822265625,0.17870476841926575,-0.23347613215446472,0.1072968989610672
1761379818369351000,3.748350830078125,0.1095278263092041,-0.3143126666545868,-0.1481258124113083
1761379818379434000,3.75843408203125,0.01714782789349556,-0.3288964033126831,-0.27981141209602356
1761379818389516800,3.768516845703125,-0.058937620371580124,-0.2152361422777176,-0.273762047290802
1761379818399600000,3.77860009765625,-0.056176185607910156,0.020924190059304237,-0.14373479783535004
1761379818409683000,3.788682861328125,0.038115162402391434,0.3060302436351776,0.06077147275209427
1761379818419766000,3.79876611328125,0.18741196393966675,0.5427359938621521,0.26107606291770935
1761379818429848800,3.808848876953125,0.33623766899108887,0.7144811153411865,0.4175533056259155
1761379818439932000,3.818931884765625,0.4465436637401581,0.8246105313301086,0.4935958683490753
1761379818450014700,3.8290146484375,0.5081402063369751,0.8808178901672363,0.51891028881073
1761379818460098000,3.83909814453125,0.5254986882209778,0.8247770071029663,0.509048342704773
1761379818470180900,3.849180908203125,0.51143479347229,0.6897581815719604,0.508008599281311
1761379818480264000,3.859263916015625,0.5079966187477112,0.535276472568512,0.5287216305732727
1761379818490347000,3.869346923828125,0.5191768407821655,0.4035605192184448,0.5654141306877136
1761379818500429800,3.879429931640625,0.529961884021759,0.2731870710849762,0.5782191157341003
1761379818510513000,3.889512939453125,0.5303501486778259,0.15098126232624054,0.5516013503074646
1761379818520596000,3.899595947265625,0.49705371260643005,0.06542401015758514,0.48579439520835876
1761379818530679000,3.909678955078125,0.4368303120136261,0.01726154424250126,0.3915233016014099
1761379818540761900,3.919761962890625,0.3631145656108856,0.02363874949514866,0.295806348323822
1761379818550845000,3.929844970703125,0.2980266213417053,0.07727587968111038,0.2103191465139389
1761379818560927700,3.939927734375,0.26409396529197693,0.15915103256702423,0.13064110279083252
1761379818571010800,3.9500107421875,0.2504420578479767,0.24863004684448242,0.06129664555191994
1761379818581095000,3.960094970703125,0.2415843904018402,0.3383290469646454,-0.02955309860408306
1761379818591178000,3.970177978515625,0.2416834682226181,0.4251265227794647,-0.14203117787837982
1761379818601260800,3.9802607421875,0.2595873773097992,0.519128143787384,-0.25650128722190857
1761379818611344000,3.99034375,0.2763325273990631,0.6087075471878052,-0.34893056750297546
1761379818621427000,4.000427001953125,0.2921921908855438,0.6837232112884521,-0.40255650877952576
1761379818631510000,4.010510009765625,0.31587299704551697,0.7406501173973083,-0.419127494096756
1761379818641593000,4.020593017578125,0.3431624174118042,0.7646923661231995,-0.4201866388320923
1761379818651676000,4.030676025390625,0.3774056136608124,0.7469199895858765,-0.4312954843044281
1761379818661759000,4.040759033203125,0.4194667637348175,0.6758924126625061,-0.43604227900505066
1761379818671841800,4.050841796875,0.4524098038673401,0.5547345876693726,-0.44271349906921387
1761379818681924900,4.0609248046875,0.473480224609375,0.4027365446090698,-0.4468954801559448
1761379818692008000,4.071008056640625,0.48582956194877625,0.2105868011713028,-0.45260554552078247
1761379818702091000,4.081091064453125,0.5068607926368713,-0.003483414649963379,-0.44822144508361816
1761379818712173800,4.091173828125,0.5367417335510254,-0.18895447254180908,-0.4171341061592102
1761379818722257000,4.1012568359375,0.549693763256073,-0.34317654371261597,-0.37064865231513977
1761379818732340000,4.111340087890625,0.5459368228912354,-0.46329015493392944,-0.31422585248947144
1761379818742422800,4.1214228515625,0.5468079447746277,-0.5713084936141968,-0.28950345516204834
1761379818752506000,4.131506103515625,0.5515273213386536,-0.615525484085083,-0.28706344962120056
1761379818762589000,4.1415888671875,0.5512319803237915,-0.6255067586898804,-0.2770952582359314
1761379818772672000,4.151672119140625,0.539310872554779,-0.5843039155006409,-0.2651541829109192
1761379818782754800,4.1617548828125,0.5187110900878906,-0.5164649486541748,-0.24700073897838593
1761379818792838000,4.171837890625,0.5086563229560852,-0.4235323667526245,-0.22695724666118622
1761379818802920700,4.181920654296875,0.49388107657432556,-0.33921533823013306,-0.20249532163143158
1761379818813004000,4.192004150390625,0.4708247780799866,-0.26731717586517334,-0.17951516807079315
1761379818823087000,4.202087158203125,0.4277430772781372,-0.24593253433704376,-0.15651877224445343
1761379818833170000,4.212169921875,0.3786082863807678,-0.2462017834186554,-0.13826359808444977
1761379818843253800,4.222253662109375,0.32382121682167053,-0.2575199604034424,-0.11473989486694336
1761379818853336800,4.2323369140625,0.2637261748313904,-0.28291213512420654,-0.08620759099721909
1761379818863420000,4.242419921875,0.20476113259792328,-0.31223300099372864,-0.05444459989666939
1761379818873503000,4.2525029296875,0.14647012948989868,-0.33269593119621277,-0.01079645473510027
1761379818883586000,4.2625859375,0.0939672440290451,-0.33070895075798035,0.04561994969844818
1761379818893668900,4.2726689453125,0.04621756076812744,-0.27561134099960327,0.11085061728954315
1761379818903752000,4.282751953125,0.012620720081031322,-0.17730394005775452,0.17764270305633545
1761379818913834800,4.292834716796875,-0.006133792456239462,-0.04099750146269798,0.2129591405391693
1761379818923918000,4.30291796875,0.004606735892593861,0.1356731355190277,0.2369571477174759
1761379818934001000,4.3130009765625,0.026885943487286568,0.2012721300125122,0.1875872015953064
1761379818944084000,4.323083984375,0.04531022533774376,0.20780645310878754,0.06093978136777878
1761379818954166800,4.333166748046875,0.04698428511619568,0.15086807310581207,-0.13724946975708008
1761379818964249900,4.343249755859375,-0.012456403113901615,0.012956811115145683,-0.39935725927352905
1761379818974333000,4.3533330078125,-0.11599984019994736,-0.1290208399295807,-0.6796613335609436
1761379818984416000,4.363416015625,-0.21806974709033966,-0.19109831750392914,-0.8887048363685608
1761379818994499000,4.3734990234375,-0.29697200655937195,-0.17501682043075562,-0.9886727333068848
1761379819004582000,4.383581787109375,-0.32130905985832214,-0.07127364724874496,-0.9510416984558105
1761379819014665000,4.3936650390625,-0.2813887894153595,0.10782526433467865,-0.7916885614395142
1761379819024747800,4.403747802734375,-0.16132843494415283,0.27139368653297424,-0.5676458477973938
1761379819034830800,4.413830810546875,0.020788103342056274,0.3822837173938751,-0.3317158818244934
1761379819044914000,4.423913818359375,0.17080849409103394,0.3886641263961792,-0.12662185728549957
1761379819054997000,4.4339970703125,0.26964932680130005,0.30386269092559814,0.07174689322710037
1761379819065079800,4.444079833984375,0.3363114297389984,0.17970344424247742,0.2950074076652527
1761379819075163000,4.454162841796875,0.37804850935935974,0.06645971536636353,0.5517875552177429
1761379819085246000,4.464245849609375,0.3869333267211914,-0.029855899512767792,0.8068621754646301
1761379819095328800,4.474328857421875,0.35710352659225464,-0.17077280580997467,1.0164813995361328
1761379819105412900,4.484412841796875,0.28346073627471924,-0.3724380135536194,1.1466889381408691
1761379819115496000,4.494495849609375,0.17197442054748535,-0.5647632479667664,1.1945422887802124
1761379819125579000,4.5045791015625,0.01998649165034294,-0.7186028957366943,1.1673692464828491
1761379819135661800,4.514661865234375,-0.15629160404205322,-0.8168767094612122,1.0592752695083618
1761379819145745200,4.5247451171875,-0.3334623873233795,-0.8366765379905701,0.8662381172180176
1761379819155828000,4.534827880859375,-0.4990178048610687,-0.7800944447517395,0.6115725636482239
1761379819165911000,4.5449111328125,-0.6501322388648987,-0.6648480296134949,0.31504717469215393
1761379819175993900,4.554993896484375,-0.7655352354049683,-0.4902370870113373,0.031190410256385803
1761379819186077000,4.565076904296875,-0.8324032425880432,-0.2883700132369995,-0.19586165249347687
1761379819196159700,4.57515966796875,-0.8757243156433105,-0.08142481744289398,-0.340639591217041
1761379819206243000,4.5852431640625,-0.8986693024635315,0.09681069850921631,-0.41688618063926697
1761379819216326000,4.595325927734375,-0.8925861120223999,0.23249875009059906,-0.4330001771450043
1761379819226409000,4.605408935546875,-0.8597501516342163,0.30117687582969666,-0.41175585985183716
1761379819236492000,4.615491943359375,-0.8142111897468567,0.2961898446083069,-0.3794248104095459
1761379819246574800,4.625574951171875,-0.7570211291313171,0.23764798045158386,-0.3394435942173004
1761379819256658000,4.635657958984375,-0.6905645728111267,0.14963103830814362,-0.28739821910858154
1761379819266741000,4.645740966796875,-0.626724898815155,0.05800098553299904,-0.21895338594913483
1761379819276824000,4.655823974609375,-0.5702786445617676,-0.015352324582636356,-0.1361599713563919
1761379819286907000,4.665906982421875,-0.5183009505271912,-0.07844287902116776,-0.052934322506189346
1761379819296990000,4.675989990234375,-0.46813496947288513,-0.11833063513040543,0.02220623567700386
1761379819307072800,4.68607275390625,-0.42051127552986145,-0.14325888454914093,0.07606307417154312
1761379819317155800,4.69615576171875,-0.3697144091129303,-0.144166499376297,0.11540169268846512
1761379819327239000,4.706239013671875,-0.3265078067779541,-0.1334848254919052,0.1333111822605133
1761379819337322000,4.716322021484375,-0.28258535265922546,-0.11857271939516068,0.13514477014541626
1761379819347405000,4.726405029296875,-0.24312609434127808,-0.10279455780982971,0.10829504579305649
1761379819357489000,4.736489013671875,-0.21177136898040771,-0.08540304750204086,0.06780381500720978
1761379819367571700,4.74657177734375,-0.19804197549819946,-0.08355028927326202,0.008432633243501186
1761379819377655000,4.756655029296875,-0.1865171492099762,-0.0884888544678688,-0.0641411691904068
1761379819387738000,4.766738037109375,-0.1803111881017685,-0.09778914600610733,-0.13538604974746704
1761379819397821000,4.776821044921875,-0.16508989036083221,-0.07642606645822525,-0.18396849930286407
1761379819407904000,4.786904052734375,-0.1413680464029312,-0.019051188603043556,-0.20140795409679413
1761379819417986800,4.79698681640625,-0.10640979558229446,0.07470246404409409,-0.16806890070438385
1761379819428070000,4.80706982421875,-0.058990880846977234,0.17944645881652832,-0.10088160634040833
1761379819438153000,4.817153076171875,-0.0029201561119407415,0.24677489697933197,-0.024463530629873276
1761379819448236000,4.827236083984375,0.057865165174007416,0.2696352005004883,0.037577737122774124
1761379819458318800,4.83731884765625,0.10972356796264648,0.25165432691574097,0.08171110600233078
1761379819468402000,4.84740185546875,0.14705176651477814,0.19998209178447723,0.09630096703767776
1761379819478485000,4.857485107421875,0.16983164846897125,0.12587031722068787,0.08933120965957642
1761379819488567800,4.86756787109375,0.18345265090465546,0.03798280283808708,0.07389099895954132
1761379819498651100,4.877651123046875,0.19531330466270447,-0.0558406300842762,0.06113898754119873
1761379819508734000,4.88773388671875,0.20440399646759033,-0.11327382922172546,0.06811540573835373
1761379819518817000,4.897817138671875,0.20551107823848724,-0.13746865093708038,0.07580474764108658
1761379819528899800,4.90789990234375,0.20893244445323944,-0.15173733234405518,0.07660716027021408
1761379819538983000,4.91798291015625,0.2112475335597992,-0.12261699885129929,0.0767778679728508
1761379819549065700,4.928065673828125,0.20314645767211914,-0.054127417504787445,0.07700982689857483
1761379819559149000,4.938149169921875,0.2043672502040863,0.06872659921646118,0.07372402399778366
1761379819569232000,4.94823193359375,0.21957522630691528,0.23801788687705994,0.041376736015081406
1761379819579315000,4.95831494140625,0.2740451395511627,0.4468368887901306,-0.008299475535750389
1761379819589398000,4.96839794921875,0.34370383620262146,0.5437650084495544,-0.0878869816660881
1761379819599480800,4.978480712890625,0.40288540720939636,0.5170351266860962,-0.19926702976226807
1761379819609564000,4.98856396484375,0.4594906270503998,0.3948730230331421,-0.30897969007492065
1761379819619648000,4.99864794921875,0.4898189604282379,0.20284312963485718,-0.45983392000198364
1761379819629730800,5.008730712890625,0.46879810094833374,0.002400839701294899,-0.6280027031898499
1761379819639814000,5.01881396484375,0.4024720788002014,-0.14614176750183105,-0.7511608004570007
1761379819649897000,5.02889697265625,0.2927756905555725,-0.19187888503074646,-0.7850252985954285
1761379819659979800,5.038979736328125,0.19347572326660156,-0.15776965022087097,-0.723788321018219
1761379819670063000,5.04906298828125,0.17804722487926483,-0.03929334506392479,-0.5788806676864624
1761379819680146000,5.05914599609375,0.22002877295017242,0.117828369140625,-0.40240976214408875
1761379819690229000,5.06922900390625,0.32048505544662476,0.21935632824897766,-0.24812698364257812
1761379819700311800,5.079311767578125,0.43026721477508545,0.28010010719299316,-0.1540454924106598
1761379819710395000,5.089394775390625,0.4970313310623169,0.30675140023231506,-0.11902332305908203
1761379819720477700,5.099477783203125,0.5268219709396362,0.37546736001968384,-0.08782412856817245
1761379819730561000,5.10956103515625,0.5443349480628967,0.4974270761013031,-0.0171414352953434
1761379819740644000,5.11964404296875,0.57442706823349,0.6401911377906799,0.0702829509973526
1761379819750727000,5.129726806640625,0.6359894871711731,0.7437777519226074,0.15833771228790283
1761379819760810000,5.13981005859375,0.7071752548217773,0.7321258783340454,0.2187110334634781
1761379819770892800,5.149892822265625,0.7531488537788391,0.6144264340400696,0.23631267249584198
1761379819780975900,5.159975830078125,0.7501352429389954,0.4120413362979889,0.2018795907497406
1761379819791059000,5.170058837890625,0.7064506411552429,0.1443324089050293,0.1376665234565735
1761379819801142000,5.18014208984375,0.6298700571060181,-0.14532390236854553,0.06846614181995392
1761379819811224800,5.190224853515625,0.5351576805114746,-0.3805326819419861,0.030170151963829994
1761379819821308000,5.200307861328125,0.43393227458000183,-0.5187842845916748,0.01236159447580576
1761379819831391000,5.210390869140625,0.3311009705066681,-0.5775232315063477,-0.022187327966094017
1761379819841473800,5.220473876953125,0.2477315068244934,-0.5611525177955627,-0.07455918937921524
1761379819851557000,5.23055712890625,0.1731930822134018,-0.46028292179107666,-0.11764407157897949
1761379819861640000,5.240639892578125,0.11966727674007416,-0.30130231380462646,-0.16234709322452545
1761379819871723000,5.250722900390625,0.09179063886404037,-0.10070903599262238,-0.2059078961610794
1761379819881805800,5.260805908203125,0.0840243324637413,0.13093005120754242,-0.23395363986492157
1761379819891889000,5.270888916015625,0.09161700308322906,0.3306889832019806,-0.26621782779693604
1761379819901971700,5.2809716796875,0.10182037204504013,0.4116610586643219,-0.3133153021335602
1761379819912056000,5.29105615234375,0.10178415477275848,0.40075087547302246,-0.3548606336116791
1761379819922139000,5.301138916015625,0.10759969800710678,0.34784984588623047,-0.37571582198143005
1761379819932222000,5.311221923828125,0.11620703339576721,0.27284884452819824,-0.39041727781295776
1761379819942304800,5.3213046875,0.12785597145557404,0.19280141592025757,-0.39251425862312317
1761379819952387800,5.331387939453125,0.1360315978527069,0.10736693441867828,-0.3813912868499756
1761379819962471000,5.341470947265625,0.13711710274219513,0.058213770389556885,-0.3461741805076599
1761379819972554000,5.351553955078125,0.12621039152145386,0.03364637866616249,-0.29499250650405884
1761379819982637000,5.361636962890625,0.10706866532564163,0.015089737251400948,-0.2620089650154114
1761379819992720000,5.371719970703125,0.09840193390846252,0.04361645132303238,-0.26512113213539124
1761379820002803000,5.381802978515625,0.07590302079916,0.03897003456950188,-0.3302692472934723
1761379820012885800,5.3918857421875,0.06076960638165474,-0.03796788677573204,-0.39862194657325745
1761379820022969000,5.401968994140625,0.045878540724515915,-0.12504419684410095,-0.41213828325271606
1761379820033052000,5.412052001953125,0.043297939002513885,-0.1685757040977478,-0.3500027358531952
1761379820043135000,5.422135009765625,0.055024102330207825,-0.1255030632019043,-0.21893633902072906
1761379820053217800,5.4322177734375,0.09825918823480606,-0.054142065346241,-0.0781179741024971
1761379820063300900,5.44230078125,0.13727742433547974,-0.001912948559038341,0.049545980989933014
1761379820073384000,5.452384033203125,0.13235057890415192,-0.00484189298003912,0.14181385934352875
1761379820083467000,5.462467041015625,0.10332053154706955,-0.05384352430701256,0.204313725233078
1761379820093550000,5.472550048828125,0.05103282257914543,-0.14903795719146729,0.2414746731519699
1761379820103633000,5.4826328125,-0.006809968966990709,-0.22172759473323822,0.2614281475543976
1761379820113716000,5.492716064453125,-0.06931915134191513,-0.2805456519126892,0.2611519694328308
1761379820123798800,5.502798828125,-0.13289573788642883,-0.3167121708393097,0.24243633449077606
1761379820133881900,5.5128818359375,-0.1966044008731842,-0.32623058557510376,0.1992449313402176
1761379820143965000,5.52296484375,-0.25737908482551575,-0.3286660313606262,0.13938212394714355
1761379820154048000,5.533048095703125,-0.2899572551250458,-0.313921183347702,0.09916014224290848
1761379820164130800,5.543130859375,-0.30636924505233765,-0.28274860978126526,0.0801643431186676
1761379820174214000,5.5532138671875,-0.30485472083091736,-0.21741913259029388,0.11323947459459305
1761379820184297000,5.563296875,-0.28843367099761963,-0.14411136507987976,0.18406011164188385
1761379820194379800,5.5733798828125,-0.2688263952732086,-0.09183857589960098,0.26464924216270447
1761379820204463900,5.5834638671875,-0.2402634620666504,-0.0468205027282238,0.33640119433403015
1761379820214547000,5.593546875,-0.20712335407733917,-0.021742047742009163,0.3737078011035919
1761379820224629800,5.603629638671875,-0.17781633138656616,0.08907341957092285,0.4228860139846802
1761379820234712800,5.613712890625,-0.15790867805480957,0.11689892411231995,0.41949981451034546
1761379820244796200,5.623796142578125,-0.1495588719844818,0.014724351465702057,0.3275187313556671
1761379820254879000,5.63387890625,-0.1437145620584488,-0.20165188610553741,0.13098570704460144
1761379820264962000,5.643962158203125,-0.2076818197965622,-0.5008735060691833,-0.1619553416967392
1761379820275044900,5.654044921875,-0.31647995114326477,-0.7222913503646851,-0.47614550590515137
1761379820285128000,5.6641279296875,-0.40914836525917053,-0.790726900100708,-0.7330976724624634
1761379820295210800,5.674210693359375,-0.5076110363006592,-0.6978192925453186,-0.8438721299171448
1761379820305294000,5.684294189453125,-0.5383806228637695,-0.4406692683696747,-0.7963005900382996
1761379820315377000,5.694376953125,-0.4614344537258148,-0.008971390314400196,-0.6210667490959167
1761379820325460000,5.7044599609375,-0.26280924677848816,0.4217917025089264,-0.369479238986969
1761379820335543000,5.71454296875,-0.041910696774721146,0.6703927516937256,-0.11753115803003311
1761379820345625900,5.7246259765625,0.11101973056793213,0.6590439677238464,0.08118034154176712
1761379820355709200,5.734709228515625,0.17577262222766876,0.4516393542289734,0.2136198729276657
1761379820365792000,5.7447919921875,0.17182742059230804,0.1532049924135208,0.2755090594291687
1761379820375875300,5.754875244140625,0.10999441146850586,-0.170039102435112,0.2676985561847687
1761379820385958100,5.764958251953125,0.011241203173995018,-0.4370196759700775,0.22920548915863037
1761379820396041200,5.775041259765625,-0.09820672869682312,-0.586750864982605,0.19687098264694214
1761379820406124000,5.7851240234375,-0.20340532064437866,-0.6436077356338501,0.18173997104167938
1761379820416207000,5.79520703125,-0.29155728220939636,-0.6164067387580872,0.16722813248634338
1761379820426290000,5.8052900390625,-0.34241461753845215,-0.559705913066864,0.13435034453868866
1761379820436373200,5.815373291015625,-0.3941401243209839,-0.4650425314903259,0.08649467676877975
1761379820446456300,5.825456298828125,-0.4382077157497406,-0.329797625541687,0.034693267196416855
1761379820456539100,5.8355390625,-0.48322391510009766,-0.18975475430488586,-0.03303784504532814
1761379820466622200,5.845622314453125,-0.5291642546653748,-0.06832312792539597,-0.1122937873005867
1761379820476705000,5.855705078125,-0.5699995756149292,0.015442339703440666,-0.17687250673770905
1761379820486788000,5.8657880859375,-0.5776178240776062,0.08145810663700104,-0.21645107865333557
1761379820496871200,5.87587109375,-0.5679587721824646,0.1815122663974762,-0.20410838723182678
1761379820506954200,5.885954345703125,-0.5494109392166138,0.28568315505981445,-0.16404007375240326
1761379820517037000,5.896037109375,-0.5208261609077454,0.3633459806442261,-0.131968155503273
1761379820527121200,5.90612109375,-0.4983682632446289,0.3908223509788513,-0.11964863538742065
1761379820537204000,5.916203857421875,-0.4883044362068176,0.34417787194252014,-0.12658058106899261
1761379820547287300,5.926287353515625,-0.486037015914917,0.27510854601860046,-0.12974761426448822
1761379820557370000,5.9363701171875,-0.4661405384540558,0.2272387444972992,-0.11112865060567856
1761379820567453200,5.946453125,-0.4386782944202423,0.21293331682682037,-0.08137315511703491
1761379820577536000,5.956535888671875,-0.4019240140914917,0.21385343372821808,-0.054358579218387604
1761379820587619000,5.966619140625,-0.3657907545566559,0.20584291219711304,-0.045280396938323975
1761379820597702100,5.9767021484375,-0.3239913880825043,0.2073523849248886,-0.04830041900277138
1761379820607785200,5.98678515625,-0.27604570984840393,0.21594028174877167,-0.03898308426141739
1761379820617868300,5.996868408203125,-0.2270858734846115,0.23909033834934235,-0.012283564545214176
1761379820627951000,6.006951171875,-0.17588287591934204,0.2606867253780365,0.027469441294670105
1761379820638034200,6.0170341796875,-0.1325732171535492,0.25900813937187195,0.064788319170475
1761379820648117000,6.027116943359375,-0.09618645161390305,0.2343326061964035,0.09130407869815826
1761379820658200000,6.037199951171875,-0.07507264614105225,0.1807173192501068,0.09491585940122604
1761379820668283100,6.047283203125,-0.074437215924263,0.11714845895767212,0.08561956137418747
1761379820678366200,6.0573662109375,-0.07255223393440247,0.0605405755341053,0.06223434582352638
1761379820688449000,6.067448974609375,-0.06161462888121605,0.02015640027821064,0.04403883218765259
1761379820698532000,6.077531982421875,-0.025253424420952797,0.02263686992228031,0.042143724858760834
1761379820708615200,6.087615234375,0.02864442765712738,0.063014917075634,0.05212898179888725
1761379820718698000,6.097697998046875,0.09177279472351074,0.12496883422136307,0.06902939826250076
1761379820728781300,6.10778125,0.14222824573516846,0.16509760916233063,0.09320371598005295
1761379820738864000,6.117864013671875,0.17821474373340607,0.18567319214344025,0.12660162150859833
1761379820748947200,6.127947265625,0.19916610419750214,0.18957951664924622,0.17526157200336456
1761379820759030000,6.138030029296875,0.22172333300113678,0.18148110806941986,0.2352825552225113
1761379820769113000,6.148113037109375,0.23783546686172485,0.14749304950237274,0.290055513381958
1761379820779196000,6.15819580078125,0.25359204411506653,0.10301186889410019,0.32492774724960327
1761379820789279200,6.168279296875,0.24724841117858887,0.04451180621981621,0.31742483377456665
1761379820799362300,6.1783623046875,0.23568496108055115,-0.0052046156488358974,0.28024470806121826
1761379820809445000,6.188445068359375,0.22241629660129547,-0.02557806484401226,0.23338425159454346
1761379820819528200,6.198528076171875,0.21239854395389557,-0.04303668439388275,0.19608108699321747
1761379820829611000,6.208611083984375,0.20346443355083466,-0.04416133463382721,0.184326171875
1761379820839694000,6.218694091796875,0.21335622668266296,-0.03692898899316788,0.19200272858142853
1761379820849777200,6.228777099609375,0.23561225831508636,-0.011243865825235844,0.23547670245170593
1761379820859860200,6.238860107421875,0.2685406506061554,0.058642808347940445,0.2926774024963379
1761379820869943000,6.248943115234375,0.3011441230773926,0.12401808798313141,0.3583541512489319
1761379820880026000,6.259026123046875,0.33942732214927673,0.2560482919216156,0.4448661506175995
1761379820890110000,6.26910986328125,0.3808131217956543,0.3618370294570923,0.5124641060829163
1761379820900193300,6.279193359375,0.447744220495224,0.3452173173427582,0.5152641534805298
1761379820910276000,6.289276123046875,0.5375640988349915,0.2553470730781555,0.4764285981655121
1761379820920359200,6.299359130859375,0.5694064497947693,0.08374922722578049,0.37377065420150757
1761379820930442000,6.30944189453125,0.5214144587516785,-0.13092951476573944,0.19684354960918427
1761379820940525000,6.319525146484375,0.4708612561225891,-0.2953070104122162,0.02617008425295353
1761379820950608100,6.329608154296875,0.4347551763057709,-0.3032459020614624,-0.04523405805230141
1761379820960691200,6.339691162109375,0.4120591878890991,-0.18855659663677216,-0.01804850809276104
1761379820970774300,6.349774169921875,0.3976035416126251,-0.059177037328481674,0.055993761867284775
1761379820980857000,6.359857177734375,0.3760644495487213,-0.003222425002604723,0.1090007871389389
1761379820990940200,6.369940185546875,0.33213984966278076,-0.01549400482326746,0.0972977876663208
1761379821001023000,6.38002294921875,0.267149955034256,-0.09046651422977448,0.00027057717670686543
1761379821011106000,6.39010595703125,0.18747109174728394,-0.15786126255989075,-0.12469425797462463
1761379821021189000,6.400189208984375,0.13995391130447388,-0.11420699954032898,-0.19962629675865173
1761379821031272200,6.410272216796875,0.1300344318151474,0.02907479554414749,-0.19000428915023804
1761379821041355000,6.42035498046875,0.17258721590042114,0.2353171855211258,-0.09467057883739471
1761379821051438000,6.43043798828125,0.2698242962360382,0.42475074529647827,0.03533082455396652
1761379821061521200,6.440521240234375,0.37951695919036865,0.5413439273834229,0.16506485641002655
1761379821071604000,6.45060400390625,0.4702513813972473,0.5820103883743286,0.26916515827178955
1761379821081687300,6.460687255859375,0.5263162851333618,0.541774332523346,0.3549860417842865
1761379821091770000,6.47077001953125,0.5349283814430237,0.4793010950088501,0.4216356575489044
1761379821101853200,6.480853271484375,0.4916594922542572,0.3543679416179657,0.443670392036438
1761379821111936000,6.49093603515625,0.3979697525501251,0.14704537391662598,0.40007948875427246
1761379821122019000,6.50101904296875,0.26876407861709595,-0.09142392128705978,0.2971448600292206
1761379821132102000,6.511101806640625,0.1422458291053772,-0.3215751051902771,0.15197674930095673
1761379821142185200,6.521185302734375,0.028608741238713264,-0.48445403575897217,-0.003163302782922983
1761379821152268300,6.531268310546875,-0.06450122594833374,-0.5365971326828003,-0.13898025453090668
1761379821162351000,6.54135107421875,-0.1479356735944748,-0.4554538130760193,-0.18870067596435547
1761379821172434200,6.55143408203125,-0.2091849148273468,-0.46983808279037476,-0.22186128795146942
1761379821182517000,6.56151708984375,-0.22319446504116058,-0.46326619386672974,-0.2507938742637634
1761379821192600000,6.57160009765625,-0.22240084409713745,-0.4355469346046448,-0.30078673362731934
1761379821202683100,6.58168310546875,-0.23516272008419037,-0.35312530398368835,-0.33696603775024414
1761379821212766200,6.59176611328125,-0.2544458508491516,-0.22770240902900696,-0.3607664406299591
1761379821222849000,6.60184912109375,-0.267483651638031,-0.046066828072071075,-0.378070592880249
1761379821232932000,6.61193212890625,-0.2576906681060791,0.13944178819656372,-0.40275490283966064
1761379821243015200,6.62201513671875,-0.22418063879013062,0.2955586910247803,-0.42811352014541626
1761379821253098200,6.63209814453125,-0.17753590643405914,0.42385780811309814,-0.4675309658050537
1761379821263182000,6.64218212890625,-0.14802594482898712,0.4950941503047943,-0.48944371938705444
1761379821273265200,6.65226513671875,-0.1064838320016861,0.5324434041976929,-0.47292226552963257
