time,seconds_elapsed,z,y,x
1761379420979953700,0.02595361328125,0.6231890320777893,0.316581666469574,-0.31202954053878784
1761379420990035700,0.03603564453125,0.620000958442688,0.27444887161254883,-0.42795106768608093
1761379421000117500,0.046117431640625,0.5880398154258728,0.25040799379348755,-0.5405553579330444
1761379421010199600,0.056199462890625,0.5574406385421753,0.2728746831417084,-0.6391637325286865
1761379421020281600,0.066281494140625,0.5460401773452759,0.3204334080219269,-0.7094349265098572
1761379421030363600,0.07636376953125,0.5571183562278748,0.3803694546222687,-0.7408344149589539
1761379421040445400,0.086445556640625,0.5930542945861816,0.4601052701473236,-0.710946798324585
1761379421050528500,0.096528564453125,0.6346355676651001,0.5072019696235657,-0.6376283764839172
1761379421060610600,0.106610595703125,0.6596437096595764,0.5171515345573425,-0.5624079704284668
1761379421070692600,0.116692626953125,0.651152491569519,0.5363166928291321,-0.4937623143196106
1761379421080774700,0.126774658203125,0.6384824514389038,0.5129682421684265,-0.4592762291431427
1761379421090856400,0.1368564453125,0.5909525156021118,0.431012898683548,-0.44814661145210266
1761379421100938500,0.1469384765625,0.5068866610527039,0.34876465797424316,-0.44277504086494446
1761379421111020500,0.1570205078125,0.41732266545295715,0.17398297786712646,-0.4244905710220337
1761379421121102600,0.1671025390625,0.32257646322250366,0.04169178754091263,-0.3478226959705353
1761379421131184600,0.1771845703125,0.2592022716999054,-0.025731196627020836,-0.20394141972064972
1761379421141266700,0.1872666015625,0.2614438533782959,-0.12668123841285706,-0.014828480780124664
1761379421151348500,0.197348388671875,0.3328991234302521,-0.1813303828239441,0.219389870762825
1761379421161430500,0.207430419921875,0.4644893705844879,-0.1910112351179123,0.42326125502586365
1761379421171513600,0.217513671875,0.631294846534729,-0.14190414547920227,0.4791375696659088
1761379421181595600,0.227595703125,0.8292984962463379,0.06078185886144638,0.3259029984474182
1761379421191677700,0.237677734375,1.0346697568893433,0.34084734320640564,0.0006114617572166026
1761379421201759500,0.247759521484375,1.1248310804367065,0.6017263531684875,-0.3669692277908325
1761379421211841500,0.257841552734375,0.9975418448448181,0.5356708765029907,-0.6764349341392517
1761379421221923600,0.267923583984375,0.7844716310501099,0.4476645886898041,-0.7606067657470703
1761379421232005600,0.278005615234375,0.6482594609260559,0.4064638912677765,-0.6227841973304749
1761379421242087700,0.288087646484375,0.6019843816757202,0.3487183153629303,-0.3710627555847168
1761379421252169700,0.298169677734375,0.5844591856002808,0.30753040313720703,-0.06061674281954765
1761379421262251500,0.30825146484375,0.5525183081626892,0.39306631684303284,0.2600933611392975
1761379421272333600,0.31833349609375,0.5100281238555908,0.7336273789405823,0.5573969483375549
1761379421282415600,0.32841552734375,0.5078338980674744,0.935242235660553,0.7480526566505432
1761379421292497700,0.33849755859375,0.5974956154823303,0.8847183585166931,0.842807948589325
1761379421302580500,0.34858056640625,0.7266006469726562,0.6716417670249939,0.8612388372421265
1761379421312662500,0.35866259765625,0.8449901342391968,0.4612022340297699,0.8038333654403687
1761379421322744600,0.36874462890625,0.8943925499916077,0.3529183864593506,0.6983966827392578
1761379421332826600,0.37882666015625,0.8433858156204224,0.3059205114841461,0.5920467972755432
1761379421342908700,0.38890869140625,0.749423086643219,0.22062158584594727,0.5186021327972412
1761379421352990700,0.39899072265625,0.6480054259300232,0.05724278464913368,0.4662255048751831
1761379421363072500,0.409072509765625,0.5346250534057617,-0.08040030300617218,0.46336764097213745
1761379421373154600,0.419154541015625,0.430338054895401,-0.18006643652915955,0.4822356104850769
1761379421383236600,0.429236572265625,0.33785128593444824,-0.2242613285779953,0.5036298632621765
1761379421393318700,0.439318603515625,0.2750408947467804,-0.20704612135887146,0.5450451970100403
1761379421403400700,0.449400634765625,0.24209092557430267,-0.09141886234283447,0.5966529846191406
1761379421413482800,0.459482666015625,0.23440878093242645,0.08740414679050446,0.6366038918495178
1761379421423565600,0.469565673828125,0.2673763036727905,0.21089012920856476,0.6720750331878662
1761379421433647600,0.479647705078125,0.3300330340862274,0.17250119149684906,0.6970728039741516
1761379421443729700,0.489729736328125,0.35375353693962097,0.002799514913931489,0.6348558068275452
1761379421453811700,0.499811767578125,0.32701408863067627,-0.20245856046676636,0.4789580702781677
1761379421463893800,0.509893798828125,0.28250759840011597,-0.375007688999176,0.2951672077178955
1761379421473975600,0.5199755859375,0.22713755071163177,-0.45616087317466736,0.1496131867170334
1761379421484057600,0.5300576171875,0.14993517100811005,-0.4144938588142395,0.09355205297470093
1761379421494139600,0.5401396484375,0.07281588017940521,-0.28187429904937744,0.12661173939704895
1761379421504221700,0.5502216796875,-0.03701261430978775,-0.1165897324681282,0.17659208178520203
1761379421514303700,0.5603037109375,-0.17849597334861755,-0.02393942140042782,0.1710851937532425
1761379421524385500,0.570385498046875,-0.33804357051849365,0.007470433134585619,0.12589800357818604
1761379421534467600,0.580467529296875,-0.390173077583313,0.014997857622802258,0.14176805317401886
1761379421544550700,0.590550537109375,-0.36789706349372864,0.11129429936408997,0.2397739738225937
1761379421554632700,0.6006328125,-0.2938004732131958,0.21525931358337402,0.4062447249889374
1761379421564714800,0.61071484375,-0.20716170966625214,0.25812768936157227,0.5405977368354797
1761379421574796800,0.620796875,-0.15700480341911316,0.16807769238948822,0.5890102982521057
1761379421584878600,0.630878662109375,-0.1933385729789734,0.011692075990140438,0.5502615571022034
1761379421594960400,0.64096044921875,-0.2151208370923996,-0.06612548977136612,0.4167402386665344
1761379421605042400,0.65104248046875,-0.17211131751537323,-0.11710105836391449,0.25167325139045715
1761379421615124500,0.66112451171875,-0.1311393827199936,-0.2778302729129791,0.09754546731710434
1761379421625206500,0.67120654296875,-0.1246228888630867,-0.3268105983734131,0.010950119234621525
1761379421635288600,0.68128857421875,-0.1041511669754982,-0.29722875356674194,0.02113005332648754
1761379421645370400,0.691370361328125,-0.05681587755680084,-0.3117640018463135,0.07547185570001602
1761379421655453700,0.70145361328125,-0.026934677734971046,-0.29629266262054443,0.16918715834617615
1761379421665535500,0.711535400390625,-0.02364008128643036,-0.2654052972793579,0.2663688361644745
1761379421675617500,0.721617431640625,-0.037518613040447235,-0.2772587835788727,0.32719409465789795
1761379421685699600,0.731699462890625,-0.023510118946433067,-0.2605796456336975,0.34943923354148865
1761379421695781400,0.741781494140625,-0.038778819143772125,-0.25962117314338684,0.31228572130203247
1761379421705863400,0.751863525390625,-0.054907724261283875,-0.28159892559051514,0.25619661808013916
1761379421715945500,0.761945556640625,-0.05566619336605072,-0.3269821107387543,0.20949169993400574
1761379421726027500,0.772027587890625,-0.04730653017759323,-0.38637059926986694,0.18412642180919647
1761379421736109600,0.782109619140625,-0.028270520269870758,-0.4647437036037445,0.14308978617191315
1761379421746191600,0.792191650390625,-0.026805780827999115,-0.5031446218490601,0.09430865943431854
1761379421756273400,0.8022734375,-0.04224705696105957,-0.525939404964447,0.01455683819949627
1761379421766356500,0.8123564453125,-0.10883860290050507,-0.5332343578338623,-0.09286203235387802
1761379421776438500,0.8224384765625,-0.15876540541648865,-0.46308428049087524,-0.10550592094659805
1761379421786520600,0.8325205078125,-0.16933603584766388,-0.35609951615333557,0.016869528219103813
1761379421796602400,0.842602294921875,-0.09853269904851913,-0.2576525807380676,0.15681570768356323
1761379421806684400,0.852684326171875,-0.055037952959537506,-0.22772903740406036,0.25818973779678345
1761379421816766500,0.862766357421875,-0.0834839716553688,-0.19046688079833984,0.267642617225647
1761379421826848500,0.8728486328125,-0.16576366126537323,-0.14723579585552216,0.16646914184093475
1761379421836930600,0.8829306640625,-0.275971382856369,-0.10143847018480301,-0.0059692091308534145
1761379421847012600,0.8930126953125,-0.33553940057754517,-0.06931755691766739,-0.17189399898052216
1761379421857094400,0.903094482421875,-0.2974383533000946,-0.16416549682617188,-0.32286885380744934
1761379421867176400,0.913176513671875,-0.26301324367523193,-0.25985926389694214,-0.3706776797771454
1761379421877259500,0.923259521484375,-0.2177714705467224,-0.2735500633716583,-0.33638015389442444
1761379421887341600,0.933341552734375,-0.15557734668254852,-0.2526508867740631,-0.27443981170654297
1761379421897423600,0.943423583984375,-0.09656648337841034,-0.17299601435661316,-0.20987333357334137
1761379421907505400,0.95350537109375,-0.1294940710067749,-0.08019683510065079,-0.14075179398059845
1761379421917587500,0.96358740234375,-0.22710052132606506,0.054306913167238235,-0.017044231295585632
1761379421927669500,0.97366943359375,-0.23232164978981018,0.12213496118783951,0.08633115887641907
1761379421937751600,0.98375146484375,-0.14839506149291992,0.0716685950756073,0.12823866307735443
1761379421947833600,0.99383349609375,-0.07590328902006149,-0.011885687708854675,0.12661227583885193
1761379421957915600,1.00391552734375,-0.04096900299191475,-0.01823839172720909,0.11110841482877731
1761379421967997400,1.01399755859375,-0.008442752994596958,0.007699731271713972,0.06475662440061569
1761379421978080500,1.02408056640625,0.011959457769989967,0.047996554523706436,-0.014099307358264923
1761379421988162600,1.03416259765625,-0.0035662390291690826,0.075959213078022,-0.10522176325321198
1761379421998241500,1.044241455078125,-0.015128086321055889,0.06883233040571213,-0.17252090573310852
1761379422008323300,1.0543232421875,-0.005231513641774654,0.05294524133205414,-0.21108826994895935
1761379422018405400,1.0644052734375,0.02184910513460636,0.044260937720537186,-0.25986912846565247
1761379422028487400,1.0744873046875,0.06035016104578972,0.011444934643805027,-0.30791547894477844
1761379422038569500,1.084569580078125,0.06257789582014084,0.0017393104499205947,-0.32644015550613403
1761379422048651500,1.094651611328125,0.004661597311496735,0.10125178843736649,-0.30196651816368103
1761379422058733600,1.104733642578125,-0.07368060946464539,0.21391068398952484,-0.2196977436542511
1761379422068815400,1.1148154296875,-0.11554097384214401,0.2837267816066742,-0.1682973951101303
1761379422078898400,1.1248984375,-0.1197330579161644,0.28409138321876526,-0.13151994347572327
1761379422088980500,1.13498046875,-0.1150970309972763,0.2965158224105835,-0.07606787234544754
1761379422099062500,1.1450625,-0.1409403383731842,0.35044270753860474,-0.008711466565728188
1761379422109144600,1.15514453125,-0.2216341197490692,0.3557133674621582,0.012372246943414211
1761379422119226400,1.165226318359375,-0.30660200119018555,0.339476615190506,-0.08932801336050034
1761379422129308400,1.175308349609375,-0.3353519141674042,0.3314676880836487,-0.22143971920013428
1761379422139390500,1.185390380859375,-0.32633548974990845,0.33538466691970825,-0.2816982567310333
1761379422149472500,1.195472412109375,-0.28840065002441406,0.2821965217590332,-0.27351143956184387
1761379422159554600,1.205554443359375,-0.2244863659143448,0.2130584716796875,-0.2236804962158203
1761379422169637400,1.215637451171875,-0.17408311367034912,0.18133170902729034,-0.10434877872467041
1761379422179719400,1.225719482421875,-0.15182095766067505,0.15295226871967316,0.011406585574150085
1761379422189801500,1.235801513671875,-0.16373620927333832,0.13906840980052948,0.06751086562871933
1761379422199883500,1.245883544921875,-0.1916932612657547,0.16095267236232758,0.0469784289598465
1761379422209965600,1.255965576171875,-0.20941287279129028,0.10781967639923096,-0.05174495279788971
1761379422220047400,1.26604736328125,-0.19275666773319244,0.041492316871881485,-0.1286943256855011
1761379422230129400,1.27612939453125,-0.1117907166481018,-0.05085093155503273,-0.10757199674844742
1761379422240211500,1.28621142578125,-0.0190152358263731,-0.12446469813585281,0.011332549154758453
1761379422250293500,1.29629345703125,0.0341169573366642,-0.13346298038959503,0.14518168568611145
1761379422260375600,1.30637548828125,0.06991756707429886,-0.08952535688877106,0.2267330139875412
1761379422270458400,1.316458251953125,0.0948982834815979,-0.06376300007104874,0.22978925704956055
1761379422280540400,1.32654052734375,0.15891028940677643,-0.07558956742286682,0.15938806533813477
1761379422290622500,1.33662255859375,0.18669424951076508,-0.12232857197523117,0.03539101406931877
1761379422300704500,1.34670458984375,0.15157940983772278,-0.10082594305276871,-0.04157514125108719
1761379422310786600,1.35678662109375,0.12479439377784729,-0.06450442224740982,-0.06610099226236343
1761379422320868600,1.36686865234375,0.10156524181365967,-0.017041034996509552,-0.09119755029678345
1761379422330950400,1.376950439453125,0.09932152926921844,-0.021749237552285194,-0.14417581260204315
1761379422341032400,1.387032470703125,0.07150427997112274,0.016410931944847107,-0.1824190765619278
1761379422351114500,1.397114501953125,0.09564423561096191,0.04802798107266426,-0.1584431678056717
1761379422361197600,1.407197509765625,0.09482318162918091,0.09680190682411194,-0.1478898674249649
1761379422371279400,1.417279296875,0.07463082671165466,0.09969276934862137,-0.14481550455093384
1761379422381361400,1.427361328125,0.0471629835665226,0.06655266135931015,-0.13831207156181335
1761379422391443500,1.437443359375,0.0037734329234808683,0.08596550673246384,-0.11661236733198166
1761379422401525500,1.447525390625,0.00253532943315804,0.09503064304590225,-0.07300363481044769
1761379422411607600,1.457607666015625,-0.03840650990605354,0.13823430240154266,-0.04692276567220688
1761379422421689600,1.467689697265625,-0.0387447327375412,0.17423251271247864,0.016410665586590767
1761379422431771400,1.477771484375,-0.047322776168584824,0.1701355129480362,0.018425345420837402
1761379422441853400,1.487853515625,-0.09510307759046555,0.12645168602466583,-0.018687134608626366
1761379422451936500,1.4979365234375,-0.1015375405550003,0.1488611102104187,-0.0024138891603797674
1761379422462018600,1.5080185546875,-0.07096418738365173,0.11104156821966171,0.0059875850565731525
1761379422472100600,1.5181005859375,-0.07984422892332077,0.1086292713880539,-0.011848137713968754
1761379422482182400,1.528182373046875,-0.07349658757448196,0.09918384253978729,-0.021764151751995087
1761379422492264400,1.538264404296875,-0.02538525126874447,0.05433381348848343,-0.035981435328722
1761379422502346500,1.548346435546875,-0.06468338519334793,0.00947952177375555,-0.04013996198773384
1761379422512428500,1.558428466796875,-0.08030176162719727,0.016627179458737373,-0.03508341684937477
1761379422522510600,1.568510498046875,-0.06096668168902397,0.013107546605169773,-0.024102406576275826
1761379422532592600,1.578592529296875,-0.05092629790306091,0.012131763622164726,-0.0032117723021656275
1761379422542675500,1.588675537109375,-0.04066487029194832,-0.001776594785042107,0.029524069279432297
1761379422552757500,1.598757568359375,-0.032270852476358414,0.0020453077740967274,0.07206167280673981
1761379422562839600,1.608839599609375,-0.017375795170664787,0.015306518413126469,0.1068715900182724
1761379422572921600,1.618921630859375,0.012379970401525497,-0.028556277975440025,0.08899671584367752
1761379422583003600,1.629003662109375,0.010320814326405525,-0.010404704138636589,0.03955033794045448
1761379422593085400,1.63908544921875,0.028382904827594757,0.010283263400197029,0.027344273403286934
1761379422603167500,1.64916748046875,0.016319850459694862,0.005055212415754795,0.005875465925782919
1761379422613249500,1.65924951171875,0.017969679087400436,-0.006738063879311085,-0.024040088057518005
1761379422623332600,1.66933251953125,0.04710279777646065,-0.007611047942191362,-0.030415164306759834
1761379422633414400,1.679414306640625,0.07210002839565277,-0.027454793453216553,-0.004150004126131535
1761379422643496400,1.689496337890625,0.08031827211380005,-0.02857625111937523,0.03220320865511894
1761379422653578500,1.69957861328125,0.07192079722881317,-0.0117325559258461,0.042269691824913025
1761379422663660500,1.70966064453125,0.06173686683177948,-0.002389388158917427,0.02701057866215706
1761379422673742600,1.71974267578125,0.04417784884572029,-0.0007022755453363061,-0.003228283952921629
1761379422683824600,1.72982470703125,0.017797639593482018,-0.024956747889518738,-0.015747271478176117
1761379422693906400,1.739906494140625,-0.0002205097407568246,-0.03347193822264671,0.01369290892034769
1761379422703989500,1.749989501953125,-0.005169994663447142,-0.05127384141087532,0.04749774560332298
1761379422714071600,1.760071533203125,0.006376673001796007,-0.06971729546785355,0.06461787223815918
1761379422724153600,1.770153564453125,0.01834944635629654,-0.08605126291513443,0.0653475821018219
1761379422734235600,1.780235595703125,0.02690591663122177,-0.10389816761016846,0.057378336787223816
1761379422744317400,1.7903173828125,0.017481788992881775,-0.10667397826910019,0.048232510685920715
1761379422754399500,1.8003994140625,0.01956571266055107,-0.11960149556398392,0.034820299595594406
1761379422764481500,1.8104814453125,0.02924816682934761,-0.1418175846338272,0.02431918866932392
1761379422774563600,1.8205634765625,0.028717398643493652,-0.14903342723846436,0.03495904803276062
1761379422784645600,1.830645751953125,0.015236743725836277,-0.12423379719257355,0.05372421443462372
1761379422794728400,1.840728515625,-0.0012540825409814715,-0.10344596207141876,0.05849899724125862
1761379422804810500,1.850810546875,-0.011742675676941872,-0.07560927420854568,0.054613709449768066
1761379422814892500,1.860892578125,-0.02033376693725586,-0.05251753702759743,0.03844166547060013
1761379422824974600,1.870974609375,-0.032335568219423294,-0.02106001228094101,0.016377907246351242
1761379422835056600,1.881056640625,-0.04339487850666046,0.0018109495285898447,-0.011766377836465836
1761379422845138400,1.891138427734375,0.017168600112199783,0.01841762289404869,-0.030606644228100777
1761379422855220500,1.901220458984375,-0.04165609925985336,0.0060232714749872684,-0.04669985920190811
1761379422865302300,1.91130224609375,-0.08443232625722885,0.07040519267320633,-0.02617674320936203
1761379422875385600,1.921385498046875,-0.0659574419260025,0.07990521937608719,-0.03158429265022278
1761379422885467600,1.931467529296875,-0.07293625921010971,0.0767270028591156,-0.05998850241303444
1761379422895549400,1.941549560546875,-0.07591687142848969,0.08756180852651596,-0.07208511233329773
1761379422905631500,1.951631591796875,-0.06663361936807632,0.09657607227563858,-0.07456930726766586
1761379422915713500,1.961713623046875,-0.05541052669286728,0.09435606002807617,-0.06948906183242798
1761379422925795600,1.971795654296875,-0.037399303168058395,0.08022639900445938,-0.06732870638370514
1761379422935877400,1.98187744140625,-0.01992550492286682,0.06370574235916138,-0.059484899044036865
1761379422945959400,1.99195947265625,-0.0016596820205450058,0.05811204016208649,-0.04628786817193031
1761379422956042500,2.00204248046875,0.010269415564835072,0.054072823375463486,-0.03479393199086189
1761379422966124500,2.01212451171875,0.021738318726420403,0.02039715088903904,-0.016881512477993965
1761379422976206600,2.02220654296875,0.07096684724092484,0.008359928615391254,0.0239559318870306
1761379422986288600,2.03228857421875,0.047687627375125885,0.02040487341582775,0.06172355264425278
1761379422996371000,2.042370849609375,0.03061969392001629,0.014183197170495987,0.07791130989789963
1761379423006453000,2.052452880859375,0.04595976695418358,-0.02287202700972557,0.06749515235424042
1761379423016535000,2.06253515625,0.05025331676006317,-0.04969804733991623,0.06560830771923065
1761379423026617000,2.0726171875,0.05176572501659393,-0.06767971068620682,0.059548281133174896
1761379423036700000,2.082699951171875,0.05636447295546532,-0.06715559959411621,0.04717417061328888
1761379423046782000,2.092781982421875,0.045829806476831436,-0.06751991808414459,0.028922194615006447
1761379423056864000,2.102864013671875,0.034393128007650375,-0.06526502221822739,0.005352154839783907
1761379423066946000,2.112946044921875,0.012111257761716843,-0.0908321663737297,-0.022364428266882896
1761379423077028000,2.123028076171875,-0.004603007808327675,-0.08654873818159103,-0.019567841663956642
1761379423087110100,2.133110107421875,-0.035522039979696274,-0.051908206194639206,0.008647283539175987
1761379423097192000,2.14319189453125,-0.040760211646556854,-0.050332944840192795,0.03062182478606701
1761379423107274000,2.15327392578125,-0.04312802851200104,-0.03892369568347931,0.04198180511593819
1761379423117357000,2.163357177734375,-0.05042961984872818,-0.043475572019815445,0.043195940554142
1761379423127439000,2.173439208984375,-0.04778936132788658,-0.044005539268255234,0.042981553822755814
1761379423137521200,2.183521240234375,-0.03075018897652626,-0.057172741740942,0.03832901269197464
1761379423147603000,2.19360302734375,-0.00022849922243040055,-0.07017828524112701,0.029740585014224052
1761379423157685000,2.20368505859375,0.02298174798488617,-0.06985604763031006,0.029803169891238213
1761379423167767000,2.21376708984375,0.03897802531719208,-0.06502853333950043,0.022774288430809975
1761379423177849000,2.22384912109375,0.04026219993829727,-0.051667720079422,0.011680091731250286
1761379423187931100,2.23393115234375,0.03935752436518669,-0.03972930461168289,-0.0043777041137218475
1761379423198014000,2.244013916015625,0.03171079233288765,-0.03501417487859726,-0.007300789933651686
1761379423208096000,2.254095947265625,0.016894029453396797,-0.027776503935456276,-0.00860307551920414
1761379423218178000,2.264177978515625,0.003644536016508937,-0.027290210127830505,-0.003732952754944563
1761379423228260000,2.274260009765625,-0.008670720271766186,-0.03501923754811287,0.007502657361328602
1761379423238342100,2.284342041015625,-0.012855610810220242,-0.0333813913166523,0.025308020412921906
1761379423248424000,2.294423828125,-0.005077582783997059,-0.04021293297410011,0.03412974253296852
1761379423258506000,2.304506103515625,0.00159470085054636,-0.05647925287485123,0.03032674640417099
1761379423268587800,2.314587890625,0.0002671150432433933,-0.06424769759178162,0.03618916496634483
1761379423278671000,2.324671142578125,0.0036756948102265596,-0.06153633072972298,0.04856939986348152
1761379423288753200,2.334753173828125,0.0027358653023838997,-0.0627392828464508,0.061760302633047104
1761379423298835000,2.3448349609375,-0.00959616806358099,-0.041312284767627716,0.09897159039974213
1761379423308917000,2.3549169921875,-0.02237960696220398,-0.0006743124104104936,0.12860138714313507
1761379423318999000,2.3649990234375,-0.022966569289565086,0.016350477933883667,0.11765925586223602
1761379423329081000,2.3750810546875,-0.01780216582119465,-0.006594519596546888,0.07884101569652557
1761379423339163000,2.385162841796875,-0.00036245622322894633,-0.02165203168988228,0.053093843162059784
1761379423349245000,2.395244873046875,0.023123161867260933,-0.03050065040588379,0.0436185821890831
1761379423359328000,2.405327880859375,0.03943023085594177,-0.02696077711880207,0.03299017250537872
1761379423369410000,2.41541015625,0.05589495599269867,-0.013630058616399765,0.022117819637060165
1761379423379492000,2.4254921875,0.06061461195349693,-0.0007632619817741215,0.005520466715097427
1761379423389574100,2.43557421875,0.05101471394300461,0.008450210094451904,-0.015632223337888718
1761379423399656000,2.445656005859375,0.04459436610341072,0.009638512507081032,-0.02917999029159546
1761379423409737700,2.45573779296875,0.046907588839530945,0.006707170978188515,-0.03208443149924278
1761379423419819800,2.46581982421875,0.049122005701065063,-0.0014879080699756742,-0.02190982550382614
1761379423429903000,2.475903076171875,0.049440786242485046,0.008813997730612755,-0.010885404422879219
1761379423439985200,2.485985107421875,0.046603988856077194,-0.0021225393284112215,-0.00621129060164094
1761379423450067000,2.49606689453125,0.047870319336652756,-0.001085504423826933,0.008026501163840294
1761379423460149000,2.50614892578125,0.05800098553299904,-0.014679077081382275,0.024862738326191902
1761379423470231000,2.51623095703125,0.07088988274335861,-0.015615178272128105,0.036969736218452454
1761379423480312800,2.526312744140625,0.08352898061275482,-0.025435319170355797,0.036971598863601685
1761379423490395000,2.536394775390625,0.09059381484985352,-0.02605130709707737,0.028088359162211418
1761379423500477000,2.546476806640625,0.08679987490177155,-0.03080824576318264,0.015795474871993065
1761379423510560000,2.55656005859375,0.08057872951030731,-0.022419288754463196,0.0003355582884978503
1761379423520642000,2.56664208984375,0.06908079981803894,-0.011444135569036007,-0.01187902968376875
1761379423530724000,2.57672412109375,0.05313672125339508,0.0014942996203899384,-0.004484763368964195
1761379423540806100,2.58680615234375,0.026249447837471962,0.023313045501708984,0.015740880742669106
1761379423550888000,2.596887939453125,0.006647516507655382,0.03994714841246605,0.030795462429523468
1761379423560969700,2.6069697265625,0.0065503111109137535,0.030289195477962494,0.032344888895750046
1761379423571051800,2.6170517578125,0.021618209779262543,0.005176386330276728,0.033730264753103256
1761379423581133800,2.6271337890625,0.04151175543665886,-0.005302353762090206,0.04651477187871933
1761379423591217200,2.637217041015625,0.0550435446202755,-0.010732805356383324,0.05214842036366463
1761379423601299000,2.647298828125,0.05625741183757782,-0.012173841707408428,0.044496096670627594
1761379423611381000,2.657381103515625,0.042272090911865234,-0.0004713795206043869,0.04061027616262436
1761379423621463000,2.667463134765625,0.015448465012013912,0.02996455691754818,0.03566611930727959
1761379423631544800,2.677544921875,-0.00683233980089426,0.052191298454999924,0.02256123535335064
1761379423641627000,2.687626953125,-0.024169251322746277,0.06203540787100792,0.0076187714003026485
1761379423651709000,2.697708984375,-0.028688369318842888,0.0570443756878376,-0.006603308022022247
1761379423661792000,2.7077919921875,-0.023687485605478287,0.04670465365052223,-0.013145096600055695
1761379423671874000,2.7178740234375,-0.010871023871004581,0.04379488527774811,-0.012746687978506088
1761379423681956000,2.7279560546875,0.008390288800001144,0.022484535351395607,-0.012178368866443634
1761379423692038100,2.7380380859375,0.01251153089106083,0.01260980125516653,0.0013638047967106104
1761379423702120000,2.748119873046875,0.005800630897283554,0.00030786142451688647,0.015087606385350227
1761379423712201700,2.75820166015625,-0.009104016236960888,0.0018066884949803352,0.03265781328082085
1761379423722283800,2.76828369140625,-0.018266621977090836,0.0018953717080876231,0.043786630034446716
1761379423732367000,2.7783671875,-0.013546435162425041,0.0007744472241029143,0.04656057804822922
1761379423742449200,2.78844921875,0.002859169617295265,-0.0014045510906726122,0.047385092824697495
1761379423752531000,2.798531005859375,0.01871509850025177,0.006097307428717613,0.048405881971120834
1761379423762613000,2.808613037109375,0.01667751371860504,0.010329336859285831,0.041898179799318314
1761379423772694800,2.81869482421875,0.006363356951624155,0.021980931982398033,0.025672607123851776
1761379423782776800,2.82877685546875,-0.006646983791142702,0.025488048791885376,0.0030868700705468655
1761379423792859000,2.83885888671875,-0.01522635668516159,0.02461426705121994,-0.011985822580754757
1761379423802941000,2.84894091796875,-0.014011689461767673,0.023922909051179886,-0.006765494588762522
1761379423813024000,2.85902392578125,-0.011547466740012169,0.02901487424969673,0.008670187555253506
1761379423823106000,2.86910595703125,-0.001362473238259554,0.023007581010460854,0.00863157119601965
1761379423833188000,2.87918798828125,0.009967412799596786,0.017656492069363594,0.008812133222818375
1761379423843270000,2.889269775390625,0.02359214425086975,0.005287706386297941,0.009133843705058098
1761379423853352000,2.89935205078125,0.027968518435955048,-0.00501180300489068,0.013167733326554298
1761379423863433700,2.909433837890625,0.02021259441971779,0.0028514466248452663,0.026626285165548325
1761379423873515800,2.919515869140625,0.010513626970350742,0.006725014187395573,0.02659912034869194
1761379423883599000,2.92959912109375,0.005311408545821905,0.0014530207263305783,0.016098542138934135
1761379423893681200,2.93968115234375,0.007496798411011696,-0.0065412563271820545,0.0027020431589335203
1761379423903763000,2.949762939453125,0.012651879340410233,-0.016746489331126213,-0.0010237190872430801
1761379423913844700,2.9598447265625,0.020842431113123894,-0.019463712349534035,-0.0062706791795790195
1761379423923926800,2.9699267578125,0.01968076080083847,-0.01563994586467743,-0.006988667417317629
1761379423934008800,2.9800087890625,0.01974520832300186,-0.008892827667295933,0.004160123877227306
1761379423944091000,2.9900908203125,0.02166801132261753,-0.0016903083305805922,0.0024562333710491657
1761379423954174000,3.000174072265625,0.027766916900873184,-0.010130397975444794,-0.0017861821688711643
1761379423964256000,3.010256103515625,0.029762156307697296,-0.01966744475066662,-0.0024317323695868254
1761379423974338000,3.020338134765625,0.030106769874691963,-0.019764650613069534,0.007801730185747147
1761379423984419800,3.030419921875,0.03155126795172691,-0.02263340726494789,0.01607563905417919
1761379423994500900,3.0405009765625,0.040589772164821625,-0.032703883945941925,0.020980115979909897
1761379424004583000,3.0505830078125,0.055628374218940735,-0.04120895639061928,0.027654264122247696
1761379424014665000,3.0606650390625,0.06681551784276962,-0.044354148209095,0.026494191959500313
1761379424024747000,3.0707470703125,0.06831114739179611,-0.04628653824329376,0.029140042141079903
1761379424034829800,3.080829833984375,0.06269747018814087,-0.04194745048880577,0.022291457280516624
1761379424044911900,3.090911865234375,0.05263205245137215,-0.035477567464113235,0.0202216487377882
1761379424054994000,3.100993896484375,0.040713872760534286,-0.01997237652540207,0.00862970668822527
1761379424065076000,3.111075927734375,0.02629658579826355,-0.010388725437223911,0.007592406123876572
1761379424075157800,3.12115771484375,0.019951337948441505,-0.0017393104499205947,0.0034149715211242437
1761379424085239800,3.13123974609375,0.015577361918985844,0.0028415927663445473,0.003896737238392234
1761379424095321900,3.14132177734375,0.009809487499296665,0.006231530569493771,0.008646219037473202
1761379424105405000,3.151405029296875,0.005107942968606949,0.004875715356320143,0.013878797180950642
1761379424115487000,3.161487060546875,0.005530053749680519,-0.002153165638446808,0.010928547941148281
1761379424125568800,3.17156884765625,0.010087521746754646,-0.010455570183694363,-0.00025539714260958135
1761379424135650800,3.18165087890625,0.01925225742161274,-0.0267727579921484,0.0005339637864381075
1761379424145732900,3.19173291015625,0.02611256018280983,-0.019094066694378853,0.015077220275998116
1761379424155815000,3.20181494140625,0.019822174683213234,-0.009965548291802406,0.022659773007035255
1761379424165897000,3.21189697265625,0.020312195643782616,-0.0025276062078773975,0.024710938334465027
1761379424175979800,3.221979736328125,0.022476812824606895,-0.002802444389089942,0.018434934318065643
1761379424186061800,3.232061767578125,0.021821143105626106,-0.013990649953484535,0.018268220126628876
1761379424196143900,3.242143798828125,0.023329025134444237,-0.01882588490843773,0.021586785092949867
1761379424206226000,3.252225830078125,0.021935392171144485,-0.01677684858441353,0.02275111898779869
1761379424216308000,3.262307861328125,0.015103851445019245,-0.023969780653715134,0.012080364860594273
1761379424226389800,3.2723896484375,0.013712882995605469,-0.02810060977935791,0.002439189236611128
1761379424236471800,3.282471923828125,0.01398745458573103,-0.024042218923568726,0.007168963085860014
1761379424246555000,3.292554931640625,0.009125587530434132,-0.02189784124493599,0.011964251287281513
1761379424256637000,3.302636962890625,0.0070368703454732895,-0.008448079228401184,0.022467492148280144
1761379424266719000,3.312718994140625,0.0028423918411135674,-0.0004846953088417649,0.020172912627458572
1761379424276800800,3.32280078125,0.0011283813510090113,0.0038072550669312477,0.011669439263641834
1761379424286882800,3.3328828125,-0.009137039072811604,0.007678692229092121,-0.0059479037299752235
1761379424296964900,3.34296484375,-0.02286643348634243,0.00809068325906992,-0.022489063441753387
1761379424307047000,3.353046875,-0.03635427728295326,0.011670504696667194,-0.04120709002017975
1761379424317129700,3.363129638671875,-0.04451633617281914,0.022715965285897255,-0.049488987773656845
1761379424327211800,3.373211669921875,-0.041314683854579926,0.0347856767475605,-0.05541319027543068
1761379424337293800,3.3832939453125,-0.03140798956155777,0.03617291897535324,-0.050936151295900345
1761379424347375900,3.3933759765625,-0.021694909781217575,0.03165220096707344,-0.04195171222090721
1761379424357458000,3.4034580078125,-0.014476411044597626,0.019763318821787834,-0.01575366221368313
1761379424367540000,3.4135400390625,-0.011913117952644825,0.0001984054979402572,0.012952283956110477
1761379424377622000,3.4236220703125,-0.013127786107361317,-0.01318131573498249,0.050269030034542084
1761379424387703800,3.433703857421875,-0.012741361744701862,-0.016923855990171432,0.07900054007768631
1761379424397787000,3.443786865234375,-0.015596802346408367,-0.014222878031432629,0.09322182089090347
1761379424407869000,3.453868896484375,-0.018797390162944794,-0.022097311913967133,0.08610159158706665
1761379424417951000,3.463950927734375,-0.02166774496436119,-0.02822604589164257,0.06963527202606201
1761379424428032800,3.47403271484375,-0.03241706266999245,-0.02130209282040596,0.06089131534099579
1761379424438114800,3.48411474609375,-0.04765167459845543,-0.0026586337480694056,0.05010204762220383
1761379424448196900,3.49419677734375,-0.058585282415151596,0.014856443740427494,0.024355938658118248
1761379424458279000,3.50427880859375,-0.06776360422372818,0.034929223358631134,-0.002624012529850006
1761379424468361700,3.51436181640625,-0.07270829379558563,0.04769694805145264,-0.02660311572253704
1761379424478443800,3.52444384765625,-0.08125171065330505,0.053647782653570175,-0.028504878282546997
1761379424488525800,3.53452587890625,-0.09080474078655243,0.06488179415464401,-0.014944061636924744
1761379424498607900,3.54460791015625,-0.09955721348524094,0.07083688676357269,-0.0022418489679694176
1761379424508690000,3.55468994140625,-0.09349692612886429,0.07018308341503143,0.015048990957438946
1761379424518772000,3.56477197265625,-0.08275746554136276,0.05874747037887573,0.02708354964852333
1761379424528854000,3.57485400390625,-0.0724683403968811,0.0440705232322216,0.028982115909457207
1761379424538936800,3.584936767578125,-0.0594358965754509,0.015513978898525238,0.03322746232151985
1761379424549019000,3.595018798828125,-0.04478398337960243,0.005459746345877647,0.039673108607530594
1761379424559101000,3.605100830078125,-0.041485924273729324,-0.002192580606788397,0.050640806555747986
1761379424569183000,3.615182861328125,-0.04397810995578766,-0.00398781755939126,0.044308874756097794
1761379424579264800,3.6252646484375,-0.027996214106678963,-0.016931578516960144,0.033128660172224045
1761379424589346800,3.635346923828125,-0.016201339662075043,-0.02339773438870907,0.021692512556910515
1761379424599428900,3.645428955078125,-0.003916977439075708,-0.03538808599114418,0.01684795506298542
1761379424609512000,3.655511962890625,0.002008023438975215,-0.04190217703580856,0.023982297629117966
1761379424619594000,3.665593994140625,0.009428389370441437,-0.042276881635189056,0.03068787045776844
1761379424629675800,3.67567578125,0.008784436620771885,-0.04553872346878052,0.043466515839099884
1761379424639757800,3.6857578125,0.005130046978592873,-0.04117166996002197,0.05043947324156761
1761379424649839900,3.69583984375,-0.0040735709480941296,-0.04040068760514259,0.04759042337536812
1761379424659922000,3.705921875,-0.016831977292895317,-0.028299015015363693,0.03772181272506714
1761379424670004000,3.71600390625,-0.03063354268670082,-0.025407621636986732,0.021443773061037064
1761379424680086800,3.726086669921875,-0.0437309704720974,-0.008798818103969097,0.005051750224083662
1761379424690168800,3.7361689453125,-0.047141946852207184,-0.0035270904190838337,-0.004604072775691748
1761379424700251000,3.7462509765625,-0.04685778543353081,0.0007171892793849111,-0.018016284331679344
1761379424710333000,3.7563330078125,-0.04105076193809509,-0.0015941682504490018,-0.020788636058568954
1761379424720415000,3.7664150390625,-0.03825550898909569,0.006396380253136158,-0.016338493674993515
1761379424730496800,3.776496826171875,-0.03453187644481659,0.016321981325745583,-0.013107013888657093
1761379424740578800,3.786578857421875,-0.035946015268564224,0.025726402178406715,-0.014278005808591843
1761379424750662000,3.796661865234375,-0.03707413002848625,0.03154514357447624,-0.012694756500422955
1761379424760744000,3.806743896484375,-0.041181258857250214,0.03778599575161934,-0.007247793022543192
1761379424770826000,3.816825927734375,-0.03957883641123772,0.02918691374361515,-0.009342102333903313
1761379424780907800,3.82690771484375,-0.027208983898162842,0.022013157606124878,-0.006651510950177908
1761379424790989800,3.83698974609375,-0.006674414500594139,0.004760666750371456,-0.00618306128308177
1761379424801071900,3.84707177734375,0.007715976797044277,-0.0038059235084801912,-0.009947439655661583
1761379424811154000,3.85715380859375,0.00732422573491931,-0.004474376793950796,-0.005228317808359861
1761379424821236700,3.86723681640625,-0.0011883024126291275,0.013193033635616302,-0.009676329791545868
1761379424831318800,3.87731884765625,-0.015969112515449524,0.02232101745903492,-0.019400862976908684
1761379424841400800,3.88740087890625,-0.022346584126353264,0.017003217712044716,-0.030130738392472267
1761379424851483000,3.89748291015625,-0.012465458363294601,0.006192914675921202,-0.032942503690719604
1761379424861565000,3.90756494140625,-0.0022985744290053844,-0.00803422462195158,-0.03598489984869957
1761379424871647000,3.91764697265625,0.008270712569355965,-0.01835956610739231,-0.019302591681480408
1761379424881728800,3.927728759765625,0.013368269428610802,-0.015103052370250225,-0.0015896408585831523
1761379424891811800,3.937811767578125,0.008445949293673038,-0.008607336319983006,0.010996990837156773
1761379424901894000,3.947893798828125,0.00205223192460835,-0.007793208118528128,0.0017600831342861056
1761379424911976000,3.957975830078125,0.005036037415266037,-0.008237157016992569,-0.010086456313729286
1761379424922058000,3.96805810546875,0.004385693464428186,-0.011700598523020744,-0.011596468277275562
1761379424932139800,3.978139892578125,0.004343083128333092,-0.004451207350939512,0.0052144695073366165
1761379424942221800,3.988221923828125,0.00010199906682828441,-0.0032735576387494802,0.01870684139430523
1761379424952303900,3.998303955078125,-0.0010655306978151202,-0.0031641016248613596,0.012537895701825619
1761379424962387000,4.008386962890625,0.0006325007416307926,-0.007768174633383751,-0.009674198925495148
1761379424972468700,4.01846875,0.021689582616090775,-0.05078594759106636,-0.026504844427108765
1761379424982550800,4.02855078125,0.03816549479961395,-0.06335846334695816,-0.013399428687989712
1761379424992632800,4.0386328125,0.048400554805994034,-0.06662962585687637,0.005036303773522377
1761379425002715600,4.048715576171875,0.0589730404317379,-0.0661662369966507,0.026706179603934288
1761379425012797700,4.058797607421875,0.06193207576870918,-0.06642270088195801,0.035844817757606506
1761379425022879500,4.06887939453125,0.05314391106367111,-0.05853095278143883,0.03259016573429108
1761379425032962600,4.078962646484375,0.037585724145174026,-0.05000457912683487,0.015864184126257896
1761379425043044600,4.089044677734375,0.024081367999315262,-0.04211549460887909,-0.0033665020018815994
1761379425053126700,4.099126708984375,0.020962273702025414,-0.04091227799654007,-0.021703697741031647
1761379425063208700,4.109208740234375,0.024344487115740776,-0.04194105789065361,-0.03182397410273552
1761379425073290500,4.11929052734375,0.030555246397852898,-0.04194425418972969,-0.04043051227927208
1761379425083372500,4.12937255859375,0.032472189515829086,-0.051298074424266815,-0.04326944425702095
1761379425093454600,4.13945458984375,0.028925390914082527,-0.048051416873931885,-0.048286840319633484
1761379425103537700,4.14953759765625,0.02136840485036373,-0.05059100687503815,-0.04610917344689369
1761379425113619500,4.159619384765625,0.016086291521787643,-0.04218633472919464,-0.03790583834052086
1761379425123701500,4.169701416015625,0.009672068059444427,-0.03127057105302811,-0.01841229759156704
1761379425133783600,4.179783447265625,0.007004379760473967,-0.03038160689175129,-0.009896306321024895
1761379425143865600,4.189865478515625,0.01570679061114788,-0.03736628219485283,-0.006042712368071079
1761379425153947600,4.19994775390625,0.022474948316812515,-0.03509540110826492,-0.0024501082953065634
1761379425164029700,4.21002978515625,0.021331919357180595,-0.02997441031038761,-0.008835835382342339
1761379425174112500,4.220112548828125,0.02599138766527176,-0.03403865918517113,-0.006960437633097172
1761379425184194600,4.230194580078125,0.03074060194194317,-0.030709443613886833,0.007641141768544912
1761379425194276600,4.240276611328125,0.0310460664331913,-0.02430454082787037,0.013733122497797012
1761379425204358700,4.250358642578125,0.034815505146980286,-0.022554045543074608,0.007793474476784468
1761379425214440700,4.260440673828125,0.036798495799303055,-0.02780047245323658,0.0025872609112411737
1761379425224522500,4.2705224609375,0.03364584594964981,-0.03599528595805168,-0.007796137593686581
1761379425234604500,4.2806044921875,0.03381122648715973,-0.038535673171281815,-0.010083792731165886
1761379425244687600,4.2906875,0.03297606110572815,-0.03844539448618889,-0.008621717803180218
1761379425254769700,4.300769775390625,0.029696376994252205,-0.035540416836738586,-0.0016588830621913075
1761379425264851500,4.3108515625,0.032180305570364,-0.0415828637778759,0.0017779263434931636
1761379425274933500,4.32093359375,0.03497183322906494,-0.0458361990749836,0.0012516856659203768
1761379425285015600,4.331015625,0.038417428731918335,-0.04310912266373634,-0.0005243764026090503
1761379425295097600,4.34109765625,0.04182814061641693,-0.04688867926597595,-0.009265669621527195
1761379425305179600,4.3511796875,0.04282922297716141,-0.05137983337044716,-0.022113557904958725
1761379425315262500,4.361262451171875,0.04728788509964943,-0.059508066624403,-0.033197902143001556
1761379425325344500,4.371344482421875,0.05414552614092827,-0.07119188457727432,-0.036432310938835144
1761379425335426600,4.381426513671875,0.061034057289361954,-0.07222812622785568,-0.03044339269399643
1761379425345508600,4.391508544921875,0.060677461326122284,-0.06784669309854507,-0.017415741458535194
1761379425355590700,4.401590576171875,0.061517953872680664,-0.061051368713378906,-0.00022397184511646628
1761379425365672700,4.411672607421875,0.05428507551550865,-0.04682955518364906,0.015471101738512516
1761379425375754500,4.42175439453125,0.04475442320108414,-0.036081038415431976,0.014201040379703045
1761379425385837600,4.431837646484375,0.03895379230380058,-0.026998594403266907,-0.000006125270374468528
1761379425395919600,4.441919677734375,0.031986963003873825,-0.028986910358071327,-0.01465564128011465
1761379425406001700,4.452001708984375,0.03278644382953644,-0.027885694056749344,-0.01673770137131214
1761379425416083500,4.46208349609375,0.03255821019411087,-0.023744743317365646,-0.011079815216362476
1761379425426165500,4.47216552734375,0.03395557031035423,-0.017585651949048042,-0.0013342436868697405
1761379425436247600,4.48224755859375,0.03701714053750038,-0.016574449837207794,0.0028810077346861362
1761379425446329600,4.49232958984375,0.039093341678380966,-0.02377830073237419,-0.0039007319137454033
1761379425456412700,4.50241259765625,0.03746428340673447,-0.01643490046262741,-0.012589029036462307
1761379425466494500,4.512494384765625,0.027573836967349052,-0.006813431158661842,-0.02015240676701069
1761379425476576500,4.522576416015625,0.0108886007219553,0.0006857639527879655,-0.034392327070236206
1761379425486658600,4.532658447265625,0.0004697816038969904,0.0046450854279100895,-0.04187847301363945
1761379425496740600,4.54274072265625,-0.003614974906668067,0.014124074950814247,-0.04892679676413536
1761379425506822700,4.55282275390625,-0.008791627362370491,0.021759623661637306,-0.05500200018286705
1761379425516904700,4.56290478515625,-0.014552311040461063,0.02785719744861126,-0.058700863271951675
1761379425526987500,4.572987548828125,-0.018202705308794975,0.03332147002220154,-0.053584396839141846
1761379425537069600,4.583069580078125,-0.03663337975740433,0.02822577953338623,-0.05149168521165848
1761379425547151600,4.593151611328125,-0.05122670158743858,0.03364291414618492,-0.04253467544913292
1761379425557233700,4.603233642578125,-0.061464425176382065,0.029953638091683388,-0.03419125825166702
1761379425567315500,4.6133154296875,-0.06444237381219864,0.012370383366942406,-0.03669170290231705
1761379425577397500,4.6233974609375,-0.05925773084163666,-0.00962546281516552,-0.03699396923184395
1761379425587480600,4.63348046875,-0.05397135764360428,-0.01786688156425953,-0.032588303089141846
1761379425597562600,4.643562744140625,-0.044316064566373825,-0.03537476807832718,-0.03465065360069275
1761379425607644700,4.653644775390625,-0.035347338765859604,-0.04436506703495979,-0.03087588958442211
1761379425617726500,4.6637265625,-0.02449815161526203,-0.04923545569181442,-0.025918416678905487
1761379425627808500,4.67380859375,-0.01689962111413479,-0.06027638912200928,-0.01998702436685562
1761379425637890600,4.683890625,-0.009614810347557068,-0.06616757065057755,-0.021561484783887863
1761379425647972600,4.69397265625,-0.005152151454240084,-0.06411320716142654,-0.010522415861487389
1761379425658055400,4.704055419921875,-0.007933557033538818,-0.056650761514902115,-0.005649097263813019
1761379425668137500,4.714137451171875,-0.014679876156151295,-0.06747837364673615,-0.00908590666949749
1761379425678219500,4.724219482421875,-0.01113094761967659,-0.08134012669324875,-0.007107177749276161
1761379425688301600,4.734301513671875,-0.0022272015921771526,-0.0935608446598053,0.006198773626238108
1761379425698383600,4.744383544921875,-0.0035121769178658724,-0.08917807787656784,0.032890304923057556
1761379425708465700,4.754465576171875,-0.020443489775061607,-0.07242786139249802,0.044674262404441833
1761379425718547500,4.76454736328125,-0.04340127110481262,-0.041250765323638916,0.041726142168045044
1761379425728630500,4.774630615234375,-0.04980723559856415,-0.02977627143263817,0.018683671951293945
1761379425738712600,4.784712646484375,-0.04890389367938042,-0.020413130521774292,-0.002781671704724431
1761379425748794600,4.794794677734375,-0.03332573175430298,-0.027576234191656113,-0.03413160517811775
1761379425758876700,4.804876708984375,-0.018004832789301872,-0.02021419070661068,-0.05054040625691414
1761379425768958500,4.81495849609375,-0.015670571476221085,-0.019645340740680695,-0.060797836631536484
1761379425779040500,4.82504052734375,-0.02647022344172001,0.004309260752052069,-0.045095041394233704
1761379425789122600,4.83512255859375,-0.047206927090883255,0.00046099317842163146,-0.032345954328775406
1761379425799205600,4.84520556640625,-0.061688132584095,-0.002375007141381502,-0.018329473212361336
1761379425809287400,4.855287353515625,-0.06049077585339546,-0.013936588540673256,0.0015928366919979453
1761379425819369500,4.865369384765625,-0.06064363941550255,-0.016164056956768036,0.017959559336304665
1761379425829451500,4.875451416015625,-0.05726275593042374,-0.013126987032592297,0.036914873868227005
1761379425839533600,4.885533447265625,-0.05698179453611374,-0.016390956938266754,0.05043014883995056
1761379425849615600,4.89561572265625,-0.05006236955523491,-0.03314223885536194,0.04727829992771149
1761379425859697700,4.90569775390625,-0.03209109231829643,-0.05120859295129776,0.03687759116292
1761379425869780500,4.915780517578125,-0.015783756971359253,-0.06129558011889458,0.02761884406208992
1761379425879862500,4.925862548828125,-0.0070374030619859695,-0.07498982548713684,0.011607120744884014
1761379425889944600,4.935944580078125,-0.00440992834046483,-0.08486934751272202,-0.005879727192223072
1761379425900026600,4.946026611328125,-0.014271081425249577,-0.09019700437784195,-0.03350948914885521
1761379425910108700,4.956108642578125,-0.016317719593644142,-0.09276136010885239,-0.06170171499252319
1761379425920190500,4.9661904296875,-0.0060112872160971165,-0.10528647154569626,-0.08953787386417389
1761379425930273500,4.9762734375,-0.0025981799699366093,-0.12988530099391937,-0.11018935590982437
1761379425940355600,4.98635546875,-0.0024170849937945604,-0.1448301523923874,-0.1201501116156578
1761379425950437600,4.996437744140625,0.005862948950380087,-0.1510624885559082,-0.10433146357536316
1761379425960519700,5.006519775390625,0.0038195056840777397,-0.11248712986707687,-0.04471420869231224
1761379425970601500,5.0166015625,-0.009545834735035896,-0.08642943203449249,0.016025571152567863
1761379425980683500,5.02668359375,-0.022410234436392784,-0.07281827926635742,0.0466921366751194
1761379425990765600,5.036765625,-0.024268055334687233,-0.05301395058631897,0.03717959299683571
1761379426000850700,5.0468505859375,-0.03400510549545288,-0.03705761954188347,-0.00020746025256812572
1761379426010933800,5.056933837890625,-0.04318102449178696,0.003620567498728633,-0.03849439695477486
1761379426021015600,5.067015625,-0.042393796145915985,0.02786651812493801,-0.08010442554950714
1761379426031097600,5.07709765625,-0.048279114067554474,0.04032478481531143,-0.11822330951690674
1761379426041179600,5.0871796875,-0.052622731775045395,0.03299177065491676,-0.15395307540893555
1761379426051261700,5.09726171875,-0.05934401601552963,0.019351594150066376,-0.18642793595790863
1761379426061343700,5.10734375,-0.06502613425254822,0.011916314251720905,-0.20509935915470123
1761379426071426600,5.117426513671875,-0.0728457123041153,0.01098527293652296,-0.20281648635864258
1761379426081508600,5.127508544921875,-0.08158247917890549,0.008678442798554897,-0.1872471272945404
1761379426091590700,5.137590576171875,-0.08168420940637589,-0.0016623451374471188,-0.17656278610229492
1761379426101672700,5.147672607421875,-0.0813228189945221,-0.041431594640016556,-0.189461812376976
1761379426111754800,5.157754638671875,-0.05726994574069977,-0.05513196066021919,-0.17574173212051392
1761379426121836500,5.16783642578125,-0.0496533066034317,-0.08818046003580093,-0.1664789915084839
1761379426131918600,5.177918701171875,-0.049188051372766495,-0.05730004236102104,-0.08975651860237122
1761379426142001700,5.188001708984375,-0.06739155948162079,-0.01990845985710621,-0.006430734880268574
1761379426152083700,5.198083740234375,-0.09055893123149872,0.010251039639115334,0.042689140886068344
1761379426162165800,5.208165771484375,-0.10537941753864288,0.01260926853865385,0.037225931882858276
1761379426172247600,5.21824755859375,-0.10049811005592346,0.014809305779635906,0.00737402681261301
1761379426182329600,5.22832958984375,-0.08600359410047531,0.004270378965884447,-0.02070128358900547
1761379426192411600,5.23841162109375,-0.06766905635595322,-0.01751214824616909,-0.03460245206952095
1761379426202493700,5.24849365234375,-0.04392937570810318,-0.025679264217615128,-0.03404132276773453
1761379426212576500,5.258576416015625,-0.02008928917348385,-0.03320189565420151,-0.020627513527870178
1761379426222658600,5.268658447265625,0.0007821703911758959,-0.02839435636997223,0.0009622001089155674
1761379426232740600,5.27874072265625,0.015977101400494576,-0.027392741292715073,0.012909140437841415
1761379426242822700,5.28882275390625,0.0331486314535141,-0.03387168049812317,0.022788936272263527
1761379426252904700,5.29890478515625,0.04266250878572464,-0.03726428002119064,0.042941343039274216
1761379426262986800,5.30898681640625,0.04327050969004631,-0.024478977546095848,0.054421696811914444
1761379426273069600,5.319069580078125,0.040652621537446976,-0.025141838937997818,0.05186506360769272
1761379426283151600,5.329151611328125,0.037095967680215836,-0.03760383278131485,0.04077912122011185
1761379426293233700,5.339233642578125,0.04059296473860741,-0.044859617948532104,0.04632142558693886
1761379426303315700,5.349315673828125,0.04254799336194992,-0.04890096187591553,0.055276572704315186
1761379426313397800,5.359397705078125,0.049243178218603134,-0.039691753685474396,0.047742489725351334
1761379426323479600,5.3694794921875,0.046604786068201065,-0.03748798742890358,0.027063308283686638
1761379426333561600,5.3795615234375,0.037756700068712234,-0.033131055533885956,-0.005395830608904362
1761379426343644700,5.389644775390625,0.033374469727277756,-0.03455877676606178,-0.0315864235162735
1761379426353726700,5.399726806640625,0.02624465338885784,-0.039980970323085785,-0.037883199751377106
1761379426363808500,5.40980859375,0.021954568102955818,-0.04519890248775482,-0.014006895944476128
1761379426373890600,5.419890625,0.014079599641263485,-0.04114104434847832,0.030718231573700905
1761379426383972600,5.42997265625,0.006216616835445166,-0.034024011343717575,0.05522730201482773
1761379426394054700,5.4400546875,-0.002499643014743924,-0.041900843381881714,0.05204455927014351
1761379426404136700,5.45013671875,-0.008550078608095646,-0.0546235628426075,0.029994383454322815
1761379426414219500,5.460219482421875,-0.0005643238546326756,-0.06783470511436462,0.01013705600053072
1761379426424301600,5.470301513671875,0.006485862657427788,-0.08001680672168732,-0.0021851237397640944
1761379426434383600,5.480383544921875,0.01107289083302021,-0.07860106974840164,-0.018195781856775284
1761379426444465700,5.490465576171875,0.02076626382768154,-0.07563138008117676,-0.02497459203004837
1761379426454547700,5.500547607421875,0.026697125285863876,-0.07155274599790573,-0.026736272498965263
1761379426464629800,5.510629638671875,0.03507889062166214,-0.07029946148395538,-0.027473703026771545
1761379426474711600,5.520711669921875,0.05026263743638992,-0.07815871387720108,-0.028726186603307724
1761379426484794600,5.530794677734375,0.06398244202136993,-0.08094225078821182,-0.015026353299617767
1761379426494876700,5.540876708984375,0.07443881034851074,-0.0806620866060257,0.003020290983840823
1761379426504958700,5.550958740234375,0.08361553400754929,-0.07781090587377548,0.027883296832442284
1761379426515040500,5.56104052734375,0.09174323827028275,-0.06872659921646118,0.04259486496448517
1761379426525122600,5.57112255859375,0.08896929025650024,-0.05179741606116295,0.042957853525877
1761379426535204600,5.58120458984375,0.08165518194437027,-0.03459206596016884,0.03334437310695648
1761379426545288000,5.591287841796875,0.07267313450574875,-0.022242987528443336,0.009605489671230316
1761379426555369700,5.60136962890625,0.06891302019357681,-0.01119246706366539,-0.022040320560336113
1761379426565451500,5.611451416015625,0.05966892093420029,-0.0073564499616622925,-0.042400188744068146
1761379426575533600,5.621533447265625,0.05480918660759926,0.000024767397917457856,-0.0566699355840683
1761379426585615600,5.63161572265625,0.050401389598846436,0.00036991306114941835,-0.06324022263288498
1761379426595697700,5.64169775390625,0.052371859550476074,-0.0002585929469205439,-0.05818314477801323
1761379426605779700,5.65177978515625,0.057565558701753616,-0.006761233322322369,-0.058033209294080734
1761379426615862800,5.66186279296875,0.06173234060406685,-0.017553692683577538,-0.04512646421790123
1761379426625944600,5.671944580078125,0.06059703603386879,-0.023362580686807632,-0.02208772487938404
1761379426636026600,5.682026611328125,0.05685769021511078,-0.022477345541119576,-0.0005552690709009767
1761379426646108700,5.692108642578125,0.0569695420563221,-0.020084761083126068,0.010243316181004047
1761379426656190700,5.702190673828125,0.05548403039574623,-0.02503025159239769,0.01671959087252617
1761379426666272800,5.712272705078125,0.05589469149708748,-0.02503797598183155,0.01780136674642563
1761379426676354600,5.7223544921875,0.04977820813655853,-0.025843314826488495,0.01884639263153076
1761379426686438000,5.73243798828125,0.04430248215794563,-0.031565647572278976,0.01684156432747841
1761379426696520000,5.74252001953125,0.040880054235458374,-0.029889721423387527,0.020001670345664024
1761379426706601700,5.752601806640625,0.03013819456100464,-0.025599369779229164,0.019662650302052498
1761379426716683500,5.76268359375,0.014711568132042885,-0.015971243381500244,0.012819658033549786
1761379426726765600,5.772765625,0.00006125270738266408,-0.0014407701091840863,0.004224039614200592
1761379426736847600,5.78284765625,-0.01679202914237976,0.004781705792993307,-0.014555772766470909
1761379426746929700,5.7929296875,-0.02834109403192997,0.0009504822082817554,-0.03749491274356842
1761379426757012700,5.8030126953125,-0.03562004491686821,0.00464721629396081,-0.04108751565217972
1761379426767094800,5.8130947265625,-0.04905835539102554,0.027591681107878685,-0.0189577117562294
1761379426777176600,5.823176513671875,-0.05983110889792442,0.0494660846889019,0.0030605047941207886
1761379426787258600,5.833258544921875,-0.07016097754240036,0.060626327991485596,-0.0017073525814339519
1761379426797340700,5.843340576171875,-0.07237140089273453,0.055210258811712265,-0.02690804749727249
1761379426807422700,5.853422607421875,-0.06396300345659256,0.05197398364543915,-0.045046571642160416
1761379426817505800,5.863505859375,-0.06138985604047775,0.05079260841012001,-0.054966844618320465
1761379426827587800,5.873587890625,-0.06402931362390518,0.04488092288374901,-0.06244553625583649
1761379426837670000,5.883669921875,-0.06105616316199303,0.04217168688774109,-0.058945875614881516
1761379426847751700,5.893751708984375,-0.05766009911894798,0.044255077838897705,-0.035105522722005844
1761379426857833700,5.903833740234375,-0.05744491517543793,0.050215233117341995,-0.016506804153323174
1761379426867915500,5.91391552734375,-0.060863882303237915,0.06751193106174469,-0.00020240024605300277
1761379426877997600,5.92399755859375,-0.07310057431459427,0.07619091123342514,0.015779228881001472
1761379426888081000,5.934080810546875,-0.08804783225059509,0.07930813729763031,0.019888486713171005
1761379426898163000,5.944162841796875,-0.10646465420722961,0.0796346440911293,0.016895892098546028
1761379426908244700,5.95424462890625,-0.11622674018144608,0.08711066842079163,0.0027510453946888447
1761379426918326500,5.964326416015625,-0.12730975449085236,0.09356217831373215,-0.010852647945284843
1761379426928408600,5.97440869140625,-0.12787380814552307,0.10309842228889465,-0.030181072652339935
1761379426938490600,5.98449072265625,-0.12681493163108826,0.1056867465376854,-0.05281554535031319
1761379426948572700,5.99457275390625,-0.11879349499940872,0.08399823307991028,-0.07558850198984146
1761379426958655700,6.00465576171875,-0.1015910729765892,0.04825008660554886,-0.08701266348361969
1761379426968737800,6.01473779296875,-0.09289451688528061,0.020856279879808426,-0.0698413997888565
1761379426978819800,6.02481982421875,-0.09088889509439468,0.012251339852809906,-0.024889903143048286
1761379426988901600,6.034901611328125,-0.08519771695137024,-0.0056980992667376995,0.024862205609679222
1761379426998984200,6.044984130859375,-0.07418634742498398,-0.023630760610103607,0.05130473151803017
1761379427009066000,6.05506591796875,-0.057320546358823776,-0.05287919193506241,0.05501158535480499
1761379427019149000,6.065149169921875,-0.04147473722696304,-0.09421997517347336,0.05668911337852478
1761379427029231000,6.075231201171875,-0.042102713137865067,-0.11412017792463303,0.05421130731701851
1761379427039313200,6.085313232421875,-0.05098728463053703,-0.1311178058385849,0.05699723958969116
1761379427049395200,6.095395263671875,-0.05938982218503952,-0.1288924664258957,0.06800728291273117
1761379427059477000,6.10547705078125,-0.06198480725288391,-0.10233968496322632,0.08394869416952133
1761379427069559000,6.11555908203125,-0.07700689882040024,-0.08715248107910156,0.09544450044631958
1761379427079641000,6.12564111328125,-0.08186983317136765,-0.07317914068698883,0.09345830976963043
1761379427089724200,6.13572412109375,-0.051112186163663864,-0.1083935871720314,0.06706931442022324
1761379427099806000,6.145805908203125,0.0008466189028695226,-0.16773547232151031,0.038719166070222855
1761379427109888000,6.155887939453125,0.03855618089437485,-0.20173285901546478,0.0383247509598732
1761379427119970000,6.165969970703125,0.05439373478293419,-0.23872336745262146,0.060031112283468246
1761379427130052000,6.176052001953125,0.09759553521871567,-0.2608262598514557,0.10264302045106888
1761379427140134100,6.186134033203125,0.1453033983707428,-0.3560124337673187,0.13725852966308594
1761379427150216200,6.19621630859375,0.25288712978363037,-0.5926191210746765,0.15416346490383148
1761379427160299000,6.206299072265625,0.3535543382167816,-0.6636437773704529,0.16914960741996765
1761379427170381000,6.216381103515625,0.4008169174194336,-0.7035751938819885,0.15335866808891296
1761379427180463000,6.226463134765625,0.3649073839187622,-0.6746838688850403,0.11677135527133942
1761379427190545200,6.236545166015625,0.2887183427810669,-0.6232569217681885,0.07663006335496902
1761379427200627200,6.246627197265625,0.20718593895435333,-0.5165845155715942,0.03507037088274956
1761379427210709000,6.256708984375,0.11453723162412643,-0.3794117569923401,0.012307798489928246
1761379427220791000,6.266791015625,0.018158763647079468,-0.26802772283554077,-0.010550112463533878
1761379427230874000,6.2768740234375,-0.10544279962778091,-0.11856845766305923,-0.023075757548213005
1761379427240956200,6.2869560546875,-0.15715153515338898,-0.07683299481868744,-0.04616136848926544
1761379427251038000,6.297037841796875,-0.13342516124248505,-0.10676319897174835,-0.05151405557990074
1761379427261120000,6.3071201171875,-0.11995330452919006,-0.1271664798259735,-0.042940009385347366
1761379427271202000,6.3172021484375,-0.14035870134830475,-0.1473444402217865,-0.016290556639432907
1761379427281284000,6.3272841796875,-0.15735100209712982,-0.16174042224884033,0.018034927546977997
1761379427291367200,6.3373671875,-0.15935850143432617,-0.2008281797170639,0.034452516585588455
1761379427301449000,6.347448974609375,-0.15595658123493195,-0.23297199606895447,0.03526637703180313
1761379427311531000,6.357531005859375,-0.15343323349952698,-0.24652163684368134,0.046180013567209244
1761379427321613000,6.367613037109375,-0.025684591382741928,-0.3134623169898987,0.0938338190317154
1761379427331695000,6.377695068359375,0.07974063605070114,-0.3621795177459717,0.09349746257066727
1761379427341777200,6.387777099609375,0.07895872741937637,-0.32452401518821716,0.041681401431560516
1761379427351859200,6.397859130859375,0.037583593279123306,-0.20355792343616486,0.009829461574554443
1761379427361942000,6.40794189453125,-0.03534147888422012,-0.10715627670288086,-0.014139520935714245
1761379427372024000,6.418024169921875,-0.10333171486854553,0.028978122398257256,-0.02359427511692047
1761379427382106000,6.428106201171875,-0.05303099378943443,0.05962897464632988,-0.021215273067355156
1761379427392188200,6.438188232421875,0.038350850343704224,-0.010075537487864494,-0.042204443365335464
1761379427402270000,6.44827001953125,0.0766681432723999,-0.047265514731407166,-0.07115833461284637
1761379427412352000,6.45835205078125,0.06091448292136192,-0.044803690165281296,-0.0785888209939003
1761379427422434000,6.46843408203125,0.04761785268783569,-0.02076759561896324,-0.051526039838790894
1761379427432517000,6.47851708984375,0.032640501856803894,0.008302138186991215,-0.020607007667422295
1761379427442599200,6.48859912109375,0.01648896187543869,0.052134040743112564,0.015360847115516663
1761379427452681000,6.498680908203125,0.01212750282138586,0.07349099218845367,0.016096677631139755
1761379427462763000,6.508762939453125,0.03512656316161156,0.06701258569955826,-0.022069083526730537
1761379427472845000,6.518844970703125,0.05429466441273689,0.04891214892268181,-0.07306249439716339
1761379427482927000,6.528927001953125,0.058210574090480804,0.029318207874894142,-0.13154204189777374
1761379427493010000,6.539010009765625,0.05157211422920227,0.008962868712842464,-0.18623484671115875
1761379427503092000,6.549092041015625,0.03501710668206215,-0.014021542854607105,-0.2272680401802063
1761379427513174000,6.559174072265625,0.018061557784676552,-0.023555658757686615,-0.2482292503118515
1761379427523256000,6.569256103515625,0.006612096447497606,-0.007407316006720066,-0.24252662062644958
1761379427533338000,6.579338134765625,-0.005944175645709038,0.022045381367206573,-0.19639986753463745
1761379427543420200,6.589420166015625,-0.011631355620920658,0.00890747457742691,-0.13500095903873444
1761379427553502200,6.599502197265625,-0.0051505533047020435,0.012318718247115612,-0.0715026780962944
1761379427563585000,6.6095849609375,-0.009400425478816032,0.02184857428073883,0.013758156448602676
1761379427573667000,6.6196669921875,-0.02605210617184639,0.029141107574105263,0.07405877858400345
1761379427583749000,6.6297490234375,-0.040349554270505905,0.02809315361082554,0.08900151401758194
1761379427593831200,6.6398310546875,-0.036793168634176254,0.008438492193818092,0.0652059018611908
1761379427603913000,6.649912841796875,-0.028234567493200302,-0.0083673857152462,0.021270934492349625
1761379427613995000,6.6599951171875,-0.0265988539904356,-0.027847610414028168,-0.01865304633975029
1761379427624077000,6.6700771484375,-0.01858513616025448,-0.027525899931788445,-0.04581223055720329
1761379427634160000,6.68016015625,-0.024380173534154892,-0.019583288580179214,-0.05209462717175484
1761379427644242200,6.6902421875,-0.031157653778791428,-0.005690642632544041,-0.03533082455396652
1761379427654324000,6.700323974609375,-0.03533801808953285,0.00031185615807771683,-0.016219982877373695
1761379427664406000,6.710406005859375,-0.03422880917787552,-0.0006106628570705652,-0.02027997188270092
1761379427674488000,6.720488037109375,-0.032283902168273926,0.0038075214251875877,-0.03592338040471077
1761379427684570000,6.730570068359375,-0.01702478900551796,0.004924184642732143,-0.06196856126189232
1761379427694653000,6.74065283203125,0.0032743564806878567,0.0022365227341651917,-0.0859503298997879
1761379427704735000,6.75073486328125,0.01937050186097622,0.003846669802442193,-0.0957837849855423
1761379427714817000,6.760817138671875,0.029878536239266396,-0.004202201962471008,-0.09651615470647812
1761379427724899000,6.770899169921875,0.0365753211081028,-0.009269664995372295,-0.09182952344417572
1761379427734981000,6.780981201171875,0.03447941318154335,-0.03002474457025528,-0.08735434710979462
1761379427745063200,6.791063232421875,0.018612565472722054,-0.057729609310626984,-0.0728001743555069
1761379427755145000,6.80114501953125,0.002862099092453718,-0.045520082116127014,-0.06332065165042877
1761379427765228000,6.81122802734375,-0.009244631044566631,-0.03039625473320484,-0.06455954909324646
1761379427775310000,6.82131005859375,-0.008737032301723957,-0.028798891231417656,-0.09854521602392197
1761379427785392000,6.83139208984375,0.004975850228220224,-0.005933789070695639,-0.13024961948394775
1761379427795474200,6.84147412109375,0.02618473209440708,-0.010745855048298836,-0.15541648864746094
1761379427805556000,6.851555908203125,0.038477085530757904,-0.013364807702600956,-0.1558026522397995
1761379427815638000,6.861637939453125,0.036188896745443344,0.017790447920560837,-0.11510874330997467
1761379427825720000,6.871719970703125,0.017650632187724113,0.041616685688495636,-0.054797202348709106
1761379427835803100,6.88180322265625,0.009190568700432777,0.055745821446180344,-0.019714849069714546
1761379427845885000,6.891885009765625,0.012366920709609985,0.05030178651213646,-0.0273264292627573
1761379427855967000,6.901967041015625,0.02213246561586857,0.04049549624323845,-0.053286392241716385
1761379427866049000,6.912049072265625,0.023971911519765854,0.022727683186531067,-0.08330900222063065
1761379427876131000,6.922131103515625,0.023924507200717926,0.0028128307312726974,-0.09434700757265091
1761379427886213000,6.932213134765625,0.02160595916211605,0.0013558153295889497,-0.06569112837314606
1761379427896296000,6.9422958984375,0.022224346175789833,0.011155981570482254,-0.021986791864037514
1761379427906378000,6.9523779296875,0.025021996349096298,0.015617841854691505,0.01805676519870758
1761379427916460000,6.9624599609375,0.02521693892776966,-0.008047539740800858,0.036987580358982086
1761379427926542000,6.9725419921875,0.028301944956183434,-0.03531884029507637,0.01896197348833084
1761379427936624000,6.9826240234375,0.036503683775663376,-0.06031420826911926,-0.0047058057971298695
1761379427946706200,6.9927060546875,0.04866420850157738,-0.08640466630458832,-0.011351191438734531
1761379427956788000,7.0027880859375,0.06483732163906097,-0.08670799434185028,0.025958362966775894
1761379427966871000,7.01287109375,0.06664667278528214,-0.07049094140529633,0.07696002721786499
1761379427976953000,7.022953125,0.04573686048388481,-0.08606377989053726,0.1074867770075798
1761379427987035100,7.03303515625,0.0177017655223608,-0.08930724114179611,0.12656353414058685
1761379427997117000,7.043116943359375,-0.015993613749742508,-0.07529715448617935,0.12273923307657242
1761379428007195600,7.053195556640625,-0.02743055857717991,-0.06335793435573578,0.06728290021419525
1761379428017277700,7.063277587890625,-0.018643992021679878,-0.06006653234362602,0.006960703991353512
1761379428027359700,7.07335986328125,0.008303469978272915,-0.05299291014671326,-0.054776161909103394
1761379428037442600,7.083442626953125,0.037756964564323425,-0.03725602477788925,-0.10946657508611679
1761379428047524600,7.093524658203125,0.06263941526412964,-0.011859855614602566,-0.1804797649383545
1761379428057606700,7.103606689453125,0.07800691574811935,0.010461162775754929,-0.25535374879837036
1761379428067688700,7.113688720703125,0.09153604507446289,-0.0030192257836461067,-0.3406052589416504
1761379428077770800,7.123770751953125,0.09845679998397827,-0.020669059827923775,-0.4253438413143158
1761379428087852800,7.133852783203125,0.09357549250125885,-0.0428348146378994,-0.4857501983642578
1761379428097935600,7.143935546875,0.08311912417411804,-0.04746019467711449,-0.5169919729232788
1761379428108017700,7.154017578125,0.06559259444475174,-0.020740166306495667,-0.5009728074073792
1761379428118099700,7.164099609375,0.04301617667078972,0.03320402652025223,-0.4218524396419525
1761379428128181800,7.174181640625,0.02268720231950283,0.08028924465179443,-0.31691110134124756
1761379428138263800,7.184263916015625,0.0010572749888524413,0.09732229262590408,-0.22918444871902466
1761379428148345600,7.194345703125,-0.019303923472762108,0.1099637821316719,-0.15699973702430725
1761379428158427600,7.204427734375,-0.03135605901479721,0.10154792666435242,-0.11532872170209885
1761379428168510700,7.2145107421875,-0.02123498171567917,0.06522667407989502,-0.08563287556171417
1761379428178592800,7.2245927734375,0.006426740437746048,0.036488503217697144,-0.06334754824638367
1761379428188674800,7.2346748046875,0.03771142661571503,-0.0012040151050314307,-0.0430942066013813
1761379428198756600,7.244756591796875,0.05549122020602226,-0.04180363938212395,-0.03187431022524834
1761379428208838700,7.254838623046875,0.049973685294389725,-0.04258421063423157,-0.01962430216372013
1761379428218920700,7.264920654296875,0.03995993360877037,-0.059783704578876495,0.00788348913192749
1761379428229002800,7.275002685546875,0.03086550347507,-0.07963357865810394,0.03744564205408096
1761379428239085600,7.28508544921875,0.019952936097979546,-0.09530787914991379,0.06545863300561905
1761379428249167600,7.295167724609375,0.01792813464999199,-0.09897451847791672,0.08917834609746933
1761379428259249700,7.305249755859375,0.019482089206576347,-0.09504608809947968,0.11427810788154602
1761379428269331700,7.315331787109375,0.01925997994840145,-0.06380161643028259,0.14356355369091034
1761379428279413800,7.325413818359375,0.017524665221571922,-0.03684217110276222,0.16173642873764038
1761379428289495800,7.335495849609375,0.02328055538237095,-0.01962456852197647,0.1557091623544693
1761379428299578600,7.34557861328125,0.03160373121500015,-0.0035366779193282127,0.14472736418247223
1761379428309660700,7.35566064453125,0.03410230949521065,0.002252235310152173,0.11417051404714584
1761379428319742700,7.36574267578125,0.03774285316467285,-0.006982542108744383,0.07602286338806152
1761379428329824800,7.37582470703125,0.04360713064670563,-0.00544403400272131,0.0477595329284668
1761379428339906800,7.38590673828125,0.03897110000252724,0.0062605589628219604,0.03976152837276459
1761379428349988600,7.395988525390625,0.021459752693772316,0.012042813934385777,0.05271301046013832
1761379428360070700,7.406070556640625,0.0038754320703446865,0.01047474518418312,0.06440535187721252
1761379428370153700,7.41615380859375,-0.014998923055827618,0.0067481836304068565,0.05741855129599571
1761379428380235800,7.42623583984375,-0.03363892063498497,0.010897388681769371,0.04523805156350136
1761379428390317600,7.436317626953125,-0.04236317053437233,0.019509252160787582,0.018907111138105392
1761379428400399600,7.446399658203125,-0.03688078746199608,0.017347032204270363,-0.010637464001774788
1761379428410481700,7.456481689453125,-0.030048979446291924,0.021285580471158028,-0.021923141553997993
1761379428420563700,7.466563720703125,-0.018675416707992554,0.011377557180821896,-0.01636459305882454
1761379428430646800,7.476646728515625,0.0013100089272484183,-0.003338538808748126,0.007464041467756033
1761379428440728600,7.486728515625,0.01996704936027527,-0.02785773016512394,0.040639571845531464
1761379428450810600,7.496810546875,0.024466194212436676,-0.04830681160092354,0.07099827378988266
1761379428460892700,7.506892578125,0.026638269424438477,-0.0509185753762722,0.08771413564682007
1761379428470974700,7.516974609375,0.02196575328707695,-0.042332276701927185,0.0939086526632309
1761379428481056800,7.527056884765625,0.0092307822778821,-0.02623000554740429,0.09717848151922226
1761379428491138800,7.537138916015625,0.0032732912804931402,-0.037405695766210556,0.07456478476524353
1761379428501221600,7.5472216796875,0.0011888351291418076,-0.03230361267924309,0.06610791385173798
1761379428511303700,7.5573037109375,-0.00526799913495779,-0.014735003933310509,0.07760291546583176
1761379428521385700,7.5673857421875,-0.0012687299167737365,-0.010776747949421406,0.08340434730052948
1761379428531467800,7.5774677734375,0.006928479764610529,-0.016691895201802254,0.0872611328959465
1761379428541549600,7.587549560546875,0.0015387744642794132,-0.02546035312116146,0.06398431211709976
1761379428551631600,7.597631591796875,-0.014682273380458355,-0.040533844381570816,0.03816256672143936
1761379428561714700,7.607714599609375,-0.029744580388069153,-0.04354694485664368,0.032889772206544876
1761379428571796700,7.617796630859375,-0.04179937765002251,-0.04291923716664314,0.04220178350806236
1761379428581878800,7.627878662109375,-0.0468633808195591,-0.057251039892435074,0.03418406844139099
1761379428591960600,7.637960693359375,-0.0523952953517437,-0.07040758430957794,0.020623520016670227
1761379428602042600,7.648042724609375,-0.06285566091537476,-0.09423781931400299,-0.008905611000955105
1761379428612124700,7.658124755859375,-0.05951925367116928,-0.12953296303749084,-0.055812131613492966
1761379428622206700,7.668206787109375,-0.060618072748184204,-0.137650266289711,-0.09271262586116791
1761379428632289500,7.67828955078125,-0.0711791068315506,-0.12128035724163055,-0.08367998152971268
1761379428642371600,7.68837158203125,-0.07557252049446106,-0.1180877611041069,-0.04771825298666954
1761379428652453600,7.69845361328125,-0.0531148836016655,-0.11374227702617645,0.0001358212175546214
1761379428662535700,7.70853564453125,-0.029448436573147774,-0.14106737077236176,0.012416988611221313
1761379428672617700,7.71861767578125,-0.014736602082848549,-0.16519641876220703,0.000316916179144755
1761379428682699800,7.72869970703125,-0.00888084340840578,-0.18511073291301727,-0.01949966512620449
1761379428692782600,7.738782470703125,-0.0051779840141534805,-0.21244089305400848,-0.04764874652028084
1761379428702864600,7.74886474609375,0.0019022959750145674,-0.19427627325057983,-0.05151911824941635
1761379428712946700,7.75894677734375,0.0725058913230896,-0.2671062648296356,-0.05036703497171402
1761379428723028700,7.76902880859375,0.09802563488483429,-0.24008530378341675,-0.06382878124713898
1761379428733110800,7.77911083984375,0.12450703978538513,-0.1570226401090622,-0.07572512328624725
1761379428743192600,7.789192626953125,0.09982486069202423,-0.16513755917549133,-0.10569926351308823
1761379428753274600,7.799274658203125,0.09656035900115967,-0.14515240490436554,-0.07724472135305405
1761379428763357700,7.809357666015625,0.1106620654463768,-0.151603102684021,-0.037521008402109146
1761379428773439700,7.819439697265625,0.1126897931098938,-0.14400270581245422,0.018136925995349884
1761379428783521500,7.829521484375,0.11495854705572128,-0.15583327412605286,0.0400366336107254
1761379428793603600,7.839603515625,0.17972822487354279,-0.2532098889350891,0.03640301525592804
1761379428803685600,7.849685546875,0.20074935257434845,-0.24644599854946136,0.030413299798965454
1761379428813767700,7.859767578125,0.30373644828796387,-0.21280547976493835,0.051668521016836166
1761379428823850800,7.869850830078125,0.4361722469329834,-0.3518315553665161,-0.004254133440554142
1761379428833932500,7.8799326171875,0.5350809693336487,-0.44938018918037415,-0.06281758099794388
1761379428844014600,7.8900146484375,0.561061441898346,-0.461041659116745,-0.09913430362939835
1761379428854096600,7.9000966796875,0.5370152592658997,-0.4377323389053345,-0.10703617334365845
1761379428864178700,7.9101787109375,0.46866574883461,-0.34836915135383606,-0.08473432809114456
1761379428874260700,7.9202607421875,0.3725123107433319,-0.2529433071613312,-0.060551226139068604
1761379428884342800,7.9303427734375,0.2612617015838623,-0.1658310443162918,-0.06608128547668457
1761379428894425600,7.940425537109375,0.12377414107322693,-0.0009078715811483562,-0.06318482756614685
1761379428904507600,7.950507568359375,0.11521580815315247,0.07810439169406891,-0.05660602077841759
1761379428914589700,7.960589599609375,0.13396312296390533,0.06881128996610641,-0.03253663703799248
1761379428924671700,7.970671630859375,0.08748564124107361,0.10328777134418488,0.029647108167409897
1761379428934753500,7.98075341796875,0.033119868487119675,0.13427844643592834,0.07485906034708023
1761379428944835600,7.990835693359375,-0.0002205097407568246,0.15433764457702637,0.0942295640707016
1761379428954917600,8.000917724609375,-0.016591226682066917,0.16665636003017426,0.08460516482591629
1761379428965000700,8.011000732421875,-0.036734044551849365,0.16829580068588257,0.049129728227853775
1761379428975082800,8.021082763671876,-0.04849163442850113,0.15907727181911469,0.018022144213318825
1761379428985164500,8.03116455078125,-0.05624356493353844,0.12724050879478455,-0.017137708142399788
1761379428995246600,8.04124658203125,-0.052490103989839554,0.10735522210597992,-0.05481717735528946
1761379429005328600,8.05132861328125,-0.039251796901226044,0.10805909335613251,-0.0750018060207367
1761379429015410700,8.06141064453125,-0.018859973177313805,0.08959858864545822,-0.07498688995838165
1761379429025493500,8.071493408203125,-0.00817830115556717,0.08394869416952133,-0.07028721272945404
1761379429035575600,8.081575439453125,-0.0038743666373193264,0.09243219345808029,-0.04727723449468613
1761379429045657600,8.09165771484375,-0.000026365294615970924,0.09233499318361282,-0.026330940425395966
1761379429055739600,8.10173974609375,0.014534734189510345,0.07159562408924103,-0.01398718822747469
1761379429065821700,8.11182177734375,0.031552866101264954,0.060630057007074356,-0.0034045851789414883
1761379429075903700,8.12190380859375,0.041743986308574677,0.08940791338682175,0.003379285102710128
1761379429085985500,8.131985595703124,0.04818723723292351,0.115774005651474,-0.004723116289824247
1761379429096068600,8.142068603515625,0.053590524941682816,0.15124890208244324,-0.021199295297265053
1761379429106150700,8.152150634765626,0.055037952959537506,0.19916796684265137,-0.04544204846024513
1761379429116232700,8.162232666015624,0.04790254309773445,0.24168026447296143,-0.053278934210538864
1761379429126314800,8.172314697265625,0.022789735347032547,0.1638544499874115,-0.11133211851119995
1761379429136396500,8.182396484375,-0.007228085305541754,0.11585283279418945,-0.17347511649131775
1761379429146478600,8.192478515625,-0.03836949169635773,0.05787741392850876,-0.17660751938819885
1761379429156561700,8.202561767578125,-0.04304813593626022,0.027175694704055786,-0.1491151750087738
1761379429166643700,8.212643798828125,-0.021024858579039574,-0.04031626507639885,-0.11027111113071442
1761379429176725500,8.2227255859375,0.017292704433202744,-0.09486206620931625,-0.10740741342306137
1761379429186807600,8.2328076171875,0.05721055716276169,-0.10579007863998413,-0.12410064041614532
1761379429196889600,8.2428896484375,0.07835206389427185,-0.1310885101556778,-0.07556719332933426
1761379429206971600,8.2529716796875,0.08576071262359619,-0.08618441969156265,0.027292607352137566
