time,seconds_elapsed,z,y,x
1761380630253870000,0.0698701171875,-0.4969635009765625,-0.8248748779296875,-0.00274658203125
1761380630263925000,0.079925048828125,-0.4839324951171875,-0.8346710205078125,-0.0035247802734375
1761380630273981200,0.089981201171875,-0.46923828125,-0.85882568359375,-0.014373779296875
1761380630284037000,0.100037109375,-0.4771881103515625,-0.8978424072265625,-0.1121978759765625
1761380630294093000,0.110093017578125,-0.484375,-0.8950958251953125,-0.159423828125
1761380630304148000,0.12014794921875,-0.4811248779296875,-0.873779296875,-0.14642333984375
1761380630314204000,0.130203857421875,-0.4804229736328125,-0.8422393798828125,-0.09765625
1761380630324260000,0.140260009765625,-0.520782470703125,-0.8036651611328125,-0.05291748046875
1761380630334316000,0.15031591796875,-0.5160369873046875,-0.797515869140625,-0.01641845703125
1761380630344371200,0.16037109375,-0.5348052978515625,-0.824005126953125,-0.0004119873046875
1761380630354427100,0.17042724609375,-0.581512451171875,-0.86199951171875,0.0010528564453125
1761380630364483000,0.180483154296875,-0.5864410400390625,-0.8733978271484375,0.0011749267578125
1761380630374539300,0.190539306640625,-0.5472412109375,-0.8138580322265625,0.012725830078125
1761380630384595200,0.20059521484375,-0.5412445068359375,-0.831756591796875,-0.00701904296875
1761380630394649900,0.21064990234375,-0.5539093017578125,-0.8487091064453125,-0.0185699462890625
1761380630404706000,0.2207060546875,-0.5509033203125,-0.8475799560546875,-0.021484375
1761380630414762000,0.230761962890625,-0.5160980224609375,-0.8647613525390625,0.0041961669921875
1761380630424818000,0.24081787109375,-0.490692138671875,-0.8731536865234375,0.0453338623046875
1761380630434873000,0.250873046875,-0.496429443359375,-0.889007568359375,0.0670928955078125
1761380630444929000,0.260928955078125,-0.515380859375,-0.89654541015625,0.0750885009765625
1761380630454985200,0.270985107421875,-0.5228271484375,-0.878662109375,0.077423095703125
1761380630465041200,0.281041259765625,-0.5003204345703125,-0.8493194580078125,0.0679473876953125
1761380630475096000,0.291095947265625,-0.4813690185546875,-0.8357391357421875,0.0469818115234375
1761380630485152000,0.301152099609375,-0.451904296875,-0.80572509765625,0.0330963134765625
1761380630495211500,0.31121142578125,-0.4430694580078125,-0.77978515625,0.0408935546875
1761380630505267700,0.321267822265625,-0.45751953125,-0.7975311279296875,0.05291748046875
1761380630515322600,0.331322509765625,-0.4875335693359375,-0.8094940185546875,0.0554046630859375
1761380630525378600,0.341378662109375,-0.503387451171875,-0.8137969970703125,0.0518341064453125
1761380630535434500,0.3514345703125,-0.4962005615234375,-0.81414794921875,0.041168212890625
1761380630545490400,0.361490478515625,-0.49041748046875,-0.8155517578125,0.01763916015625
1761380630555545600,0.371545654296875,-0.485992431640625,-0.856353759765625,-0.0465087890625
1761380630565601500,0.3816015625,-0.4730682373046875,-0.8929443359375,-0.099365234375
1761380630575657700,0.39165771484375,-0.426483154296875,-0.8995361328125,-0.1128997802734375
1761380630585713700,0.401713623046875,-0.39508056640625,-0.8631744384765625,-0.0665740966796875
1761380630595768600,0.4117685546875,-0.397735595703125,-0.83099365234375,-0.001556396484375
1761380630605824500,0.421824462890625,-0.3950347900390625,-0.8440704345703125,0.0273590087890625
1761380630615880400,0.43188037109375,-0.4098052978515625,-0.848236083984375,0.0365142822265625
1761380630625936400,0.441936279296875,-0.421051025390625,-0.8381500244140625,0.0438232421875
1761380630635991600,0.451991455078125,-0.427337646484375,-0.817962646484375,0.050323486328125
1761380630646047500,0.462047607421875,-0.4692840576171875,-0.838836669921875,0.0616302490234375
1761380630656103700,0.472103759765625,-0.4890594482421875,-0.8430633544921875,0.06585693359375
1761380630666159600,0.48215966796875,-0.4321746826171875,-0.824920654296875,0.0803070068359375
1761380630676215600,0.492215576171875,-0.3888092041015625,-0.830535888671875,0.0384979248046875
1761380630686270500,0.5022705078125,-0.4335784912109375,-0.903839111328125,-0.0696868896484375
1761380630696326400,0.512326416015625,-0.4459991455078125,-0.933380126953125,-0.1208953857421875
1761380630706382600,0.522382568359375,-0.4133758544921875,-0.9095458984375,-0.094757080078125
1761380630716438500,0.5324384765625,-0.3900604248046875,-0.8816375732421875,-0.0169830322265625
1761380630726493700,0.54249365234375,-0.388153076171875,-0.892822265625,0.002197265625
1761380630736549600,0.552549560546875,-0.4007110595703125,-0.8959503173828125,-0.00946044921875
1761380630746605600,0.56260546875,-0.3729248046875,-0.8682708740234375,-0.0122528076171875
1761380630756661800,0.572661865234375,-0.3382720947265625,-0.85028076171875,-0.0229034423828125
1761380630766716400,0.58271630859375,-0.3163299560546875,-0.8669281005859375,-0.040863037109375
1761380630776772600,0.592772705078125,-0.32208251953125,-0.873016357421875,-0.04681396484375
1761380630786828500,0.60282861328125,-0.3482818603515625,-0.8700714111328125,-0.0458221435546875
1761380630796884500,0.612884521484375,-0.3995513916015625,-0.87628173828125,-0.0432586669921875
1761380630806939600,0.622939697265625,-0.4376068115234375,-0.8852081298828125,-0.0402984619140625
1761380630816995600,0.63299560546875,-0.443115234375,-0.8786773681640625,-0.03399658203125
1761380630827051500,0.643051513671875,-0.4449615478515625,-0.8750457763671875,-0.0267181396484375
1761380630837107700,0.653107666015625,-0.4229583740234375,-0.8732757568359375,-0.0224151611328125
1761380630847162400,0.663162353515625,-0.3741302490234375,-0.867950439453125,-0.027557373046875
1761380630857218600,0.673218505859375,-0.3421478271484375,-0.86358642578125,-0.044525146484375
1761380630867274500,0.6832744140625,-0.32830810546875,-0.8659515380859375,-0.0576171875
1761380630877330400,0.693330322265625,-0.33056640625,-0.874603271484375,-0.0566253662109375
1761380630887385600,0.703385498046875,-0.32183837890625,-0.88531494140625,-0.0535430908203125
1761380630897441500,0.713441650390625,-0.3217010498046875,-0.9128265380859375,-0.0736846923828125
1761380630907497700,0.723497802734375,-0.3321685791015625,-0.9069671630859375,-0.0837554931640625
1761380630917553700,0.7335537109375,-0.3431243896484375,-0.89508056640625,-0.0802154541015625
1761380630927608600,0.743608642578125,-0.332733154296875,-0.898773193359375,-0.079925537109375
1761380630937664500,0.75366455078125,-0.3153839111328125,-0.8984375,-0.071746826171875
1761380630947720400,0.763720458984375,-0.303192138671875,-0.8993682861328125,-0.05438232421875
1761380630957776600,0.773776611328125,-0.2930755615234375,-0.9037017822265625,-0.037628173828125
1761380630967831600,0.78383154296875,-0.287109375,-0.893310546875,-0.030181884765625
1761380630977887700,0.7938876953125,-0.294891357421875,-0.879425048828125,-0.03204345703125
1761380630987943700,0.803943603515625,-0.30963134765625,-0.8612213134765625,-0.0393829345703125
1761380630997999600,0.81399951171875,-0.3242340087890625,-0.8479766845703125,-0.0454254150390625
1761380631008054500,0.824054443359375,-0.3251495361328125,-0.8605804443359375,-0.0510406494140625
1761380631018110500,0.8341103515625,-0.3193359375,-0.88836669921875,-0.0507354736328125
1761380631028166700,0.844166748046875,-0.3124542236328125,-0.9176788330078125,-0.041900634765625
1761380631038222600,0.85422265625,-0.29913330078125,-0.9415283203125,-0.034637451171875
1761380631048277500,0.864277587890625,-0.28509521484375,-0.9701995849609375,-0.0341796875
1761380631058333700,0.874333740234375,-0.2579193115234375,-1.0050811767578125,-0.0405731201171875
1761380631068389600,0.8843896484375,-0.2492523193359375,-1.017242431640625,-0.0491943359375
1761380631078445600,0.894445556640625,-0.2696380615234375,-1.040130615234375,-0.0612945556640625
1761380631088501500,0.90450146484375,-0.298492431640625,-1.0795135498046875,-0.064056396484375
1761380631098556400,0.914556396484375,-0.31951904296875,-1.118408203125,-0.0535736083984375
1761380631108612600,0.924612548828125,-0.3159637451171875,-1.1461639404296875,-0.0358123779296875
1761380631118668500,0.93466845703125,-0.3004150390625,-1.1506195068359375,-0.02105712890625
1761380631128724500,0.944724365234375,-0.2866058349609375,-1.123748779296875,-0.0131683349609375
1761380631138779600,0.954779541015625,-0.2795867919921875,-1.076416015625,-0.0110931396484375
1761380631148835600,0.964835693359375,-0.266754150390625,-1.036590576171875,-0.0121002197265625
1761380631158891800,0.974891845703125,-0.24462890625,-1.00579833984375,-0.0180206298828125
1761380631168947500,0.984947509765625,-0.2291717529296875,-0.9607086181640625,-0.01983642578125
1761380631179002600,0.995002685546875,-0.210113525390625,-0.9168548583984375,-0.020050048828125
1761380631189058600,1.00505859375,-0.17327880859375,-0.8844757080078125,-0.023040771484375
1761380631199114500,1.015114501953125,-0.1316375732421875,-0.853973388671875,-0.0163421630859375
1761380631209170700,1.025170654296875,-0.109710693359375,-0.8162994384765625,0.0059814453125
1761380631219225600,1.0352255859375,-0.1251068115234375,-0.7920074462890625,0.0251617431640625
1761380631229281500,1.045281494140625,-0.184600830078125,-0.776641845703125,0.0503692626953125
1761380631239337700,1.055337646484375,-0.2683563232421875,-0.7730712890625,0.0921630859375
1761380631249393400,1.065393310546875,-0.34930419921875,-0.7864990234375,0.1286773681640625
1761380631259448600,1.075448486328125,-0.4019317626953125,-0.7890625,0.1492919921875
1761380631269504500,1.08550439453125,-0.4222869873046875,-0.7825164794921875,0.1606597900390625
1761380631279560400,1.095560546875,-0.422821044921875,-0.771636962890625,0.163665771484375
1761380631289616600,1.10561669921875,-0.4450531005859375,-0.762664794921875,0.161376953125
1761380631299671600,1.115671630859375,-0.530181884765625,-0.770538330078125,0.1809234619140625
1761380631309727700,1.125727783203125,-0.6745452880859375,-0.79852294921875,0.2345428466796875
1761380631319783700,1.13578369140625,-0.8257598876953125,-0.843414306640625,0.300994873046875
1761380631329839400,1.14583935546875,-0.9456329345703125,-0.8917694091796875,0.353118896484375
1761380631339894500,1.15589453125,-1.04132080078125,-0.9566650390625,0.3801116943359375
1761380631349950500,1.165950439453125,-1.1128997802734375,-1.0413360595703125,0.4152984619140625
1761380631360006700,1.176006591796875,-1.09539794921875,-1.106170654296875,0.455596923828125
1761380631370062600,1.1860625,-1.0785980224609375,-1.153564453125,0.4575042724609375
1761380631380118500,1.196118408203125,-1.1144256591796875,-1.176483154296875,0.4302825927734375
1761380631390173700,1.206173583984375,-1.140533447265625,-1.174468994140625,0.39447021484375
1761380631400229400,1.2162294921875,-1.125030517578125,-1.18951416015625,0.3476715087890625
1761380631410285600,1.22628564453125,-1.058990478515625,-1.19696044921875,0.300537109375
1761380631420341500,1.236341552734375,-0.994140625,-1.217193603515625,0.270599365234375
1761380631430396700,1.246396728515625,-0.9458770751953125,-1.2761077880859375,0.267364501953125
1761380631440452600,1.25645263671875,-0.89739990234375,-1.2984161376953125,0.2756805419921875
1761380631450508500,1.266508544921875,-0.9087066650390625,-1.265716552734375,0.2510528564453125
1761380631460564700,1.276564697265625,-0.9243621826171875,-1.216094970703125,0.1913909912109375
1761380631470619600,1.28661962890625,-0.902435302734375,-1.134246826171875,0.137969970703125
1761380631480675600,1.296675537109375,-0.8700714111328125,-1.039947509765625,0.092987060546875
1761380631490731500,1.3067314453125,-0.8493804931640625,-0.9539337158203125,0.0502471923828125
1761380631500784000,1.3167841796875,-0.813446044921875,-0.853790283203125,0.0277557373046875
1761380631510839300,1.32683935546875,-0.744659423828125,-0.7625885009765625,0.0193023681640625
1761380631520895200,1.336895263671875,-0.595977783203125,-0.67364501953125,0.02783203125
1761380631530951200,1.346951171875,-0.46453857421875,-0.603118896484375,0.0062255859375
1761380631541007400,1.35700732421875,-0.376861572265625,-0.5251617431640625,-0.0511322021484375
1761380631551062000,1.36706201171875,-0.312957763671875,-0.5020751953125,-0.0966339111328125
1761380631561118200,1.3771181640625,-0.2689361572265625,-0.4779205322265625,-0.1108245849609375
1761380631571174100,1.387174072265625,-0.250823974609375,-0.4502716064453125,-0.0945587158203125
1761380631581230000,1.39722998046875,-0.2296142578125,-0.4400482177734375,-0.095611572265625
1761380631591285200,1.40728515625,-0.2030487060546875,-0.404052734375,-0.124420166015625
1761380631601341200,1.417341064453125,-0.154693603515625,-0.3451995849609375,-0.1694793701171875
1761380631611397400,1.4273974609375,-0.13720703125,-0.300079345703125,-0.2385406494140625
1761380631621453300,1.437453369140625,-0.1670379638671875,-0.2659149169921875,-0.3360443115234375
1761380631631508200,1.44750830078125,-0.18994140625,-0.2407073974609375,-0.4557647705078125
1761380631641564200,1.457564208984375,-0.2019195556640625,-0.212310791015625,-0.558197021484375
1761380631651620000,1.4676201171875,-0.2398834228515625,-0.2118988037109375,-0.6275634765625
1761380631661676300,1.47767626953125,-0.3024444580078125,-0.2118377685546875,-0.6505889892578125
1761380631671731200,1.487731201171875,-0.3270416259765625,-0.234130859375,-0.6059722900390625
1761380631681787100,1.497787109375,-0.314056396484375,-0.320068359375,-0.5337066650390625
1761380631691843300,1.50784326171875,-0.2081298828125,-0.451263427734375,-0.48553466796875
1761380631701899300,1.517899169921875,-0.123443603515625,-0.598785400390625,-0.491546630859375
1761380631711955200,1.527955078125,-0.239990234375,-0.7174072265625,-0.5099029541015625
1761380631722010000,1.538010009765625,-0.5099639892578125,-0.908233642578125,-0.5219268798828125
1761380631732066000,1.548066162109375,-0.864349365234375,-1.2088775634765625,-0.5226593017578125
1761380631742122200,1.558122314453125,-1.220306396484375,-1.55810546875,-0.44854736328125
1761380631752178200,1.56817822265625,-1.44158935546875,-1.8240814208984375,-0.4610595703125
1761380631762233300,1.5782333984375,-1.5888824462890625,-1.5550537109375,-0.5399932861328125
1761380631772289300,1.588289306640625,-1.5305633544921875,-1.06768798828125,-0.5446624755859375
1761380631782345200,1.59834521484375,-1.2381591796875,-0.85101318359375,-0.67108154296875
1761380631792401400,1.6084013671875,-1.166595458984375,-0.726348876953125,-0.8121337890625
1761380631802456000,1.6184560546875,-1.01434326171875,-0.7451019287109375,-0.801422119140625
1761380631812512300,1.62851220703125,-0.849578857421875,-0.89837646484375,-0.690582275390625
1761380631822568200,1.638568115234375,-0.8730926513671875,-1.1153717041015625,-0.4473419189453125
1761380631832624000,1.6486240234375,-0.9062042236328125,-1.332366943359375,-0.151947021484375
1761380631842679300,1.65867919921875,-0.917510986328125,-1.47747802734375,0.1230926513671875
1761380631852735200,1.6687353515625,-0.9042510986328125,-1.53106689453125,0.2618408203125
1761380631862791400,1.67879150390625,-0.9263916015625,-1.4219207763671875,0.28790283203125
1761380631872847000,1.68884716796875,-0.9133758544921875,-1.264923095703125,0.2571258544921875
1761380631882902300,1.69890234375,-0.825531005859375,-1.1220245361328125,0.191619873046875
1761380631892958200,1.708958251953125,-0.74609375,-0.9801483154296875,0.124053955078125
1761380631903014100,1.71901416015625,-0.6512603759765625,-0.833221435546875,0.096710205078125
1761380631913070000,1.729070068359375,-0.511199951171875,-0.6912689208984375,0.102874755859375
1761380631923125200,1.739125244140625,-0.36749267578125,-0.5695953369140625,0.1347198486328125
1761380631933181200,1.74918115234375,-0.249755859375,-0.496734619140625,0.1656951904296875
1761380631943237400,1.7592373046875,-0.1464385986328125,-0.4293212890625,0.18389892578125
1761380631953293000,1.76929296875,-0.0624542236328125,-0.373382568359375,0.20306396484375
1761380631963348200,1.77934814453125,0.046600341796875,-0.3458404541015625,0.230499267578125
1761380631973404200,1.789404052734375,0.1356353759765625,-0.3202362060546875,0.268280029296875
1761380631983460000,1.799460205078125,0.1604461669921875,-0.3030242919921875,0.309417724609375
1761380631993516300,1.809516357421875,0.1006622314453125,-0.2958831787109375,0.36029052734375
1761380632003571200,1.8195712890625,0.0105438232421875,-0.2654266357421875,0.4319305419921875
1761380632013627400,1.82962744140625,-0.0488433837890625,-0.226409912109375,0.505859375
1761380632023683300,1.839683349609375,-0.1391448974609375,-0.216094970703125,0.5665740966796875
1761380632033739000,1.849739013671875,-0.23736572265625,-0.209930419921875,0.61785888671875
1761380632043794200,1.859794189453125,-0.3091888427734375,-0.2120361328125,0.6430206298828125
1761380632053850000,1.86985009765625,-0.3887786865234375,-0.2478179931640625,0.62310791015625
1761380632063906300,1.87990625,-0.4608154296875,-0.3466949462890625,0.5877685546875
1761380632073962200,1.889962158203125,-0.4501495361328125,-0.52996826171875,0.61602783203125
1761380632084017200,1.90001708984375,-0.4585113525390625,-0.7580718994140625,0.6780853271484375
1761380632094073300,1.9100732421875,-0.6225433349609375,-1.018890380859375,0.679351806640625
1761380632104129300,1.92012939453125,-0.8354644775390625,-1.365203857421875,0.6400909423828125
1761380632114185200,1.930185302734375,-1.1092071533203125,-1.6670379638671875,0.5792236328125
1761380632124240100,1.940240234375,-1.1789703369140625,-1.7721710205078125,0.487701416015625
1761380632134296000,1.950296142578125,-1.2277069091796875,-1.614898681640625,0.245208740234375
1761380632144352300,1.960352294921875,-1.4244842529296875,-1.3703155517578125,-0.0195770263671875
1761380632154408200,1.970408203125,-1.518768310546875,-1.24566650390625,-0.1039276123046875
1761380632164463400,1.98046337890625,-1.58465576171875,-1.2562255859375,-0.08087158203125
1761380632174519300,1.990519287109375,-1.5657196044921875,-1.313446044921875,0.0258026123046875
1761380632184575000,2.000574951171875,-1.6349029541015625,-1.363861083984375,0.212188720703125
1761380632194631200,2.010631103515625,-1.7083892822265625,-1.414886474609375,0.4342803955078125
1761380632204686000,2.02068603515625,-1.68707275390625,-1.479522705078125,0.5972137451171875
1761380632214742300,2.0307421875,-1.543853759765625,-1.4010772705078125,0.4906005859375
1761380632224798200,2.040798095703125,-1.423095703125,-1.187164306640625,0.184844970703125
1761380632234854100,2.050854248046875,-1.2754669189453125,-1.02960205078125,-0.09710693359375
1761380632244909300,2.060909423828125,-1.085601806640625,-0.920745849609375,-0.302734375
1761380632254965200,2.07096533203125,-0.8392486572265625,-0.8297271728515625,-0.4610443115234375
1761380632265021200,2.081021240234375,-0.5438079833984375,-0.724700927734375,-0.5660552978515625
1761380632275077000,2.0910771484375,-0.282196044921875,-0.6018829345703125,-0.6070098876953125
1761380632285132300,2.10113232421875,-0.0727996826171875,-0.466522216796875,-0.6048126220703125
1761380632295188200,2.111188232421875,0.0211944580078125,-0.3868865966796875,-0.569488525390625
1761380632305244200,2.121244140625,0.06939697265625,-0.3514862060546875,-0.511993408203125
1761380632315300400,2.13130029296875,0.1136932373046875,-0.30914306640625,-0.4337158203125
1761380632325355300,2.141355224609375,0.066253662109375,-0.2616119384765625,-0.355133056640625
1761380632335411200,2.1514111328125,-0.063018798828125,-0.20965576171875,-0.3253173828125
1761380632345467100,2.161467041015625,-0.1699066162109375,-0.1560211181640625,-0.363311767578125
1761380632355523000,2.171523193359375,-0.147247314453125,-0.1146392822265625,-0.456085205078125
1761380632365578200,2.181578125,-0.095001220703125,-0.0687255859375,-0.574462890625
1761380632375634200,2.19163427734375,0.01153564453125,-0.0460357666015625,-0.64910888671875
1761380632385690000,2.201690185546875,0.194732666015625,-0.0630035400390625,-0.656341552734375
1761380632395746300,2.211746337890625,0.3776092529296875,-0.071563720703125,-0.6393585205078125
1761380632405802200,2.22180224609375,0.45184326171875,-0.065521240234375,-0.636474609375
1761380632415857400,2.231857421875,0.3122406005859375,-0.0651092529296875,-0.638031005859375
1761380632425913000,2.2419130859375,-0.062164306640625,-0.1202850341796875,-0.6627349853515625
1761380632435969000,2.251968994140625,-0.372467041015625,-0.3258514404296875,-0.7194061279296875
1761380632446024200,2.262024169921875,-0.4356536865234375,-0.640838623046875,-0.720428466796875
1761380632456080100,2.272080078125,-0.34954833984375,-0.8489532470703125,-0.697479248046875
1761380632466136300,2.28213623046875,-0.563018798828125,-0.9772491455078125,-0.6808013916015625
1761380632476192300,2.292192138671875,-0.9937896728515625,-1.1785888671875,-0.6321868896484375
1761380632486247400,2.302247314453125,-1.49761962890625,-1.45684814453125,-0.5755767822265625
1761380632496303000,2.31230322265625,-2.141204833984375,-1.67413330078125,-0.60491943359375
1761380632506359000,2.322359130859375,-2.5923309326171875,-1.5174713134765625,-0.6443634033203125
1761380632516415200,2.332415283203125,-2.580718994140625,-1.1645050048828125,-0.575653076171875
1761380632526470100,2.34247021484375,-2.403656005859375,-1.039947509765625,-0.5245513916015625
1761380632536526000,2.352526123046875,-2.10260009765625,-0.9230499267578125,-0.4655303955078125
1761380632546582300,2.362582275390625,-1.7220001220703125,-0.85784912109375,-0.2722625732421875
1761380632556638200,2.37263818359375,-1.5304412841796875,-1.003082275390625,0.0278472900390625
1761380632566694100,2.382694091796875,-1.4199981689453125,-1.1979217529296875,0.3223876953125
1761380632576749000,2.3927490234375,-1.273162841796875,-1.289093017578125,0.5363616943359375
1761380632586805000,2.402804931640625,-1.0436248779296875,-1.2561492919921875,0.6775970458984375
1761380632596861200,2.412861083984375,-0.8119049072265625,-1.20703125,0.737396240234375
1761380632606916000,2.422916015625,-0.7201995849609375,-1.1442718505859375,0.7379913330078125
1761380632616972300,2.43297216796875,-0.74810791015625,-1.0268402099609375,0.678497314453125
1761380632627028200,2.4430283203125,-0.8392486572265625,-0.8238067626953125,0.545257568359375
1761380632637084200,2.453084228515625,-0.8286285400390625,-0.6153564453125,0.34906005859375
1761380632647139300,2.463139404296875,-0.6829833984375,-0.3900299072265625,0.1734619140625
1761380632657195000,2.473195068359375,-0.592254638671875,-0.203094482421875,0.071807861328125
1761380632667251200,2.483251220703125,-0.39678955078125,-0.14215087890625,0.0621795654296875
1761380632677307100,2.49330712890625,-0.13079833984375,-0.174468994140625,0.1106414794921875
1761380632687362300,2.5033623046875,-0.00152587890625,-0.204498291015625,0.1743621826171875
1761380632697418200,2.513418212890625,0.038818359375,-0.2467193603515625,0.2796173095703125
1761380632707474200,2.52347412109375,0.042449951171875,-0.282196044921875,0.4983367919921875
1761380632717530400,2.5335302734375,-0.08734130859375,-0.3606109619140625,0.7295989990234375
1761380632727585300,2.543585205078125,-0.2431182861328125,-0.501007080078125,0.9159698486328125
1761380632737641200,2.55364111328125,-0.294525146484375,-0.5002593994140625,0.9734039306640625
1761380632747697200,2.563697265625,-0.1757354736328125,-0.4030303955078125,0.9061279296875
1761380632757753000,2.573753173828125,0.0250396728515625,-0.3812103271484375,0.8370513916015625
1761380632767808300,2.583808349609375,0.1870574951171875,-0.4732818603515625,0.8214569091796875
1761380632777864200,2.5938642578125,0.1782989501953125,-0.64166259765625,0.8385009765625
1761380632787920100,2.603920166015625,0.025115966796875,-0.824615478515625,0.9011993408203125
1761380632797976300,2.613976318359375,-0.1972808837890625,-1.019775390625,0.8896636962890625
1761380632808031000,2.624031005859375,-0.431549072265625,-1.0506439208984375,0.7613983154296875
1761380632818087200,2.634087158203125,-0.55511474609375,-0.9500274658203125,0.47161865234375
1761380632828143000,2.64414306640625,-0.7620391845703125,-0.9780426025390625,0.0925140380859375
1761380632838199000,2.654198974609375,-1.0449676513671875,-1.1780242919921875,-0.07470703125
1761380632848254200,2.664254150390625,-1.307373046875,-1.4362640380859375,0.0305023193359375
1761380632858310100,2.67431005859375,-1.2415618896484375,-1.6961212158203125,0.241119384765625
1761380632868366300,2.684366455078125,-1.302978515625,-1.7602081298828125,0.3230743408203125
1761380632878422300,2.69442236328125,-1.7919464111328125,-1.4519500732421875,0.2266998291015625
1761380632888477200,2.704477294921875,-2.0300750732421875,-1.2667083740234375,0.07470703125
1761380632898533000,2.714533203125,-2.0218505859375,-1.0959014892578125,-0.1115875244140625
1761380632908589000,2.724589111328125,-1.858978271484375,-0.903961181640625,-0.2675018310546875
1761380632918645200,2.734645263671875,-1.577362060546875,-0.84503173828125,-0.3137054443359375
1761380632928700200,2.7447001953125,-1.2627716064453125,-0.8976898193359375,-0.2495880126953125
1761380632938756400,2.75475634765625,-0.9255828857421875,-0.940673828125,-0.17974853515625
1761380632948812300,2.764812255859375,-0.669830322265625,-0.921875,-0.15118408203125
1761380632958868200,2.7748681640625,-0.4458160400390625,-0.8827056884765625,-0.1626434326171875
1761380632968923100,2.784923095703125,-0.2550201416015625,-0.8226776123046875,-0.2013092041015625
1761380632978979000,2.79497900390625,-0.13580322265625,-0.726165771484375,-0.252105712890625
1761380632989035000,2.805034912109375,-0.1085968017578125,-0.6052093505859375,-0.3338165283203125
1761380632999091200,2.81509130859375,-0.1587677001953125,-0.4795379638671875,-0.4311065673828125
1761380633009146000,2.82514599609375,-0.1999359130859375,-0.33856201171875,-0.4867095947265625
1761380633019202300,2.835202392578125,-0.2033843994140625,-0.2205963134765625,-0.49615478515625
1761380633029258200,2.84525830078125,-0.1649932861328125,-0.1831512451171875,-0.4626007080078125
1761380633039314200,2.855314208984375,-0.103240966796875,-0.1654205322265625,-0.4027557373046875
1761380633049369000,2.865369140625,-0.0947723388671875,-0.163665771484375,-0.3575439453125
1761380633059425000,2.875425048828125,-0.044921875,-0.1871337890625,-0.3867340087890625
1761380633069481200,2.885481201171875,0.023651123046875,-0.1728057861328125,-0.51861572265625
1761380633079537200,2.895537109375,0.0725860595703125,-0.0937652587890625,-0.665618896484375
1761380633089592300,2.90559228515625,0.1210174560546875,-0.03167724609375,-0.7428741455078125
1761380633099648300,2.915648193359375,0.16162109375,-0.056640625,-0.72381591796875
1761380633109704200,2.9257041015625,0.115570068359375,-0.145355224609375,-0.6562957763671875
1761380633119760400,2.935760498046875,-0.014892578125,-0.255340576171875,-0.5752105712890625
1761380633129815000,2.94581494140625,-0.1978607177734375,-0.38427734375,-0.473114013671875
1761380633139871200,2.955871337890625,-0.37994384765625,-0.5300750732421875,-0.385467529296875
1761380633149927200,2.96592724609375,-0.5818939208984375,-0.6673126220703125,-0.3936920166015625
1761380633159983000,2.975983154296875,-0.7758331298828125,-0.8111572265625,-0.4785919189453125
1761380633170038300,2.986038330078125,-0.72320556640625,-0.9382171630859375,-0.629547119140625
1761380633180094200,2.99609423828125,-0.5614471435546875,-0.9365997314453125,-0.7890777587890625
1761380633190150100,3.006150146484375,-0.6974029541015625,-1.13677978515625,-0.89227294921875
1761380633200206300,3.016206298828125,-1.0539398193359375,-1.656707763671875,-0.90899658203125
1761380633210261000,3.026260986328125,-1.4425811767578125,-2.1392669677734375,-0.861236572265625
1761380633220317200,3.036317138671875,-1.9407806396484375,-2.2084503173828125,-0.712158203125
1761380633230373000,3.046373046875,-2.379638671875,-1.9365386962890625,-0.5781707763671875
1761380633240429000,3.056428955078125,-2.237579345703125,-1.6339874267578125,-0.4933319091796875
1761380633250484200,3.066484130859375,-1.837615966796875,-1.4695281982421875,-0.4448089599609375
1761380633260540200,3.0765400390625,-1.551666259765625,-1.4169921875,-0.2614593505859375
1761380633270596400,3.086596435546875,-1.3441619873046875,-1.46453857421875,-0.0202484130859375
1761380633280652300,3.09665234375,-1.116485595703125,-1.46917724609375,0.1771087646484375
1761380633290707200,3.106707275390625,-0.8614349365234375,-1.4443511962890625,0.2764739990234375
1761380633300763100,3.11676318359375,-0.6114349365234375,-1.3856201171875,0.3334197998046875
1761380633310819000,3.126819091796875,-0.4479522705078125,-1.2948760986328125,0.3801727294921875
1761380633320875300,3.136875244140625,-0.4163055419921875,-1.18408203125,0.4563446044921875
1761380633330930200,3.14693017578125,-0.42352294921875,-1.058624267578125,0.5243072509765625
1761380633340986400,3.156986328125,-0.440643310546875,-0.9205474853515625,0.56402587890625
1761380633351042300,3.167042236328125,-0.439544677734375,-0.802032470703125,0.565948486328125
1761380633361098200,3.17709814453125,-0.4127197265625,-0.6729888916015625,0.539764404296875
1761380633371153200,3.187153076171875,-0.313018798828125,-0.5300445556640625,0.503173828125
1761380633381209000,3.197208984375,-0.214019775390625,-0.37677001953125,0.4603729248046875
1761380633391265300,3.207265380859375,-0.0997314453125,-0.2857513427734375,0.4027099609375
1761380633401321200,3.2173212890625,0.0857391357421875,-0.2149200439453125,0.3348541259765625
1761380633411376000,3.227376220703125,0.21673583984375,-0.1545257568359375,0.2639923095703125
1761380633421432300,3.237432373046875,0.278076171875,-0.17047119140625,0.241119384765625
1761380633431488300,3.24748828125,0.3221282958984375,-0.2492828369140625,0.2993316650390625
1761380633441544200,3.257544189453125,0.2542266845703125,-0.319427490234375,0.43115234375
1761380633451599000,3.26759912109375,0.166656494140625,-0.423370361328125,0.540924072265625
1761380633461655000,3.277655029296875,0.1390533447265625,-0.5232391357421875,0.6079559326171875
1761380633471711200,3.287711181640625,0.102569580078125,-0.617218017578125,0.61859130859375
1761380633481767200,3.29776708984375,0.14141845703125,-0.710968017578125,0.5837860107421875
1761380633491822300,3.307822265625,0.169403076171875,-0.7682647705078125,0.5590057373046875
1761380633501878500,3.31787841796875,0.067108154296875,-0.8176422119140625,0.506622314453125
1761380633511934500,3.3279345703125,-0.1635589599609375,-0.8569488525390625,0.4634246826171875
1761380633521990700,3.33799072265625,-0.432037353515625,-0.8675689697265625,0.4834442138671875
1761380633532045300,3.34804541015625,-0.7548065185546875,-0.879180908203125,0.5605926513671875
1761380633542101500,3.3581015625,-1.024261474609375,-0.9605712890625,0.5851898193359375
1761380633552157400,3.368157470703125,-1.17144775390625,-0.9687957763671875,0.5191650390625
1761380633562213400,3.37821337890625,-1.2385101318359375,-0.97930908203125,0.4060516357421875
1761380633572268500,3.3882685546875,-1.24163818359375,-1.14044189453125,0.2918853759765625
1761380633582324500,3.398324462890625,-1.520111083984375,-1.4022369384765625,0.2133026123046875
1761380633592380400,3.40838037109375,-1.648895263671875,-1.6637420654296875,0.26654052734375
1761380633602436600,3.4184365234375,-1.35101318359375,-1.7103118896484375,0.3506317138671875
1761380633612491300,3.4284912109375,-1.26776123046875,-1.4402618408203125,0.200286865234375
1761380633622547500,3.43854736328125,-1.2729949951171875,-1.2892303466796875,-0.0116729736328125
1761380633632603400,3.448603271484375,-1.2545318603515625,-1.2873382568359375,-0.0861053466796875
1761380633642659300,3.458659423828125,-1.298553466796875,-1.2039031982421875,-0.05194091796875
1761380633652714500,3.468714599609375,-1.2624359130859375,-1.1306915283203125,-0.0364532470703125
1761380633662770400,3.4787705078125,-1.137603759765625,-1.1111907958984375,-0.0391845703125
1761380633672826600,3.48882666015625,-1.173431396484375,-1.038543701171875,-0.0257110595703125
1761380633682882600,3.498882568359375,-1.3887939453125,-0.9863128662109375,-0.0900421142578125
1761380633692937500,3.5089375,-1.458831787109375,-0.949737548828125,-0.2168426513671875
1761380633702993400,3.518993408203125,-1.150115966796875,-0.8115234375,-0.301361083984375
1761380633713049300,3.52904931640625,-0.8724365234375,-0.6972808837890625,-0.390533447265625
1761380633723105500,3.53910546875,-0.6364593505859375,-0.6055450439453125,-0.41595458984375
1761380633733160400,3.549160400390625,-0.292236328125,-0.6353759765625,-0.4051361083984375
1761380633743216600,3.559216552734375,-0.068695068359375,-0.6267852783203125,-0.3627777099609375
1761380633753272600,3.5692724609375,0.0166778564453125,-0.5483245849609375,-0.325592041015625
1761380633763328500,3.57932861328125,0.0108184814453125,-0.46258544921875,-0.36016845703125
1761380633773383400,3.589383544921875,-0.049591064453125,-0.3423004150390625,-0.406707763671875
1761380633783439400,3.599439453125,-0.0355377197265625,-0.27191162109375,-0.4532470703125
1761380633793495300,3.609495361328125,-0.0112152099609375,-0.242218017578125,-0.4878692626953125
1761380633803551500,3.619551513671875,-0.033233642578125,-0.2042236328125,-0.525970458984375
1761380633813606400,3.6296064453125,-0.046142578125,-0.164825439453125,-0.5815582275390625
1761380633823662600,3.63966259765625,-0.059112548828125,-0.127044677734375,-0.6139373779296875
1761380633833718500,3.649718505859375,-0.0768585205078125,-0.076904296875,-0.6023101806640625
1761380633843774500,3.6597744140625,-0.114044189453125,-0.02642822265625,-0.5742950439453125
1761380633853829400,3.669829345703125,-0.1898040771484375,0.0146636962890625,-0.5395965576171875
1761380633863885300,3.67988525390625,-0.2775421142578125,0.0240325927734375,-0.4914703369140625
1761380633873941500,3.68994140625,-0.3125762939453125,-0.0994110107421875,-0.4382781982421875
1761380633883997400,3.69999755859375,-0.40325927734375,-0.3907318115234375,-0.41156005859375
1761380633894052600,3.710052490234375,-0.603302001953125,-0.6676788330078125,-0.3914794921875
1761380633904108500,3.720108642578125,-0.6846160888671875,-0.8646697998046875,-0.3694915771484375
1761380633914164500,3.73016455078125,-0.946624755859375,-1.065399169921875,-0.3143463134765625
1761380633924220700,3.740220703125,-1.6738739013671875,-1.4945526123046875,-0.3082427978515625
1761380633934275300,3.750275390625,-2.1559295654296875,-2.0573577880859375,-0.34564208984375
1761380633944331500,3.76033154296875,-2.267333984375,-2.0723876953125,-0.2353363037109375
1761380633954387500,3.770387451171875,-2.27667236328125,-1.711578369140625,-0.1419219970703125
1761380633964443400,3.780443359375,-2.2022857666015625,-1.5129547119140625,-0.2663421630859375
1761380633974498600,3.79049853515625,-2.0417633056640625,-1.3519439697265625,-0.4022979736328125
1761380633984554500,3.800554443359375,-1.711334228515625,-1.1739501953125,-0.4159088134765625
1761380633994610400,3.8106103515625,-1.4257965087890625,-1.081085205078125,-0.386810302734375
1761380634004666400,3.820666259765625,-1.0799407958984375,-1.063720703125,-0.387847900390625
1761380634014721300,3.83072119140625,-0.9573516845703125,-0.990997314453125,-0.38153076171875
1761380634024777500,3.840777587890625,-0.8223114013671875,-0.9608154296875,-0.334564208984375
1761380634034833400,3.85083349609375,-0.47869873046875,-0.990966796875,-0.2415771484375
1761380634044889300,3.860889404296875,-0.25970458984375,-0.9945831298828125,-0.110992431640625
1761380634054944500,3.870944580078125,-0.2631988525390625,-0.9528350830078125,0.010894775390625
1761380634065000400,3.88100048828125,-0.4022064208984375,-0.872314453125,0.0878753662109375
1761380634075056600,3.891056640625,-0.481201171875,-0.729827880859375,0.1324005126953125
1761380634085112300,3.9011123046875,-0.4602813720703125,-0.549102783203125,0.145843505859375
1761380634095167500,3.91116748046875,-0.4074859619140625,-0.380767822265625,0.1349334716796875
1761380634105223400,3.921223388671875,-0.3253173828125,-0.2438201904296875,0.1269073486328125
1761380634115279400,3.931279296875,-0.237274169921875,-0.1170196533203125,0.161041259765625
1761380634125335600,3.94133544921875,-0.1963958740234375,-0.0731201171875,0.258209228515625
1761380634135390500,3.951390380859375,-0.1845245361328125,-0.1078948974609375,0.4442596435546875
1761380634145446700,3.96144677734375,-0.2457122802734375,-0.17083740234375,0.6709442138671875
1761380634155502600,3.971502685546875,-0.3352508544921875,-0.1795501708984375,0.85797119140625
1761380634165558300,3.981558349609375,-0.3363037109375,-0.215240478515625,0.889984130859375
1761380634175614500,3.991614501953125,-0.1281280517578125,-0.2296600341796875,0.840362548828125
1761380634185669400,4.00166943359375,0.22381591796875,-0.285552978515625,0.8166961669921875
1761380634195725600,4.0117255859375,0.543701171875,-0.415283203125,0.80633544921875
1761380634205778400,4.0217783203125,0.7010650634765625,-0.5254974365234375,0.804168701171875
1761380634215834400,4.03183447265625,0.5343017578125,-0.595184326171875,0.8213348388671875
1761380634225889500,4.0418896484375,0.1252899169921875,-0.6045074462890625,0.85595703125
1761380634235945500,4.051945556640625,-0.3968658447265625,-0.599029541015625,0.855072021484375
1761380634246001400,4.06200146484375,-0.8115234375,-0.6095428466796875,0.801483154296875
1761380634256057600,4.0720576171875,-1.022918701171875,-0.6869354248046875,0.72625732421875
1761380634266112500,4.082112548828125,-0.8480987548828125,-0.820068359375,0.6214752197265625
1761380634276168400,4.09216845703125,-0.7762451171875,-1.059417724609375,0.474639892578125
1761380634286224400,4.102224365234375,-1.0831298828125,-1.5754852294921875,0.435089111328125
1761380634296280300,4.1122802734375,-1.037200927734375,-2.0231781005859375,0.49237060546875
1761380634306335500,4.12233544921875,-0.7255096435546875,-1.938262939453125,0.29315185546875
1761380634316391400,4.132391357421875,-1.106842041015625,-1.52593994140625,-0.1376953125
1761380634326447400,4.142447265625,-1.44427490234375,-1.2739105224609375,-0.3844146728515625
1761380634336503600,4.152503662109375,-1.4008331298828125,-1.10626220703125,-0.2996826171875
1761380634346558200,4.16255810546875,-1.123291015625,-1.0625152587890625,-0.0826873779296875
1761380634356614400,4.172614501953125,-0.9191131591796875,-1.1666412353515625,0.0731964111328125
1761380634366670300,4.18267041015625,-0.787200927734375,-1.3091583251953125,0.2028350830078125
1761380634376726300,4.192726318359375,-0.5375213623046875,-1.4239349365234375,0.312255859375
1761380634386782500,4.202782470703125,-0.262542724609375,-1.45367431640625,0.4080657958984375
1761380634396837400,4.21283740234375,-0.253753662109375,-1.40472412109375,0.4875030517578125
1761380634406893600,4.2228935546875,-0.4325408935546875,-1.29217529296875,0.4593505859375
1761380634416949500,4.232949462890625,-0.6012420654296875,-1.0914764404296875,0.338836669921875
1761380634427005400,4.24300537109375,-0.6975250244140625,-0.8648529052734375,0.133331298828125
1761380634437060400,4.253060302734375,-0.7052154541015625,-0.6064300537109375,-0.1715087890625
1761380634447116300,4.2631162109375,-0.6995849609375,-0.381195068359375,-0.474609375
1761380634457172500,4.27317236328125,-0.478729248046875,-0.2687835693359375,-0.639129638671875
1761380634467228400,4.283228515625,-0.0885467529296875,-0.2467193603515625,-0.65509033203125
1761380634477283600,4.29328369140625,0.088592529296875,-0.207305908203125,-0.68682861328125
1761380634487339500,4.303339599609375,0.039642333984375,-0.1709136962890625,-0.8185882568359375
1761380634497395500,4.3133955078125,-0.01983642578125,-0.1669921875,-0.912109375
1761380634507454500,4.323454345703125,-0.00177001953125,-0.1998443603515625,-0.9086761474609375
1761380634517510400,4.333510498046875,0.0201263427734375,-0.185394287109375,-0.8766937255859375
1761380634527565600,4.343565673828125,-0.032989501953125,-0.1339569091796875,-0.8178253173828125
1761380634537621500,4.35362158203125,-0.051513671875,-0.133514404296875,-0.700286865234375
1761380634547677400,4.363677490234375,-0.10565185546875,-0.188720703125,-0.5660400390625
1761380634557733600,4.373733642578125,-0.236846923828125,-0.2800750732421875,-0.538238525390625
1761380634567788500,4.38378857421875,-0.3841094970703125,-0.4052276611328125,-0.602325439453125
1761380634577844500,4.393844482421875,-0.4531707763671875,-0.5584869384765625,-0.65350341796875
1761380634587900400,4.403900390625,-0.5081939697265625,-0.7882537841796875,-0.726470947265625
1761380634597956400,4.413956298828125,-0.59149169921875,-0.9154052734375,-0.8550872802734375
1761380634608012500,4.424012451171875,-0.52886962890625,-0.8640594482421875,-1.003173828125
1761380634618068500,4.434068359375,-0.8307647705078125,-0.90667724609375,-1.001434326171875
1761380634628124400,4.44412451171875,-1.27178955078125,-1.253509521484375,-0.8098297119140625
1761380634638180600,4.4541806640625,-1.41339111328125,-1.805877685546875,-0.662017822265625
1761380634648235500,4.464235595703125,-1.5486297607421875,-2.00323486328125,-0.5791778564453125
1761380634658291500,4.47429150390625,-1.891571044921875,-1.6255950927734375,-0.50958251953125
1761380634668347600,4.48434765625,-1.9447021484375,-1.271026611328125,-0.4827423095703125
1761380634678403300,4.4944033203125,-1.8058319091796875,-1.105682373046875,-0.3656158447265625
1761380634688458500,4.50445849609375,-1.6259613037109375,-1.0397186279296875,-0.2117919921875
1761380634698514400,4.514514404296875,-1.412109375,-1.0413665771484375,-0.1038665771484375
1761380634708570400,4.5245703125,-1.1057891845703125,-1.0963592529296875,-0.0029754638671875
1761380634718626600,4.53462646484375,-0.8150177001953125,-1.1066436767578125,0.1553497314453125
1761380634728682500,4.5446826171875,-0.720550537109375,-1.107269287109375,0.295074462890625
1761380634738737700,4.554737548828125,-0.8214874267578125,-1.1741943359375,0.3881378173828125
1761380634748793600,4.564793701171875,-0.8847503662109375,-1.260833740234375,0.4567108154296875
1761380634758849300,4.574849365234375,-0.83355712890625,-1.27337646484375,0.4413299560546875
1761380634768905500,4.584905517578125,-0.7652740478515625,-1.1459197998046875,0.3689117431640625
1761380634778960400,4.59496044921875,-0.63543701171875,-0.9324798583984375,0.3142242431640625
1761380634789016600,4.6050166015625,-0.7524261474609375,-0.7281341552734375,0.3010406494140625
1761380634799072500,4.615072509765625,-0.7984466552734375,-0.5883636474609375,0.212432861328125
1761380634809128400,4.62512841796875,-0.565277099609375,-0.3785400390625,0.0659942626953125
1761380634819183600,4.63518359375,-0.425384521484375,-0.17425537109375,-0.044464111328125
1761380634829239600,4.645239501953125,-0.2892913818359375,-0.1119842529296875,-0.04962158203125
1761380634839295500,4.65529541015625,-0.1333770751953125,-0.07269287109375,0.053985595703125
1761380634849351400,4.665351318359375,-0.0266571044921875,-0.0319366455078125,0.21826171875
1761380634859407400,4.675407470703125,-0.0152130126953125,-0.0422515869140625,0.4106903076171875
1761380634869462500,4.685462646484375,-0.08599853515625,-0.117218017578125,0.6030120849609375
1761380634879518500,4.6955185546875,-0.1900482177734375,-0.1909027099609375,0.7492523193359375
1761380634889574400,4.705574462890625,-0.217864990234375,-0.253387451171875,0.80938720703125
1761380634899630600,4.715630615234375,-0.2145233154296875,-0.34967041015625,0.802642822265625
1761380634909685200,4.725685302734375,-0.2186279296875,-0.4726715087890625,0.7702484130859375
1761380634919741400,4.735741455078125,-0.253387451171875,-0.560394287109375,0.7772369384765625
1761380634929797400,4.74579736328125,-0.3242950439453125,-0.654541015625,0.8003997802734375
1761380634939853300,4.755853271484375,-0.3835296630859375,-0.717193603515625,0.7947540283203125
1761380634949908500,4.765908447265625,-0.5435333251953125,-0.77191162109375,0.755035400390625
1761380634959964400,4.77596435546875,-0.7981719970703125,-0.87567138671875,0.7178497314453125
1761380634970020600,4.7860205078125,-0.8922271728515625,-0.947479248046875,0.6716766357421875
1761380634980076500,4.79607666015625,-0.74273681640625,-1.0152740478515625,0.5463409423828125
1761380634990132500,4.806132568359375,-0.8079376220703125,-1.219329833984375,0.395904541015625
1761380635000187400,4.8161875,-1.05389404296875,-1.5249786376953125,0.3201904296875
1761380635010243300,4.826243408203125,-1.0680999755859375,-1.71881103515625,0.2767333984375
1761380635020299500,4.836299560546875,-1.2280731201171875,-1.55511474609375,0.11279296875
1761380635030355500,4.84635546875,-1.366363525390625,-1.2255096435546875,-0.0520477294921875
1761380635040410600,4.85641064453125,-1.396636962890625,-0.97161865234375,-0.049713134765625
1761380635050466600,4.866466552734375,-1.471649169921875,-0.861236572265625,0.0659027099609375
1761380635060522500,4.8765224609375,-1.4732513427734375,-0.8960113525390625,0.1194305419921875
1761380635070578700,4.88657861328125,-1.36688232421875,-0.996337890625,0.0930633544921875
1761380635080633300,4.89663330078125,-1.140106201171875,-1.1250152587890625,0.066131591796875
1761380635090689500,4.906689453125,-0.876220703125,-1.216339111328125,0.0491485595703125
1761380635100745500,4.916745361328125,-0.67193603515625,-1.2467498779296875,-0.016448974609375
1761380635110801400,4.926801513671875,-0.564544677734375,-1.1820831298828125,-0.1502532958984375
1761380635120857600,4.936857666015625,-0.46405029296875,-1.0164337158203125,-0.299407958984375
1761380635130912500,4.94691259765625,-0.3250579833984375,-0.844207763671875,-0.413330078125
1761380635140968400,4.956968505859375,-0.22235107421875,-0.6831817626953125,-0.4895782470703125
1761380635151024600,4.967024658203125,-0.1688385009765625,-0.5107879638671875,-0.5255584716796875
1761380635161080600,4.97708056640625,-0.1507110595703125,-0.3561859130859375,-0.5245513916015625
1761380635171136300,4.98713623046875,-0.110260009765625,-0.2405548095703125,-0.489227294921875
1761380635181191400,4.99719140625,-0.050811767578125,-0.2074127197265625,-0.4298095703125
1761380635191247400,5.007247314453125,-0.0001678466796875,-0.2041473388671875,-0.3927154541015625
1761380635201303600,5.017303466796875,0.0941314697265625,-0.18255615234375,-0.441009521484375
1761380635211359500,5.027359375,0.2229461669921875,-0.1381988525390625,-0.53741455078125
1761380635221414700,5.03741455078125,0.240875244140625,-0.120849609375,-0.62884521484375
1761380635231470600,5.047470703125,0.2247467041015625,-0.1345672607421875,-0.70318603515625
1761380635241526500,5.057526611328125,0.137603759765625,-0.098236083984375,-0.76324462890625
1761380635251582500,5.06758251953125,-0.0168609619140625,-0.047454833984375,-0.824920654296875
1761380635261637400,5.077637451171875,-0.0970306396484375,-0.036895751953125,-0.873046875
1761380635271693600,5.087693603515625,-0.14373779296875,-0.066314697265625,-0.9018402099609375
1761380635281749500,5.09774951171875,-0.20587158203125,-0.13348388671875,-0.9289093017578125
1761380635291805400,5.107805419921875,-0.2230987548828125,-0.2385406494140625,-1.001739501953125
1761380635301861600,5.117861572265625,-0.37152099609375,-0.3776397705078125,-1.0852203369140625
1761380635311916500,5.12791650390625,-0.6550445556640625,-0.571319580078125,-1.1312408447265625
1761380635321972500,5.137972412109375,-0.8980255126953125,-0.7325286865234375,-1.1147613525390625
1761380635332028400,5.1480283203125,-0.9010162353515625,-0.7839508056640625,-1.07177734375
1761380635342084400,5.15808447265625,-0.7725067138671875,-0.8450164794921875,-0.9360198974609375
1761380635352140500,5.168140625,-0.852386474609375,-1.161285400390625,-0.664031982421875
1761380635362195500,5.178195556640625,-1.0070343017578125,-1.787261962890625,-0.4759521484375
1761380635372251400,5.18825146484375,-1.2700653076171875,-2.2304840087890625,-0.3354949951171875
1761380635382307600,5.1983076171875,-1.8564605712890625,-2.088714599609375,-0.144775390625
1761380635392363500,5.208363525390625,-2.2949676513671875,-1.74078369140625,0.016632080078125
1761380635402418400,5.21841845703125,-2.048858642578125,-1.575836181640625,0.1305084228515625
1761380635412474400,5.228474365234375,-1.5680084228515625,-1.4098663330078125,0.25848388671875
1761380635422530300,5.2385302734375,-1.239837646484375,-1.402557373046875,0.375885009765625
1761380635432586500,5.24858642578125,-1.0616912841796875,-1.5888519287109375,0.499114990234375
1761380635442642400,5.258642333984375,-0.9350128173828125,-1.7512969970703125,0.5753173828125
1761380635452697600,5.268697509765625,-0.6795654296875,-1.782989501953125,0.6094970703125
1761380635462753500,5.27875341796875,-0.4363250732421875,-1.712860107421875,0.62225341796875
1761380635472809500,5.2888095703125,-0.3134918212890625,-1.6216278076171875,0.5740203857421875
1761380635482865700,5.29886572265625,-0.252716064453125,-1.4820098876953125,0.4625091552734375
1761380635492920300,5.30892041015625,-0.1985321044921875,-1.2960968017578125,0.32269287109375
1761380635502976500,5.3189765625,-0.1628570556640625,-1.0822601318359375,0.1928558349609375
1761380635513032400,5.329032470703125,-0.1303253173828125,-0.847747802734375,0.097442626953125
1761380635523088400,5.33908837890625,-0.122802734375,-0.602783203125,0.0215301513671875
1761380635533144600,5.34914453125,-0.0944366455078125,-0.388702392578125,-0.031829833984375
1761380635543199500,5.359199462890625,-0.0320892333984375,-0.2426910400390625,-0.0299072265625
1761380635553255700,5.369255615234375,0.08355712890625,-0.1587982177734375,-0.0298614501953125
1761380635563311400,5.379311279296875,0.0076446533203125,-0.0548248291015625,-0.028167724609375
1761380635573367300,5.3893671875,-0.1804351806640625,-0.0125579833984375,0.040618896484375
1761380635583422500,5.39942236328125,-0.274261474609375,-0.0052337646484375,0.154754638671875
1761380635593478400,5.409478515625,-0.3467864990234375,0.007049560546875,0.258819580078125
1761380635603534300,5.419534423828125,-0.4078826904296875,0.0028076171875,0.3387298583984375
1761380635613590500,5.429590576171875,-0.4043731689453125,-0.011566162109375,0.42010498046875
1761380635623646500,5.439646484375,-0.293121337890625,-0.0336456298828125,0.5081939697265625
1761380635633701600,5.44970166015625,-0.1350250244140625,-0.1110382080078125,0.5580902099609375
1761380635643757300,5.45975732421875,0.015167236328125,-0.1955413818359375,0.554931640625
1761380635653813200,5.469813232421875,0.04925537109375,-0.29522705078125,0.5147857666015625
1761380635663869400,5.479869384765625,0.0315704345703125,-0.449676513671875,0.4730224609375
1761380635673925400,5.48992529296875,-0.004425048828125,-0.5778045654296875,0.4650421142578125
1761380635683980500,5.49998046875,-0.12347412109375,-0.6609954833984375,0.4486541748046875
1761380635694036500,5.510036376953125,-0.2303619384765625,-0.8026580810546875,0.4391632080078125
1761380635704092400,5.520092529296875,-0.2888336181640625,-0.969635009765625,0.4553070068359375
1761380635714148600,5.530148681640625,-0.413665771484375,-1.1085357666015625,0.4257659912109375
1761380635724203300,5.540203369140625,-0.6057586669921875,-1.36700439453125,0.4352874755859375
1761380635734259500,5.550259521484375,-0.891998291015625,-1.772186279296875,0.5404510498046875
1761380635744315400,5.5603154296875,-0.9748687744140625,-2.070068359375,0.636077880859375
1761380635754371300,5.570371337890625,-0.986663818359375,-2.0368499755859375,0.5641021728515625
1761380635764427500,5.580427490234375,-1.161529541015625,-1.7598876953125,0.4007568359375
1761380635774482400,5.590482421875,-1.46868896484375,-1.4803009033203125,0.3473358154296875
1761380635784538600,5.60053857421875,-1.694488525390625,-1.263031005859375,0.2796783447265625
1761380635794594600,5.610594482421875,-1.6317291259765625,-1.0614471435546875,0.1979217529296875
1761380635804650500,5.620650390625,-1.555084228515625,-1.05279541015625,0.1985626220703125
1761380635814706700,5.630706787109375,-1.3767852783203125,-1.2028045654296875,0.2238311767578125
1761380635824761300,5.64076123046875,-1.0757293701171875,-1.2673797607421875,0.2279052734375
1761380635834817500,5.650817626953125,-0.761688232421875,-1.2189483642578125,0.2406005859375
1761380635844873500,5.66087353515625,-0.57080078125,-1.17108154296875,0.244537353515625
1761380635854929400,5.670929443359375,-0.5155029296875,-1.123565673828125,0.1932525634765625
1761380635864984600,5.680984619140625,-0.4741973876953125,-1.07421875,0.0795745849609375
1761380635875040500,5.69104052734375,-0.40838623046875,-1.0084686279296875,-0.07122802734375
1761380635885096400,5.701096435546875,-0.29095458984375,-0.90692138671875,-0.2175750732421875
1761380635895152400,5.71115234375,-0.20880126953125,-0.7593536376953125,-0.339263916015625
1761380635905208300,5.721208251953125,-0.1744232177734375,-0.57373046875,-0.431732177734375
1761380635915263500,5.731263427734375,-0.2086944580078125,-0.3846282958984375,-0.4950103759765625
1761380635925319400,5.7413193359375,-0.318267822265625,-0.2554931640625,-0.523162841796875
1761380635935375400,5.751375244140625,-0.4333343505859375,-0.204315185546875,-0.5295257568359375
1761380635945431600,5.761431640625,-0.475311279296875,-0.1887054443359375,-0.56439208984375
1761380635955487500,5.771487548828125,-0.410736083984375,-0.170501708984375,-0.6451873779296875
1761380635965542700,5.781542724609375,-0.2895965576171875,-0.1521148681640625,-0.7149505615234375
1761380635975598300,5.791598388671875,-0.168975830078125,-0.1659393310546875,-0.7381439208984375
1761380635985654300,5.801654296875,-0.0963134765625,-0.254974365234375,-0.7425537109375
1761380635995710500,5.81171044921875,-0.0799560546875,-0.3320159912109375,-0.7563018798828125
1761380636005766400,5.821766357421875,-0.0888824462890625,-0.328460693359375,-0.7489776611328125
1761380636015821600,5.831821533203125,-0.189453125,-0.3444976806640625,-0.717926025390625
1761380636025877500,5.84187744140625,-0.1994781494140625,-0.4175872802734375,-0.63958740234375
1761380636035933400,5.851933349609375,-0.100921630859375,-0.50933837890625,-0.5877532958984375
1761380636045989600,5.86198974609375,-0.00006103515625,-0.5467681884765625,-0.619110107421875
1761380636056044300,5.872044189453125,0.022003173828125,-0.6032867431640625,-0.6496124267578125
1761380636066100500,5.8821005859375,-0.058868408203125,-0.72454833984375,-0.625396728515625
1761380636076156400,5.892156494140625,-0.0660552978515625,-0.84832763671875,-0.5496978759765625
1761380636086212400,5.90221240234375,-0.147613525390625,-0.91094970703125,-0.5016021728515625
1761380636096268300,5.912268310546875,-0.660430908203125,-0.9321441650390625,-0.4760284423828125
1761380636106323500,5.922323486328125,-1.27154541015625,-1.190826416015625,-0.391754150390625
1761380636116379400,5.93237939453125,-1.464447021484375,-1.791961669921875,-0.2264404296875
1761380636126435600,5.942435546875,-1.6188507080078125,-2.141510009765625,-0.21258544921875
1761380636136491500,5.952491455078125,-1.921630859375,-1.836822509765625,-0.3994903564453125
1761380636146547500,5.96254736328125,-1.913238525390625,-1.438873291015625,-0.6053009033203125
1761380636156602400,5.972602294921875,-1.420013427734375,-1.2404937744140625,-0.78765869140625
1761380636166658300,5.982658203125,-0.878021240234375,-0.9742889404296875,-0.9024658203125
1761380636176714500,5.992714599609375,-0.664093017578125,-0.8751068115234375,-0.8685760498046875
1761380636186770400,6.0027705078125,-0.5872955322265625,-0.9876251220703125,-0.657379150390625
1761380636196826400,6.012826416015625,-0.429656982421875,-1.11822509765625,-0.4363250732421875
1761380636206881500,6.022881591796875,-0.1869354248046875,-1.2126007080078125,-0.2791595458984375
1761380636216937500,6.0329375,-0.123931884765625,-1.2553253173828125,-0.125579833984375
1761380636226993700,6.04299365234375,-0.290557861328125,-1.21966552734375,0.0435333251953125
1761380636237049300,6.05304931640625,-0.4716339111328125,-1.1099853515625,0.16888427734375
1761380636247105300,6.063105224609375,-0.5872802734375,-0.94879150390625,0.2213592529296875
1761380636257160400,6.073160400390625,-0.599365234375,-0.7672882080078125,0.25445556640625
1761380636267216400,6.08321630859375,-0.4996490478515625,-0.637451171875,0.2689971923828125
1761380636277272600,6.0932724609375,-0.34796142578125,-0.529510498046875,0.264801025390625
1761380636287328500,6.10332861328125,-0.1975250244140625,-0.3919830322265625,0.2709503173828125
1761380636297383400,6.113383544921875,-0.0559539794921875,-0.2962646484375,0.3029022216796875
1761380636307439600,6.123439697265625,0.0416412353515625,-0.2838134765625,0.4135284423828125
1761380636317495300,6.133495361328125,0.0384979248046875,-0.3440704345703125,0.62835693359375
1761380636327551500,6.143551513671875,0.0240631103515625,-0.439422607421875,0.8738861083984375
1761380636337607400,6.153607421875,-0.046844482421875,-0.5404205322265625,1.0528411865234375
1761380636347662300,6.163662353515625,-0.1214599609375,-0.589263916015625,1.1077423095703125
1761380636357718500,6.173718505859375,-0.1666412353515625,-0.5137939453125,1.051116943359375
1761380636367774500,6.1837744140625,-0.203369140625,-0.4503173828125,0.956024169921875
1761380636377830400,6.193830322265625,-0.172119140625,-0.4249420166015625,0.843475341796875
1761380636387886600,6.203886474609375,-0.0967864990234375,-0.40802001953125,0.6873779296875
1761380636397941200,6.213941162109375,-0.0511016845703125,-0.4329071044921875,0.5339202880859375
1761380636407997400,6.22399755859375,-0.139739990234375,-0.5062713623046875,0.4116973876953125
1761380636418053400,6.234053466796875,-0.3039703369140625,-0.5982208251953125,0.3375701904296875
1761380636428109300,6.244109375,-0.4432830810546875,-0.7186737060546875,0.2867279052734375
1761380636438165500,6.25416552734375,-0.6002197265625,-0.8831787109375,0.257598876953125
1761380636448220400,6.264220458984375,-0.6164703369140625,-1.0298919677734375,0.2645111083984375
1761380636458276600,6.274276611328125,-0.7767181396484375,-1.231536865234375,0.2809295654296875
1761380636468332500,6.28433251953125,-1.3032379150390625,-1.5876617431640625,0.4337158203125
1761380636478388500,6.294388427734375,-1.668212890625,-1.991607666015625,0.7562103271484375
1761380636488444400,6.3044443359375,-1.6236419677734375,-2.03497314453125,0.89959716796875
1761380636498496300,6.314496337890625,-1.625823974609375,-1.6105804443359375,0.527557373046875
1761380636508552200,6.32455224609375,-1.54193115234375,-1.3061370849609375,0.20135498046875
1761380636518608100,6.334608154296875,-1.5591888427734375,-1.074493408203125,0.0518798828125
1761380636528664000,6.3446640625,-1.56854248046875,-0.886871337890625,-0.0150909423828125
1761380636538720300,6.35472021484375,-1.4027252197265625,-0.8724365234375,-0.012969970703125
1761380636548775200,6.364775146484375,-1.20843505859375,-0.949310302734375,0.075714111328125
1761380636558831000,6.3748310546875,-0.9896087646484375,-1.038055419921875,0.1392974853515625
1761380636568887300,6.38488720703125,-0.7742919921875,-1.067474365234375,0.1165618896484375
1761380636578943200,6.394943115234375,-0.659088134765625,-1.0746917724609375,0.0667266845703125
1761380636588999200,6.404999267578125,-0.537078857421875,-1.03887939453125,0.051971435546875
1761380636599054000,6.41505419921875,-0.5202789306640625,-1.0015411376953125,-0.013427734375
1761380636609110000,6.425110107421875,-0.497772216796875,-0.9516754150390625,-0.072906494140625
1761380636619166200,6.435166259765625,-0.4192352294921875,-0.8638153076171875,-0.1250457763671875
1761380636629222100,6.44522216796875,-0.3523712158203125,-0.7368316650390625,-0.17431640625
1761380636639278000,6.455278076171875,-0.333831787109375,-0.603790283203125,-0.222900390625
1761380636649333200,6.465333251953125,-0.3682403564453125,-0.4253692626953125,-0.273162841796875
1761380636659389200,6.47538916015625,-0.349609375,-0.241912841796875,-0.3431243896484375
1761380636669445400,6.4854453125,-0.3457183837890625,-0.1546783447265625,-0.3974151611328125
1761380636679501300,6.495501220703125,-0.2817230224609375,-0.15386962890625,-0.4297943115234375
1761380636689556200,6.50555615234375,-0.19873046875,-0.1804656982421875,-0.4757080078125
1761380636699612200,6.515612060546875,-0.12432861328125,-0.14410400390625,-0.539154052734375
1761380636709668000,6.525668212890625,-0.0353240966796875,-0.0780181884765625,-0.61474609375
1761380636719724300,6.535724365234375,0.0243377685546875,-0.0211639404296875,-0.6915740966796875
1761380636729780200,6.5457802734375,0.045867919921875,0.022186279296875,-0.76123046875
1761380636739836200,6.555836181640625,-0.02777099609375,0.059661865234375,-0.7608184814453125
1761380636749891300,6.565891357421875,-0.1535491943359375,-0.004180908203125,-0.6799163818359375
1761380636759947300,6.575947265625,-0.2194061279296875,-0.1805572509765625,-0.606964111328125
1761380636770003200,6.586003173828125,-0.249603271484375,-0.3507232666015625,-0.5645904541015625
1761380636780059100,6.59605908203125,-0.303466796875,-0.467620849609375,-0.54266357421875
1761380636790114000,6.606114013671875,-0.44158935546875,-0.627685546875,-0.517242431640625
1761380636800170200,6.616170166015625,-0.5249481201171875,-0.8587799072265625,-0.4698486328125
1761380636810226200,6.62622607421875,-0.7140045166015625,-0.986419677734375,-0.431427001953125
1761380636820282000,6.6362822265625,-1.0524444580078125,-1.0677032470703125,-0.3806915283203125
1761380636830338300,6.64633837890625,-1.16180419921875,-1.257232666015625,-0.28173828125
1761380636840393200,6.656393310546875,-1.1608734130859375,-1.77679443359375,-0.2510223388671875
1761380636850449200,6.66644921875,-1.6072845458984375,-2.09954833984375,-0.2445220947265625
1761380636860505000,6.676505126953125,-2.172088623046875,-1.6989898681640625,-0.11944580078125
1761380636870561000,6.68656103515625,-2.0443267822265625,-1.3664398193359375,-0.0901336669921875
1761380636880617200,6.6966171875,-1.642608642578125,-1.2387237548828125,-0.0507354736328125
1761380636890672000,6.706672119140625,-1.5676116943359375,-1.207122802734375,0.1218414306640625
1761380636900728300,6.716728271484375,-1.544097900390625,-1.3201141357421875,0.3109588623046875
1761380636910784300,6.7267841796875,-1.3590850830078125,-1.4136199951171875,0.37109375
1761380636920840200,6.736840087890625,-1.0498046875,-1.402618408203125,0.3528594970703125
1761380636930896400,6.746896484375,-0.7744598388671875,-1.3415069580078125,0.32891845703125
1761380636940951000,6.756950927734375,-0.551300048828125,-1.2376556396484375,0.3488006591796875
1761380636951007200,6.76700732421875,-0.3759002685546875,-1.1195526123046875,0.3849334716796875
1761380636961063200,6.777063232421875,-0.2702789306640625,-0.9912567138671875,0.399200439453125
1761380636971119000,6.787119140625,-0.2445220947265625,-0.8673248291015625,0.3874053955078125
1761380636981175300,6.79717529296875,-0.20062255859375,-0.746673583984375,0.3227386474609375
1761380636991230200,6.807230224609375,-0.09002685546875,-0.596038818359375,0.2091827392578125
1761380637001286100,6.8172861328125,0.010955810546875,-0.4376220703125,0.10455322265625
1761380637011342300,6.82734228515625,0.1236419677734375,-0.2956695556640625,0.0695343017578125
1761380637021398300,6.837398193359375,0.179229736328125,-0.1636505126953125,0.118743896484375
1761380637031454200,6.8474541015625,0.167816162109375,-0.0833587646484375,0.2094268798828125
1761380637041509000,6.857509033203125,0.0856475830078125,-0.0189056396484375,0.3450164794921875
1761380637051565000,6.86756494140625,-0.0802764892578125,0.02679443359375,0.5191650390625
1761380637061621200,6.877621337890625,-0.2080535888671875,0.03338623046875,0.6988677978515625
1761380637071677200,6.88767724609375,-0.2675933837890625,0.03631591796875,0.8697662353515625
1761380637081733000,6.897733154296875,-0.2276153564453125,-0.0137481689453125,1.04473876953125
1761380637091788300,6.907788330078125,-0.1195068359375,-0.1258392333984375,1.1977996826171875
1761380637101844200,6.91784423828125,-0.062103271484375,-0.235870361328125,1.31298828125
1761380637111900200,6.927900146484375,-0.1051177978515625,-0.30975341796875,1.3813629150390625
1761380637121956000,6.9379560546875,-0.145965576171875,-0.385894775390625,1.3533935546875
1761380637132012000,6.948011962890625,-0.2079620361328125,-0.4216156005859375,1.2485198974609375
1761380637142067200,6.958067138671875,-0.28375244140625,-0.4224395751953125,1.1005401611328125
1761380637152123100,6.968123046875,-0.4259490966796875,-0.5077362060546875,0.906097412109375
1761380637162179300,6.978179443359375,-0.59539794921875,-0.6289520263671875,0.7073516845703125
1761380637172235300,6.9882353515625,-0.7800750732421875,-0.7762603759765625,0.5668182373046875
1761380637182291200,6.998291259765625,-1.0015716552734375,-1.0452728271484375,0.4671478271484375
1761380637192346000,7.00834619140625,-1.1504364013671875,-1.126617431640625,0.3922882080078125
1761380637202402000,7.018402099609375,-1.43524169921875,-1.119720458984375,0.2827911376953125
1761380637212458200,7.028458251953125,-1.8457794189453125,-1.230865478515625,0.34161376953125
1761380637222514200,7.03851416015625,-1.7207183837890625,-1.5055389404296875,0.6198272705078125
1761380637232570000,7.048570068359375,-1.6004486083984375,-1.4770965576171875,0.5511627197265625
1761380637242625300,7.058625244140625,-1.7885589599609375,-1.043365478515625,0.137786865234375
1761380637252681200,7.06868115234375,-1.7570343017578125,-0.8397064208984375,-0.1757354736328125
1761380637262737200,7.078737060546875,-1.60577392578125,-0.7873992919921875,-0.332763671875
1761380637272793300,7.08879345703125,-1.4517822265625,-0.8675384521484375,-0.3444671630859375
1761380637282849300,7.098849365234375,-1.2731781005859375,-1.014190673828125,-0.2250823974609375
1761380637292904200,7.108904296875,-1.02642822265625,-1.1261749267578125,-0.1186676025390625
1761380637302960000,7.118960205078125,-0.773040771484375,-1.166168212890625,-0.0474395751953125
1761380637313016000,7.12901611328125,-0.549163818359375,-1.2001495361328125,0.0124969482421875
1761380637323072300,7.139072265625,-0.4261627197265625,-1.2071380615234375,0.010040283203125
1761380637333128200,7.149128173828125,-0.4541778564453125,-1.1201934814453125,-0.0923919677734375
1761380637343183400,7.159183349609375,-0.4637908935546875,-0.98297119140625,-0.248809814453125
1761380637353239300,7.1692392578125,-0.4319915771484375,-0.8574676513671875,-0.404937744140625
1761380637363295000,7.179294921875,-0.388641357421875,-0.71868896484375,-0.5271759033203125
1761380637373351200,7.18935107421875,-0.377960205078125,-0.565643310546875,-0.6071929931640625
1761380637383407000,7.199406982421875,-0.433380126953125,-0.404022216796875,-0.656585693359375
1761380637393462300,7.209462158203125,-0.4685516357421875,-0.2436065673828125,-0.658416748046875
1761380637403518200,7.219518310546875,-0.4728851318359375,-0.148223876953125,-0.6343841552734375
1761380637413574100,7.22957421875,-0.4365234375,-0.1160736083984375,-0.623504638671875
1761380637423630300,7.23963037109375,-0.36444091796875,-0.1181488037109375,-0.617462158203125
1761380637433686300,7.249686279296875,-0.2826080322265625,-0.1651458740234375,-0.6365509033203125
1761380637443741200,7.2597412109375,-0.1905975341796875,-0.2093048095703125,-0.67034912109375
1761380637453797000,7.269797119140625,-0.17041015625,-0.248321533203125,-0.6982574462890625
1761380637463853000,7.27985302734375,-0.1909332275390625,-0.2817840576171875,-0.6889495849609375
1761380637473909200,7.2899091796875,-0.177764892578125,-0.2899017333984375,-0.6552734375
1761380637483965200,7.299965087890625,-0.14959716796875,-0.2850799560546875,-0.62921142578125
1761380637494020000,7.31002001953125,-0.1248779296875,-0.2972259521484375,-0.6344451904296875
1761380637504080100,7.320080078125,-0.0780181884765625,-0.368988037109375,-0.615753173828125
1761380637514136000,7.330135986328125,-0.0626220703125,-0.4777679443359375,-0.58062744140625
1761380637524192000,7.34019189453125,-0.084930419921875,-0.556488037109375,-0.577178955078125
1761380637534248200,7.350248291015625,-0.216949462890625,-0.61279296875,-0.5898895263671875
1761380637544304000,7.36030419921875,-0.504180908203125,-0.7069854736328125,-0.5650177001953125
1761380637554359300,7.370359375,-0.72576904296875,-0.8959503173828125,-0.4746856689453125
1761380637564415200,7.380415283203125,-0.922698974609375,-1.0560760498046875,-0.36151123046875
1761380637574471000,7.390470947265625,-1.22637939453125,-1.1328277587890625,-0.315032958984375
1761380637584527000,7.400527099609375,-1.455169677734375,-1.2032928466796875,-0.3583221435546875
1761380637594582000,7.41058203125,-1.6964569091796875,-1.4754180908203125,-0.435211181640625
1761380637604638200,7.42063818359375,-2.0799713134765625,-1.4087066650390625,-0.4241943359375
1761380637614694100,7.430694091796875,-2.049224853515625,-1.0943145751953125,-0.3606109619140625
1761380637624750000,7.44075,-1.91162109375,-0.9954833984375,-0.281585693359375
1761380637634806300,7.45080615234375,-1.9718170166015625,-1.0461578369140625,-0.0992431640625
1761380637644861200,7.460861083984375,-1.791229248046875,-1.0732269287109375,0.1226959228515625
1761380637654917000,7.470917236328125,-1.49468994140625,-1.037445068359375,0.189361572265625
1761380637664973000,7.48097314453125,-1.2452545166015625,-0.9785308837890625,0.2254791259765625
1761380637675029000,7.491029052734375,-0.97735595703125,-0.9748687744140625,0.3452301025390625
1761380637685085200,7.501085205078125,-0.7936248779296875,-0.9683685302734375,0.4686279296875
1761380637695141000,7.51114111328125,-0.69879150390625,-0.906280517578125,0.541015625
1761380637705196000,7.521196044921875,-0.6555328369140625,-0.798919677734375,0.5603179931640625
1761380637715252200,7.531252197265625,-0.6332550048828125,-0.6580047607421875,0.5412445068359375
1761380637725308200,7.54130810546875,-0.55950927734375,-0.562408447265625,0.521881103515625
1761380637735364000,7.551364013671875,-0.4602203369140625,-0.5269012451171875,0.526153564453125
1761380637745420300,7.561420166015625,-0.348876953125,-0.505035400390625,0.537933349609375
1761380637755475000,7.571474853515625,-0.2708587646484375,-0.4591827392578125,0.5308685302734375
1761380637765531100,7.58153125,-0.188812255859375,-0.370452880859375,0.5001983642578125
1761380637775587000,7.591587158203125,-0.102447509765625,-0.24755859375,0.4986724853515625
1761380637785643000,7.60164306640625,-0.091461181640625,-0.1573638916015625,0.56402587890625
1761380637795699200,7.61169921875,-0.1375579833984375,-0.1549530029296875,0.6876220703125
1761380637805754000,7.621754150390625,-0.2172393798828125,-0.217193603515625,0.8665771484375
1761380637815810300,7.631810302734375,-0.2484130859375,-0.295196533203125,1.028656005859375
1761380637825866200,7.6418662109375,-0.25042724609375,-0.3467559814453125,1.0806427001953125
1761380637835922000,7.651921875,-0.2249908447265625,-0.3383636474609375,1.0543365478515625
1761380637845978000,7.66197802734375,-0.1446380615234375,-0.334136962890625,1.005157470703125
1761380637856033000,7.672032958984375,-0.068756103515625,-0.322265625,0.920196533203125
1761380637866089200,7.682089111328125,-0.0745849609375,-0.265472412109375,0.8152618408203125
1761380637876145200,7.692145263671875,-0.1947479248046875,-0.221893310546875,0.75189208984375
1761380637886201000,7.702201171875,-0.3648834228515625,-0.2536163330078125,0.7210235595703125
1761380637896257300,7.71225732421875,-0.5501556396484375,-0.308135986328125,0.6903076171875
1761380637906312200,7.722312255859375,-0.679443359375,-0.3851318359375,0.6074981689453125
1761380637916368100,7.7323681640625,-0.7718505859375,-0.4289703369140625,0.4536590576171875
1761380637926424000,7.742424072265625,-0.871612548828125,-0.4735107421875,0.33935546875
1761380637936480000,7.75247998046875,-0.86968994140625,-0.7423858642578125,0.296630859375
1761380637946536200,7.7625361328125,-0.9247894287109375,-1.028717041015625,0.2462921142578125
1761380637956591000,7.772591064453125,-1.2434844970703125,-1.125518798828125,0.1444244384765625
1761380637966647000,7.78264697265625,-1.6789703369140625,-1.110595703125,0.117706298828125
1761380637976703200,7.792703125,-1.76318359375,-1.139739990234375,0.3252716064453125
1761380637986759200,7.80275927734375,-1.6243438720703125,-1.163604736328125,0.4055328369140625
1761380637996815000,7.812815185546875,-1.6163787841796875,-0.93743896484375,0.1622161865234375
1761380638006870000,7.8228701171875,-1.6077728271484375,-0.6929931640625,-0.0225677490234375
1761380638016926000,7.832926025390625,-1.6421356201171875,-0.5768280029296875,0.05255126953125
1761380638026982100,7.842982177734375,-1.64947509765625,-0.703277587890625,0.120330810546875
1761380638037038000,7.8530380859375,-1.481597900390625,-0.7686309814453125,0.07183837890625
1761380638047094000,7.863093994140625,-1.2878265380859375,-0.7946319580078125,0.01116943359375
1761380638057149200,7.873149169921875,-1.1416168212890625,-0.896392822265625,-0.0187225341796875
1761380638067205000,7.883205078125,-1.002899169921875,-0.975494384765625,-0.0736846923828125
1761380638077261300,7.89326123046875,-0.86968994140625,-0.966064453125,-0.18023681640625
1761380638087317200,7.903317138671875,-0.8027496337890625,-0.930938720703125,-0.303375244140625
1761380638097373000,7.913373046875,-0.758209228515625,-0.88177490234375,-0.39892578125
1761380638107428000,7.923427978515625,-0.684112548828125,-0.7923431396484375,-0.4500274658203125
1761380638117484000,7.933484130859375,-0.6121673583984375,-0.699188232421875,-0.465667724609375
1761380638127540200,7.943540283203125,-0.53131103515625,-0.6317138671875,-0.4556427001953125
1761380638137596200,7.95359619140625,-0.4786529541015625,-0.547271728515625,-0.43304443359375
1761380638147652000,7.963652099609375,-0.4383544921875,-0.4517059326171875,-0.421142578125
1761380638157707300,7.973707275390625,-0.4095001220703125,-0.39404296875,-0.4423065185546875
1761380638167763000,7.983762939453125,-0.41351318359375,-0.3529510498046875,-0.467254638671875
1761380638177819100,7.993819091796875,-0.42071533203125,-0.3165435791015625,-0.48590087890625
1761380638187875000,8.003875,-0.45794677734375,-0.2902374267578125,-0.5070037841796875
1761380638197931000,8.013930908203125,-0.50567626953125,-0.2820281982421875,-0.5419158935546875
1761380638207986200,8.023986083984376,-0.496978759765625,-0.2686614990234375,-0.5764312744140625
1761380638218041000,8.034041015625,-0.433013916015625,-0.2504425048828125,-0.59124755859375
1761380638228097300,8.04409716796875,-0.3514862060546875,-0.2412872314453125,-0.5797882080078125
1761380638238153200,8.0541533203125,-0.2583465576171875,-0.2216949462890625,-0.5183563232421875
1761380638248209000,8.064208984375,-0.281982421875,-0.2470550537109375,-0.4347991943359375
1761380638258265000,8.07426513671875,-0.3115692138671875,-0.3038482666015625,-0.345703125
1761380638268320000,8.084320068359375,-0.2663726806640625,-0.3712921142578125,-0.276336669921875
1761380638278376200,8.094376220703126,-0.28521728515625,-0.48175048828125,-0.2391510009765625
1761380638288432000,8.10443212890625,-0.3525543212890625,-0.640167236328125,-0.204833984375
1761380638298488000,8.114488037109375,-0.3641204833984375,-0.8901824951171875,-0.1551361083984375
1761380638308544300,8.124544189453125,-0.4689483642578125,-1.120697021484375,-0.10260009765625
1761380638318599200,8.13459912109375,-0.6986083984375,-1.2620391845703125,-0.070709228515625
1761380638328655000,8.144655029296874,-0.9289703369140625,-1.474884033203125,-0.101715087890625
1761380638338711000,8.1547109375,-1.1676483154296875,-1.7439727783203125,-0.117706298828125
1761380638348767000,8.16476708984375,-1.466156005859375,-1.639129638671875,-0.0382537841796875
1761380638358823200,8.1748232421875,-1.4974517822265625,-1.31170654296875,-0.2506866455078125
1761380638368878000,8.184878173828125,-1.417083740234375,-0.9049530029296875,-0.5421600341796875
1761380638378934300,8.194934326171875,-1.4337615966796875,-0.67730712890625,-0.6301727294921875
1761380638388990200,8.204990234375,-1.29205322265625,-0.7899932861328125,-0.45880126953125
1761380638399046100,8.215046142578124,-1.2067108154296875,-0.938140869140625,-0.22705078125
1761380638409102000,8.22510205078125,-1.2183074951171875,-0.989715576171875,-0.0675048828125
1761380638419157000,8.235156982421875,-1.1411285400390625,-0.995880126953125,0.14501953125
1761380638429213000,8.245212890625,-1.0023345947265625,-1.00311279296875,0.3424072265625
1761380638439269000,8.25526904296875,-0.89324951171875,-0.9332275390625,0.4056243896484375
1761380638449325000,8.265324951171875,-0.843475341796875,-0.80950927734375,0.35284423828125
1761380638459381000,8.275381103515626,-0.763427734375,-0.71185302734375,0.302490234375
1761380638469436200,8.285436279296874,-0.6963348388671875,-0.6593017578125,0.2872467041015625
1761380638479492000,8.2954921875,-0.5762481689453125,-0.6255035400390625,0.2717437744140625
1761380638489548300,8.30554833984375,-0.47528076171875,-0.594512939453125,0.276153564453125
1761380638499604200,8.315604248046874,-0.3901824951171875,-0.5602264404296875,0.279510498046875
1761380638509656000,8.325656005859376,-0.2092437744140625,-0.5579833984375,0.26116943359375
1761380638519711000,8.3357109375,-0.0560760498046875,-0.5579376220703125,0.23681640625
1761380638529767000,8.345766845703125,0.0570526123046875,-0.5157318115234375,0.2576446533203125
1761380638539823000,8.355822998046875,-0.0225830078125,-0.4982452392578125,0.3334808349609375
1761380638549879000,8.365879150390626,-0.179779052734375,-0.488128662109375,0.3979034423828125
1761380638559935000,8.37593505859375,-0.2976531982421875,-0.400115966796875,0.427490234375
1761380638569990100,8.385990234375,-0.4496002197265625,-0.2999267578125,0.4529266357421875
1761380638580046000,8.396046142578125,-0.5630340576171875,-0.2593231201171875,0.440032958984375
1761380638590102300,8.406102294921874,-0.5227508544921875,-0.208831787109375,0.3915252685546875
1761380638600158200,8.416158203125,-0.3474273681640625,-0.1598052978515625,0.372314453125
1761380638610217200,8.42621728515625,-0.184967041015625,-0.21636962890625,0.3742828369140625
