time,seconds_elapsed,z,y,x
1761380630300377000,0.116377197265625,0.6741203275471925,-0.5848766944736242,-1.1199494935974479
1761380630310432000,0.126431884765625,0.7809194910556078,-0.3717278647899627,-0.9120512779183685
1761380630320488000,0.136488037109375,0.6383510950297117,-0.00516658898293972,-0.4693710774183273
1761380630330543900,0.1465439453125,0.29143559993505475,0.3308393895626068,-0.10250292761921882
1761380630340600000,0.15660009765625,0.36314532988369463,0.30379882242381573,0.15330343279093503
1761380630350655000,0.166655029296875,0.025506197178363797,0.024754502028226853,0.2035625428286381
1761380630360711200,0.176711181640625,-0.39502573826909065,-0.3343354149848223,0.14779387558922172
1761380630370767000,0.18676708984375,-0.31432080096006393,-0.2670119372963905,0.12973946485468185
1761380630380823000,0.196822998046875,0.044109190839529036,0.31987901960909365,0.15309548912867904
1761380630390878000,0.2068779296875,0.016963994282484053,-0.048421208819746965,-0.12788520615696905
1761380630400934000,0.216933837890625,-0.12778116126060485,-0.06161503691375255,-0.25294687932580706
1761380630410990000,0.226989990234375,-0.010502104791998862,-0.11936404604911803,-0.2836899542443454
1761380630421046000,0.2370458984375,0.3310948256283998,-0.2603139009624719,0.009652346961712464
1761380630431101200,0.24710107421875,0.4928524907708168,-0.336098333004117,0.35632162134349343
1761380630441157000,0.2571572265625,0.3664128072470426,-0.4960667766422033,0.511407992028445
1761380630451213000,0.267213134765625,0.18373042749762533,-0.5066968917280436,0.582918838404119
1761380630461269200,0.277269287109375,0.182917942070961,-0.26962767275273797,0.5957036473058164
1761380630471325200,0.2873251953125,0.41575229995548724,-0.02063888340294361,0.4802468378283083
1761380630481380000,0.297380126953125,0.6121884797692299,0.10795534780621528,0.2851866042765789
1761380630491436000,0.30743603515625,0.9004016105264425,0.47132104244232176,0.2008404061220586
1761380630501495600,0.31749560546875,0.9093623310953378,0.6022708968669176,0.3217996124081313
1761380630511551700,0.3275517578125,0.706523883023858,0.3994365404486656,0.40967210325896736
1761380630521606700,0.337606689453125,0.41994273738265037,0.33333412898778914,0.4342901194259524
1761380630531662600,0.34766259765625,0.3039478755056858,0.29233810173273084,0.3859963363781571
1761380630541718500,0.357718505859375,0.3685533264070749,0.3404033367216587,0.30331922221332785
1761380630551774500,0.3677744140625,0.3748527188122272,0.2631196060329676,-0.0029769745507510375
1761380630561829600,0.37782958984375,0.3842044845253229,-0.15647767891287803,-0.6416863769322634
1761380630571885600,0.387885498046875,0.552784104642272,-0.43208091894388195,-1.082313298164308
1761380630581941500,0.39794140625,1.0237795683920383,-0.3834679869443178,-1.0911258424341679
1761380630591997700,0.407997802734375,1.208214344766736,0.03591477846801281,-0.5486147100031376
1761380630602052600,0.418052490234375,1.172421146851778,0.24519991846084593,0.0011763503029942513
1761380630612108500,0.428108642578125,1.182723345157504,0.08224690605401992,0.17355508870827033
1761380630622164500,0.43816455078125,0.9917173736989497,0.09226444219946861,0.24125410344451664
1761380630632220400,0.448220458984375,0.9318266763597727,0.2468476856678724,0.28893443076908587
1761380630642275600,0.458275634765625,0.7684995699435472,0.364692559325695,0.36372342203259467
1761380630652331500,0.46833154296875,0.31885318369269366,0.16016308942735194,0.4654767003282904
1761380630662387700,0.4783876953125,0.2835620900809765,0.18831307911276815,0.5318135050669313
1761380630672443600,0.488443603515625,0.9093670072704553,0.40342414878010746,0.6643944678246975
1761380630682498600,0.49849853515625,1.13166711165905,0.16486381446421144,-0.02528524790406227
1761380630692554500,0.508554443359375,0.5718868645191192,-0.5455050535500049,-1.0120537670239806
1761380630702610400,0.5186103515625,0.6501438241541385,-0.6615004999488592,-1.3696011307701468
1761380630712666600,0.52866650390625,0.9557833060085773,-0.35526363672316075,-0.9312482919499278
1761380630722721500,0.538721435546875,1.1445166563600302,-0.18160919755995272,-0.25259472315357995
1761380630732777500,0.548777587890625,1.0931237382531165,-0.3137818717777729,-0.2213306748345494
1761380630742833700,0.558833740234375,1.0366595082312822,-0.2800292397797107,-0.3136860101878643
1761380630752889600,0.5688896484375,1.3805921881228684,0.03677811729907989,-0.3432455744102597
1761380630762944500,0.578944580078125,1.7130366747945547,0.09201718944013118,-0.48270577528774733
1761380630773000400,0.58900048828125,1.8852783245503901,-0.08851707236468792,-0.6577776800334453
1761380630783056400,0.599056396484375,1.8087153093516826,-0.12776070299446582,-0.71676850592345
1761380630793112600,0.609112548828125,1.5113047266602515,-0.12571662994623184,-0.7265957801938057
1761380630803167500,0.61916748046875,1.0236907210648059,-0.23245909483134744,-0.7302604401811957
1761380630813223700,0.6292236328125,0.7602741779118776,-0.2992822217822075,-0.7112547109380364
1761380630823279600,0.639279541015625,0.7375234169214964,-0.21991934673190117,-0.6516153580114245
1761380630833335600,0.64933544921875,0.7513584655284881,-0.2108417217850685,-0.5760846084699034
1761380630843390500,0.659390380859375,1.0553075100779532,-0.17661913418769834,-0.5421131095567718
1761380630853446400,0.6694462890625,1.5270494082808495,-0.1246200668811798,-0.6077209789663552
1761380630863502600,0.679502685546875,1.7819266711473465,-0.08464052319228649,-0.7661933388277888
1761380630873558500,0.68955859375,1.883583211070299,-0.14026888691186903,-0.8478688747346401
1761380630883614500,0.699614501953125,1.857230626195669,-0.21486615499556064,-0.7927315094023942
1761380630893669600,0.709669677734375,1.965438487458229,-0.37799686205685135,-0.7987079534634948
1761380630903725600,0.7197255859375,1.9448270765841007,-0.6144950031459331,-0.9937515098750591
1761380630913781800,0.72978173828125,1.8099182554006576,-0.4779518587589264,-1.0031073672413826
1761380630923837700,0.739837646484375,1.7487094612002372,-0.4102297371417284,-0.9401385776311159
1761380630933892600,0.749892578125,1.8841402604311703,-0.448026676094532,-0.8887067888185382
1761380630943948500,0.759948486328125,2.0451035603255034,-0.4284451927900314,-0.7380138307869434
1761380630954004500,0.77000439453125,2.1788538591235875,-0.4787631751418113,-0.5134747152999043
1761380630964060700,0.780060791015625,2.29600841242969,-0.5028700269162655,-0.3210486479103565
1761380630974115600,0.790115478515625,2.360839488780498,-0.4019312798738479,-0.2294283488333225
1761380630984171500,0.800171630859375,2.284716034042835,-0.28000468986034394,-0.22933424080908296
1761380630994227700,0.810227783203125,2.157146469706297,-0.10770108078420161,-0.25834391606375573
1761380631004283600,0.82028369140625,2.0498574768543243,-0.03818681505322456,-0.2755491717562079
1761380631014338600,0.830338623046875,2.078375715330243,-0.2233896531909704,-0.2844866393136792
1761380631024394500,0.84039453125,2.1288924351245164,-0.5051742122054099,-0.21244022475657984
1761380631034450400,0.850450439453125,2.214230292931199,-0.7853945906430483,-0.08133651321083307
1761380631044506600,0.860506591796875,2.332988189780712,-1.0068623358607292,0.015596651452034711
1761380631054561500,0.8705615234375,2.511754857391119,-1.336383044040203,0.02261851291283965
1761380631064617700,0.88061767578125,2.772859616470337,-1.6309259623408316,-0.022334873665869236
1761380631074673700,0.890673583984375,2.785565368786454,-1.7377368162870406,-0.09891509572770446
1761380631084729600,0.9007294921875,2.5484108096152545,-2.0294886425644156,-0.1893245577102527
1761380631094784500,0.910784423828125,2.267905184495449,-2.420192425981164,-0.15051511724665761
1761380631104840400,0.92084033203125,2.114862156206369,-2.7951620491713283,0.01872472034469247
1761380631114896600,0.930896728515625,2.1985072386205196,-3.0183301685661075,0.24177491244822738
1761380631124952600,0.94095263671875,2.3591402836471795,-2.996148731896281,0.42238793857768175
1761380631135007700,0.9510078125,2.484861005246639,-2.667538708820939,0.5374054798550904
1761380631145063700,0.961063720703125,2.56665899848938,-2.217598308059573,0.5940758999735116
1761380631155119600,0.97111962890625,2.7536884675323963,-1.8822598535120487,0.6229886907249689
1761380631165175600,0.981175537109375,2.989572276115417,-1.5828928760558365,0.6041302609980106
1761380631175230500,0.99123046875,3.1640999909818173,-1.1453192049145697,0.6451804295931011
1761380631185286400,1.001286376953125,3.4214380910038944,-0.7684089690506458,0.6672891663528978
1761380631195342600,1.011342529296875,3.8620191272675988,-0.4994529119491577,0.6710800830684602
1761380631205398500,1.0213984375,4.294136286568642,-0.2218085214793682,0.7988553991101681
1761380631215453700,1.03145361328125,4.5085979524165385,0.08817220444977283,1.0147484129354356
1761380631225509600,1.041509521484375,4.337293291249871,0.21966098805665968,1.1739837930586188
1761380631235565600,1.051565673828125,3.7699744652986524,0.292498260730505,1.4414029229164123
1761380631245621800,1.061621826171875,3.0467361788392067,0.18993103570342063,1.8312468746334314
1761380631255677400,1.071677490234375,2.4153859024822713,-0.019347674548625945,2.1287375368237496
1761380631265732600,1.081732666015625,2.092655585095286,-0.09584054712057113,2.2710110415562985
1761380631275788500,1.09178857421875,2.0681050812065602,-0.10335457601249218,2.332603866638243
1761380631285844500,1.101844482421875,2.168033774423599,-0.07878186029195786,2.2655622746311126
1761380631295900700,1.111900634765625,1.9326164143085478,-0.10164251139760017,2.1717082251526416
1761380631305955600,1.12195556640625,1.030617305457592,-0.32571371711194513,2.3220390718735753
1761380631316011800,1.13201171875,-0.35239012711346146,-0.7242500938504934,2.76211142796278
1761380631326067700,1.142067626953125,-1.6966811677992344,-1.2623749740213155,3.2541040870338676
1761380631336123400,1.152123291015625,-2.7239450711756943,-1.8049930739581583,3.5597099588796492
1761380631346178600,1.162178466796875,-3.6035377024292945,-2.5527783571749922,3.686422906386852
1761380631356234500,1.172234375,-4.0869910812139505,-3.401496542215347,3.9798248379588124
1761380631366290700,1.182290771484375,-3.7664024520307775,-3.985031174430251,4.197014467465877
1761380631376346600,1.1923466796875,-3.7643864360332486,-4.427624135038257,4.020746046411991
1761380631386401500,1.202401611328125,-4.151109625381231,-4.545949485689401,3.6274843952059745
1761380631396457700,1.212457763671875,-4.362168789309263,-4.534646001386642,3.1654844310775396
1761380631406513700,1.222513671875,-4.110309412959218,-4.6630642915070055,2.601558462435007
1761380631416569300,1.2325693359375,-3.4362709184765814,-4.687863217198848,2.0815160591825843
1761380631426624500,1.24262451171875,-2.8922850373178717,-4.999182498255371,1.7534502259865403
1761380631436680400,1.252680419921875,-2.3814772031396627,-5.579418673446774,1.6910395086504517
1761380631446736600,1.262736572265625,-2.0148054526954886,-5.658517344602942,1.6458778861485421
1761380631456792600,1.27279248046875,-2.184920027294755,-5.320497688147426,1.2207188754223286
1761380631466847700,1.28284765625,-2.2173294279903173,-4.811628128555417,0.5753292600579559
1761380631476903700,1.292903564453125,-1.894154289445281,-3.9905128207117317,0.059224926906824106
1761380631486959400,1.30295947265625,-1.562207230901718,-3.122017922055721,-0.39771884981058536
1761380631497012200,1.31301220703125,-1.3330664668381214,-2.3076327992498875,-0.7642404511943459
1761380631507067100,1.323067138671875,-0.839267635127902,-1.3445961611121893,-0.8951787613116204
1761380631517123300,1.333123291015625,-0.001059153664112091,-0.47884851533770556,-0.880314515787363
1761380631527179300,1.34317919921875,1.5993278780281543,0.2910942391514778,-0.7497383169807493
1761380631537235200,1.353235107421875,2.7623563426345585,1.0213333442837,-1.0206970191415399
1761380631547290000,1.3632900390625,3.573435994154215,1.6566782432347535,-1.5480869356125593
1761380631557346000,1.373345947265625,4.166677196869254,1.8177432499378918,-1.8795541016846895
1761380631567402200,1.38340234375,4.541983504667878,2.0951696137428284,-1.8770462105169892
1761380631577458200,1.393458251953125,4.703443063646555,2.3166478803545236,-1.6395888690069318
1761380631587514000,1.40351416015625,4.947530052429437,2.41814776841104,-1.647655417215079
1761380631597569300,1.4135693359375,5.267528314504027,2.86440685031116,-1.8719417269848286
1761380631607625200,1.423625244140625,5.761602456024288,3.4057799186229705,-2.2504306103423235
1761380631617681200,1.43368115234375,5.798098833772539,3.806076875293255,-2.879503881677985
1761380631627737300,1.4437373046875,5.5118391751706595,4.091445722535252,-3.7806981038868424
1761380631637792000,1.4537919921875,5.328482841682434,4.339283588284254,-4.838115445725619
1761380631647848200,1.46384814453125,5.207128498598933,4.574238007062673,-5.642050778448581
1761380631657904000,1.473904052734375,4.691140046912431,4.5557846510052675,-6.116558634233474
1761380631667960000,1.4839599609375,4.090895102915168,4.616340534254908,-6.0389428951114414
1761380631678015200,1.49401513671875,3.864234465229511,4.314373603433371,-5.344768790572881
1761380631688071200,1.5040712890625,4.074036907094717,3.4370091696232556,-4.525619522105157
1761380631698127400,1.51412744140625,5.1881344597935675,2.1322627883404492,-4.090731144525111
1761380631708183300,1.524183349609375,5.53190464259982,0.8363046936690807,-4.21215241536498
1761380631718238200,1.53423828125,3.8307974750518796,-0.30612054336965083,-4.309160252699256
1761380631728294100,1.544294189453125,0.8774000896453857,-2.430828386285901,-4.413655523179472
1761380631738350000,1.55435009765625,-2.7612118487745523,-5.535358582445979,-4.115595536668598
1761380631748406300,1.56440625,-5.985243453627825,-8.994977058762311,-3.185387693682313
1761380631758461200,1.574461181640625,-7.936398564189672,-10.76138467373848,-3.453252448415756
1761380631768517400,1.584517333984375,-9.181441879659891,-6.762652306213974,-3.6649759214714166
1761380631778573300,1.5945732421875,-7.922375884056091,-2.599115160936117,-3.680684070473909
1761380631788629200,1.604629150390625,-5.4198354297339915,-0.7308429162442683,-5.005299519830942
1761380631798684200,1.61468408203125,-5.094723185646534,0.31547873882353306,-5.943019345882535
1761380631808740000,1.624739990234375,-3.2913410540163515,-0.2157610580086708,-5.59585659802854
1761380631818796000,1.634796142578125,-2.188806513339281,-1.8867326150119303,-4.170451162450015
1761380631828852200,1.644852294921875,-2.6052830359160897,-4.111456244906783,-1.6066108746431766
1761380631838907100,1.6549072265625,-2.803057186335325,-6.110287883400916,1.3394487152211367
1761380631848963300,1.66496337890625,-2.79614813759923,-7.434682383483648,3.8234184707164762
1761380631859019300,1.675019287109375,-2.6288556346833705,-7.6567568624228235,4.911210200291872
1761380631869075200,1.6850751953125,-2.8101871843457222,-6.424560753566026,5.107378669080138
1761380631879130000,1.695130126953125,-2.3905080663353204,-5.008035082274675,4.802048983827233
1761380631889186000,1.70518603515625,-1.4488544079661367,-3.6909634724259375,4.202360504668951
1761380631899242200,1.7152421875,-0.6796709474116563,-2.322149400380254,3.671178283242881
1761380631909298200,1.725298095703125,0.3640127603679895,-0.8875690169602632,3.5372584730967875
1761380631919353300,1.735353271484375,1.7551491388589142,0.5120967049449682,3.6594732324019073
1761380631929409300,1.7454091796875,3.0693413938790557,1.6326175686895847,3.9691383165106173
1761380631939465200,1.75546533203125,4.146539833247662,2.350890341696143,4.192070289061963
1761380631949521400,1.765521484375,5.050665432733297,3.079198186504841,4.289234193740785
1761380631959576000,1.775576171875,5.872673305502533,3.6036657127231355,4.411609404304623
1761380631969632300,1.78563232421875,6.93017569527626,3.9102860223084686,4.614494029605388
1761380631979688200,1.795688232421875,7.678724364081025,4.1888013503938915,4.879328038340807
1761380631989744000,1.805744140625,7.74523886347413,4.3321202725261445,5.154201210531592
1761380631999800300,1.81580029296875,7.055735673356056,4.424655932882428,5.55322215591669
1761380632009855200,1.825855224609375,6.304534444215894,4.771300209820271,6.106226625311375
1761380632019911200,1.8359111328125,5.774886885011195,5.086923325550556,6.618599809110164
1761380632029967400,1.84596728515625,4.822988896003365,5.165186130404472,6.9811500957101575
1761380632040023000,1.85602294921875,3.931286724761128,5.2607344165802,7.2314265867829315
1761380632050078200,1.866078125,3.2124493036091324,5.235365582045913,7.159455575549602
1761380632060134100,1.876134033203125,2.3445184685766693,4.836270986902713,6.667924104249477
1761380632070190000,1.886190185546875,1.6980284907549619,3.723817694279551,6.214410521176457
1761380632080246300,1.896246337890625,1.9312538937836885,1.8398831855535507,6.492039129555225
1761380632090301200,1.90630126953125,1.2825181828618049,-0.3480927221804857,6.845835616335273
1761380632100357400,1.916357421875,-0.5075695829093456,-3.0457179417073723,6.61206076273024
1761380632110413300,1.926413330078125,-2.8949288298249245,-6.496246518117189,6.133648300722241
1761380632120469000,1.936468994140625,-5.283396914765238,-9.072254359710216,5.4814042894184585
1761380632130524200,1.946524169921875,-5.390729746758938,-9.578903905165195,4.226768385216594
1761380632140580000,1.956580078125,-6.437960333365202,-7.468674669456481,1.3893749217763542
1761380632150636300,1.96663623046875,-8.075290902051329,-5.422757454660535,-1.090610586388409
1761380632160692200,1.976692138671875,-9.015955549383163,-4.522213220793009,-1.8938453696265816
1761380632170747400,1.986747314453125,-9.357450188472866,-4.891457452073693,-1.8671603379271924
1761380632180803300,1.99680322265625,-9.394406000426411,-5.494135176175832,-0.9613153673030436
1761380632190859000,2.00685888671875,-10.16340592110753,-6.0006496970742935,0.6957872388236225
1761380632200915200,2.016915283203125,-10.804057109773158,-6.621876638823747,2.7538462884426114
1761380632210970000,2.02697021484375,-10.112317538905144,-7.135041849783063,3.8030657107785344
1761380632221026300,2.0370263671875,-8.643147488141059,-5.902932250165939,2.1466481643065807
1761380632231082200,2.047082275390625,-7.395093884938955,-3.8570547828584907,-0.8389502397418022
1761380632241138200,2.05713818359375,-5.776728713485598,-2.485555417251587,-3.254723095715046
1761380632251193300,2.067193359375,-3.8191374323964116,-1.4573486800670623,-5.015979903799295
1761380632261249300,2.077249267578125,-1.2274924612104892,-0.5160866513639688,-6.37028205088973
1761380632271305000,2.087304931640625,1.5524088904649018,0.6083902565300464,-7.161984217244386
1761380632281361200,2.097361083984375,3.9819185953676697,1.9303671740770338,-7.448613293680548
1761380632291416000,2.107416015625,5.709253260105848,3.23188816357255,-7.333851188468933
1761380632301472300,2.11747216796875,6.391770244598388,3.8729146152913567,-6.965122505494952
1761380632311528200,2.127528076171875,6.852376416280865,4.215220570763945,-6.376632296699285
1761380632321584000,2.137584228515625,7.171267593896388,4.636663775837421,-5.602240161585807
1761380632331639300,2.147639404296875,6.461383294528722,5.087598448333144,-4.903194943879544
1761380632341695200,2.1576953125,5.1400703938484185,5.604633778724074,-4.755689675973356
1761380632351751200,2.167751220703125,4.402184573355317,6.107212713739275,-5.193965065643191
1761380632361807000,2.17780712890625,4.8040655843466515,6.525160477912426,-6.118238550144434
1761380632371862300,2.1878623046875,5.3712096382528545,6.984736137503385,-7.121032613652944
1761380632381918200,2.197918212890625,6.629775283119082,7.102626603868603,-7.582419122058153
1761380632391974100,2.20797412109375,8.504507663735748,6.947658744996786,-7.477080678752064
1761380632402030300,2.2180302734375,10.092132829010486,6.908744784712791,-7.329885791969299
1761380632412085200,2.228085205078125,10.437814398396014,7.014360875916481,-7.360868959254026
1761380632422141400,2.238141357421875,8.276007535663247,6.939554348996281,-7.431597861471772
1761380632432197000,2.248197021484375,4.532960824778676,6.146189217865467,-7.775410129854083
1761380632442253000,2.258253173828125,1.9620108510971068,3.668751640617847,-8.183906175071
1761380632452308200,2.26830810546875,2.1225661547124384,0.6641805328130722,-7.927739456915855
1761380632462364200,2.2783642578125,2.6591560804009435,-1.1404600744456053,-7.640150011014938
1761380632472420000,2.288420166015625,-0.07351239545643329,-2.5900749453902243,-7.301196873101592
1761380632482476300,2.298476318359375,-4.288846947988867,-4.98189760145545,-6.664894527295232
1761380632492531200,2.30853125,-9.344171020182968,-7.93502201513946,-6.111054191598296
1761380632502587100,2.318587158203125,-15.511660800230501,-9.602513913333416,-6.4259647751450535
1761380632512643000,2.32864306640625,-18.651411947375536,-7.177519055506586,-6.33831513326466
1761380632522699000,2.338698974609375,-17.803211064207552,-4.171455078795552,-5.386287380397319
1761380632532754200,2.348754150390625,-15.936920348721742,-3.216863612920046,-4.849181321880221
1761380632542810000,2.35881005859375,-12.638076371729372,-1.8377251307368276,-3.9567192721813913
1761380632552866300,2.3688662109375,-9.352744202739,-1.6400854203522204,-1.7123391940496862
1761380632562922200,2.378922119140625,-7.915620564576983,-3.2702374757111072,1.3198797991372644
1761380632572977400,2.388977294921875,-6.87226828070879,-5.024086053365469,4.037201506650447
1761380632583033000,2.399033203125,-5.258364180317521,-5.5093444357454775,6.040699967911839
1761380632593089000,2.409089111328125,-2.838755691704154,-5.115665435910224,7.353012400534749
1761380632603145200,2.419145263671875,-0.7865484368532896,-4.658894896867871,7.9491709520012135
1761380632613200100,2.4292001953125,-0.19014906236827372,-4.071664332744479,8.033690479162335
1761380632623256300,2.43925634765625,-0.6140630414694548,-2.760503408244252,7.5412126669228075
1761380632633312300,2.449312255859375,-1.4729729501783846,-0.7492021642774344,6.28872604970932
1761380632643368200,2.4593681640625,-0.9359545699447392,1.3137562016904354,4.512715909129381
1761380632653423400,2.46942333984375,0.3884913680642843,3.5793899341225623,3.043256812290847
1761380632663479000,2.47947900390625,1.1799790148854254,5.2949277780830855,2.312453935796022
1761380632673535200,2.48953515625,3.321255130764842,5.638916572076082,2.3085262409582734
1761380632683591200,2.499591064453125,5.7094543356359,5.413390491378307,2.790050697506964
1761380632693646000,2.50964599609375,6.50448769223988,5.19491900536716,3.2805776679396628
1761380632703702300,2.519702392578125,6.871475669026374,4.7617356781393285,4.450883430072665
1761380632713758200,2.52975830078125,6.680557375851273,4.453115134647488,6.596499036461115
1761380632723814100,2.539814208984375,5.164283628606796,3.412229533153772,8.71362563046813
1761380632733869300,2.549869384765625,3.846371476280689,2.1957103013783694,10.23955509480834
1761380632743925000,2.559925048828125,3.7057828558951615,2.6558962018221615,10.425311475175619
1761380632753981200,2.569981201171875,5.121778365832567,3.5847266189754006,9.605634091180562
1761380632764037000,2.580037109375,6.98390611642003,3.6462773584812878,9.039818655529618
1761380632774092300,2.59009228515625,8.114878816074132,2.600046304306388,8.859887035793065
1761380632784148200,2.600148193359375,7.423602771064639,1.029140218642354,9.084732148489355
1761380632794204200,2.6102041015625,5.653182997837662,-0.7777040361404418,9.528844866010546
1761380632804260400,2.62026025390625,3.2635289179831743,-2.412859014353156,9.034098524317145
1761380632814315000,2.63031494140625,1.1320108105301856,-2.1342916638195515,7.396267020371556
1761380632824371200,2.64037109375,-0.1946691701412201,-1.201062134924531,4.052686660552024
1761380632834427100,2.65042724609375,-2.5253584353297946,-1.884711922839284,0.542982731998153
1761380632844483000,2.660483154296875,-5.506837421360611,-4.090103660276532,-0.40311785930991173
1761380632854538200,2.670538330078125,-7.459158653092384,-6.602341332748532,1.0110688476398586
1761380632864594200,2.68059423828125,-6.322711905941366,-9.073110684278607,2.8385718595698473
1761380632874650000,2.690650146484375,-8.34289729810953,-8.551831140446662,2.9397891312927005
1761380632884706300,2.700706298828125,-13.047932599383591,-5.465601740130782,1.5923229677021502
1761380632894761000,2.710760986328125,-14.643212078803776,-3.9025300013542172,-0.17615940772145985
1761380632904817200,2.720817138671875,-14.380795652604101,-1.9333160870105026,-2.1767849438950417
1761380632914873000,2.730873046875,-12.585485768270491,-0.17820143494307994,-3.634732466638088
1761380632924929000,2.740928955078125,-9.944366864341497,0.1546013636469841,-3.8726746690556406
1761380632934984200,2.750984130859375,-6.940575508737564,-0.34619770221412177,-3.1944273247063157
1761380632945040100,2.7610400390625,-3.929580505365133,-0.5362082328945398,-2.6291058100521565
1761380632955096300,2.771096435546875,-1.684313269135356,-0.208723998978734,-2.4312919121444225
1761380632965152300,2.78115234375,0.4278977880403399,0.2429875031083822,-2.6000007115989923
1761380632975207200,2.791207275390625,2.1038860041618346,0.9295447029024362,-2.958000203026831
1761380632985263000,2.80126318359375,3.0610186789527534,1.9755185674458742,-3.4581212234959002
1761380632995319000,2.811319091796875,3.112211982834339,3.167130736979842,-4.304448714007437
1761380633005375200,2.821375244140625,2.556757197678089,4.427013894185424,-5.143437824454903
1761380633015430100,2.83143017578125,2.2777502866834403,5.828878002917766,-5.539256758928299
1761380633025486300,2.841486328125,2.3144643988355993,6.79744363361001,-5.486482031074166
1761380633035542300,2.851542236328125,2.779015508751571,7.067826508644223,-5.043290520051121
1761380633045597400,2.861597412109375,3.2871810117274523,7.238618544113636,-4.420268219317496
1761380633055653000,2.871653076171875,3.307228358978033,7.18866530342102,-4.052170235462486
1761380633065709000,2.881708984375,3.957634048938751,6.989049324527382,-4.54982223546952
1761380633075765200,2.89176513671875,4.530087899690866,7.312544196546077,-5.929167930662632
1761380633085820200,2.901820068359375,5.008782101249695,8.155365724763273,-7.202958032667636
1761380633095876000,2.9118759765625,5.471911069408058,8.585455177628994,-7.700278608763218
1761380633105932300,2.921932373046875,5.729268458652496,8.139142319715022,-7.34909259674251
1761380633115988200,2.93198828125,5.0100306400060655,7.198551322141289,-6.658932988542318
1761380633126043100,2.942043212890625,3.612363982963562,6.069574180218577,-5.860823293232918
1761380633136099000,2.95209912109375,1.775008270061016,4.7327843089431525,-4.801121639849245
1761380633146155000,2.962155029296875,0.08855097463428974,3.2856735297739506,-4.071410065722465
1761380633156211200,2.972211181640625,-1.9749974661812184,1.9409727392435072,-4.238921179825067
1761380633166266000,2.98226611328125,-3.426260104332864,0.4365022425174713,-5.011651519206166
1761380633176322300,2.992322265625,-2.1762311094045637,-0.4901601829469204,-6.372139076933264
1761380633186378200,3.002378173828125,-1.104473399785161,-0.6189584122955799,-7.7063097056210035
1761380633196434200,3.01243408203125,-3.0803587547168134,-3.4945290461778638,-8.40103267621398
1761380633206489000,3.022489013671875,-6.634668315857648,-9.061374653777479,-8.410272213724255
1761380633216545000,3.032544921875,-10.400800134253501,-13.017262735831737,-7.582794385111331
1761380633226601200,3.042601318359375,-15.452032553219794,-12.796341518580913,-5.968494563400745
1761380633236657200,3.0526572265625,-18.60214493538141,-9.686095867383479,-4.543681248496473
1761380633246712300,3.06271240234375,-16.046244646793603,-7.110040094995498,-3.7954274709850546
1761380633256768300,3.072768310546875,-12.314564548575877,-5.703999577361345,-2.932873068293929
1761380633266824200,3.08282421875,-9.905050752997397,-5.527518390339613,-0.7354999482698739
1761380633276880400,3.09288037109375,-7.897451286157965,-5.946629937595128,1.737633355912566
1761380633286935000,3.10293505859375,-5.64902821624577,-5.9181648906111715,3.5798964223399756
1761380633296991200,3.1129912109375,-3.0555989919915794,-5.613396930894256,4.559802362214029
1761380633307047200,3.123047119140625,-0.6933265477985143,-5.053932325574755,5.192994759306312
1761380633317103000,3.13310302734375,0.6691013303413986,-4.144074319916963,5.854300613465905
1761380633327158300,3.143158203125,0.8589800513356923,-3.137913410323858,6.755643304234742
1761380633337214200,3.153214111328125,0.8472767540603876,-1.9122382276684045,7.489242825710773
1761380633347270100,3.163270263671875,0.7429384277075529,-0.6833025819122791,7.905814040833711
1761380633357326300,3.173326416015625,0.8249392500460148,0.4543365898936987,7.959156339442729
1761380633367381000,3.183381103515625,1.2053081019312142,1.707521126243472,7.76743199058175
1761380633377437200,3.193437255859375,2.27972713971436,3.1658319293409583,7.500251126459241
1761380633387493000,3.2034931640625,3.157331227499246,4.558085913684964,7.126956743004918
1761380633397549000,3.213549072265625,4.443323223951459,5.30970858310759,6.589227584153414
1761380633407604200,3.223604248046875,6.287770940941572,6.013344927996397,5.901491988229751
1761380633417660200,3.23366015625,7.323679923066496,6.484890426844358,5.2541754964560266
1761380633427716400,3.24371630859375,7.929503543978929,6.105985802292824,5.1352007419854395
1761380633437772300,3.253772216796875,8.19217131459117,5.355677138078212,5.8480386304616925
1761380633447827200,3.2638271484375,7.352395729941129,4.608849886238574,7.070321832591294
1761380633457883100,3.273883056640625,6.724293641725182,3.5424680244386195,7.941057203650474
1761380633467939000,3.28393896484375,6.539404691842198,2.585568281620741,8.39142898156643
1761380633477995300,3.293995361328125,6.314831966346502,1.632245812767744,8.242165471816062
1761380633488050200,3.30405029296875,6.941249462476372,0.7663567126959562,7.76957660139501
1761380633498106400,3.3141064453125,7.014927277627587,0.2525426824390888,7.335814012974501
1761380633508162600,3.32416259765625,5.755296049356461,-0.25749007571339605,6.571846825763583
1761380633518218500,3.334218505859375,3.3944460391819473,-0.5938648875713348,6.0724377529561515
1761380633528273400,3.3442734375,0.7902958066880702,-0.6544979277104139,6.24221096677184
1761380633538329300,3.354329345703125,-2.4175708453059195,-0.952370867216587,6.775565563800931
1761380633548385300,3.36438525390625,-4.66764285146892,-1.7048381707698106,6.60324032741487
1761380633558441500,3.37444140625,-6.054627370977402,-1.4989356589525937,5.561976540258526
1761380633568496400,3.384496337890625,-6.494122365570068,-1.7979700434535741,4.282006288313865
1761380633578552600,3.394552490234375,-7.206772622519731,-3.5995167763501406,2.962632831263542
1761380633588608500,3.4046083984375,-10.369037214767932,-6.186489079549908,2.367221152641624
1761380633598664400,3.41466455078125,-10.434632261228561,-8.442169573244453,3.0881556922033426
1761380633608719400,3.42471923828125,-7.546310282322764,-7.948684629788994,3.370423943081498
1761380633618775300,3.434775390625,-7.433923674070835,-5.10388731983304,1.282709906041622
1761380633628831500,3.44483154296875,-7.283234515431523,-4.29341089490354,-0.7645807890646159
1761380633638887400,3.454887451171875,-7.287277068820595,-4.102213200265169,-1.3273092184856534
1761380633648942600,3.464942626953125,-7.607315078383683,-3.298889569699764,-1.2076283615723251
1761380633658998500,3.47499853515625,-6.892735899198055,-2.7247511268615723,-1.3130372397661207
1761380633669054500,3.485054443359375,-5.597457603484392,-2.7368191657960415,-1.6129183042243123
1761380633679110400,3.4951103515625,-6.566436491152643,-1.8372995988011358,-1.6554378877848386
1761380633689165300,3.505165283203125,-8.646086464202403,-1.6888707863092423,-2.6946353900611397
1761380633699221200,3.51522119140625,-8.292138001731038,-1.0298317080378532,-3.8562081029012796
1761380633709277400,3.52527734375,-4.906200263175368,0.2880518027156591,-4.697191017514467
1761380633719333400,3.53533349609375,-2.515558925849199,1.41585639372766,-5.448067837005853
1761380633729388500,3.545388427734375,0.10525777928531169,2.0151544122636316,-5.580334619247913
1761380633739444500,3.555444580078125,3.3917946478903294,1.6474971579134463,-5.421936201405525
1761380633749500400,3.56550048828125,5.161766677349806,1.9584049355596302,-5.02059528864026
1761380633759556600,3.575556640625,5.752520154902339,2.756611076980829,-4.852701312699914
1761380633769611300,3.585611328125,5.5125458621352905,3.653591480886936,-5.344191282945871
1761380633779667500,3.59566748046875,5.026235924875736,4.771118423512577,-5.8115065968781705
1761380633789723400,3.605723388671875,5.406794161853194,5.253503880804777,-6.2455216987550255
1761380633799779300,3.615779296875,5.531184511631727,5.526766695189476,-6.525807543644309
1761380633809834500,3.62583447265625,5.361459813132882,5.892963813859224,-6.892074804940819
1761380633819890400,3.635890380859375,5.264897381478548,6.273116977167129,-7.34592273453474
1761380633829946600,3.645946533203125,5.134661812803149,6.678069650688767,-7.461785494464635
1761380633840002600,3.65600244140625,4.884458971488476,7.24299252141416,-7.1694579141259185
1761380633850057500,3.666057373046875,4.381064628437161,7.779870616394281,-6.769776459005475
1761380633860113400,3.676113525390625,3.4657132860600948,8.218172017288207,-6.278519128471612
1761380633870169300,3.68616943359375,2.6511779411286116,8.1710011007905,-5.654844209048152
1761380633880225500,3.6962255859375,2.2950381060928104,6.503124002671242,-5.098531930279732
1761380633890280400,3.706280517578125,1.0628273841887712,3.5196816076129673,-4.820319092272221
1761380633900336400,3.71633642578125,-0.8074889335513115,0.9879267492443322,-4.561830653171241
1761380633910392600,3.726392578125,-1.3606477167248725,-0.809528330424428,-4.2427874998643995
1761380633920448500,3.736448486328125,-5.24055379833877,-3.214560012152791,-3.5727310607552525
1761380633930503400,3.74650341796875,-12.328563847833871,-8.133945920115709,-3.495308798378706
1761380633940559400,3.756559326171875,-15.711580145984888,-13.13023795762658,-3.3764898189917205
1761380633950615300,3.766615234375,-16.269972738158703,-11.711447848534583,-1.5878868849508463
1761380633960671500,3.77667138671875,-16.105829639184474,-8.53542302648127,-0.9357116280343383
1761380633970726400,3.786726318359375,-15.124382315087317,-6.902026290112733,-2.1398092581972477
1761380633980782600,3.796782470703125,-13.147656709939241,-5.237705423170328,-2.9879701016157862
1761380633990838500,3.806838623046875,-10.09341527003646,-3.5162288368105887,-2.8213234953880306
1761380634000894500,3.81689453125,-7.1524945043653245,-2.8441940833657977,-2.5356243932783604
1761380634010950700,3.82695068359375,-4.287189243909716,-2.4630571697175503,-2.6069658744364976
1761380634021005300,3.83700537109375,-3.5702211237609385,-1.663762648537755,-2.46563140411973
1761380634031061500,3.8470615234375,-1.6724287700742482,-1.5414204634606838,-1.905217535251379
1761380634041117400,3.857117431640625,1.7165286085635423,-1.8489853604197501,-0.911659136795625
1761380634051173400,3.86717333984375,3.364761679536104,-1.8103741824746131,0.37145460080653425
1761380634061228500,3.877228515625,2.9642098713219163,-1.3788999972522258,1.4213193353086708
1761380634071284500,3.887284423828125,1.6707962004363537,-0.5176818116009235,2.054213772367686
1761380634081340700,3.897340576171875,1.2375608507603406,0.9871733005285263,2.385802518992871
1761380634091396400,3.907396240234375,1.5939911931753157,2.7503490939766166,2.4120360075324774
1761380634101451500,3.917451416015625,2.1155407861202953,4.361186792534589,2.2268267396539447
1761380634111507500,3.927507568359375,3.01467047701478,5.693163710570335,2.160338105354458
1761380634121563400,3.9375634765625,3.66391589102447,6.864148687139153,2.5315698571905494
1761380634131619300,3.947619384765625,4.010100149235129,7.099362633636593,3.5841415125638245
1761380634141674500,3.957674560546875,3.9018829356223343,6.669785806468129,5.475556147912144
1761380634151730400,3.96773046875,3.0572365300655364,6.224389478877186,7.608484706684947
1761380634161786600,3.97778662109375,2.1590362289756535,6.247407950893044,9.11874197011888
1761380634171842300,3.98784228515625,2.4271359615087507,5.954070901250839,9.06227014131248
1761380634181897500,3.9978974609375,4.8007776487171645,5.989248597615957,8.625915198311208
1761380634191953400,4.007953369140625,8.163352631863951,5.2637528876185415,8.385655074340104
1761380634202007600,4.018007568359375,10.921918934565783,4.069392880681157,8.21544346910715
1761380634212063500,4.0280634765625,11.680891382229328,3.1048347320646044,8.064540959978103
1761380634222118400,4.038118408203125,9.318335737180709,2.5919705498784777,8.13015704922676
1761380634232174300,4.04817431640625,4.846910746599733,2.6084990753531456,8.27618990649283
1761380634242230500,4.05823046875,-0.2037877116203308,2.625458393460512,7.980280376014113
1761380634252286500,4.068286376953125,-4.023373180045187,2.5102391921311615,7.331081139233708
1761380634262342400,4.07834228515625,-5.356842674726248,1.6344553055107593,6.520829170709848
1761380634272397600,4.0883974609375,-3.4284286805436013,0.35249475653171536,5.388365940237045
1761380634282453500,4.09845361328125,-4.045976641519368,-2.5355326233416795,4.079676082025468
1761380634292509400,4.108509521484375,-6.999025359618663,-7.980506001463532,4.2331560404270885
1761380634302565400,4.1185654296875,-4.9465083081662655,-11.306080748993157,4.551133610329032
1761380634312620300,4.128620361328125,-3.1523885104000566,-9.255846840041876,1.7092631476052105
1761380634322676500,4.138676513671875,-7.729161004376411,-5.341089225277305,-2.5661422811388968
1761380634332732400,4.148732421875,-10.060187538695335,-3.2850895924061536,-4.365390089443326
1761380634342788400,4.158788330078125,-8.978855945044755,-1.7156436424225567,-3.240705091756582
1761380634352843500,4.168843505859375,-6.325232364329695,-1.745115820622444,-1.4877046553641557
1761380634362899500,4.1788994140625,-4.8365857519403095,-2.857646270135045,-0.3428815634034574
1761380634372955600,4.18895556640625,-3.478211533105373,-4.274378862175345,0.7224395372971892
1761380634383011300,4.19901123046875,-0.7168497544661164,-5.216930930688977,1.6246310999803244
1761380634393066500,4.20906640625,1.6358628342211246,-5.363090044683218,2.529485159870982
1761380634403122400,4.219122314453125,1.2100839380308985,-4.810386604061723,3.1270351656958457
1761380634413178400,4.229178466796875,-0.41564240984022616,-3.5783225971519945,2.607039816455543
1761380634423234600,4.239234619140625,-1.8059382458537816,-1.5471610529392956,1.3561492362618446
1761380634433289500,4.24928955078125,-2.3584160610258578,0.6806874309778214,-0.8539052322894334
1761380634443345700,4.259345703125,-2.344894608412683,3.2409464992970225,-3.8428888948619364
1761380634453401600,4.269401611328125,-2.0161744029611346,5.230432217296958,-6.486610674765705
1761380634463457300,4.279457275390625,0.8147627239465713,6.046863751238584,-7.598961676058173
1761380634473513500,4.289513427734375,4.378754597929119,6.286035495451093,-7.564449750125408
1761380634483568400,4.299568359375,5.343208701649308,6.717395114383101,-8.134905705058575
1761380634493624600,4.30962451171875,4.661731873859464,7.042317388856411,-9.44748584870696
1761380634503683600,4.31968359375,4.299357236087322,6.926500806155801,-10.057802689385413
1761380634513739500,4.329739501953125,4.627085215631127,6.64151072909832,-9.833480723780394
1761380634523794400,4.33979443359375,4.730948910209536,6.8996700823754065,-9.44202115356028
1761380634533850400,4.349850341796875,4.217809125952423,7.369512284436822,-8.700814079689978
1761380634543906600,4.359906494140625,4.057345300012827,7.175527589428424,-7.405562671983241
1761380634553962500,4.36996240234375,3.2865061812058087,6.604809184166789,-6.198578745794296
1761380634564017400,4.380017333984375,1.823781945580244,5.6086804237663745,-6.187299811410903
1761380634574073600,4.390073486328125,0.4865560209751129,4.406272134929895,-6.687484544765949
1761380634584129500,4.400129638671875,-0.0008148235142230987,2.6751193732082843,-7.029691131517291
1761380634594185500,4.410185546875,-0.6713163760423659,0.458836239400506,-7.682414450770616
1761380634604240400,4.420240478515625,-1.0505857422530651,-0.3442220182269811,-8.947525571757554
1761380634614296300,4.43029638671875,-0.6760562640458345,0.2436024201363325,-10.121451277953385
1761380634624352500,4.4403525390625,-4.5807329220399255,-0.93433076813519,-9.507660039162635
1761380634634408400,4.450408447265625,-8.11449244710505,-5.094739552259445,-7.433118202906846
1761380634644464400,4.46046435546875,-8.783362014517188,-10.518345148181915,-6.2537874227970836
1761380634654519600,4.47051953125,-10.66030096526742,-10.796638357949256,-5.266493126237392
1761380634664575500,4.480575439453125,-13.463210852086544,-6.8359057584732765,-4.714088376301527
1761380634674631700,4.490631591796875,-13.162850771939754,-3.887030818927288,-4.196312748937308
1761380634684687400,4.500687255859375,-11.547328130435943,-2.6891099046379328,-2.8245284289091823
1761380634694742500,4.510742431640625,-9.74581471528709,-2.1739649180382488,-1.3377167768619953
1761380634704798500,4.520798583984375,-7.400393744912743,-2.4215356572836635,-0.3963291855504736
1761380634714854400,4.5308544921875,-4.2182302739739415,-2.9542022720485925,0.6851167917273938
1761380634724910600,4.54091064453125,-1.6465677681088446,-2.9792098720550535,2.2349439951360224
1761380634734965500,4.550965576171875,-1.2466776386737823,-3.173965551435947,3.4080142535462974
1761380634745021700,4.561021728515625,-2.3140035033255812,-3.9987621781408786,4.314823685288429
1761380634755077600,4.57107763671875,-2.5310411571413276,-4.837578562369942,4.90651473595202
1761380634765133300,4.58113330078125,-1.8718588710069655,-4.662594335907698,4.7355599111363285
1761380634775188500,4.5911884765625,-1.0033072737276554,-3.2256355329185724,4.16461441912055
1761380634785244400,4.601244384765625,0.10501870983242988,-1.1063999839335679,3.9732507202655074
1761380634795300600,4.611300537109375,-1.51417940531373,0.6109001935243606,3.9417233631014823
1761380634805356500,4.6213564453125,-0.9739929164379835,2.018285111504793,3.003178484402597
1761380634815412500,4.63141259765625,1.2259873173445464,4.255391837632656,1.6494437619365752
1761380634825467600,4.641467529296875,2.3687965852648016,5.99895867524743,0.781081403619051
1761380634835523600,4.651523681640625,3.711665484192967,6.47972208429575,0.9484263673745095
1761380634845579300,4.661579345703125,5.144926017186045,7.0135536511868235,2.0192706154108047
1761380634855635500,4.671635498046875,5.90222205606997,7.374282567578554,3.51840851893723
1761380634865690400,4.6816904296875,5.787288685944676,7.147825343510508,5.203408601292968
1761380634875746600,4.69174658203125,4.8642526342839,6.404276090428233,6.808904938822984
1761380634885802500,4.701802490234375,3.914996684217453,5.78030598745048,7.821211511564254
1761380634895858400,4.7118583984375,3.7176720311313867,5.207639370730519,8.055594267934561
1761380634905913600,4.72191357421875,3.650417527025938,4.193371142527461,7.718958759313821
1761380634915969300,4.73196923828125,3.479748825675249,3.134858698928356,7.3754317376136775
1761380634926025500,4.742025390625,2.933755111825466,2.3250573967814443,7.471080561554431
1761380634936081400,4.752081298828125,2.2305419607847927,1.4752362189352513,7.637433153271675
1761380634946137300,4.762137451171875,1.4955430939048528,0.9680857382208108,7.451039059522747
1761380634956192500,4.772192626953125,-0.5081634571492671,0.37518355820178984,7.035177453973889
1761380634966248400,4.78224853515625,-2.976778845515847,-0.6081190383732319,6.733703859627246
1761380634976304600,4.7923046875,-3.36986104850173,-1.0382575910776852,6.201861420726776
1761380634986360600,4.802360595703125,-2.0376152503967284,-1.887214845570922,4.86040209633559
1761380634996415500,4.81241552734375,-3.6714474555730816,-4.204764058679342,3.577932428790629
1761380635006471400,4.822471435546875,-5.457267042505741,-7.233264323604106,3.105294750791788
1761380635016527400,4.83252734375,-5.494564215242862,-8.46953338098824,2.4389792517766353
1761380635026583600,4.84258349609375,-7.2702926162719725,-6.187089968052506,0.5445208648182451
1761380635036639500,4.852639404296875,-8.101708953377605,-3.0952094101071355,-0.9527896771505474
1761380635046694400,4.8626943359375,-8.57020675509274,-0.8601607855528592,-0.7199794307939708
1761380635056750600,4.87275048828125,-9.3396859837234,-0.1486450855910778,0.1470674610108137
1761380635066806500,4.882806640625,-9.306295170775055,-0.5905985792517662,0.284355213220045
1761380635076862500,4.892862548828125,-8.073249751612543,-1.6259996118545532,-0.15486483688876032
1761380635086917400,4.90291748046875,-5.749275473892689,-2.7995354419499634,-0.3593747253037989
1761380635096973300,4.912973388671875,-3.2425118489176032,-3.546351587873697,-0.5351142271127551
1761380635107029500,4.923029541015625,-1.4390660044014454,-3.660435647693276,-1.2299369317531585
1761380635117085400,4.93308544921875,-0.48402533345371485,-2.758041402044892,-2.501687636885047
1761380635127140600,4.943140625,0.6914028862595558,-1.0411182412058115,-3.74896996345371
1761380635137196500,4.953196533203125,2.0185785414934156,0.5851151794046163,-4.662931605038047
1761380635147252500,4.96325244140625,2.8819454296112057,2.2259318366408345,-5.237873765474558
1761380635157308700,4.97330859375,3.205941236889362,3.9318829370886084,-5.475146398067474
1761380635167364600,4.983364501953125,3.2858389494687317,5.4510050595015285,-5.365813916689157
1761380635177419500,4.99341943359375,3.6286148605406283,6.470455658778548,-4.952086985081434
1761380635187475500,5.003475341796875,4.088574843274056,6.699315852335095,-4.34295526253432
1761380635197531400,5.013531494140625,4.501722805950045,6.815550952708721,-4.107823441362381
1761380635207587600,5.023587646484375,5.563644181209802,7.117520221617817,-4.702632916307449
1761380635217642500,5.033642578125,6.593743015751242,7.582438995802402,-5.568448366621136
1761380635227698700,5.04369873046875,6.577904226106405,7.595966001373529,-6.344166781902313
1761380635237754600,5.053754638671875,6.380773049765825,7.551401467981934,-6.89531948595047
1761380635247810600,5.063810546875,5.239111782836914,7.988444393247366,-7.384186706477403
1761380635257866500,5.073866455078125,3.8224814821273085,8.43320125389099,-7.829826195174455
1761380635267921400,5.08392138671875,3.1718747166365384,8.421175300532578,-8.125147112110257
1761380635277977300,5.093977294921875,2.6231284892082214,8.074991042321919,-8.221531849110127
1761380635288033500,5.104033447265625,2.0667653570353983,7.29675976743698,-8.448461366865038
1761380635298089500,5.11408935546875,1.7951736907333136,6.208038063535094,-9.124511785691976
1761380635308144600,5.12414453125,-0.14486381348669528,4.698146710804105,-9.772118784844874
1761380635318200600,5.13420068359375,-2.954853721694648,2.7120775232493877,-9.985845706677436
1761380635328256500,5.144256591796875,-4.913549456894398,1.399060157227516,-9.611462943464517
1761380635338312400,5.1543125,-4.26319754294753,1.0174702391147612,-9.100905869176984
1761380635348368400,5.164368408203125,-3.407645420233905,0.08625847978293895,-7.3731690533787
1761380635358423600,5.174423583984375,-4.544423883557319,-3.9866169823169706,-4.81551929077506
1761380635368479500,5.1844794921875,-5.9688663193225855,-10.226058484375477,-3.3393642034292217
1761380635378535400,5.194535400390625,-9.155320765453576,-13.450140942633151,-1.9165332945138216
1761380635388591600,5.204591552734375,-15.103691409236191,-10.918314772593975,0.0707823859706521
1761380635398646500,5.214646484375,-17.827583288919925,-8.03114488633275,1.539370252932608
1761380635408702500,5.224702392578125,-14.159737657231092,-6.524077943372726,2.7992764987528322
1761380635418758400,5.23475830078125,-9.843514626538752,-4.996658532735705,4.082822271096706
1761380635428814300,5.244814453125,-7.1054580279022455,-5.483104663595557,5.2988510890066625
1761380635438870500,5.25487060546875,-5.807039680597185,-7.378620889043807,6.49212330070734
1761380635448925400,5.264925537109375,-4.4028170260399575,-8.665499605202674,7.179670680582523
1761380635458981600,5.274981689453125,-1.8070365624845026,-8.62893425387144,7.564330507659911
1761380635469037600,5.28503759765625,0.29113603246659037,-7.852904288423061,7.685011481526494
1761380635479093500,5.295093505859375,1.2197376093000172,-6.901183994069695,7.146153026384114
1761380635489149700,5.305149658203125,1.7900749062895773,-5.40271770619452,6.0606356714814895
1761380635499204400,5.315204345703125,2.2689877190351484,-3.525053363779187,4.776123976714909
1761380635509260500,5.325260498046875,2.566798699221015,-1.3767559709608554,3.6672891668498515
1761380635519316500,5.33531640625,2.8035335716754197,0.9752011231839657,2.8693443067133426
1761380635529372400,5.345372314453125,2.8654800325006247,3.3284920962810514,2.2088534221984446
1761380635539427600,5.355427490234375,3.1546009257525203,5.313265398806333,1.8122142573833464
1761380635549483500,5.3654833984375,4.05893315372616,6.50777036717236,1.874149904553592
1761380635559539500,5.37553955078125,4.946951375758648,7.376160051888227,1.7274565375521778
1761380635569595400,5.385595458984375,3.768049050194025,8.306986611294747,1.7268344601310788
1761380635579651300,5.3956513671875,2.1347870461210605,8.572620830497145,2.414025866175443
1761380635589706500,5.40570654296875,1.433227215245366,8.660797711122035,3.3556407999694344
1761380635599762400,5.415762451171875,0.7289157475739717,8.777300522521138,4.1347526570811866
1761380635609818400,5.425818359375,0.22789280982911586,8.722637788963317,4.692390631495416
1761380635619874600,5.43587451171875,0.4918994278296828,8.63089532481134,5.343926494529843
1761380635629930500,5.445930419921875,1.6637267004415393,8.358850069522857,5.957319673913717
1761380635639985700,5.455985595703125,3.185400553163886,7.5896894053220745,6.13096476072669
1761380635650041300,5.466041259765625,4.330818542277813,6.823129863530397,5.817235495918989
1761380635660097300,5.47609716796875,4.391525232174993,5.738055576220154,5.224435607230663
1761380635670153500,5.486153564453125,4.191512655179202,4.203889613932371,4.77149631691426
1761380635680208400,5.49620849609375,3.6611549018785357,3.0937399220764634,4.614592229282856
1761380635690264600,5.5062646484375,2.4375322678387166,2.2405782016307114,4.314380325435102
1761380635700320500,5.516320556640625,1.5369707905754446,0.6391688411533832,4.216720161671936
1761380635710376400,5.52637646484375,0.8228963460415601,-0.808248812007904,4.204935615853965
1761380635720432600,5.5364326171875,-0.6010790567338467,-2.33979903883934,3.751226510208845
1761380635730487300,5.5464873046875,-2.767372124969959,-5.306418893912435,4.030265862168371
1761380635740543500,5.55654345703125,-5.203750546598434,-9.4058211284101,5.11513176742494
1761380635750599400,5.566599365234375,-5.320624529397487,-11.684889511954784,5.699846549335121
1761380635760655400,5.5766552734375,-5.600722742760181,-10.656817214804887,4.45647759681791
1761380635770710500,5.58671044921875,-7.597426137053966,-7.80637400791645,2.8887422501444813
1761380635780766500,5.596766357421875,-10.686529631501436,-5.315186137735843,2.363952360104024
1761380635790822400,5.606822509765625,-12.085048521459102,-3.2161294534265994,1.354603321994096
1761380635800878600,5.616878662109375,-11.313690054953097,-1.527163974571228,0.5785819782435894
1761380635810934500,5.6269345703125,-10.572115316814184,-1.9896137282937765,0.6237601134888827
1761380635820989400,5.636989501953125,-8.53656284416616,-3.400716790014505,0.7612536904685199
1761380635831045400,5.64704541015625,-5.525972914463281,-3.6382208932757374,0.788317492352426
1761380635841101300,5.657101318359375,-2.6697239439055322,-3.0570266867071387,0.9654146193154156
1761380635851157500,5.667157470703125,-1.2391162635087967,-2.5963936270177363,0.9727768186464906
1761380635861213400,5.67721337890625,-0.8172603859812021,-2.0986919426500794,0.4126609098114073
1761380635871268600,5.6872685546875,-0.34811727209985255,-1.5962597226291895,-0.6698876584134995
1761380635881324500,5.697324462890625,0.47547173238098617,-0.8801520187020301,-2.010096544352174
1761380635891380500,5.70738037109375,1.7388053223013877,0.19774726241230964,-3.2020334157958623
1761380635901436400,5.7174365234375,2.4691572401583195,1.7181565020263194,-4.152014757527411
1761380635911492400,5.727492431640625,2.8277453451290726,3.550410507875681,-4.844420975610613
1761380635921547500,5.737547607421875,2.342350476887822,5.25907495893538,-5.288041525700688
1761380635931603500,5.747603515625,1.2638476769223808,6.29778906160891,-5.410282003968954
1761380635941659400,5.757659423828125,0.2369824174746871,6.6481596655935045,-5.449951166534423
1761380635951715600,5.767715576171875,0.0637134704977274,6.824929021906852,-5.880238187798858
1761380635961771500,5.777771484375,0.8272329139411448,7.042425525406003,-6.680332334923744
1761380635971826400,5.787826416015625,1.9797534285366534,7.236585576981305,-7.237911272627115
1761380635981882400,5.79788232421875,3.000864946763217,6.970943174472451,-7.367748197373747
1761380635991938300,5.807938232421875,3.4883249308407303,6.03191401938796,-7.423084300148487
1761380636001994500,5.817994384765625,3.508357665044069,5.52192802298665,-7.545355758076906
1761380636012049400,5.82804931640625,3.1151322541952133,5.672481572547555,-7.389476629579066
1761380636022105300,5.838105224609375,2.018945621240139,5.412695494851469,-6.972952176207303
1761380636032161500,5.84816162109375,2.171441537040472,4.653063706496358,-6.114898007544875
1761380636042217500,5.858217529296875,3.1237258950173854,3.8805262593388554,-5.782475148183107
1761380636052273400,5.8682734375,3.924537835022807,3.6271880426079033,-6.145842011862993
1761380636062328300,5.878328369140625,3.87232103331238,2.85909120824635,-6.3134934112191194
1761380636072384300,5.88838427734375,3.0554476008221507,1.6295710406005381,-5.915158110010624
1761380636082440400,5.8984404296875,3.2692396968454123,0.44971009913682936,-5.225866516816616
1761380636092496400,5.908496337890625,1.4750138083562254,0.09640694883167743,-4.901484340569377
1761380636102552300,5.91855224609375,-4.372002201059461,-0.36230946358144284,-4.567370459380745
1761380636112607500,5.928607421875,-9.560082300317287,-3.9394332063376902,-3.4274063517585396
1761380636122663400,5.938663330078125,-10.52260631275773,-9.971619612926244,-1.6719953470930455
1761380636132719600,5.9487197265625,-12.563920417672396,-11.900699669802188,-1.9189482467010617
1761380636142775600,5.958775634765625,-15.036556732118129,-7.997230341771244,-3.533186985874176
1761380636152831500,5.96883154296875,-13.72388891018629,-4.811468554079532,-5.186311920541525
1761380636162886400,5.978886474609375,-8.251870873272418,-2.790987393835187,-6.617021015486121
1761380636172942300,5.9889423828125,-3.759313370552659,-0.2573188107997179,-7.332554134395719
1761380636182998500,5.99899853515625,-2.376418750706315,0.08588847742676735,-6.46450347237587
1761380636193054500,6.009054443359375,-1.6585282550156115,-1.1640776813983917,-4.1857998304903505
1761380636203109400,6.019109375,0.1931739631474018,-2.3530320298999547,-2.2150207126565276
1761380636213165600,6.02916552734375,2.4707296040415763,-3.186993375313282,-0.7840887687414884
1761380636223221500,6.039221435546875,2.493837800167501,-3.485103046184778,0.7380334122702479
1761380636233277400,6.04927734375,0.8204495374113321,-2.9936680209964512,2.3494940650321543
1761380636243333400,6.05933349609375,-0.6937526642560958,-1.8526994125068186,3.375301193729043
1761380636253388300,6.06938818359375,-1.4979182986035942,-0.23202187245786188,3.8136712759450075
1761380636263444500,6.079444580078125,-1.2866682882785796,1.4668734642595052,4.117100972795487
1761380636273500400,6.08950048828125,-0.08233283077180385,2.5953251210033894,4.146441049048304
1761380636283556400,6.099556396484375,1.3944324974268674,3.757181619220972,4.027180463373661
1761380636293612500,6.109612548828125,2.814178299808502,5.130316477075219,3.9955803332343693
1761380636303667500,6.11966748046875,4.139689821222424,5.907505549430847,4.276368866948783
1761380636313723600,6.1297236328125,4.817348844289779,5.865914478892088,5.446248220363259
1761380636323779300,6.139779296875,4.6871036310032,5.157387439352274,7.546042571297288
1761380636333835300,6.149835205078125,4.50329926148653,4.217894758409262,9.714982354649901
1761380636343891500,6.159891357421875,3.7214147247910496,3.214292885649204,11.05332997676134
1761380636353946400,6.1699462890625,3.1502330859318373,3.05609145168364,11.182496454900502
1761380636364002600,6.18000244140625,2.7349524951413273,3.8933541767299173,10.376300483769178
1761380636374058500,6.19005859375,2.5145044483602046,4.359109401738643,9.354190309894085
1761380636384114400,6.200114501953125,2.958268498574197,4.616471467158198,8.0857322165668
1761380636394170600,6.210170654296875,3.703258305853605,4.713400978559255,6.421818176859617
1761380636404225300,6.220225341796875,3.9239305167794227,4.328149615329504,4.878396310448646
1761380636414281500,6.230281494140625,2.760436188226938,3.5111885045558213,3.6405469981357452
1761380636424337400,6.24033740234375,1.351049282774329,2.4933950248360635,2.8043548249304293
1761380636434393300,6.250393310546875,-0.03466770101636648,1.1357920826345682,2.107893778498471
1761380636444449500,6.260449462890625,-1.2355772757276893,-0.5357312630325556,1.6514146236181257
1761380636454504400,6.27050439453125,-1.3500339682519436,-2.0118635540246963,1.4670274857774377
1761380636464560400,6.280560302734375,-3.8102959542930126,-4.353170659339428,1.5871030410967766
1761380636474616600,6.290616455078125,-9.209283241787553,-8.314933186385035,3.3749028420612213
1761380636484672500,6.300672607421875,-11.276222201824188,-11.924936285436154,6.663726068037748
1761380636494727400,6.3107275390625,-10.53362922655344,-11.093888781642914,6.619484775251149
1761380636504780300,6.3207802734375,-10.293888742542267,-6.870818666422367,2.534470547068119
1761380636514836200,6.330836181640625,-9.333750748455524,-4.48108742967844,-0.2613929283708334
1761380636524892200,6.34089208984375,-9.732227503961324,-2.196300668486953,-1.5752463068254292
1761380636534948000,6.350947998046875,-9.436607896339893,-0.7928986826628446,-2.2863158704549074
1761380636545003300,6.361003173828125,-7.696146623525023,-0.9240151258260011,-2.174277198857814
1761380636555059200,6.37105908203125,-5.954965804263949,-1.7128578110963104,-1.3783859102502465
1761380636565115100,6.381115234375,-3.8648002824187278,-2.3981612114369866,-1.0373578657589853
1761380636575171300,6.39117138671875,-2.102809314841032,-2.511079150086641,-1.462685072658956
1761380636585227300,6.401227294921875,-1.0861427933245897,-2.465838324868679,-1.8291002179935574
1761380636595282400,6.411282470703125,-0.034625907701253886,-2.045242092013359,-2.0060602745734153
1761380636605338000,6.421338134765625,-0.00495090040564537,-1.6854671153455971,-2.6061954745858906
1761380636615394000,6.43139404296875,0.4923240829825401,-1.1370108107745647,-3.0269767086192965
1761380636625450200,6.4414501953125,1.3406693430572747,-0.168656192484498,-3.405765890097618
1761380636635506200,6.451506103515625,1.9669722728967665,1.112220652911067,-3.744215754663944
1761380636645561300,6.461561279296875,1.9625468576699494,2.492621117854118,-4.063974362763762
1761380636655617300,6.4716171875,1.714095243936777,4.442911136019229,-4.427082575507462
1761380636665673200,6.481673095703125,1.8087398592710493,6.088700320971012,-4.9580099453896285
1761380636675729200,6.491729248046875,1.8770470872998237,6.804075034448504,-5.217395625591278
1761380636685785300,6.501785400390625,2.5690765810251235,6.700458008107542,-5.354942394062876
1761380636695840000,6.511840087890625,3.287117883363366,6.617942221984267,-5.6569777139455075
1761380636705896200,6.521896240234375,4.013689698159695,7.140404838120937,-6.132963241067529
1761380636715952000,6.5319521484375,4.819857027718425,7.820015579777955,-6.71969111636579
1761380636726008000,6.542008056640625,5.28393525942564,8.366795475569367,-7.348647191062569
1761380636736064300,6.552064208984375,5.27018905814588,8.821883176091314,-7.848734309262037
1761380636746119200,6.562119140625,4.229693332752585,9.106811293828487,-7.528830155211686
1761380636756175400,6.57217529296875,3.006812456990778,8.167000048455595,-6.6495484896034
1761380636766231300,6.582231201171875,2.3979174658089875,6.406102721333504,-5.970832650959491
1761380636776287000,6.592286865234375,2.066555513677001,4.911072253125906,-5.563716661924124
1761380636786343200,6.60234326171875,1.316045189410448,3.780611594647169,-5.346491376581787
1761380636796398000,6.612398193359375,-0.003971826240420341,1.9401146611094473,-4.977173495543003
1761380636806454300,6.622454345703125,-0.6901832813367247,-0.2471750179260969,-4.49109181408137
1761380636816510200,6.63251025390625,-3.1022035067781806,-1.2781149794667959,-4.11717725290209
1761380636826566100,6.642566162109375,-6.130413556584715,-2.164384019744396,-3.4788346334397793
1761380636836622300,6.652622314453125,-6.364393577373027,-4.7930555300325155,-2.579243462513387
1761380636846677200,6.66267724609375,-6.968754139995575,-10.412185451620816,-2.593609549257159
1761380636856733200,6.672733154296875,-12.259198635184765,-11.705673941308259,-2.1483621286176144
1761380636866789000,6.6827890625,-16.47971205165982,-7.267564068090915,-0.9642338850982487
1761380636876845000,6.692844970703125,-13.649146096152066,-4.7264451690495015,-0.7890883305944502
1761380636886901200,6.7029013671875,-10.357035811328887,-3.688865038841963,-0.0841678733123932
1761380636896956200,6.7129560546875,-10.190977818644047,-3.7151802143156525,1.8722241971880196
1761380636907012400,6.723012451171875,-9.642292966014146,-4.95589923684597,3.503881980934739
1761380636917068300,6.733068359375,-7.519743177914619,-5.551984723076224,3.8730455481946464
1761380636927124200,6.743124267578125,-4.458671599730849,-5.2649704467147584,3.6739772663116455
1761380636937180200,6.75318017578125,-2.0074913302898407,-4.509349647566676,3.5744635836362835
1761380636947235000,6.763235107421875,0.04187514817714691,-3.399991398349404,3.9082603616997598
1761380636957291000,6.773291015625,1.560741250002384,-2.2008348047852513,4.259634589768946
1761380636967347200,6.78334716796875,2.3743881216615437,-0.928413068524003,4.396330002108216
1761380636977403100,6.793403076171875,2.5590578758358955,0.24925474680960177,4.234907852530479
1761380636987459000,6.803458984375,3.246065157485008,1.4464379944741725,3.4903257492691275
1761380636997514200,6.81351416015625,4.394353733599186,2.959078353652358,2.3545243142843244
1761380637007570200,6.823570068359375,5.4867918276757,4.420900379741192,1.4188935694664715
1761380637017626400,6.83362646484375,6.616318420174718,5.755656114840507,1.2059974724348634
1761380637027682300,6.843682373046875,7.057690314555168,6.90207012925446,1.6808571373321115
1761380637037738000,6.853738037109375,6.906659210610389,7.533233943128585,2.454386664266884
1761380637047793200,6.863793212890625,5.919509290957451,8.126865606465936,3.686102003869414
1761380637057849000,6.87384912109375,4.344882723465561,8.397372400140762,5.201848512369394
1761380637067905300,6.8839052734375,3.294230345717072,8.412285307112336,6.710394880232214
1761380637077961200,6.893961181640625,2.927055321925878,8.345590774977207,8.169816859441996
1761380637088017200,6.90401708984375,3.546056988841295,7.661524807476997,9.666989600375294
1761380637098072300,6.914072265625,4.563289912068844,6.510293748170137,10.885632984697818
1761380637108128300,6.924128173828125,4.763229716089367,5.539224610224366,11.78982054350376
1761380637118184200,6.93418408203125,4.193116290983557,4.88646621965766,12.1769201649487
1761380637128240000,6.944240234375,3.750129947143793,4.190006050008535,11.633518221157788
1761380637138296000,6.954296142578125,3.0347225004404783,4.037900010308623,10.49414594194889
1761380637148351200,6.964351318359375,2.2171458881169555,3.901794088295102,8.96661313406527
1761380637158407200,6.9744072265625,0.6903694515585899,2.8373277047276497,6.996597255688905
1761380637168463000,6.984463134765625,-0.8711813612610101,1.6784844168514013,5.181035441443324
1761380637178519300,6.994519287109375,-2.8475369640529156,-0.16503917103111743,3.906026026776433
1761380637188575200,7.0045751953125,-4.858498600801825,-2.6001456730276344,3.026876463115215
1761380637198630100,7.014630126953125,-6.395375575613975,-2.8697873743057247,2.2266179192088544
1761380637208686000,7.02468603515625,-9.832506910312174,-3.0266929232418534,1.3184665713384747
1761380637218742000,7.034741943359375,-12.894548210310935,-4.562061247056723,2.7747563900023695
1761380637228798200,7.044798095703125,-10.575523079431056,-7.3246017140865325,5.305117163664102
1761380637238854100,7.054854248046875,-10.407059194648266,-5.552651662552356,3.455055698445439
1761380637248909300,7.064909423828125,-11.956708557271957,-1.6186667847484348,-0.6030015492290258
1761380637258965200,7.07496533203125,-11.1040232221663,-0.14508885441422462,-3.2726743474692106
1761380637269021200,7.085021240234375,-9.671962128090858,0.09960603713393211,-4.582998236623406
1761380637279077400,7.095077392578125,-8.283020629295706,-0.8648942438155413,-4.386118989217281
1761380637289133300,7.10513330078125,-6.524249792808294,-2.2204490213155745,-3.2042934696823355
1761380637299188200,7.115188232421875,-4.151933801245689,-3.028838703098893,-2.327343900283426
1761380637309244200,7.125244140625,-1.7923264846086502,-3.3104771316409107,-1.6671034833982585
1761380637319300000,7.135300048828125,0.25016601643562314,-3.63497095156908,-1.1396984424233436
1761380637329356300,7.145356201171875,1.0938532215714454,-3.5262621550470588,-1.3418465701431035
1761380637339412200,7.155412109375,0.79784958306849,-2.5300118140935894,-2.4564503187984226
1761380637349467400,7.16546728515625,0.9999404276430607,-1.2522124764472244,-3.898623349304497
1761380637359523300,7.1755234375,1.4679057299166918,-0.10935820034146308,-5.265765396484732
1761380637369579300,7.185579345703125,2.03472128252089,1.22678226711452,-6.236411340582371
1761380637379635200,7.19563525390625,2.0467665251016616,2.6580899124741553,-6.856373376962543
1761380637389691100,7.205691162109375,1.5854513283669949,4.221435207495093,-7.157353634834289
1761380637399746300,7.215746337890625,1.3678653930187226,5.649951176309585,-7.017207497519254
1761380637409802200,7.22580224609375,1.437182674872875,6.378638375824689,-6.758556561332941
1761380637419858200,7.235858154296875,1.8839719181269405,6.625304275184869,-6.648498103767633
1761380637429914000,7.2459140625,2.604613173830509,6.501441748672724,-6.626870793849229
1761380637439970300,7.25597021484375,3.405722635477781,6.041776072710753,-6.866844502094388
1761380637450025000,7.26602490234375,4.177851501834392,5.657338363951444,-7.239452656850219
1761380637460081200,7.2760810546875,4.118044391125441,5.32099102462232,-7.4429551217883825
1761380637470137000,7.28613720703125,3.908880831685662,5.088675722175836,-7.2830053828507655
1761380637480193000,7.296193115234375,3.9802188057124614,5.159157371634245,-6.902758111518621
1761380637490249200,7.306249267578125,4.148205136111378,5.263042109000683,-6.700901660221815
1761380637500304100,7.31630419921875,4.293312110704183,5.140694078704715,-6.667852792578935
1761380637510364200,7.3263642578125,4.68364530724287,4.319082511776686,-6.319395913261175
1761380637520420000,7.336420166015625,4.688299855050444,3.3122792126268146,-5.926136015620827
1761380637530476000,7.34647607421875,4.399979172265529,2.588224933609366,-5.919129351729154
1761380637540532200,7.3565322265625,2.746337520247698,1.9561223775804042,-5.953821894925833
1761380637550587100,7.366587158203125,-0.041025253349542615,0.7326274615734815,-5.5541550528526304
1761380637560643000,7.37664306640625,-1.8916554583668708,-1.2346037545204163,-4.583343689060211
1761380637570699300,7.38669921875,-4.126916848888993,-2.582197343882918,-3.573378126487136
1761380637580755000,7.3967548828125,-7.149856557077169,-3.1069664833962913,-3.40759018291533
1761380637590811100,7.40681103515625,-9.023878159075975,-4.355374306863546,-4.015009548586606
1761380637600866000,7.416865966796875,-11.85134731761217,-6.929591757908463,-4.708798160938918
1761380637610922000,7.426921875,-14.880487049484252,-5.175872359591722,-4.3573505753725765
1761380637620978200,7.436978271484375,-13.570179526942967,-2.5183242989093064,-3.808038530755043
1761380637631034000,7.4470341796875,-12.829486247813701,-2.0951813041806218,-2.888041408398747
1761380637641090000,7.457090087890625,-13.182415888631343,-2.671686476150155,-0.8638549638956785
1761380637651145200,7.467145263671875,-10.794652152568101,-2.7477760286182162,1.0149199701100586
1761380637661201000,7.477200927734375,-8.093560133713483,-2.2416595671266317,1.3869903647273778
1761380637671257000,7.487257080078125,-5.596055919992923,-1.7463596832036972,1.9647993127718566
1761380637681313000,7.49731298828125,-3.0810873612523078,-1.810351970642805,3.28335210108906
1761380637691369000,7.507368896484375,-1.481817935413122,-1.6335376061439513,4.437542302462458
1761380637701424000,7.517424072265625,-0.6508855824321508,-0.9773509946942329,5.066715819302201
1761380637711480000,7.52747998046875,-0.2509481067240238,0.16180676498115062,5.2056911592721935
1761380637721536300,7.537536376953125,0.10177987404167652,1.4492583125919103,5.009405201584101
1761380637731592200,7.54759228515625,0.9656184713244438,2.197881215676665,4.891075759279728
1761380637741648100,7.557648193359375,1.9803882193088531,2.448489715182781,4.960742585223913
1761380637751703000,7.567703125,3.0339754814654585,2.710232187643647,5.0158717672497035
1761380637761759000,7.577759033203125,3.719806705072522,3.2496307410120964,4.819654783144593
1761380637771815200,7.587815185546875,4.601335857346654,4.239566491991281,4.467033769884705
1761380637781871000,7.59787109375,5.316095069274306,5.410056378519535,4.5182294118538495
1761380637791927000,7.607927001953125,5.303777439492941,6.083166652241349,5.2198120390832425
1761380637801982200,7.617982177734375,4.76794446965158,5.823123384913802,6.45556847077012
1761380637812038100,7.6280380859375,4.099604479071497,5.115367914268374,8.184788803124427
1761380637822094000,7.638093994140625,3.960910878652334,4.291307200622558,9.447814350008963
1761380637832150300,7.648150390625,3.969418594756722,3.9480800386518236,9.623429275590182
1761380637842206000,7.6582060546875,4.370746648040414,4.055788718220591,9.215041366922854
1761380637852261000,7.66826123046875,5.185344536814093,4.091193793600797,8.61427795200944
1761380637862317000,7.678317138671875,5.760221815320849,4.324307552948594,7.642007621580362
1761380637872373000,7.688373046875,5.396463906496763,4.973216866871715,6.645625763201713
1761380637882429200,7.69842919921875,3.98249610299468,5.223438997408747,6.1106952951580285
1761380637892485000,7.708485107421875,2.252882387408614,4.8405835894048215,5.860028927984834
1761380637902541000,7.718541015625,0.457946597084403,4.276380849647522,5.542122085231543
1761380637912596200,7.72859619140625,-0.6584492956846952,3.5700346612781284,4.596536640371382
1761380637922652000,7.73865185546875,-1.6359762314677238,3.3045003953188656,3.1481454660028216
1761380637932708000,7.7487080078125,-2.4860680429488418,2.5063299097329375,2.321817099685967
1761380637942764000,7.758763916015625,-2.355940610823035,-0.5061071091413497,2.00373431584388
1761380637952820000,7.768820068359375,-3.5772073293864723,-2.8038953907251356,1.4349389875993133
1761380637962875100,7.778875244140625,-7.22600339269042,-3.3628169752091166,0.4841178340427577
1761380637972931000,7.78893115234375,-11.149591379642485,-3.146063399031758,0.8755326883383094
1761380637982987300,7.7989873046875,-10.76845271242857,-3.727222534286976,3.2097157869920134
1761380637993043200,7.809043212890625,-9.733324651548266,-3.3986008207738396,3.1280124862954017
1761380638003099100,7.81909912109375,-9.682676998850702,-0.9060054218828678,0.4569027505872771
1761380638013154000,7.829154052734375,-9.665251232275367,1.3263263449281453,-0.739477619729191
1761380638023210000,7.8392099609375,-10.170068301606177,1.8663760556817053,0.21427282874491063
1761380638033266200,7.84926611328125,-9.90774890604019,0.5402355887144804,0.535241725949943
1761380638043322000,7.859322021484375,-8.092735957849026,0.2358557515323162,-0.08140285644531249
1761380638053378000,7.8693779296875,-6.306342954942584,-0.1872001494348049,-0.5412408932995051
1761380638063433200,7.87943310546875,-4.949285956186056,-1.26576110932827,-0.7796392419867217
1761380638073489200,7.8894892578125,-3.5042034679740666,-1.83124921272099,-1.3558131361752748
1761380638083545000,7.899545166015625,-2.29925367796123,-1.6416607068449258,-2.404021043381095
1761380638093601300,7.909601318359375,-1.732428188484907,-1.3214251288831234,-3.4725098143324256
1761380638103657000,7.919656982421875,-1.1817980470061302,-0.7784843728631734,-4.217368396447599
1761380638113712000,7.929712158203125,-0.3940729675889015,0.13236848905086518,-4.533358007402718
1761380638123768000,7.93976806640625,0.3227975374042988,0.9761118082880973,-4.540009574246406
1761380638133824000,7.949823974609375,1.097788807454705,1.620308122214675,-4.343674516719579
1761380638143880200,7.959880126953125,1.5139911892652511,2.555529701709747,-4.048308591598272
1761380638153936100,7.96993603515625,1.9048691602051258,3.415800961899757,-3.9614346102654934
1761380638163991300,7.9799912109375,2.071550253224373,3.935933089262247,-4.143226470915973
1761380638174047200,7.990047119140625,2.019001735341549,4.318762193781137,-4.293106066738069
1761380638184103000,8.00010302734375,1.8856395590782165,4.661929149997234,-4.398574566164613
1761380638194159000,8.0101591796875,1.448059458196163,4.875446812993288,-4.542740460515022
1761380638204215000,8.020215087890625,1.0332271956950425,4.95226234164834,-4.825698154962063
1761380638214270200,8.030270263671875,1.2602554976493119,5.143482248118519,-5.03644810681045
1761380638224326100,8.040326171875,1.8590625177979467,5.33704900997579,-5.073505041050911
1761380638234382000,8.050382080078125,2.657208453464508,5.522410838067532,-4.815390988220274
1761380638244438300,8.060438232421875,3.2655817588597533,5.746955506512522,-4.1328056146666405
1761380638254494200,8.070494140625,2.680904970872402,5.460516984212398,-3.319343744185567
1761380638264549000,8.080549072265624,2.501908001637459,4.988469381061196,-2.5264964994490144
1761380638274605000,8.09060498046875,2.790076708731055,4.327721160784363,-2.0073900618724525
1761380638284661000,8.100660888671875,2.2813784140527247,3.2112668158262965,-1.8006641048431395
1761380638294717200,8.11071728515625,1.6525035878986118,1.5073749859958887,-1.530550694400072
1761380638304773000,8.120773193359375,1.399147835510969,-0.9911299291998147,-1.146695461703837
1761380638314828000,8.130828125,-0.12288871304392814,-2.9360850160777567,-0.7670607693120837
1761380638324884200,8.14088427734375,-2.565527948632836,-4.239298780965805,-0.6595853139773011
1761380638334940200,8.150940185546874,-4.760462589463591,-6.748107648032903,-1.1877543250620364
1761380638344996000,8.16099609375,-7.218892099380493,-8.777404567417502,-0.9559072246491909
1761380638355052300,8.17105224609375,-9.682580552738905,-6.999606374377012,-0.634749271145463
1761380638365107000,8.18110693359375,-9.224016700538993,-3.5863866611421105,-3.3149969471529124
1761380638375163100,8.1911630859375,-8.691976108717919,0.303816942602396,-5.835972345092892
1761380638385219000,8.201218994140625,-8.65558669847548,1.588130776709318,-6.103234457758068
1761380638395275000,8.21127490234375,-7.023342054751515,0.11267945371866225,-4.052811455975473
1761380638405331200,8.221331298828124,-6.653610916736722,-1.1255869149625302,-2.0566735866099597
1761380638415386000,8.23138623046875,-6.597946312659978,-1.4470716162025927,-0.4516122794963419
1761380638425442300,8.2414423828125,-5.565151663163304,-1.5659925946593283,1.7413279726468025
1761380638435498000,8.251498046875,-4.120740790602564,-1.5504396362185477,3.453789624032378
1761380638445554000,8.261553955078124,-3.1926024473667143,-0.7091910564064979,3.741161335529387
1761380638455610000,8.271610107421875,-2.6310937689989804,0.4928495681613683,3.147009155449271
1761380638465665000,8.2816650390625,-1.866122957703471,1.327263333517313,2.783910002794862
1761380638475721200,8.29172119140625,-1.2096563602685928,1.821075609230995,2.6428099257558584
1761380638485777200,8.301777099609374,-0.008499532797932625,2.1722253808945418,2.5113860240787265
1761380638495833000,8.3118330078125,0.6768786863446236,2.577902861559391,2.5647476119101045
1761380638505885200,8.32188525390625,1.6624334457606076,2.9132705422013996,2.5038269870013
1761380638515940000,8.331940185546875,3.4109687194377183,2.930396449047327,2.236255369995534
1761380638525996300,8.341996337890626,4.67747217156589,3.039318011537194,1.9806210051514208
1761380638536052200,8.35205224609375,5.632153069290519,3.5171833610564467,2.287257827480137
1761380638546108000,8.36210791015625,4.283711923187971,3.50401057575047,2.9528663472697136
1761380638556164000,8.3721640625,3.0156355226546525,3.767847974663973,3.436094392865896
1761380638566220000,8.382219970703124,1.8216817584306,4.6936201732903715,3.624579321414232
1761380638576275200,8.392275146484375,0.3786322373509407,5.5361272287309164,3.795527424228191
1761380638586331100,8.4023310546875,-0.4456476720035076,5.857291027453542,3.514217496988177
1761380638596387000,8.412386962890626,0.35904373978376386,6.4471075164169065,3.0074034086212516
1761380638606445000,8.422445068359375,2.1291081237018106,6.757952165699005,2.892545734080672
