time,seconds_elapsed,z,y,x
1761380630300377000,0.116377197265625,-0.4765016734600067,0.06456135213375092,-0.049608636647462845
1761380630310432000,0.126431884765625,-0.41587749123573303,0.2661842405796051,0.025648299604654312
1761380630320488000,0.136488037109375,-0.370191752910614,0.3841273784637451,0.13917912542819977
1761380630330543900,0.1465439453125,-0.36905112862586975,0.49535509943962097,0.23422947525978088
1761380630340600000,0.15660009765625,-0.37702676653862,0.5384926795959473,0.2740978002548218
1761380630350655000,0.166655029296875,-0.3346949815750122,0.5208742022514343,0.2505934536457062
1761380630360711200,0.176711181640625,-0.24706286191940308,0.5212686061859131,0.19331181049346924
1761380630370767000,0.18676708984375,-0.23882021009922028,0.5977295637130737,0.1361847221851349
1761380630380823000,0.196822998046875,-0.21290525794029236,0.6278067827224731,0.11158828437328339
1761380630390878000,0.2068779296875,-0.21310408413410187,0.6119401454925537,0.1009715348482132
1761380630400934000,0.216933837890625,-0.18897691369056702,0.5931667685508728,0.11762695014476776
1761380630410990000,0.226989990234375,-0.10516978055238724,0.6060954928398132,0.15981405973434448
1761380630421046000,0.2370458984375,0.006946105509996414,0.5961478352546692,0.17999176681041718
1761380630431101200,0.24710107421875,0.11741162836551666,0.4993155598640442,0.16160264611244202
1761380630441157000,0.2571572265625,0.2179046869277954,0.3716806173324585,0.10812611132860184
1761380630451213000,0.267213134765625,0.2797418534755707,0.24208669364452362,0.041284020990133286
1761380630461269200,0.277269287109375,0.300039142370224,0.20016826689243317,-0.007921343669295311
1761380630471325200,0.2873251953125,0.29080310463905334,0.20992641150951385,-0.0272158682346344
1761380630481380000,0.297380126953125,0.33657512068748474,0.34895142912864685,-0.018867388367652893
1761380630491436000,0.30743603515625,0.37262535095214844,0.5000617504119873,0.010196734219789505
1761380630501495600,0.31749560546875,0.396902471780777,0.6133329272270203,0.03705524280667305
1761380630511551700,0.3275517578125,0.4260260760784149,0.6119319200515747,0.06609203666448593
1761380630521606700,0.337606689453125,0.4708300232887268,0.5353314280509949,0.13776463270187378
1761380630531662600,0.34766259765625,0.5125036835670471,0.4261021316051483,0.2637065649032593
1761380630541718500,0.357718505859375,0.490127295255661,0.27048352360725403,0.40322187542915344
1761380630551774500,0.3677744140625,0.34844765067100525,0.11122812330722809,0.4790305495262146
1761380630561829600,0.37782958984375,0.13810743391513824,0.032487500458955765,0.4290299713611603
1761380630571885600,0.387885498046875,-0.010974549688398838,0.13293743133544922,0.2930290699005127
1761380630581941500,0.39794140625,-0.06331845372915268,0.3025754392147064,0.15755964815616608
1761380630591997700,0.407997802734375,-0.05739318206906319,0.4055345952510834,0.07715695351362228
1761380630602052600,0.418052490234375,-0.027961786836385727,0.4813667833805084,0.041661009192466736
1761380630612108500,0.428108642578125,-0.001011993270367384,0.4782028794288635,0.03946245089173317
1761380630622164500,0.43816455078125,0.051071181893348694,0.44980692863464355,0.07118682563304901
1761380630632220400,0.448220458984375,0.126241073012352,0.40038207173347473,0.14324620366096497
1761380630642275600,0.458275634765625,0.14813438057899475,0.22940181195735931,0.18886961042881012
1761380630652331500,0.46833154296875,0.1762491762638092,0.03757321834564209,0.20105117559432983
1761380630662387700,0.4783876953125,0.2016000747680664,0.06645999848842621,0.21295897662639618
1761380630672443600,0.488443603515625,0.19558115303516388,0.2412157952785492,0.22561505436897278
1761380630682498600,0.49849853515625,0.06441329419612885,0.2548043131828308,0.2009078413248062
1761380630692554500,0.508554443359375,-0.09498245269060135,0.23579086363315582,0.12482436001300812
1761380630702610400,0.5186103515625,-0.1536223292350769,0.22638458013534546,0.06295779347419739
1761380630712666600,0.52866650390625,-0.12447695434093475,0.2214033603668213,0.034814924001693726
1761380630722721500,0.538721435546875,-0.06079065799713135,0.13625864684581757,0.009027269668877125
1761380630732777500,0.548777587890625,-0.007995663210749626,-0.013171933591365814,-0.01305919699370861
1761380630742833700,0.558833740234375,-0.01505996473133564,-0.0930800810456276,-0.028841353952884674
1761380630752889600,0.5688896484375,-0.04324835538864136,-0.055201206356287,-0.09526349604129791
1761380630762944500,0.578944580078125,-0.05996954068541527,0.10456901788711548,-0.20253989100456238
1761380630773000400,0.58900048828125,-0.08250278234481812,0.2943766415119171,-0.3097313344478607
1761380630783056400,0.599056396484375,-0.09779731184244156,0.4216062128543854,-0.3756384551525116
1761380630793112600,0.609112548828125,-0.0917779728770256,0.412266343832016,-0.3670713007450104
1761380630803167500,0.61916748046875,-0.07737985253334045,0.3071921169757843,-0.2834557592868805
1761380630813223700,0.6292236328125,-0.07017608731985092,0.14191555976867676,-0.16340816020965576
1761380630823279600,0.639279541015625,-0.05993650481104851,-0.06845605373382568,-0.06421525776386261
1761380630833335600,0.64933544921875,-0.04827326908707619,-0.259656697511673,0.0009953584522008896
1761380630843390500,0.659390380859375,-0.04313283786177635,-0.3587411940097809,0.04208500310778618
1761380630853446400,0.6694462890625,-0.04566992446780205,-0.3927209973335266,0.0444076731801033
1761380630863502600,0.679502685546875,-0.0484076552093029,-0.3990857005119324,0.011115760542452335
1761380630873558500,0.68955859375,-0.0493503138422966,-0.38503143191337585,-0.04188697785139084
1761380630883614500,0.699614501953125,-0.02359461598098278,-0.31014788150787354,-0.0942457914352417
1761380630893669600,0.709669677734375,0.02964654192328453,-0.31868183612823486,-0.07057934999465942
1761380630903725600,0.7197255859375,0.054707687348127365,-0.39034271240234375,-0.011085400357842445
1761380630913781800,0.72978173828125,0.05741056799888611,-0.530241847038269,0.06576818972826004
1761380630923837700,0.739837646484375,0.07247341424226761,-0.6483367681503296,0.08135886490345001
1761380630933892600,0.749892578125,0.06731816381216049,-0.7238548398017883,0.010435800999403
1761380630943948500,0.759948486328125,0.06406565010547638,-0.7678717970848083,-0.12795190513134003
1761380630954004500,0.77000439453125,0.07250704616308212,-0.7671610116958618,-0.262773334980011
1761380630964060700,0.780060791015625,0.07007904350757599,-0.724553644657135,-0.35826921463012695
1761380630974115600,0.790115478515625,0.07229481637477875,-0.6745991110801697,-0.3833376169204712
1761380630984171500,0.800171630859375,0.07031102478504181,-0.6452510952949524,-0.33441534638404846
1761380630994227700,0.810227783203125,0.06876204907894135,-0.6579288840293884,-0.23125705122947693
1761380631004283600,0.82028369140625,0.06821663677692413,-0.6849532723426819,-0.11358875781297684
1761380631014338600,0.830338623046875,0.06720956414937973,-0.6924850940704346,-0.030891630798578262
1761380631024394500,0.84039453125,0.0626172125339508,-0.6915455460548401,0.02665182203054428
1761380631034450400,0.850450439453125,0.04764918237924576,-0.662639319896698,0.032380200922489166
1761380631044506600,0.860506591796875,0.0260099358856678,-0.5752202272415161,-0.027082327753305435
1761380631054561500,0.8705615234375,0.016261618584394455,-0.4442065954208374,-0.07955600321292877
1761380631064617700,0.88061767578125,0.009462034329771996,-0.3390181362628937,-0.09606413543224335
1761380631074673700,0.890673583984375,0.01795675978064537,-0.3119102120399475,-0.08016800880432129
1761380631084729600,0.9007294921875,0.04238060861825943,-0.39044392108917236,-0.051376570016145706
1761380631094784500,0.910784423828125,0.08499184250831604,-0.5206283926963806,-0.033239759504795074
1761380631104840400,0.92084033203125,0.14090651273727417,-0.628639280796051,-0.037754882127046585
1761380631114896600,0.930896728515625,0.18586376309394836,-0.6837728023529053,-0.05633285269141197
1761380631124952600,0.94095263671875,0.2049463838338852,-0.6819003224372864,-0.10892469435930252
1761380631135007700,0.9510078125,0.19285432994365692,-0.6658002734184265,-0.19804906845092773
1761380631145063700,0.961063720703125,0.17439009249210358,-0.6134263277053833,-0.31171223521232605
1761380631155119600,0.97111962890625,0.1865895837545395,-0.5354592204093933,-0.3868967294692993
1761380631165175600,0.981175537109375,0.21652457118034363,-0.4626452326774597,-0.4125083386898041
1761380631175230500,0.99123046875,0.2337147444486618,-0.3761305809020996,-0.4293610751628876
1761380631185286400,1.001286376953125,0.23670467734336853,-0.23817643523216248,-0.47763246297836304
1761380631195342600,1.011342529296875,0.23275521397590637,-0.024670278653502464,-0.5824683308601379
1761380631205398500,1.0213984375,0.22172918915748596,0.2730516791343689,-0.7618460655212402
1761380631215453700,1.03145361328125,0.21231968700885773,0.5653417110443115,-0.9647040367126465
1761380631225509600,1.041509521484375,0.20093227922916412,0.7503565549850464,-1.1584728956222534
1761380631235565600,1.051565673828125,0.1991354376077652,0.7993128895759583,-1.296950340270996
1761380631245621800,1.061621826171875,0.2170533537864685,0.7345244288444519,-1.358519196510315
1761380631255677400,1.071677490234375,0.2183864265680313,0.6629995703697205,-1.3671897649765015
1761380631265732600,1.081732666015625,0.16990572214126587,0.6806603074073792,-1.3645833730697632
1761380631275788500,1.09178857421875,0.060241345316171646,0.8676789999008179,-1.3540281057357788
1761380631285844500,1.101844482421875,-0.0972534716129303,1.1837167739868164,-1.3595216274261475
1761380631295900700,1.111900634765625,-0.25482380390167236,1.4916558265686035,-1.364965796470642
1761380631305955600,1.12195556640625,-0.3666920065879822,1.6925959587097168,-1.3407387733459473
1761380631316011800,1.13201171875,-0.40156424045562744,1.77845299243927,-1.2126904726028442
1761380631326067700,1.142067626953125,-0.368905633687973,1.7492815256118774,-0.9831565618515015
1761380631336123400,1.152123291015625,-0.30115848779678345,1.5771336555480957,-0.7241560220718384
1761380631346178600,1.162178466796875,-0.22079358994960785,1.3801889419555664,-0.5019077658653259
1761380631356234500,1.172234375,-0.15580017864704132,1.3508694171905518,-0.33319637179374695
1761380631366290700,1.182290771484375,-0.0981384813785553,1.381819725036621,-0.17468291521072388
1761380631376346600,1.1923466796875,-0.053154148161411285,1.3857632875442505,0.011778024025261402
1761380631386401500,1.202401611328125,-0.02995455078780651,1.30753755569458,0.22380664944648743
1761380631396457700,1.212457763671875,0.016625363379716873,1.2466286420822144,0.3942374885082245
1761380631406513700,1.222513671875,0.04782163351774216,1.300900936126709,0.41273927688598633
1761380631416569300,1.2325693359375,0.08130794763565063,1.412221908569336,0.22236745059490204
1761380631426624500,1.24262451171875,0.17158938944339752,1.559358835220337,-0.08057510107755661
1761380631436680400,1.252680419921875,0.307319313287735,1.667293667793274,-0.3575516641139984
1761380631446736600,1.262736572265625,0.4480993449687958,1.597884178161621,-0.5666564106941223
1761380631456792600,1.27279248046875,0.5576745867729187,1.3933701515197754,-0.6994224786758423
1761380631466847700,1.28284765625,0.6162947416305542,1.171044945716858,-0.7527258992195129
1761380631476903700,1.292903564453125,0.6235232353210449,0.9246433973312378,-0.743685245513916
1761380631486959400,1.30295947265625,0.5990791320800781,0.5651960372924805,-0.6795422434806824
1761380631497012200,1.31301220703125,0.5422735214233398,0.14581646025180817,-0.6158701181411743
1761380631507067100,1.323067138671875,0.46570584177970886,-0.3016934096813202,-0.5247241854667664
1761380631517123300,1.333123291015625,0.525871992111206,-0.38780608773231506,-0.4669564366340637
1761380631527179300,1.34317919921875,0.6098361611366272,-0.28907471895217896,-0.4000927209854126
1761380631537235200,1.353235107421875,0.6232544183731079,-0.16148626804351807,-0.30722346901893616
1761380631547290000,1.3632900390625,0.584168016910553,-0.08608418703079224,-0.19495496153831482
1761380631557346000,1.373345947265625,0.5674265027046204,-0.11037804931402206,-0.10225323587656021
1761380631567402200,1.38340234375,0.5816802978515625,-0.2655961215496063,-0.09273830056190491
1761380631577458200,1.393458251953125,0.6477043628692627,-0.47467175126075745,-0.14328186213970184
1761380631587514000,1.40351416015625,0.7055836319923401,-0.6808462738990784,-0.18660403788089752
1761380631597569300,1.4135693359375,0.761822521686554,-0.7827316522598267,-0.21762531995773315
1761380631607625200,1.423625244140625,0.8032024502754211,-0.8369248509407043,-0.24710969626903534
1761380631617681200,1.43368115234375,0.8347008228302002,-0.9089381694793701,-0.26051485538482666
1761380631627737300,1.4437373046875,0.7949579954147339,-0.9586900472640991,-0.23194928467273712
1761380631637792000,1.4537919921875,0.6683326363563538,-0.9731096625328064,-0.1261012703180313
1761380631647848200,1.46384814453125,0.5343628525733948,-1.1241739988327026,0.15043605864048004
1761380631657904000,1.473904052734375,0.3898806571960449,-1.408549427986145,0.5212224721908569
1761380631667960000,1.4839599609375,0.2215302735567093,-1.7121825218200684,0.8747421503067017
1761380631678015200,1.49401513671875,0.04433031007647514,-1.8973349332809448,1.1333388090133667
1761380631688071200,1.5040712890625,-0.10537689179182053,-1.637062907218933,1.1856180429458618
1761380631698127400,1.51412744140625,-0.21712078154087067,-1.0509061813354492,1.0887725353240967
1761380631708183300,1.524183349609375,-0.32462137937545776,-0.7201849222183228,1.0429896116256714
1761380631718238200,1.53423828125,-0.4130949378013611,-0.9571155905723572,0.9689629077911377
1761380631728294100,1.544294189453125,-0.4464763402938843,-1.698036551475525,0.5212817788124084
1761380631738350000,1.55435009765625,-0.2439972460269928,-2.5804052352905273,-0.17650064826011658
1761380631748406300,1.56440625,0.2113550901412964,-3.3363142013549805,-0.40332818031311035
1761380631758461200,1.574461181640625,0.43086037039756775,-3.851109266281128,-0.04106573015451431
1761380631768517400,1.584517333984375,0.262315571308136,-3.729898691177368,0.4837439954280853
1761380631778573300,1.5945732421875,-0.027210533618927002,-3.005918025970459,0.9904837608337402
1761380631788629200,1.604629150390625,-0.4200094938278198,-2.472191572189331,1.1587241888046265
1761380631798684200,1.61468408203125,-0.772864043712616,-1.6942633390426636,0.8960232734680176
1761380631808740000,1.624739990234375,-0.9765612483024597,-1.0667849779129028,0.429109662771225
1761380631818796000,1.634796142578125,-0.993220865726471,-0.8473930954933167,-0.11747559159994125
1761380631828852200,1.644852294921875,-0.832448422908783,-0.8743727803230286,-0.5961976647377014
1761380631838907100,1.6549072265625,-0.5647369623184204,-1.0521808862686157,-0.9849145412445068
1761380631848963300,1.66496337890625,-0.23692843317985535,-1.2638592720031738,-1.3016632795333862
1761380631859019300,1.675019287109375,0.0272864680737257,-1.4998524188995361,-1.4860032796859741
1761380631869075200,1.6850751953125,0.17773111164569855,-1.5230743885040283,-1.4782177209854126
1761380631879130000,1.695130126953125,0.22265666723251343,-1.2584424018859863,-1.2154878377914429
1761380631889186000,1.70518603515625,0.21469222009181976,-0.9081923365592957,-0.7688013911247253
1761380631899242200,1.7152421875,0.1498062163591385,-0.5500820279121399,-0.24998164176940918
1761380631909298200,1.725298095703125,0.024249091744422913,-0.20935826003551483,0.23516348004341125
1761380631919353300,1.735353271484375,-0.1650920957326889,0.08688598871231079,0.5460759401321411
1761380631929409300,1.7454091796875,-0.37509647011756897,0.2692036032676697,0.6822183132171631
1761380631939465200,1.75546533203125,-0.5762489438056946,0.304544597864151,0.7108282446861267
1761380631949521400,1.765521484375,-0.7862687706947327,0.25732940435409546,0.6543899774551392
1761380631959576000,1.775576171875,-0.9703475832939148,0.273486465215683,0.557486891746521
1761380631969632300,1.78563232421875,-1.0929853916168213,0.4483583867549896,0.35083404183387756
1761380631979688200,1.795688232421875,-1.1394662857055664,0.7254220843315125,0.010718663223087788
1761380631989744000,1.805744140625,-1.1406809091567993,0.9901253581047058,-0.3508640229701996
1761380631999800300,1.81580029296875,-1.1163960695266724,1.2673835754394531,-0.5552635192871094
1761380632009855200,1.825855224609375,-1.0553494691848755,1.6527515649795532,-0.5040439963340759
1761380632019911200,1.8359111328125,-0.9799032211303711,1.9786447286605835,-0.2020212709903717
1761380632029967400,1.84596728515625,-0.9007455706596375,2.246363878250122,0.21141478419303894
1761380632040023000,1.85602294921875,-0.7777944207191467,2.4541232585906982,0.6066576838493347
1761380632050078200,1.866078125,-0.614066481590271,2.538487672805786,0.9062353372573853
1761380632060134100,1.876134033203125,-0.464529424905777,2.5440828800201416,1.0264828205108643
1761380632070190000,1.886190185546875,-0.3224436640739441,2.6586544513702393,1.135655164718628
1761380632080246300,1.896246337890625,-0.16331695020198822,2.5385563373565674,1.3485536575317383
1761380632090301200,1.90630126953125,0.017598770558834076,2.121121644973755,1.2982275485992432
1761380632100357400,1.916357421875,0.33424389362335205,1.5787283182144165,0.7956020832061768
1761380632110413300,1.926413330078125,0.6665645837783813,1.1692941188812256,0.014768581837415695
1761380632120469000,1.936468994140625,0.743664026260376,1.5859447717666626,-0.628201425075531
1761380632130524200,1.946524169921875,0.45212674140930176,2.4022257328033447,-0.7202051281929016
1761380632140580000,1.956580078125,0.04964086040854454,3.4473719596862793,-0.5361211895942688
1761380632150636300,1.96663623046875,-0.2132917046546936,4.64142370223999,-0.4529767632484436
1761380632160692200,1.976692138671875,-0.3146155774593353,5.632495403289795,-0.4408385455608368
1761380632170747400,1.986747314453125,-0.19760027527809143,6.089642524719238,-0.5247792601585388
1761380632180803300,1.99680322265625,0.024774985387921333,5.5351176261901855,-0.6953943967819214
1761380632190859000,2.00685888671875,0.3085220158100128,4.023748874664307,-0.9107248187065125
1761380632200915200,2.016915283203125,0.7540522217750549,2.2822489738464355,-1.0571115016937256
1761380632210970000,2.02697021484375,1.226412057876587,0.9429910182952881,-1.1108088493347168
1761380632221026300,2.0370263671875,1.418371558189392,0.018404684960842133,-0.9960790276527405
1761380632231082200,2.047082275390625,1.3929229974746704,-0.5015152096748352,-0.6568160057067871
1761380632241138200,2.05713818359375,1.3194931745529175,-0.6104556918144226,-0.21711598336696625
1761380632251193300,2.067193359375,1.2345128059387207,-0.3514355719089508,0.19855499267578125
1761380632261249300,2.077249267578125,1.0973066091537476,0.07998374104499817,0.5208146572113037
1761380632271305000,2.087304931640625,0.8948642611503601,0.5325450897216797,0.7267313599586487
1761380632281361200,2.097361083984375,0.7099087834358215,0.9419459700584412,0.6958311200141907
1761380632291416000,2.107416015625,0.5962913632392883,1.1384377479553223,0.475310742855072
1761380632301472300,2.11747216796875,0.5874795317649841,1.2110518217086792,0.09638600051403046
1761380632311528200,2.127528076171875,0.6322166919708252,1.3021255731582642,-0.3280997574329376
1761380632321584000,2.137584228515625,0.6896542310714722,1.1842705011367798,-0.553303599357605
1761380632331639300,2.147639404296875,0.7690364122390747,0.750016450881958,-0.4880218505859375
1761380632341695200,2.1576953125,0.8583678603172302,0.13197946548461914,-0.2380220890045166
1761380632351751200,2.167751220703125,0.9143198132514954,-0.3242778182029724,-0.024860287085175514
1761380632361807000,2.17780712890625,0.8565492630004883,-0.7011407017707825,0.077055923640728
1761380632371862300,2.1878623046875,0.6474153995513916,-0.9566054940223694,0.15980832278728485
1761380632381918200,2.197918212890625,0.38636669516563416,-0.8813020586967468,0.2422621101140976
1761380632391974100,2.20797412109375,0.07837796956300735,-0.47661638259887695,0.2855648696422577
1761380632402030300,2.2180302734375,-0.27204281091690063,0.029536530375480652,0.25954145193099976
1761380632412085200,2.228085205078125,-0.5571461319923401,0.12084832787513733,0.28490087389945984
1761380632422141400,2.238141357421875,-0.6805757284164429,-0.5539048910140991,0.3394351601600647
1761380632432197000,2.248197021484375,-0.6418755054473877,-1.7135138511657715,0.16193735599517822
1761380632442253000,2.258253173828125,-0.48722872138023376,-2.422518253326416,-0.30250611901283264
1761380632452308200,2.26830810546875,-0.43337345123291016,-2.4599804878234863,-0.9488193392753601
1761380632462364200,2.2783642578125,-0.624671220779419,-2.473032236099243,-1.607574224472046
1761380632472420000,2.288420166015625,-0.9606177806854248,-2.6351139545440674,-2.152597188949585
1761380632482476300,2.298476318359375,-1.2870334386825562,-2.93737530708313,-2.556636095046997
1761380632492531200,2.30853125,-1.3997759819030762,-3.6202452182769775,-2.570739269256592
1761380632502587100,2.318587158203125,-1.501038670539856,-4.3347673416137695,-1.9531961679458618
1761380632512643000,2.32864306640625,-1.737446904182434,-4.5401482582092285,-0.8961649537086487
1761380632522699000,2.338698974609375,-1.9014534950256348,-4.257136344909668,0.18790456652641296
1761380632532754200,2.348754150390625,-2.0469634532928467,-3.431239366531372,0.9716662168502808
1761380632542810000,2.35881005859375,-2.141033411026001,-2.425018548965454,1.366592288017273
1761380632552866300,2.3688662109375,-1.9790455102920532,-1.7316068410873413,1.2464842796325684
1761380632562922200,2.378922119140625,-1.5458189249038696,-1.5559163093566895,0.8452500700950623
1761380632572977400,2.388977294921875,-1.0207886695861816,-1.780402421951294,0.3754953444004059
1761380632583033000,2.399033203125,-0.529272198677063,-2.0649399757385254,-0.12630131840705872
1761380632593089000,2.409089111328125,-0.07662882655858994,-2.2990784645080566,-0.6127330660820007
1761380632603145200,2.419145263671875,0.31825360655784607,-2.5832083225250244,-1.048506498336792
1761380632613200100,2.4292001953125,0.6216880083084106,-2.8677918910980225,-1.2577561140060425
1761380632623256300,2.43925634765625,0.7083847522735596,-3.0242600440979004,-0.9845870137214661
1761380632633312300,2.449312255859375,0.5483644604682922,-2.7078099250793457,-0.26419132947921753
1761380632643368200,2.4593681640625,0.11684384196996689,-1.9501124620437622,0.55577152967453
1761380632653423400,2.46942333984375,-0.40917468070983887,-1.3182703256607056,1.2014309167861938
1761380632663479000,2.47947900390625,-0.8650431632995605,-0.6095997095108032,1.4776450395584106
1761380632673535200,2.48953515625,-1.1430920362472534,0.10079582035541534,1.4116694927215576
1761380632683591200,2.499591064453125,-1.24250066280365,0.47666117548942566,1.0910882949829102
1761380632693646000,2.50964599609375,-1.2315969467163086,0.7530954480171204,0.5421133637428284
1761380632703702300,2.519702392578125,-1.0382853746414185,1.0349091291427612,0.06917513906955719
1761380632713758200,2.52975830078125,-0.6750397086143494,1.092476487159729,-0.22588872909545898
1761380632723814100,2.539814208984375,-0.12173280119895935,0.9721524119377136,-0.2098277509212494
1761380632733869300,2.549869384765625,0.3883749544620514,0.8616805076599121,0.12327057868242264
1761380632743925000,2.559925048828125,0.6594691872596741,0.9578586220741272,0.7764368653297424
1761380632753981200,2.569981201171875,0.7024536728858948,1.2590290307998657,1.5588970184326172
1761380632764037000,2.580037109375,0.5229743719100952,1.645516037940979,2.0753273963928223
1761380632774092300,2.59009228515625,0.2806727886199951,1.8975436687469482,2.0943965911865234
1761380632784148200,2.600148193359375,0.17053204774856567,2.007845163345337,1.6707696914672852
1761380632794204200,2.6102041015625,0.3334149718284607,2.0826988220214844,1.0870745182037354
1761380632804260400,2.62026025390625,0.6655115485191345,2.1763710975646973,0.9541974067687988
1761380632814315000,2.63031494140625,0.8749510645866394,2.3672354221343994,1.2697803974151611
1761380632824371200,2.64037109375,0.8292173743247986,2.3432068824768066,1.2516086101531982
1761380632834427100,2.65042724609375,0.7687162160873413,2.0745651721954346,0.8218404054641724
1761380632844483000,2.660483154296875,0.6449015736579895,1.8732022047042847,0.3261350393295288
1761380632854538200,2.670538330078125,0.4990615248680115,2.4493179321289062,0.12245010584592819
1761380632864594200,2.68059423828125,0.3050144612789154,3.2752866744995117,0.0386541374027729
1761380632874650000,2.690650146484375,0.02956746704876423,3.5333006381988525,0.1261163353919983
1761380632884706300,2.700706298828125,0.034910157322883606,3.5184061527252197,0.6853194236755371
1761380632894761000,2.710760986328125,0.1911650151014328,3.4431629180908203,1.4162757396697998
1761380632904817200,2.720817138671875,0.26701176166534424,3.3239238262176514,2.002758741378784
1761380632914873000,2.730873046875,0.28378862142562866,2.9932515621185303,2.2763397693634033
1761380632924929000,2.740928955078125,0.3233001232147217,2.4007322788238525,2.1976616382598877
1761380632934984200,2.750984130859375,0.4033965468406677,1.7024720907211304,1.844735026359558
1761380632945040100,2.7610400390625,0.48365622758865356,0.9910493493080139,1.3522005081176758
1761380632955096300,2.771096435546875,0.5429059863090515,0.4472272992134094,0.8930829167366028
1761380632965152300,2.78115234375,0.5717989206314087,0.1364082396030426,0.5093068480491638
1761380632975207200,2.791207275390625,0.6011541485786438,0.0954860970377922,0.17045503854751587
1761380632985263000,2.80126318359375,0.6548706889152527,0.2477727085351944,-0.11501377820968628
1761380632995319000,2.811319091796875,0.7272500991821289,0.4493497908115387,-0.2515258193016052
1761380633005375200,2.821375244140625,0.7559881806373596,0.6466452479362488,-0.19635847210884094
1761380633015430100,2.83143017578125,0.7564683556556702,0.8058388829231262,-0.053594935685396194
1761380633025486300,2.841486328125,0.7623093128204346,0.9114333987236023,0.09289458394050598
1761380633035542300,2.851542236328125,0.7289242148399353,0.8538973927497864,0.18662001192569733
1761380633045597400,2.861597412109375,0.6279212236404419,0.4900527596473694,0.18660524487495422
1761380633055653000,2.871653076171875,0.5517668128013611,0.02331407554447651,0.16203811764717102
1761380633065709000,2.881708984375,0.5155681371688843,-0.3882538080215454,0.1224697083234787
1761380633075765200,2.89176513671875,0.3728567361831665,-0.6125969290733337,0.1162877157330513
1761380633085820200,2.901820068359375,0.11432226002216339,-0.6267026662826538,0.15836679935455322
1761380633095876000,2.9118759765625,-0.13867351412773132,-0.377013236284256,0.18035173416137695
1761380633105932300,2.921932373046875,-0.2974519729614258,-0.12032178044319153,0.12439578771591187
1761380633115988200,2.93198828125,-0.3623958230018616,-0.08473342657089233,-0.03896597772836685
1761380633126043100,2.942043212890625,-0.30325549840927124,-0.35860133171081543,-0.286817342042923
1761380633136099000,2.95209912109375,-0.08074679225683212,-0.9031118154525757,-0.45439276099205017
1761380633146155000,2.962155029296875,0.2707871198654175,-1.8651162385940552,-0.5046241879463196
1761380633156211200,2.972211181640625,0.651132345199585,-3.0168118476867676,-0.5836095213890076
1761380633166266000,2.98226611328125,0.8911822438240051,-3.5261590480804443,-0.5827212333679199
1761380633176322300,2.992322265625,0.47852811217308044,-3.4277184009552,-0.4793122708797455
1761380633186378200,3.002378173828125,-0.380391389131546,-3.2627227306365967,-0.6517544984817505
1761380633196434200,3.01243408203125,-1.06082284450531,-3.14250111579895,-1.371920108795166
1761380633206489000,3.022489013671875,-1.1643131971359253,-2.9842045307159424,-2.1266207695007324
1761380633216545000,3.032544921875,-0.876746654510498,-3.3441123962402344,-2.0255258083343506
1761380633226601200,3.042601318359375,-0.6370363831520081,-4.128973484039307,-1.1500568389892578
1761380633236657200,3.0526572265625,-0.627250611782074,-4.312499523162842,-0.27440768480300903
1761380633246712300,3.06271240234375,-0.6405344605445862,-3.9256973266601562,0.1685764342546463
1761380633256768300,3.072768310546875,-0.5291621088981628,-3.5203213691711426,0.30706214904785156
1761380633266824200,3.08282421875,-0.31521081924438477,-3.307138442993164,0.28374648094177246
1761380633276880400,3.09288037109375,-0.05690868943929672,-3.1082210540771484,0.007166283205151558
1761380633286935000,3.10293505859375,0.21079176664352417,-2.8041913509368896,-0.4924837350845337
1761380633296991200,3.1129912109375,0.39127257466316223,-2.457468271255493,-0.9948661923408508
1761380633307047200,3.123047119140625,0.4355902373790741,-2.177457094192505,-1.3566267490386963
1761380633317103000,3.13310302734375,0.4070081412792206,-2.0531530380249023,-1.5182219743728638
1761380633327158300,3.143158203125,0.38631555438041687,-1.9212672710418701,-1.4959125518798828
1761380633337214200,3.153214111328125,0.38466307520866394,-1.7694615125656128,-1.2966047525405884
1761380633347270100,3.163270263671875,0.41169437766075134,-1.6361875534057617,-0.8930307030677795
1761380633357326300,3.173326416015625,0.44342541694641113,-1.5381598472595215,-0.4283732771873474
1761380633367381000,3.183381103515625,0.45820143818855286,-1.3369022607803345,-0.09851854294538498
1761380633377437200,3.193437255859375,0.41775786876678467,-1.1340628862380981,0.001975308172404766
1761380633387493000,3.2034931640625,0.32343170046806335,-0.8482544422149658,-0.06450754404067993
1761380633397549000,3.213549072265625,0.10926106572151184,-0.49796703457832336,-0.12694428861141205
1761380633407604200,3.223604248046875,-0.24161988496780396,-0.2405480295419693,-0.17697395384311676
1761380633417660200,3.23366015625,-0.6577116250991821,-0.08431421220302582,-0.2309700846672058
1761380633427716400,3.24371630859375,-0.9823325276374817,0.057442404329776764,-0.2760165333747864
1761380633437772300,3.253772216796875,-1.0927770137786865,0.15110604465007782,-0.43233850598335266
1761380633447827200,3.2638271484375,-1.02774178981781,0.24588721990585327,-0.6127068400382996
1761380633457883100,3.273883056640625,-0.9154331088066101,0.37704843282699585,-0.6801173090934753
1761380633467939000,3.28393896484375,-0.8178311586380005,0.5022526979446411,-0.6541885137557983
1761380633477995300,3.293995361328125,-0.8040136098861694,0.8565279841423035,-0.6089789271354675
1761380633488050200,3.30405029296875,-0.865299642086029,1.4838758707046509,-0.6129140853881836
1761380633498106400,3.3141064453125,-0.8945654034614563,2.0954525470733643,-0.6017565131187439
1761380633508162600,3.32416259765625,-0.8289451003074646,2.449568748474121,-0.572726309299469
1761380633518218500,3.334218505859375,-0.740388035774231,2.643187999725342,-0.5727683901786804
1761380633528273400,3.3442734375,-0.672720730304718,2.5797598361968994,-0.49589383602142334
1761380633538329300,3.354329345703125,-0.5745247006416321,2.718661308288574,-0.19809038937091827
1761380633548385300,3.36438525390625,-0.3276772201061249,2.8032891750335693,0.8044564127922058
1761380633558441500,3.37444140625,-0.32824501395225525,2.8316569328308105,1.931203842163086
1761380633568496400,3.384496337890625,-0.3553871512413025,2.913252830505371,2.285588502883911
1761380633578552600,3.394552490234375,-0.07471313327550888,2.5736007690429688,1.8549120426177979
1761380633588608500,3.4046083984375,0.44167453050613403,2.380054473876953,1.2194135189056396
1761380633598664400,3.41466455078125,0.7442461252212524,2.956547260284424,0.8843498229980469
1761380633608719400,3.42471923828125,0.6183947920799255,3.690121650695801,0.6051077842712402
1761380633618775300,3.434775390625,0.4098722040653229,4.45380973815918,0.3022565245628357
1761380633628831500,3.44483154296875,0.4036311209201813,4.979310989379883,-0.13475404679775238
1761380633638887400,3.454887451171875,0.5053305625915527,5.184902191162109,-0.7448599934577942
1761380633648942600,3.464942626953125,0.5933046340942383,5.251380920410156,-1.319095253944397
1761380633658998500,3.47499853515625,0.6586951017379761,5.562082290649414,-1.7647051811218262
1761380633669054500,3.485054443359375,0.7100364565849304,4.9952521324157715,-1.7684223651885986
1761380633679110400,3.4951103515625,0.6960296034812927,3.5188450813293457,-1.4808518886566162
1761380633689165300,3.505165283203125,0.532351553440094,1.7921591997146606,-1.0176570415496826
1761380633699221200,3.51522119140625,0.28803080320358276,0.55612713098526,-0.46948444843292236
1761380633709277400,3.52527734375,0.018802765756845474,-0.20879390835762024,-0.13380643725395203
1761380633719333400,3.53533349609375,-0.28004491329193115,-0.5341675281524658,-0.029421450570225716
1761380633729388500,3.545388427734375,-0.4303513467311859,-0.2880634367465973,0.05716381222009659
1761380633739444500,3.555444580078125,-0.38680973649024963,0.25672638416290283,0.07800863683223724
1761380633749500400,3.56550048828125,-0.2635379135608673,0.7214584946632385,-0.02270757406949997
1761380633759556600,3.575556640625,-0.07657015323638916,0.8841126561164856,-0.24875961244106293
1761380633769611300,3.585611328125,0.08171742409467697,0.7097732424736023,-0.5420328378677368
1761380633779667500,3.59566748046875,0.22058449685573578,0.4357196092605591,-0.7245171666145325
1761380633789723400,3.605723388671875,0.3719303011894226,0.13745522499084473,-0.709434986114502
1761380633799779300,3.615779296875,0.485099732875824,-0.18063779175281525,-0.5563295483589172
1761380633809834500,3.62583447265625,0.5577720999717712,-0.4631136655807495,-0.32826152443885803
1761380633819890400,3.635890380859375,0.6179878115653992,-0.6851962208747864,-0.007884813472628593
1761380633829946600,3.645946533203125,0.6301461458206177,-0.8603844046592712,0.40937644243240356
1761380633840002600,3.65600244140625,0.597993791103363,-1.0543519258499146,0.8526012897491455
1761380633850057500,3.666057373046875,0.5319277048110962,-1.3684931993484497,1.1619389057159424
1761380633860113400,3.676113525390625,0.3897152245044708,-1.660514235496521,1.1515402793884277
1761380633870169300,3.68616943359375,0.131696879863739,-1.6417783498764038,0.8209262490272522
1761380633880225500,3.6962255859375,-0.12900926172733307,-1.5224108695983887,0.4075418710708618
1761380633890280400,3.706280517578125,-0.31996139883995056,-1.4810295104980469,-0.0025411115493625402
1761380633900336400,3.71633642578125,-0.3596765697002411,-1.3473529815673828,-0.2665216326713562
1761380633910392600,3.726392578125,-0.34268125891685486,-1.9206210374832153,-0.4194469749927521
1761380633920448500,3.736448486328125,-0.3650190532207489,-3.6006953716278076,-0.995414674282074
1761380633930503400,3.74650341796875,-0.2682732939720154,-5.1827073097229,-1.7866727113723755
1761380633940559400,3.756559326171875,-0.0552837960422039,-5.813464164733887,-2.122476577758789
1761380633950615300,3.766615234375,0.007341811433434486,-5.669895648956299,-1.8776240348815918
1761380633960671500,3.77667138671875,-0.13074840605258942,-5.1171793937683105,-1.18308687210083
1761380633970726400,3.786726318359375,-0.4539438486099243,-4.362818241119385,-0.36329978704452515
1761380633980782600,3.796782470703125,-0.7843495011329651,-3.370060443878174,0.4522024989128113
1761380633990838500,3.806838623046875,-1.0342673063278198,-2.3871188163757324,1.0850563049316406
1761380634000894500,3.81689453125,-1.1979694366455078,-1.6505869626998901,1.4312206506729126
1761380634010950700,3.82695068359375,-1.3284759521484375,-1.5376039743423462,1.297061562538147
1761380634021005300,3.83700537109375,-1.3497616052627563,-1.6400065422058105,0.699596107006073
1761380634031061500,3.8470615234375,-1.2545465230941772,-1.4395637512207031,-0.08820642530918121
1761380634041117400,3.857117431640625,-1.1438982486724854,-1.0385842323303223,-0.8053994178771973
1761380634051173400,3.86717333984375,-1.037623643875122,-0.7542909383773804,-1.249402642250061
1761380634061228500,3.877228515625,-0.9965296983718872,-0.7485347390174866,-1.3429899215698242
1761380634071284500,3.887284423828125,-1.0491852760314941,-0.8628041744232178,-1.0755085945129395
1761380634081340700,3.897340576171875,-1.169173002243042,-0.9742801189422607,-0.5773252248764038
1761380634091396400,3.907396240234375,-1.312043309211731,-1.0291812419891357,-0.08136050403118134
1761380634101451500,3.917451416015625,-1.4387096166610718,-0.9396336078643799,0.3085654377937317
1761380634111507500,3.927507568359375,-1.5293668508529663,-0.6527422666549683,0.4441668391227722
1761380634121563400,3.9375634765625,-1.5402504205703735,-0.27598461508750916,0.46045711636543274
1761380634131619300,3.947619384765625,-1.4398196935653687,-0.03300422802567482,0.5767726898193359
1761380634141674500,3.957674560546875,-1.2857131958007812,-0.12478820979595184,0.8641040325164795
1761380634151730400,3.96773046875,-1.1254674196243286,-0.554303765296936,1.260176658630371
1761380634161786600,3.97778662109375,-0.8941677808761597,-1.09354567527771,1.6820544004440308
1761380634171842300,3.98784228515625,-0.6944051384925842,-1.1698012351989746,1.966813325881958
1761380634181897500,3.9978974609375,-0.5269581079483032,-0.5453150868415833,2.0017659664154053
1761380634191953400,4.007953369140625,-0.4169319272041321,0.6246223449707031,1.7036559581756592
1761380634202007600,4.018007568359375,-0.39051178097724915,1.9373698234558105,1.1516577005386353
1761380634212063500,4.0280634765625,-0.3407975137233734,2.841625213623047,0.5492851734161377
1761380634222118400,4.038118408203125,-0.27199819684028625,3.1424872875213623,0.1253618448972702
1761380634232174300,4.04817431640625,-0.10636232048273087,2.8652307987213135,0.12482380867004395
1761380634242230500,4.05823046875,0.12463920563459396,2.2144033908843994,0.6801515221595764
1761380634252286500,4.068286376953125,0.41311928629875183,1.4972339868545532,1.6612286567687988
1761380634262342400,4.07834228515625,0.6074988842010498,1.136906385421753,2.5380725860595703
1761380634272397600,4.0883974609375,0.702849268913269,0.6279177069664001,2.429109573364258
1761380634282453500,4.09845361328125,0.9557214379310608,-0.14885258674621582,1.063869595527649
1761380634292509400,4.108509521484375,1.2443511486053467,0.23809117078781128,-0.4784650504589081
1761380634302565400,4.1185654296875,1.0201479196548462,1.726325273513794,-1.072486400604248
1761380634312620300,4.128620361328125,0.34585174918174744,2.7381505966186523,-0.85125732421875
1761380634322676500,4.138676513671875,-0.36547085642814636,3.504889726638794,-0.1988651305437088
1761380634332732400,4.148732421875,-0.9422305822372437,4.223554611206055,0.5351541638374329
1761380634342788400,4.158788330078125,-1.186301350593567,4.766448497772217,1.159166693687439
1761380634352843500,4.168843505859375,-1.115277647972107,4.671004295349121,1.367060899734497
1761380634362899500,4.1788994140625,-0.7395082712173462,3.9869024753570557,0.9537236094474792
1761380634372955600,4.18895556640625,-0.16232556104660034,3.287299633026123,-0.027896398678421974
1761380634383011300,4.19901123046875,0.40632084012031555,2.880497694015503,-1.2432235479354858
1761380634393066500,4.20906640625,0.9110007882118225,2.561095952987671,-2.2563345432281494
1761380634403122400,4.219122314453125,1.378108024597168,2.2122974395751953,-2.68341326713562
1761380634413178400,4.229178466796875,1.7305731773376465,1.8606926202774048,-2.488828182220459
1761380634423234600,4.239234619140625,1.9126750230789185,1.57740318775177,-1.9062771797180176
1761380634433289500,4.24928955078125,1.8983354568481445,1.2915791273117065,-1.134615421295166
1761380634443345700,4.259345703125,1.728268027305603,0.9170679450035095,-0.4584740996360779
1761380634453401600,4.269401611328125,1.4983956813812256,0.8474099636077881,0.04317883402109146
1761380634463457300,4.279457275390625,1.2483501434326172,1.1766599416732788,0.3627437651157379
1761380634473513500,4.289513427734375,1.0014619827270508,1.3451265096664429,0.3989645540714264
1761380634483568400,4.299568359375,0.8358211517333984,1.081608533859253,0.10935857146978378
1761380634493624600,4.30962451171875,0.7811590433120728,0.6143527030944824,-0.3131893575191498
1761380634503683600,4.31968359375,0.7968661189079285,0.31007859110832214,-0.5796722173690796
1761380634513739500,4.329739501953125,0.7718071341514587,0.2815636396408081,-0.6379258632659912
1761380634523794400,4.33979443359375,0.6201521158218384,0.2712361514568329,-0.48528650403022766
1761380634533850400,4.349850341796875,0.4084045886993408,0.20481695234775543,-0.11569932103157043
1761380634543906600,4.359906494140625,0.1979307383298874,-0.1504785567522049,0.32842010259628296
1761380634553962500,4.36996240234375,0.09944787621498108,-0.9782450795173645,0.6525104641914368
1761380634564017400,4.380017333984375,0.09525498747825623,-2.129225254058838,0.655640721321106
1761380634574073600,4.390073486328125,0.11186613142490387,-3.1031947135925293,0.33481720089912415
1761380634584129500,4.400129638671875,0.15147985517978668,-3.6632397174835205,-0.17870576679706573
1761380634594185500,4.410185546875,0.011588731780648232,-3.667154312133789,-0.6912291646003723
1761380634604240400,4.420240478515625,-0.47293800115585327,-3.046633243560791,-0.9284979104995728
1761380634614296300,4.43029638671875,-1.0785152912139893,-3.1221461296081543,-0.8713377714157104
1761380634624352500,4.4403525390625,-1.5558197498321533,-3.695629596710205,-1.2317118644714355
1761380634634408400,4.450408447265625,-1.6145521402359009,-3.723723888397217,-2.131737470626831
1761380634644464400,4.46046435546875,-1.3320016860961914,-3.5743701457977295,-2.565274953842163
1761380634654519600,4.47051953125,-1.2159032821655273,-3.710197687149048,-2.3862991333007812
1761380634664575500,4.480575439453125,-1.3687703609466553,-3.5867059230804443,-1.9012036323547363
1761380634674631700,4.490631591796875,-1.4350394010543823,-3.139028310775757,-1.2032612562179565
1761380634684687400,4.500687255859375,-1.3700721263885498,-2.652411460876465,-0.5506725311279297
1761380634694742500,4.510742431640625,-1.3474323749542236,-2.127013921737671,-0.37146425247192383
1761380634704798500,4.520798583984375,-1.2842528820037842,-1.4099420309066772,-0.5673133730888367
1761380634714854400,4.5308544921875,-1.1993159055709839,-0.6742760539054871,-0.7880229353904724
1761380634724910600,4.54091064453125,-1.1292314529418945,-0.4507633447647095,-0.862480640411377
1761380634734965500,4.550965576171875,-0.9996011257171631,-1.0331686735153198,-0.8856627345085144
1761380634745021700,4.561021728515625,-0.7210033535957336,-1.9381699562072754,-0.9348720908164978
1761380634755077600,4.57107763671875,-0.48198774456977844,-2.7731399536132812,-1.003905177116394
1761380634765133300,4.58113330078125,-0.32982325553894043,-3.3275301456451416,-1.064671516418457
1761380634775188500,4.5911884765625,-0.27510523796081543,-3.316279172897339,-1.2297948598861694
1761380634785244400,4.601244384765625,-0.24040718376636505,-3.323800802230835,-1.339120864868164
1761380634795300600,4.611300537109375,-0.17729990184307098,-2.986929416656494,-0.9711787700653076
1761380634805356500,4.6213564453125,-0.28632545471191406,-2.1738314628601074,-0.20361316204071045
1761380634815412500,4.63141259765625,-0.5809674859046936,-1.290796160697937,0.533272385597229
1761380634825467600,4.641467529296875,-0.9602990746498108,-0.5444406867027283,0.9488874077796936
1761380634835523600,4.651523681640625,-1.3601353168487549,0.11692310869693756,1.0194315910339355
1761380634845579300,4.661579345703125,-1.7113771438598633,0.7098138332366943,0.8129944801330566
1761380634855635500,4.671635498046875,-1.958383560180664,1.1526305675506592,0.5756948590278625
1761380634865690400,4.6816904296875,-1.9909039735794067,1.3366271257400513,0.5549275279045105
1761380634875746600,4.69174658203125,-1.8374786376953125,1.3006904125213623,0.7197597622871399
1761380634885802500,4.701802490234375,-1.5624300241470337,1.2347439527511597,0.9505181312561035
1761380634895858400,4.7118583984375,-1.1557921171188354,1.1735831499099731,1.1246421337127686
1761380634905913600,4.72191357421875,-0.6509683132171631,1.094636082649231,1.1635408401489258
1761380634915969300,4.73196923828125,-0.1635921746492386,1.0257459878921509,1.0150797367095947
1761380634926025500,4.742025390625,0.23319165408611298,1.033119559288025,0.7184685468673706
1761380634936081400,4.752081298828125,0.4736785888671875,1.1595312356948853,0.46000128984451294
1761380634946137300,4.762137451171875,0.5521619319915771,1.1276265382766724,0.4565945565700531
1761380634956192500,4.772192626953125,0.6481166481971741,0.6614738702774048,1.034543752670288
1761380634966248400,4.78224853515625,0.7568085193634033,0.10881336033344269,1.8724168539047241
1761380634976304600,4.7923046875,0.7705731987953186,0.0374729298055172,2.113039970397949
1761380634986360600,4.802360595703125,0.8364347815513611,0.04493696987628937,1.250113844871521
1761380634996415500,4.81241552734375,0.9814006686210632,0.2538142502307892,-0.23164357244968414
1761380635006471400,4.822471435546875,1.0525825023651123,1.1632238626480103,-1.3718565702438354
1761380635016527400,4.83252734375,0.8736521005630493,2.308131694793701,-1.7031078338623047
1761380635026583600,4.84258349609375,0.5670940279960632,3.618891477584839,-1.2847415208816528
1761380635036639500,4.852639404296875,0.3791787326335907,4.68865966796875,-0.30979156494140625
1761380635046694400,4.8626943359375,0.39863285422325134,5.00002384185791,0.8549999594688416
1761380635056750600,4.87275048828125,0.42490702867507935,4.4939141273498535,1.5965042114257812
1761380635066806500,4.882806640625,0.5135149359703064,3.4787919521331787,1.6360125541687012
1761380635076862500,4.892862548828125,0.7259974479675293,2.256145477294922,1.1130497455596924
1761380635086917400,4.90291748046875,0.9473804235458374,1.0583605766296387,0.393064945936203
1761380635096973300,4.912973388671875,1.1361775398254395,0.04427260160446167,-0.20822617411613464
1761380635107029500,4.923029541015625,1.238401174545288,-0.7550403475761414,-0.5219247341156006
1761380635117085400,4.93308544921875,1.2049410343170166,-1.0789326429367065,-0.5494343638420105
1761380635127140600,4.943140625,1.0865834951400757,-0.8390915393829346,-0.3224955201148987
1761380635137196500,4.953196533203125,0.9553729891777039,-0.21329866349697113,0.10085687786340714
1761380635147252500,4.96325244140625,0.8022719025611877,0.4551433324813843,0.6266698241233826
1761380635157308700,4.97330859375,0.6517999768257141,0.8959974646568298,1.0776004791259766
1761380635167364600,4.983364501953125,0.5169470906257629,1.0225619077682495,1.3544353246688843
1761380635177419500,4.99341943359375,0.46771469712257385,0.8016079068183899,1.4291698932647705
1761380635187475500,5.003475341796875,0.5167983174324036,0.3205513060092926,1.261176586151123
1761380635197531400,5.013531494140625,0.5892972946166992,-0.18081170320510864,0.9476046562194824
1761380635207587600,5.023587646484375,0.6115218997001648,-0.5517271757125854,0.5537489652633667
1761380635217642500,5.033642578125,0.6428766250610352,-0.8439831733703613,0.14009186625480652
1761380635227698700,5.04369873046875,0.6966780424118042,-0.9911638498306274,-0.13604038953781128
1761380635237754600,5.053754638671875,0.6887233257293701,-1.2393722534179688,-0.18370603024959564
1761380635247810600,5.063810546875,0.5928646922111511,-1.7041819095611572,-0.02163270302116871
1761380635257866500,5.073866455078125,0.426373690366745,-2.250668525695801,0.19778138399124146
1761380635267921400,5.08392138671875,0.22099602222442627,-2.791360855102539,0.2767214775085449
1761380635277977300,5.093977294921875,0.026276448741555214,-3.203841209411621,0.17208170890808105
1761380635288033500,5.104033447265625,-0.1818365454673767,-3.362940788269043,0.008015545085072517
1761380635298089500,5.11408935546875,-0.3722369074821472,-3.4862730503082275,-0.2693628668785095
1761380635308144600,5.12414453125,-0.4763593077659607,-3.618678092956543,-0.6033632159233093
1761380635318200600,5.13420068359375,-0.5582902431488037,-3.6145732402801514,-0.7605385184288025
1761380635328256500,5.144256591796875,-0.8226960897445679,-3.1028480529785156,-0.6203920841217041
1761380635338312400,5.1543125,-1.3402845859527588,-2.487527370452881,-0.18561869859695435
1761380635348368400,5.164368408203125,-1.8792632818222046,-2.2495639324188232,-0.13121192157268524
1761380635358423600,5.174423583984375,-2.124075412750244,-1.8815144300460815,-1.1120535135269165
1761380635368479500,5.1844794921875,-1.8075132369995117,-1.8122429847717285,-1.9876713752746582
1761380635378535400,5.194535400390625,-1.3560577630996704,-2.661823034286499,-2.14223313331604
1761380635388591600,5.204591552734375,-1.074411153793335,-3.804600238800049,-1.7571839094161987
1761380635398646500,5.214646484375,-0.948319673538208,-3.9827213287353516,-0.8878042697906494
1761380635408702500,5.224702392578125,-0.8586805462837219,-3.237013101577759,0.1911674439907074
1761380635418758400,5.23475830078125,-0.6843571662902832,-2.217808723449707,1.0077166557312012
1761380635428814300,5.244814453125,-0.34254685044288635,-1.5833473205566406,1.2699391841888428
1761380635438870500,5.25487060546875,0.03369826823472977,-1.4290270805358887,1.0697325468063354
1761380635448925400,5.264925537109375,0.3475336730480194,-1.3398053646087646,0.7238650321960449
1761380635458981600,5.274981689453125,0.5694783329963684,-1.2154818773269653,0.36138132214546204
1761380635469037600,5.28503759765625,0.6753917336463928,-1.210109829902649,0.029269950464367867
1761380635479093500,5.295093505859375,0.6771886944770813,-1.2515100240707397,-0.18375356495380402
1761380635489149700,5.305149658203125,0.6224897503852844,-1.2420105934143066,-0.15946820378303528
1761380635499204400,5.315204345703125,0.5482486486434937,-1.1250522136688232,0.010389777831733227
1761380635509260500,5.325260498046875,0.48444652557373047,-0.9088069796562195,0.1640046387910843
1761380635519316500,5.33531640625,0.3540019392967224,-0.7422773838043213,0.20547978579998016
1761380635529372400,5.345372314453125,0.08917030692100525,-0.60056471824646,0.06216869875788689
1761380635539427600,5.355427490234375,-0.2545807957649231,-0.31545987725257874,-0.17716677486896515
1761380635549483500,5.3654833984375,-0.602461576461792,0.298919141292572,-0.4093121290206909
1761380635559539500,5.37553955078125,-0.9678114652633667,0.7539981603622437,-0.5712996125221252
1761380635569595400,5.385595458984375,-1.2844537496566772,0.9429406523704529,-0.6041707396507263
1761380635579651300,5.3956513671875,-1.4600917100906372,1.099011778831482,-0.4878883361816406
1761380635589706500,5.40570654296875,-1.516296625137329,1.2167056798934937,-0.2755845785140991
1761380635599762400,5.415762451171875,-1.497345209121704,1.3197141885757446,0.027324847877025604
1761380635609818400,5.425818359375,-1.4619419574737549,1.4514575004577637,0.46460577845573425
1761380635619874600,5.43587451171875,-1.392317295074463,1.6563113927841187,0.9356526732444763
1761380635629930500,5.445930419921875,-1.2470519542694092,1.8972039222717285,1.2392197847366333
1761380635639985700,5.455985595703125,-1.0674067735671997,2.07468318939209,1.2604541778564453
1761380635650041300,5.466041259765625,-0.8788672089576721,2.024559497833252,0.9371781349182129
1761380635660097300,5.47609716796875,-0.6618089079856873,1.8892903327941895,0.4448692798614502
1761380635670153500,5.486153564453125,-0.42836683988571167,1.850663661956787,0.02375560998916626
1761380635680208400,5.49620849609375,-0.23534546792507172,1.9879801273345947,-0.28466421365737915
1761380635690264600,5.5062646484375,-0.08649526536464691,2.3342223167419434,-0.18331071734428406
1761380635700320500,5.516320556640625,-0.03351379558444023,2.570021390914917,0.4711156189441681
1761380635710376400,5.52637646484375,-0.13123956322669983,2.558953285217285,0.7549441456794739
1761380635720432600,5.5364326171875,-0.09205318242311478,2.435781955718994,0.08923952281475067
1761380635730487300,5.5464873046875,0.23269453644752502,2.275312900543213,-1.1187657117843628
1761380635740543500,5.55654345703125,0.6602722406387329,2.7416434288024902,-2.0226566791534424
1761380635750599400,5.566599365234375,0.8883491158485413,3.719574451446533,-2.2053093910217285
1761380635760655400,5.5766552734375,0.8633301854133606,4.617391586303711,-1.9317476749420166
1761380635770710500,5.58671044921875,0.7262082695960999,4.965901851654053,-1.5449138879776
1761380635780766500,5.596766357421875,0.615974485874176,4.941293239593506,-1.0201313495635986
1761380635790822400,5.606822509765625,0.4825887680053711,4.627025604248047,-0.3504067063331604
1761380635800878600,5.616878662109375,0.4196510910987854,3.8436965942382812,0.3012741208076477
1761380635810934500,5.6269345703125,0.5426427721977234,2.939361095428467,0.6832877397537231
1761380635820989400,5.636989501953125,0.7967571020126343,2.274308919906616,0.6405278444290161
1761380635831045400,5.64704541015625,1.0794916152954102,1.9439492225646973,0.37953272461891174
1761380635841101300,5.657101318359375,1.3599061965942383,1.6560258865356445,0.1423964649438858
1761380635851157500,5.667157470703125,1.6076130867004395,1.2333271503448486,-0.07049956172704697
1761380635861213400,5.67721337890625,1.8007640838623047,0.6906080842018127,-0.2876890301704407
1761380635871268600,5.6872685546875,1.9270272254943848,0.1949884593486786,-0.5002799034118652
1761380635881324500,5.697324462890625,2.044978141784668,-0.019549435004591942,-0.7387967705726624
1761380635891380500,5.70738037109375,2.128880500793457,0.060206376016139984,-1.0440996885299683
1761380635901436400,5.7174365234375,2.088947057723999,0.48158398270606995,-1.2969988584518433
1761380635911492400,5.727492431640625,1.9250587224960327,1.0432294607162476,-1.3240212202072144
1761380635921547500,5.737547607421875,1.7063252925872803,1.4665526151657104,-1.025660753250122
1761380635931603500,5.747603515625,1.4917610883712769,1.5849202871322632,-0.4457925856113434
1761380635941659400,5.757659423828125,1.291426658630371,1.4799782037734985,0.1849711686372757
1761380635951715600,5.767715576171875,1.0878164768218994,1.2986345291137695,0.6391202807426453
1761380635961771500,5.777771484375,0.8710071444511414,1.130265712738037,0.873038113117218
1761380635971826400,5.787826416015625,0.6941977739334106,1.0569199323654175,0.8927260637283325
1761380635981882400,5.79788232421875,0.5827859044075012,0.9941604137420654,0.811210036277771
1761380635991938300,5.807938232421875,0.4640592932701111,0.7984263300895691,0.832059919834137
1761380636001994500,5.817994384765625,0.2223774492740631,0.35610607266426086,1.0183320045471191
1761380636012049400,5.82804931640625,-0.05824968218803406,-0.4294409453868866,1.232931137084961
1761380636022105300,5.838105224609375,-0.23077312111854553,-1.2014161348342896,1.354831576347351
1761380636032161500,5.84816162109375,-0.28113722801208496,-1.7480618953704834,1.2992210388183594
1761380636042217500,5.858217529296875,-0.34044578671455383,-1.9277069568634033,0.9300813674926758
1761380636052273400,5.8682734375,-0.39515748620033264,-1.7354378700256348,0.3019430935382843
1761380636062328300,5.878328369140625,-0.44185322523117065,-1.2673118114471436,-0.2775317430496216
1761380636072384300,5.88838427734375,-0.46302908658981323,-0.3536672592163086,-0.40784287452697754
1761380636082440400,5.8984404296875,-0.48175936937332153,0.21587350964546204,0.07926913350820541
1761380636092496400,5.908496337890625,-0.5480467677116394,-0.6647190451622009,0.5692534446716309
1761380636102552300,5.91855224609375,-0.568938136100769,-2.4633004665374756,-0.008022957481443882
1761380636112607500,5.928607421875,-0.15390151739120483,-3.8701014518737793,-1.203551173210144
1761380636122663400,5.938663330078125,0.48134520649909973,-5.133686542510986,-1.923528790473938
1761380636132719600,5.9487197265625,0.8121883273124695,-6.30738639831543,-1.8433092832565308
1761380636142775600,5.958775634765625,0.871116578578949,-6.694616794586182,-1.2931323051452637
1761380636152831500,5.96883154296875,0.7360855340957642,-5.62069034576416,-0.43204790353775024
1761380636162886400,5.978886474609375,0.3580518662929535,-3.762470245361328,0.4342893362045288
1761380636172942300,5.9889423828125,-0.14239628612995148,-2.2990543842315674,0.9044416546821594
1761380636182998500,5.99899853515625,-0.48219674825668335,-1.5822710990905762,0.8611581325531006
1761380636193054500,6.009054443359375,-0.697332501411438,-1.3226102590560913,0.38593995571136475
1761380636203109400,6.019109375,-0.8858152031898499,-1.1693751811981201,-0.36169910430908203
1761380636213165600,6.02916552734375,-1.0275325775146484,-1.2214457988739014,-1.2458382844924927
1761380636223221500,6.039221435546875,-1.028882622718811,-1.5040669441223145,-1.9095983505249023
1761380636233277400,6.04927734375,-0.9021816849708557,-1.769951343536377,-2.088261127471924
1761380636243333400,6.05933349609375,-0.7545566558837891,-1.8197602033615112,-1.7745741605758667
1761380636253388300,6.06938818359375,-0.7087956070899963,-1.6009095907211304,-1.1749498844146729
1761380636263444500,6.079444580078125,-0.7593542337417603,-1.0505152940750122,-0.5176029801368713
1761380636273500400,6.08950048828125,-0.8745442032814026,-0.3297927975654602,0.05593619495630264
1761380636283556400,6.099556396484375,-1.0735219717025757,0.3604673743247986,0.4217517375946045
1761380636293612500,6.109612548828125,-1.3039125204086304,0.8992536067962646,0.5346407294273376
1761380636303667500,6.11966748046875,-1.4699082374572754,1.189849615097046,0.4448588490486145
1761380636313723600,6.1297236328125,-1.5357389450073242,1.094083309173584,0.2517889738082886
1761380636323779300,6.139779296875,-1.5162039995193481,0.8695284724235535,-0.0072817555628716946
1761380636333835300,6.149835205078125,-1.3605973720550537,0.640917956829071,-0.3142305314540863
1761380636343891500,6.159891357421875,-1.0478764772415161,0.5420078635215759,-0.5114456415176392
1761380636353946400,6.1699462890625,-0.7331315875053406,0.586597204208374,-0.49824783205986023
1761380636364002600,6.18000244140625,-0.4664381444454193,0.6962987780570984,-0.24609056115150452
1761380636374058500,6.19005859375,-0.25177112221717834,0.8967434763908386,0.09906843304634094
1761380636384114400,6.200114501953125,-0.14331187307834625,1.2662769556045532,0.23620295524597168
1761380636394170600,6.210170654296875,-0.17377737164497375,1.7334680557250977,0.04102175682783127
1761380636404225300,6.220225341796875,-0.34887173771858215,2.0802664756774902,-0.43017637729644775
1761380636414281500,6.230281494140625,-0.6280101537704468,2.4938979148864746,-1.049723505973816
1761380636424337400,6.24033740234375,-0.8639112114906311,3.093683958053589,-1.4311306476593018
1761380636434393300,6.250393310546875,-0.8982590436935425,3.629951238632202,-1.1187455654144287
1761380636444449500,6.260449462890625,-0.9019659757614136,4.077620029449463,-0.5099837779998779
1761380636454504400,6.27050439453125,-0.8350076675415039,4.111871719360352,-0.5057222247123718
1761380636464560400,6.280560302734375,-0.3440735936164856,3.3583898544311523,-1.3932620286941528
1761380636474616600,6.290616455078125,0.3874698877334595,2.4500796794891357,-2.4262447357177734
1761380636484672500,6.300672607421875,0.899604082107544,1.9594650268554688,-2.9295055866241455
1761380636494727400,6.3107275390625,0.9166810512542725,1.9190552234649658,-2.971402645111084
1761380636504780300,6.3207802734375,0.8037718534469604,2.4371111392974854,-2.5776515007019043
1761380636514836200,6.330836181640625,0.6968464851379395,3.0695714950561523,-1.8772262334823608
1761380636524892200,6.34089208984375,0.5211431980133057,3.485299587249756,-0.9194822907447815
1761380636534948000,6.350947998046875,0.3157956302165985,3.503308057785034,0.134796604514122
1761380636545003300,6.361003173828125,0.28910258412361145,3.106663465499878,0.9241586923599243
1761380636555059200,6.37105908203125,0.41182905435562134,2.541531801223755,1.2524644136428833
1761380636565115100,6.381115234375,0.6011186242103577,1.9896268844604492,1.1333333253860474
1761380636575171300,6.39117138671875,0.8028022050857544,1.4496445655822754,0.7023438215255737
1761380636585227300,6.401227294921875,0.9368650913238525,0.8993348479270935,0.12487605959177017
1761380636595282400,6.411282470703125,0.9862880110740662,0.12604476511478424,-0.37695324420928955
1761380636605338000,6.421338134765625,0.9972362518310547,-0.5366349220275879,-0.658974826335907
1761380636615394000,6.43139404296875,1.0018064975738525,-0.8895799517631531,-0.6918928623199463
1761380636625450200,6.4414501953125,1.052075743675232,-0.9578043818473816,-0.5191940069198608
1761380636635506200,6.451506103515625,1.191467523574829,-0.9303178787231445,-0.15414252877235413
1761380636645561300,6.461561279296875,1.3592993021011353,-0.9043387770652771,0.31172335147857666
1761380636655617300,6.4716171875,1.478730320930481,-0.8940845131874084,0.7294276356697083
1761380636665673200,6.481673095703125,1.5373835563659668,-0.9946824312210083,0.9465421438217163
1761380636675729200,6.491729248046875,1.5407627820968628,-1.1605890989303589,0.9653400778770447
1761380636685785300,6.501785400390625,1.49622642993927,-1.397445797920227,0.870320737361908
1761380636695840000,6.511840087890625,1.3386144638061523,-1.5925769805908203,0.7099462151527405
1761380636705896200,6.521896240234375,1.1023461818695068,-1.6408988237380981,0.5719759464263916
1761380636715952000,6.5319521484375,0.8318549990653992,-1.5198876857757568,0.5048016905784607
1761380636726008000,6.542008056640625,0.5117245316505432,-1.3033571243286133,0.5525935292243958
1761380636736064300,6.552064208984375,0.11504059284925461,-1.2256999015808105,0.7464048266410828
1761380636746119200,6.562119140625,-0.22326815128326416,-1.3612604141235352,0.9976443648338318
1761380636756175400,6.57217529296875,-0.4274580180644989,-1.6382784843444824,1.1262726783752441
1761380636766231300,6.582231201171875,-0.5576425194740295,-1.9599486589431763,0.9809229969978333
1761380636776287000,6.592286865234375,-0.6826678514480591,-2.23869252204895,0.44733551144599915
1761380636786343200,6.60234326171875,-0.7951380014419556,-2.4281399250030518,-0.2902058959007263
1761380636796398000,6.612398193359375,-0.8492944240570068,-2.3107857704162598,-0.7193090915679932
1761380636806454300,6.622454345703125,-1.0167992115020752,-2.406397819519043,-0.6051853895187378
1761380636816510200,6.63251025390625,-1.3393762111663818,-2.8140995502471924,-0.43499454855918884
1761380636826566100,6.642566162109375,-1.7280426025390625,-2.672635078430176,-0.8630846738815308
1761380636836622300,6.652622314453125,-1.8239552974700928,-2.1087558269500732,-1.4771233797073364
1761380636846677200,6.66267724609375,-1.630502462387085,-2.377882719039917,-1.674668550491333
1761380636856733200,6.672733154296875,-1.5023069381713867,-3.370053768157959,-1.3993291854858398
1761380636866789000,6.6827890625,-1.4975850582122803,-3.610968828201294,-0.7955039143562317
1761380636876845000,6.692844970703125,-1.4218051433563232,-2.956210136413574,-0.17115722596645355
1761380636886901200,6.7029013671875,-1.208163857460022,-2.334735631942749,0.25360679626464844
1761380636896956200,6.7129560546875,-0.9253684282302856,-2.133774757385254,0.506630539894104
1761380636907012400,6.723012451171875,-0.6926283240318298,-2.104188919067383,0.6042137145996094
1761380636917068300,6.733068359375,-0.5426867604255676,-1.9457144737243652,0.6225053668022156
1761380636927124200,6.743124267578125,-0.444126695394516,-1.7387189865112305,0.6339055299758911
1761380636937180200,6.75318017578125,-0.3693065047264099,-1.5145225524902344,0.6446657776832581
1761380636947235000,6.763235107421875,-0.29436537623405457,-1.3491770029067993,0.5473222136497498
1761380636957291000,6.773291015625,-0.2076198160648346,-1.2603139877319336,0.26522505283355713
1761380636967347200,6.78334716796875,-0.12941497564315796,-1.2933977842330933,-0.11822911351919174
1761380636977403100,6.793403076171875,-0.11076966673135757,-1.2526888847351074,-0.45678481459617615
1761380636987459000,6.803458984375,-0.20210000872612,-1.0151565074920654,-0.6955693960189819
1761380636997514200,6.81351416015625,-0.42110374569892883,-0.6003869771957397,-0.8581332564353943
1761380637007570200,6.823570068359375,-0.7463588714599609,-0.027662577107548714,-0.9677726030349731
1761380637017626400,6.83362646484375,-1.0980241298675537,0.6118784546852112,-1.0649974346160889
1761380637027682300,6.843682373046875,-1.385809302330017,1.1777244806289673,-1.0835696458816528
1761380637037738000,6.853738037109375,-1.6225254535675049,1.4929695129394531,-1.0063084363937378
1761380637047793200,6.863793212890625,-1.8145825862884521,1.5408084392547607,-0.8834391832351685
1761380637057849000,6.87384912109375,-1.882120132446289,1.4294155836105347,-0.6601395010948181
1761380637067905300,6.8839052734375,-1.8423311710357666,1.3135589361190796,-0.38352257013320923
1761380637077961200,6.893961181640625,-1.6602860689163208,1.4066073894500732,-0.09618479758501053
1761380637088017200,6.90401708984375,-1.2843891382217407,1.6915497779846191,0.20408041775226593
1761380637098072300,6.914072265625,-0.7214748859405518,1.9347105026245117,0.45087796449661255
1761380637108128300,6.924128173828125,-0.07777117192745209,1.9807296991348267,0.5875394940376282
1761380637118184200,6.93418408203125,0.5501225590705872,1.9083592891693115,0.553260862827301
1761380637128240000,6.944240234375,1.0691004991531372,1.792254090309143,0.28425100445747375
1761380637138296000,6.954296142578125,1.4097459316253662,1.7686896324157715,-0.15144801139831543
1761380637148351200,6.964351318359375,1.5530128479003906,1.778315544128418,-0.5912954807281494
1761380637158407200,6.9744072265625,1.5492380857467651,2.0413384437561035,-0.9906620979309082
1761380637168463000,6.984463134765625,1.5521159172058105,2.4485652446746826,-1.0271800756454468
1761380637178519300,6.994519287109375,1.6803237199783325,2.670027494430542,-0.483128160238266
1761380637188575200,7.0045751953125,1.7719875574111938,2.7426702976226807,-0.007985631003975868
1761380637198630100,7.014630126953125,1.8638943433761597,2.360687494277954,-0.2990846037864685
1761380637208686000,7.02468603515625,2.1307148933410645,1.7178465127944946,-1.2100019454956055
1761380637218742000,7.034741943359375,2.5944900512695312,1.8953132629394531,-1.7997318506240845
1761380637228798200,7.044798095703125,2.7901811599731445,2.3212971687316895,-1.8407597541809082
1761380637238854100,7.054854248046875,2.516400098800659,2.503098487854004,-1.4742374420166016
1761380637248909300,7.064909423828125,2.039330244064331,2.83064866065979,-0.816162109375
1761380637258965200,7.07496533203125,1.493476390838623,3.1906898021698,0.020039044320583344
1761380637269021200,7.085021240234375,1.0751310586929321,3.2171924114227295,0.8740615248680115
1761380637279077400,7.095077392578125,0.8882683515548706,2.8991148471832275,1.458677053451538
1761380637289133300,7.10513330078125,0.8772147297859192,2.4574856758117676,1.4999364614486694
1761380637299188200,7.115188232421875,0.9621978402137756,2.036550283432007,0.9897288084030151
1761380637309244200,7.125244140625,1.0995537042617798,1.6268795728683472,0.2462906837463379
1761380637319300000,7.135300048828125,1.2442501783370972,1.1451472043991089,-0.4884709417819977
1761380637329356300,7.145356201171875,1.3612251281738281,0.5765753388404846,-1.100411295890808
1761380637339412200,7.155412109375,1.392390251159668,0.10442376136779785,-1.4819014072418213
1761380637349467400,7.16546728515625,1.3603236675262451,-0.17904457449913025,-1.6472615003585815
1761380637359523300,7.1755234375,1.2782878875732422,-0.21081742644309998,-1.667777180671692
1761380637369579300,7.185579345703125,1.1928050518035889,-0.1375076174736023,-1.5777299404144287
1761380637379635200,7.19563525390625,1.0652260780334473,-0.04264155775308609,-1.323068618774414
1761380637389691100,7.205691162109375,0.8910090327262878,0.049632828682661057,-0.9238041639328003
1761380637399746300,7.215746337890625,0.7156579494476318,0.1653200089931488,-0.4781039357185364
1761380637409802200,7.22580224609375,0.5275267958641052,0.21916580200195312,-0.04981531947851181
1761380637419858200,7.235858154296875,0.2955454885959625,0.16451293230056763,0.2928594648838043
1761380637429914000,7.2459140625,0.06839003413915634,0.0499250590801239,0.4645105302333832
1761380637439970300,7.25597021484375,-0.13283361494541168,0.01107752975076437,0.48297983407974243
1761380637450025000,7.26602490234375,-0.3353860378265381,-0.12603925168514252,0.5593246221542358
1761380637460081200,7.2760810546875,-0.5078986883163452,-0.4639240801334381,0.8407325744628906
1761380637470137000,7.28613720703125,-0.622046947479248,-0.9401360750198364,1.2320913076400757
1761380637480193000,7.296193115234375,-0.6759293675422668,-1.5067102909088135,1.5838756561279297
1761380637490249200,7.306249267578125,-0.7434405088424683,-2.1395199298858643,1.6872421503067017
1761380637500304100,7.31630419921875,-0.7761667370796204,-2.6289329528808594,1.3982175588607788
1761380637510364200,7.3263642578125,-0.7571975588798523,-2.889098882675171,0.7446009516716003
1761380637520420000,7.336420166015625,-0.778660774230957,-2.7079482078552246,-0.15195730328559875
1761380637530476000,7.34647607421875,-0.8746632933616638,-2.255692958831787,-0.963485598564148
1761380637540532200,7.3565322265625,-1.014603853225708,-1.8263440132141113,-1.3162111043930054
1761380637550587100,7.366587158203125,-1.1783047914505005,-1.408130407333374,-0.9376524686813354
1761380637560643000,7.37664306640625,-1.4591747522354126,-1.419761300086975,0.04078651964664459
1761380637570699300,7.38669921875,-1.7677568197250366,-1.994184136390686,0.5772555470466614
1761380637580755000,7.3967548828125,-1.9777673482894897,-2.217557668685913,-0.16261664032936096
1761380637590811100,7.40681103515625,-2.056225299835205,-2.235382080078125,-1.3189421892166138
1761380637600866000,7.416865966796875,-2.1093263626098633,-2.524491310119629,-1.7251101732254028
1761380637610922000,7.426921875,-2.2173562049865723,-2.3927149772644043,-1.2441102266311646
1761380637620978200,7.436978271484375,-2.1956357955932617,-1.980276346206665,-0.579003632068634
1761380637631034000,7.4470341796875,-1.9153618812561035,-1.7681660652160645,-0.08331016451120377
1761380637641090000,7.457090087890625,-1.5960736274719238,-1.6539454460144043,0.3523861765861511
1761380637651145200,7.467145263671875,-1.3817826509475708,-1.706589937210083,0.5926225781440735
1761380637661201000,7.477200927734375,-1.2333338260650635,-1.8474678993225098,0.5068371295928955
1761380637671257000,7.487257080078125,-1.0889800786972046,-1.9300764799118042,0.18687227368354797
1761380637681313000,7.49731298828125,-0.9497382044792175,-1.9892092943191528,-0.24622216820716858
1761380637691369000,7.507368896484375,-0.8376455307006836,-2.026095390319824,-0.6439056992530823
1761380637701424000,7.517424072265625,-0.8193914294242859,-2.0221235752105713,-0.8162657618522644
1761380637711480000,7.52747998046875,-0.8922951817512512,-1.9267486333847046,-0.7534517645835876
1761380637721536300,7.537536376953125,-0.9801576733589172,-1.6444309949874878,-0.5301142334938049
1761380637731592200,7.54759228515625,-1.0189379453659058,-1.2387291193008423,-0.2334078550338745
1761380637741648100,7.557648193359375,-1.0184706449508667,-0.8026636242866516,0.042901769280433655
1761380637751703000,7.567703125,-1.0106698274612427,-0.5011855959892273,0.1654854118824005
1761380637761759000,7.577759033203125,-1.001983642578125,-0.29144006967544556,0.12011979520320892
1761380637771815200,7.587815185546875,-1.0323948860168457,-0.08332028985023499,-0.07641108334064484
1761380637781871000,7.59787109375,-1.1210999488830566,0.10360591858625412,-0.3679766058921814
1761380637791927000,7.607927001953125,-1.200674057006836,0.2567257881164551,-0.6498721837997437
1761380637801982200,7.617982177734375,-1.154873013496399,0.3362695872783661,-0.7604554295539856
1761380637812038100,7.6280380859375,-0.9210252165794373,0.484416127204895,-0.6704697012901306
1761380637822094000,7.638093994140625,-0.579288125038147,0.6752142906188965,-0.44173935055732727
1761380637832150300,7.648150390625,-0.22672824561595917,0.8772075176239014,-0.16887536644935608
1761380637842206000,7.6582060546875,0.15778321027755737,1.129347324371338,0.07951126992702484
1761380637852261000,7.66826123046875,0.5711906552314758,1.4103587865829468,0.23829005658626556
1761380637862317000,7.678317138671875,0.9503438472747803,1.6742639541625977,0.2050948143005371
1761380637872373000,7.688373046875,1.2021459341049194,1.8084608316421509,0.06103787571191788
1761380637882429200,7.69842919921875,1.414689064025879,1.7234420776367188,0.021385805681347847
1761380637892485000,7.708485107421875,1.667429804801941,1.459090232849121,0.08498339354991913
1761380637902541000,7.718541015625,1.9240357875823975,1.2274277210235596,0.17294761538505554
1761380637912596200,7.72859619140625,2.051351308822632,1.1019009351730347,0.1861891746520996
1761380637922652000,7.73865185546875,2.0435781478881836,1.181315541267395,0.15234412252902985
1761380637932708000,7.7487080078125,2.142704725265503,1.6551586389541626,0.36383599042892456
1761380637942764000,7.758763916015625,2.299536943435669,2.1754696369171143,0.5905277729034424
1761380637952820000,7.768820068359375,2.3276546001434326,2.13700795173645,0.44423192739486694
1761380637962875100,7.778875244140625,2.335014820098877,1.5014721155166626,-0.09596367180347443
1761380637972931000,7.78893115234375,2.47489070892334,1.3840010166168213,-0.5772212147712708
1761380637982987300,7.7989873046875,2.497859477996826,1.7809557914733887,-0.7102141380310059
1761380637993043200,7.809043212890625,2.1603074073791504,2.3187942504882812,-0.5500079393386841
1761380638003099100,7.81909912109375,1.6470614671707153,2.7675299644470215,-0.1976216584444046
1761380638013154000,7.829154052734375,1.3057503700256348,2.7664475440979004,0.32998785376548767
1761380638023210000,7.8392099609375,1.2365700006484985,2.280320405960083,0.8235419392585754
1761380638033266200,7.84926611328125,1.2194770574569702,1.7616291046142578,0.8279103636741638
1761380638043322000,7.859322021484375,1.2640801668167114,1.3469476699829102,0.3594408333301544
1761380638053378000,7.8693779296875,1.3503142595291138,0.9069613814353943,-0.1071450337767601
1761380638063433200,7.87943310546875,1.4102082252502441,0.554912805557251,-0.3473794758319855
1761380638073489200,7.8894892578125,1.4169460535049438,0.35535353422164917,-0.47543397545814514
1761380638083545000,7.899545166015625,1.3926122188568115,0.21674051880836487,-0.5786594748497009
1761380638093601300,7.909601318359375,1.3354361057281494,0.12109871953725815,-0.6033719182014465
1761380638103657000,7.919656982421875,1.2602747678756714,0.1455681174993515,-0.5273951292037964
1761380638113712000,7.929712158203125,1.1866177320480347,0.23277629911899567,-0.32584553956985474
1761380638123768000,7.93976806640625,1.1580235958099365,0.3595035970211029,-0.048665329813957214
1761380638133824000,7.949823974609375,1.1305463314056396,0.43909952044487,0.16431482136249542
1761380638143880200,7.959880126953125,1.0837148427963257,0.42723461985588074,0.2673383951187134
1761380638153936100,7.96993603515625,1.04331636428833,0.3248760402202606,0.2542499005794525
1761380638163991300,7.9799912109375,1.0231112241744995,0.1559986174106598,0.15155494213104248
1761380638174047200,7.990047119140625,0.9734002947807312,-0.0028211716562509537,0.041177764534950256
1761380638184103000,8.00010302734375,0.8906580209732056,-0.19043660163879395,0.03609352558851242
1761380638194159000,8.0101591796875,0.7937421202659607,-0.44641074538230896,0.15591749548912048
1761380638204215000,8.020215087890625,0.6496357917785645,-0.6190717220306396,0.35812491178512573
1761380638214270200,8.030270263671875,0.45481616258621216,-0.6637974381446838,0.6369518041610718
1761380638224326100,8.040326171875,0.195669025182724,-0.5564501881599426,0.9731753468513489
1761380638234382000,8.050382080078125,-0.12342603504657745,-0.3233101963996887,1.2889970541000366
1761380638244438300,8.060438232421875,-0.42583543062210083,-0.23802274465560913,1.501322627067566
1761380638254494200,8.070494140625,-0.70647794008255,-0.2302892953157425,1.6107804775238037
1761380638264549000,8.080549072265624,-0.9721327424049377,-0.14162307977676392,1.5612941980361938
1761380638274605000,8.09060498046875,-1.164712905883789,-0.042880382388830185,1.315893292427063
1761380638284661000,8.100660888671875,-1.2486863136291504,0.11019384860992432,1.0264414548873901
1761380638294717200,8.11071728515625,-1.2298725843429565,0.39048707485198975,1.0118050575256348
1761380638304773000,8.120773193359375,-1.2146986722946167,0.36751437187194824,1.271190881729126
1761380638314828000,8.130828125,-1.3030130863189697,-0.17672333121299744,1.2947938442230225
1761380638324884200,8.14088427734375,-1.4660145044326782,-0.9059258103370667,0.5786229372024536
1761380638334940200,8.150940185546874,-1.3736714124679565,-1.4198522567749023,-0.608180046081543
1761380638344996000,8.16099609375,-1.058699131011963,-1.7339166402816772,-1.4282203912734985
1761380638355052300,8.17105224609375,-0.9180921316146851,-1.711023211479187,-1.3435124158859253
1761380638365107000,8.18110693359375,-1.0646345615386963,-1.4641199111938477,-0.7778590321540833
1761380638375163100,8.1911630859375,-1.2049092054367065,-1.165370225906372,-0.27039894461631775
1761380638385219000,8.201218994140625,-1.203600525856018,-0.6747573614120483,0.04416140168905258
1761380638395275000,8.21127490234375,-1.0373684167861938,-0.5151855945587158,0.11899960786104202
1761380638405331200,8.221331298828124,-0.8507024049758911,-0.7522287964820862,-0.08102482557296753
1761380638415386000,8.23138623046875,-0.6601610779762268,-1.0484228134155273,-0.42800188064575195
1761380638425442300,8.2414423828125,-0.4428921937942505,-1.162421464920044,-0.7086343765258789
1761380638435498000,8.251498046875,-0.3106503486633301,-1.111611247062683,-0.7912477254867554
1761380638445554000,8.261553955078124,-0.31826698780059814,-1.041092872619629,-0.5721766352653503
1761380638455610000,8.271610107421875,-0.41711729764938354,-0.9826421141624451,-0.08921477943658829
1761380638465665000,8.2816650390625,-0.5343642830848694,-0.9606521129608154,0.46065208315849304
1761380638475721200,8.29172119140625,-0.6451322436332703,-0.8551056385040283,0.9084194898605347
1761380638485777200,8.301777099609374,-0.7488738298416138,-0.8158519864082336,1.1869874000549316
1761380638495833000,8.3118330078125,-0.8426874279975891,-0.7646815180778503,1.3046505451202393
1761380638505885200,8.32188525390625,-0.8549145460128784,-0.5006949305534363,1.196102261543274
1761380638515940000,8.331940185546875,-0.7545264959335327,-0.058368079364299774,0.8148647546768188
1761380638525996300,8.341996337890626,-0.6332040429115295,0.4956285357475281,0.3836856484413147
1761380638536052200,8.35205224609375,-0.5116347670555115,0.8410679697990417,-0.19562892615795135
1761380638546108000,8.36210791015625,-0.36955270171165466,0.9487771391868591,-0.6174741387367249
1761380638556164000,8.3721640625,-0.24789269268512726,0.906330406665802,-0.7902113199234009
1761380638566220000,8.382219970703124,-0.1968012899160385,0.6937198638916016,-0.685606062412262
1761380638576275200,8.392275146484375,-0.1432943195104599,0.39186984300613403,-0.3665311634540558
1761380638586331100,8.4023310546875,-0.17652098834514618,0.227144256234169,0.08288154006004333
1761380638596387000,8.412386962890626,-0.29816746711730957,0.28437015414237976,0.5052675604820251
1761380638606445000,8.422445068359375,-0.3120843470096588,0.4706825017929077,0.7438905239105225
