time,seconds_elapsed,z,y,x
1761380630253870000,0.0698701171875,0.16453061997890472,0.1998388171195984,0.26565271615982056
1761380630263925000,0.079925048828125,0.08937381953001022,0.23054718971252441,0.12226305902004242
1761380630273981200,0.089981201171875,-0.10965325683355331,0.11853703111410141,0.014605574309825897
1761380630284037000,0.100037109375,-0.35300278663635254,-0.019512448459863663,-0.04120256379246712
1761380630294093000,0.110093017578125,-0.482602596282959,-0.03766428679227829,-0.05930806323885918
1761380630304148000,0.12014794921875,-0.463511198759079,0.14870212972164154,-0.022003835067152977
1761380630314204000,0.130203857421875,-0.39902329444885254,0.3195955753326416,0.07241800427436829
1761380630324260000,0.140260009765625,-0.3741624057292938,0.430332750082016,0.1843131184577942
1761380630334316000,0.15031591796875,-0.37891456484794617,0.5300039649009705,0.26336559653282166
1761380630344371200,0.16037109375,-0.38027331233024597,0.5416762828826904,0.2778918147087097
1761380630354427100,0.17042724609375,-0.3043367266654968,0.5167112946510315,0.23755156993865967
1761380630364483000,0.180483154296875,-0.24217775464057922,0.549320638179779,0.1758493185043335
1761380630374539300,0.190539306640625,-0.23635874688625336,0.6174216866493225,0.12976305186748505
1761380630384595200,0.20059521484375,-0.21617837250232697,0.6285701990127563,0.11415906250476837
1761380630394649900,0.21064990234375,-0.2193579226732254,0.6112873554229736,0.10520844161510468
1761380630404706000,0.2207060546875,-0.16718712449073792,0.5991649031639099,0.13937786221504211
1761380630414762000,0.230761962890625,-0.06946615874767303,0.6146695613861084,0.17863339185714722
1761380630424818000,0.24081787109375,0.03916950523853302,0.5695841312408447,0.18401910364627838
1761380630434873000,0.250873046875,0.14871810376644135,0.4484720528125763,0.1499687284231186
1761380630444929000,0.260928955078125,0.2401665300130844,0.3159100115299225,0.09060899168252945
1761380630454985200,0.270985107421875,0.2834008038043976,0.22658361494541168,0.024108266457915306
1761380630465041200,0.281041259765625,0.29111093282699585,0.1992230862379074,-0.013975470326840878
1761380630475096000,0.291095947265625,0.29016098380088806,0.24862845242023468,-0.0213558878749609
1761380630485152000,0.301152099609375,0.34652358293533325,0.4107057750225067,-0.002674079965800047
1761380630495211500,0.31121142578125,0.3758103847503662,0.5634934306144714,0.02454635500907898
1761380630505267700,0.321267822265625,0.39875271916389465,0.6284983158111572,0.05335323512554169
1761380630515322600,0.331322509765625,0.4331892430782318,0.5916289687156677,0.09164523333311081
1761380630525378600,0.341378662109375,0.48214587569236755,0.5041430592536926,0.184663325548172
1761380630535434500,0.3514345703125,0.5067063570022583,0.37705299258232117,0.32238736748695374
1761380630545490400,0.361490478515625,0.44409435987472534,0.21098920702934265,0.4531592130661011
1761380630555545600,0.371545654296875,0.26375147700309753,0.06703416258096695,0.4835008978843689
1761380630565601500,0.3816015625,0.06584079563617706,0.05384751781821251,0.3894374966621399
1761380630575657700,0.39165771484375,-0.05048501119017601,0.2051835060119629,0.24113671481609344
1761380630585713700,0.401713623046875,-0.07022649049758911,0.35146987438201904,0.125674307346344
1761380630595768600,0.4117685546875,-0.054949801415205,0.43898481130599976,0.06635558605194092
1761380630605824500,0.421824462890625,-0.02792084775865078,0.49158570170402527,0.044024448841810226
1761380630615880400,0.43188037109375,0.006926349364221096,0.46590885519981384,0.05180114507675171
1761380630625936400,0.441936279296875,0.08375268429517746,0.44713303446769714,0.1000291258096695
1761380630635991600,0.451991455078125,0.1305771768093109,0.3541412949562073,0.17007239162921906
1761380630646047500,0.462047607421875,0.1493290364742279,0.1528787612915039,0.19833067059516907
1761380630656103700,0.472103759765625,0.1799716353416443,0.02941807545721531,0.2106214165687561
1761380630666159600,0.48215966796875,0.20353607833385468,0.12151817232370377,0.2248123437166214
1761380630676215600,0.492215576171875,0.15425188839435577,0.2776356041431427,0.23017488420009613
1761380630686270500,0.5022705078125,-0.010728278197348118,0.2568610906600952,0.180332750082016
1761380630696326400,0.512326416015625,-0.14010277390480042,0.23300236463546753,0.10358844697475433
1761380630706382600,0.522382568359375,-0.15410594642162323,0.23384924232959747,0.05690456181764603
1761380630716438500,0.5324384765625,-0.10890278220176697,0.20459681749343872,0.030765902251005173
1761380630726493700,0.54249365234375,-0.04333415627479553,0.08441874384880066,0.006090649403631687
1761380630736549600,0.552549560546875,-0.010058759711682796,-0.0497630275785923,-0.007678692229092121
1761380630746605600,0.56260546875,-0.034088727086782455,-0.09119462221860886,-0.04036899283528328
1761380630756661800,0.572661865234375,-0.0588982030749321,-0.0012069445801898837,-0.1270519644021988
1761380630766716400,0.58271630859375,-0.07340923696756363,0.18245795369148254,-0.2418120950460434
1761380630776772600,0.592772705078125,-0.09690417349338531,0.3607688546180725,-0.33768802881240845
1761380630786828500,0.60282861328125,-0.10418472439050674,0.43870678544044495,-0.37379249930381775
1761380630796884500,0.612884521484375,-0.0953478217124939,0.38579776883125305,-0.3357306122779846
1761380630806939600,0.622939697265625,-0.0847492441534996,0.2565721273422241,-0.23338638246059418
1761380630816995600,0.63299560546875,-0.07395412027835846,0.07035192847251892,-0.11417903751134872
1761380630827051500,0.643051513671875,-0.06205351650714874,-0.14265941083431244,-0.02937093749642372
1761380630837107700,0.653107666015625,-0.052550558000802994,-0.30445337295532227,0.023420637473464012
1761380630847162400,0.663162353515625,-0.05247865244746208,-0.370706170797348,0.053152699023485184
1761380630857218600,0.673218505859375,-0.053943924605846405,-0.39458248019218445,0.041358623653650284
1761380630867274500,0.6832744140625,-0.05625075474381447,-0.389020711183548,-0.0007243797881528735
1761380630877330400,0.693330322265625,-0.050756655633449554,-0.3419647812843323,-0.06299068033695221
1761380630887385600,0.703385498046875,-0.01426282525062561,-0.3063458204269409,-0.08753863722085953
1761380630897441500,0.713441650390625,0.03917616605758667,-0.33363470435142517,-0.04736778140068054
1761380630907497700,0.723497802734375,0.04664686322212219,-0.4371158182621002,0.02540069818496704
1761380630917553700,0.7335537109375,0.057189520448446274,-0.5769214034080505,0.08768564462661743
1761380630927608600,0.743608642578125,0.06410921365022659,-0.6735043525695801,0.07256074994802475
1761380630937664500,0.75366455078125,0.057806842029094696,-0.7406985759735107,-0.03226979076862335
1761380630947720400,0.763720458984375,0.05836131051182747,-0.7678111791610718,-0.17461015284061432
1761380630957776600,0.773776611328125,0.06476594507694244,-0.7486710548400879,-0.2963919937610626
1761380630967831600,0.78383154296875,0.06556329876184464,-0.7018502950668335,-0.3718939423561096
1761380630977887700,0.7938876953125,0.06539205461740494,-0.6542494297027588,-0.36818280816078186
1761380630987943700,0.803943603515625,0.06576117128133774,-0.6404915452003479,-0.29611873626708984
1761380630997999600,0.81399951171875,0.06343569606542587,-0.6674011945724487,-0.1763175129890442
1761380631008054500,0.824054443359375,0.05923030152916908,-0.6850444078445435,-0.07455679029226303
1761380631018110500,0.8341103515625,0.05826517194509506,-0.688511312007904,-0.0002980077115353197
1761380631028166700,0.844166748046875,0.052323658019304276,-0.6798328757286072,0.04355733096599579
1761380631038222600,0.85422265625,0.029324598610401154,-0.63181471824646,0.02039075829088688
1761380631048277500,0.864277587890625,0.013863084837794304,-0.5219196677207947,-0.04621889442205429
1761380631058333700,0.874333740234375,0.009783121757209301,-0.3956908881664276,-0.08116462826728821
1761380631068389600,0.8843896484375,0.0037468012887984514,-0.3107552230358124,-0.08648695796728134
1761380631078445600,0.894445556640625,0.0177552942186594,-0.3278851807117462,-0.06339707970619202
1761380631088501500,0.90450146484375,0.050211239606142044,-0.43699195981025696,-0.034390196204185486
1761380631098556400,0.914556396484375,0.09865866601467133,-0.56477952003479,-0.025623604655265808
1761380631108612600,0.924612548828125,0.1515226811170578,-0.6531692743301392,-0.03560220077633858
1761380631118668500,0.93466845703125,0.19086556136608124,-0.6834928393363953,-0.06448870897293091
1761380631128724500,0.944724365234375,0.19501955807209015,-0.6748029589653015,-0.13286909461021423
1761380631138779600,0.954779541015625,0.17590764164924622,-0.6468099355697632,-0.23211872577667236
1761380631148835600,0.964835693359375,0.16880126297473907,-0.5807763338088989,-0.3360499143600464
1761380631158891800,0.974891845703125,0.1907917857170105,-0.5021880269050598,-0.3945140242576599
1761380631168947500,0.984947509765625,0.21612350642681122,-0.4256833791732788,-0.40669211745262146
1761380631179002600,0.995002685546875,0.22951920330524445,-0.3287464678287506,-0.4335743486881256
1761380631189058600,1.00505859375,0.22744886577129364,-0.165106400847435,-0.5024740695953369
1761380631199114500,1.015114501953125,0.22249992191791534,0.08100270479917526,-0.6376188397407532
1761380631209170700,1.025170654296875,0.20900221168994904,0.3961697220802307,-0.8349838256835938
1761380631219225600,1.0352255859375,0.202056422829628,0.652958869934082,-1.0340700149536133
1761380631229281500,1.045281494140625,0.18837018311023712,0.7892171144485474,-1.2127550840377808
1761380631239337700,1.055337646484375,0.19524113833904266,0.7869089841842651,-1.320560097694397
1761380631249393400,1.065393310546875,0.21550406515598297,0.707425594329834,-1.3572595119476318
1761380631259448600,1.075448486328125,0.20130488276481628,0.6579033136367798,-1.3613975048065186
1761380631269504500,1.08550439453125,0.12740163505077362,0.7322574257850647,-1.354122281074524
1761380631279560400,1.095560546875,-0.00012516857532318681,0.9839048385620117,-1.3464702367782593
1761380631289616600,1.10561669921875,-0.16324245929718018,1.3114997148513794,-1.3539966344833374
1761380631299671600,1.115671630859375,-0.3151180148124695,1.584242582321167,-1.3570576906204224
1761380631309727700,1.125727783203125,-0.4020603597164154,1.7460153102874756,-1.2997171878814697
1761380631319783700,1.13578369140625,-0.4014446437358856,1.7839170694351196,-1.1288388967514038
1761380631329839400,1.14583935546875,-0.35288187861442566,1.7052627801895142,-0.877267599105835
1761380631339894500,1.15589453125,-0.28115203976631165,1.4948387145996094,-0.625916063785553
1761380631349950500,1.165950439453125,-0.20249265432357788,1.3555079698562622,-0.42705491185188293
1761380631360006700,1.176006591796875,-0.14167749881744385,1.3662396669387817,-0.2686578333377838
1761380631370062600,1.1860625,-0.087156742811203,1.3942726850509644,-0.10119958966970444
1761380631380118500,1.196118408203125,-0.0531415157020092,1.3650498390197754,0.09369426965713501
1761380631390173700,1.206173583984375,-0.022891201078891754,1.2795207500457764,0.304470956325531
1761380631400229400,1.2162294921875,0.02231808938086033,1.2585409879684448,0.4358614683151245
1761380631410285600,1.22628564453125,0.04928525909781456,1.3476366996765137,0.3699719309806824
1761380631420341500,1.236341552734375,0.10389444231987,1.4656885862350464,0.11879083514213562
1761380631430396700,1.246396728515625,0.21227097511291504,1.616955280303955,-0.1824190765619278
1761380631440452600,1.25645263671875,0.35355299711227417,1.6691572666168213,-0.43764978647232056
1761380631450508500,1.266508544921875,0.48870763182640076,1.5331581830978394,-0.6190081238746643
1761380631460564700,1.276564697265625,0.581673264503479,1.315470814704895,-0.722668468952179
1761380631470619600,1.28661962890625,0.6187708377838135,1.0895098447799683,-0.7499411106109619
1761380631480675600,1.296675537109375,0.6056118607521057,0.8112590312957764,-0.7171602249145508
1761380631490731500,1.3067314453125,0.5773994326591492,0.4120565354824066,-0.6476858258247375
1761380631500784000,1.3167841796875,0.49670538306236267,-0.03668877109885216,-0.5813204050064087
1761380631510839300,1.32683935546875,0.47088974714279175,-0.3661023676395416,-0.4951429069042206
1761380631520895200,1.336895263671875,0.5537484288215637,-0.35841938853263855,-0.4370705485343933
1761380631530951200,1.346951171875,0.6195988059043884,-0.23037993907928467,-0.3641180396080017
1761380631541007400,1.35700732421875,0.5986413359642029,-0.12155172973871231,-0.25988245010375977
1761380631551062000,1.36706201171875,0.5698312520980835,-0.07466225326061249,-0.1478392630815506
1761380631561118200,1.3771181640625,0.5579482316970825,-0.15239672362804413,-0.08271298557519913
1761380631571174100,1.387174072265625,0.598557710647583,-0.33313748240470886,-0.10178148746490479
1761380631581230000,1.39722998046875,0.6635391116142273,-0.5530714392662048,-0.15504737198352814
1761380631591285200,1.40728515625,0.7190601229667664,-0.7273386120796204,-0.19079124927520752
1761380631601341200,1.417341064453125,0.771764874458313,-0.7940062880516052,-0.22277875244617462
1761380631611397400,1.4273974609375,0.8158988356590271,-0.857317328453064,-0.24737517535686493
1761380631621453300,1.437453369140625,0.826001763343811,-0.9289335012435913,-0.2469160407781601
1761380631631508200,1.44750830078125,0.7424203157424927,-0.9591816663742065,-0.2043169140815735
1761380631641564200,1.457564208984375,0.6105637550354004,-1.00150465965271,-0.032033033668994904
1761380631651620000,1.4676201171875,0.4790419638156891,-1.2168675661087036,0.29393255710601807
1761380631661676300,1.47767626953125,0.3245839476585388,-1.5199768543243408,0.6675364971160889
1761380631671731200,1.487731201171875,0.14657053351402283,-1.8092496395111084,0.991511881351471
1761380631681787100,1.497787109375,-0.023556457832455635,-1.8537185192108154,1.1864715814590454
1761380631691843300,1.50784326171875,-0.15728336572647095,-1.4204171895980835,1.1606305837631226
1761380631701899300,1.517899169921875,-0.2644556164741516,-0.8647845983505249,1.0634503364562988
1761380631711955200,1.527955078125,-0.3699679374694824,-0.7389041781425476,1.0473954677581787
1761380631722010000,1.538010009765625,-0.44537612795829773,-1.1818422079086304,0.8614780306816101
1761380631732066000,1.548066162109375,-0.4192467927932739,-2.036046028137207,0.26534831523895264
1761380631742122200,1.558122314453125,-0.09529243409633636,-2.872673749923706,-0.3496900796890259
1761380631752178200,1.56817822265625,0.35207176208496094,-3.575453758239746,-0.29553285241127014
1761380631762233300,1.5782333984375,0.38513651490211487,-3.8941667079925537,0.1467452347278595
1761380631772289300,1.588289306640625,0.15521328151226044,-3.4775774478912354,0.7018982172012329
1761380631782345200,1.59834521484375,-0.15385667979717255,-2.8152055740356445,1.1092047691345215
1761380631792401400,1.6084013671875,-0.5770441293716431,-2.198378801345825,1.1082611083984375
1761380631802456000,1.6184560546875,-0.8725708723068237,-1.4111360311508179,0.7429454922676086
1761380631812512300,1.62851220703125,-1.0147852897644043,-0.9392611980438232,0.229290172457695
1761380631822568200,1.638568115234375,-0.9583430290222168,-0.8239442110061646,-0.3034765124320984
1761380631832624000,1.6486240234375,-0.7513073086738586,-0.9335727095603943,-0.7456414103507996
1761380631842679300,1.65867919921875,-0.450996458530426,-1.1174354553222656,-1.1107549667358398
1761380631852735200,1.6687353515625,-0.13044428825378418,-1.3533483743667603,-1.3799108266830444
1761380631862791400,1.67879150390625,0.09090540558099747,-1.5464683771133423,-1.50554358959198
1761380631872847000,1.68884716796875,0.1972036212682724,-1.4440783262252808,-1.4004709720611572
1761380631882902300,1.69890234375,0.21961331367492676,-1.1208264827728271,-1.0593916177749634
1761380631892958200,1.708958251953125,0.19262990355491638,-0.7719409465789795,-0.5689156651496887
1761380631903014100,1.71901416015625,0.10438472777605057,-0.4101414382457733,-0.05029912292957306
1761380631913070000,1.729070068359375,-0.046540603041648865,-0.08189646154642105,0.38259103894233704
1761380631923125200,1.739125244140625,-0.253033846616745,0.17573854327201843,0.6190147995948792
1761380631933181200,1.74918115234375,-0.4533621668815613,0.303536981344223,0.7123713493347168
1761380631943237400,1.7592373046875,-0.6626384258270264,0.2887745499610901,0.7000835537910461
1761380631953293000,1.76929296875,-0.8656666278839111,0.25458595156669617,0.6280122399330139
1761380631963348200,1.77934814453125,-1.0289701223373413,0.32473307847976685,0.5035028457641602
1761380631973404200,1.789404052734375,-1.1249719858169556,0.550517737865448,0.24171781539916992
1761380631983460000,1.799460205078125,-1.150185465812683,0.8350173830986023,-0.12589427828788757
1761380631993516300,1.809516357421875,-1.1392505168914795,1.091015100479126,-0.44783130288124084
1761380632003571200,1.8195712890625,-1.1038455963134766,1.4078593254089355,-0.5660879015922546
1761380632013627400,1.82962744140625,-1.0354154109954834,1.7918146848678589,-0.4074455201625824
1761380632023683300,1.839683349609375,-0.9592043161392212,2.088291883468628,-0.04433337599039078
1761380632033739000,1.849739013671875,-0.8658586740493774,2.3360331058502197,0.37170618772506714
1761380632043794200,1.859794189453125,-0.7236796617507935,2.5062172412872314,0.7424272298812866
1761380632053850000,1.86985009765625,-0.5581570267677307,2.544590711593628,0.9822071194648743
1761380632063906300,1.87990625,-0.4234929382801056,2.577949047088623,1.0485706329345703
1761380632073962200,1.889962158203125,-0.265207976102829,2.6702616214752197,1.229697823524475
1761380632084017200,1.90001708984375,-0.11125195771455765,2.4058163166046143,1.3834333419799805
1761380632094073300,1.9100732421875,0.11559849977493286,1.9361772537231445,1.1683788299560547
1761380632104129300,1.92012939453125,0.4687240719795227,1.3794457912445068,0.5217114090919495
1761380632114185200,1.930185302734375,0.726622998714447,1.20681893825531,-0.2624705135822296
1761380632124240100,1.940240234375,0.6577534079551697,1.8955382108688354,-0.7176470756530762
1761380632134296000,1.950296142578125,0.2999531626701355,2.7371597290039062,-0.6499002575874329
1761380632144352300,1.960352294921875,-0.08028445392847061,3.917714834213257,-0.48317331075668335
1761380632154408200,1.970408203125,-0.2811634838581085,5.037468433380127,-0.43473175168037415
1761380632164463400,1.98046337890625,-0.2976149022579193,5.91135835647583,-0.45360609889030457
1761380632174519300,1.990519287109375,-0.1267307847738266,6.009363174438477,-0.5725948214530945
1761380632184575000,2.000574951171875,0.11403468996286392,5.061978816986084,-0.7716298699378967
1761380632194631200,2.010631103515625,0.44677188992500305,3.351034641265869,-0.9698966145515442
1761380632204686000,2.02068603515625,0.9421693682670593,1.7280160188674927,-1.0857510566711426
1761380632214742300,2.0307421875,1.3285107612609863,0.5562853217124939,-1.0920926332473755
1761380632224798200,2.040798095703125,1.4176783561706543,-0.22700119018554688,-0.8829982280731201
1761380632234854100,2.050854248046875,1.3612351417541504,-0.5802436470985413,-0.4881821870803833
1761380632244909300,2.060909423828125,1.2799588441848755,-0.552014172077179,-0.04597308486700058
1761380632254965200,2.07096533203125,1.1883450746536255,-0.16124987602233887,0.3258073925971985
1761380632265021200,2.081021240234375,1.0194865465164185,0.24221156537532806,0.6295737028121948
1761380632275077000,2.0910771484375,0.8142892122268677,0.7126656174659729,0.7493509650230408
1761380632285132300,2.10113232421875,0.6511034369468689,1.0439921617507935,0.6392329335212708
1761380632295188200,2.111188232421875,0.5742334723472595,1.1716388463974,0.35176390409469604
1761380632305244200,2.121244140625,0.5947725772857666,1.2561371326446533,-0.06183993071317673
1761380632315300400,2.13130029296875,0.64323490858078,1.2977429628372192,-0.44161441922187805
1761380632325355300,2.141355224609375,0.7084453105926514,1.0633394718170166,-0.5522271990776062
1761380632335411200,2.1514111328125,0.7969035506248474,0.524526059627533,-0.3993450105190277
1761380632345467100,2.161467041015625,0.8819308280944824,-0.05804545804858208,-0.13325606286525726
1761380632355523000,2.171523193359375,0.9049621224403381,-0.4622451364994049,0.0259301345795393
1761380632365578200,2.181578125,0.7842042446136475,-0.8173651695251465,0.11390206962823868
1761380632375634200,2.19163427734375,0.5440257787704468,-0.9683259129524231,0.19830963015556335
1761380632385690000,2.201690185546875,0.2708192467689514,-0.750618577003479,0.2708919644355774
1761380632395746300,2.211746337890625,-0.053468551486730576,-0.28372466564178467,0.2816809415817261
1761380632405802200,2.22180224609375,-0.40470194816589355,0.1519107073545456,0.2657744288444519
1761380632415857400,2.231857421875,-0.6271169185638428,-0.03652232512831688,0.32358500361442566
1761380632425913000,2.2419130859375,-0.6927193403244019,-0.9644416570663452,0.31137093901634216
1761380632435969000,2.251968994140625,-0.5927743911743164,-2.077528476715088,0.02960343286395073
1761380632446024200,2.262024169921875,-0.4501972496509552,-2.4767603874206543,-0.5284520983695984
1761380632456080100,2.272080078125,-0.4831725060939789,-2.441377639770508,-1.1994602680206299
1761380632466136300,2.28213623046875,-0.7500268220901489,-2.5177700519561768,-1.8176790475845337
1761380632476192300,2.292192138671875,-1.108515739440918,-2.711200475692749,-2.3181991577148438
1761380632486247400,2.302247314453125,-1.3619253635406494,-3.1425585746765137,-2.6259474754333496
1761380632496303000,2.31230322265625,-1.4207255840301514,-3.9227294921875,-2.398113489151001
1761380632506359000,2.322359130859375,-1.5944286584854126,-4.473938465118408,-1.5880746841430664
1761380632516415200,2.332415283203125,-1.8192583322525024,-4.484515190124512,-0.4577915370464325
1761380632526470100,2.34247021484375,-1.9568790197372437,-4.005130290985107,0.5277511477470398
1761380632536526000,2.352526123046875,-2.1112747192382812,-3.0348384380340576,1.18307626247406
1761380632546582300,2.362582275390625,-2.1211564540863037,-2.115804433822632,1.3898981809616089
1761380632556638200,2.37263818359375,-1.8529268503189087,-1.5893689393997192,1.1141672134399414
1761380632566694100,2.382694091796875,-1.355895757675171,-1.6040709018707275,0.6818267703056335
1761380632576749000,2.3927490234375,-0.8373044729232788,-1.893402338027954,0.1963500678539276
1761380632586805000,2.402804931640625,-0.3591006398200989,-2.145881414413452,-0.3050081133842468
1761380632596861200,2.412861083984375,0.07141133397817612,-2.3938639163970947,-0.7806284427642822
1761380632606916000,2.422916015625,0.4392290413379669,-2.6933021545410156,-1.1611433029174805
1761380632616972300,2.43297216796875,0.6729360818862915,-2.9463837146759033,-1.2123327255249023
1761380632627028200,2.4430283203125,0.6755579710006714,-2.971428632736206,-0.7453905344009399
1761380632637084200,2.453084228515625,0.4089323878288269,-2.4508872032165527,0.06052566319704056
1761380632647139300,2.463139404296875,-0.07936140149831772,-1.681359887123108,0.832728922367096
1761380632657195000,2.473195068359375,-0.5977028012275696,-1.0329363346099854,1.35440194606781
1761380632667251200,2.483251220703125,-1.0022192001342773,-0.3249810039997101,1.4915305376052856
1761380632677307100,2.49330712890625,-1.204758644104004,0.28895989060401917,1.330926775932312
1761380632687362300,2.5033623046875,-1.261991024017334,0.5880289077758789,0.8990845084190369
1761380632697418200,2.513418212890625,-1.1928865909576416,0.8700799942016602,0.35591763257980347
1761380632707474200,2.52347412109375,-0.9288564920425415,1.0936369895935059,-0.06611829996109009
1761380632717530400,2.5335302734375,-0.49040326476097107,1.0596052408218384,-0.2529723346233368
1761380632727585300,2.543585205078125,0.0871460884809494,0.9192054867744446,-0.12070538103580475
1761380632737641200,2.55364111328125,0.5101212859153748,0.8710044026374817,0.3428952991962433
1761380632747697200,2.563697265625,0.6971268653869629,1.057173490524292,1.0788276195526123
1761380632757753000,2.573753173828125,0.6484951376914978,1.4077391624450684,1.8119995594024658
1761380632767808300,2.583808349609375,0.42446258664131165,1.7721751928329468,2.147106409072876
1761380632777864200,2.5938642578125,0.20529350638389587,1.9482442140579224,1.9878969192504883
1761380632787920100,2.603920166015625,0.1944245994091034,2.0443689823150635,1.448857069015503
1761380632797976300,2.613976318359375,0.44170069694519043,2.1080257892608643,0.9565797448158264
1761380632808031000,2.624031005859375,0.7704000473022461,2.2733213901519775,1.075864553451538
1761380632818087200,2.634087158203125,0.8659302592277527,2.387772560119629,1.3282138109207153
1761380632828143000,2.64414306640625,0.7978886365890503,2.2759203910827637,1.1331158876419067
1761380632838199000,2.654198974609375,0.7273870706558228,1.951400876045227,0.6234585046768188
1761380632848254200,2.664254150390625,0.5728219747543335,1.983582854270935,0.20927119255065918
1761380632858310100,2.67431005859375,0.44217929244041443,2.8166184425354004,0.104464091360569
1761380632868366300,2.684366455078125,0.18331602215766907,3.4389851093292236,0.027334684506058693
1761380632878422300,2.69442236328125,-0.0149211585521698,3.543962001800537,0.29387450218200684
1761380632888477200,2.704477294921875,0.08542542159557343,3.497476816177368,0.9681136608123779
1761380632898533000,2.714533203125,0.2232847511768341,3.4150753021240234,1.6690109968185425
1761380632908589000,2.724589111328125,0.27082937955856323,3.2425119876861572,2.154270648956299
1761380632918645200,2.734645263671875,0.28582990169525146,2.8009860515594482,2.290776252746582
1761380632928700200,2.7447001953125,0.3454311788082123,2.1530768871307373,2.1006994247436523
1761380632938756400,2.75475634765625,0.4255931079387665,1.4303172826766968,1.6758220195770264
1761380632948812300,2.764812255859375,0.5008018612861633,0.7663317918777466,1.1725776195526123
1761380632958868200,2.7748681640625,0.5500277280807495,0.3026043474674225,0.7514076828956604
1761380632968923100,2.784923095703125,0.5787320733070374,0.09224656969308853,0.3869282603263855
1761380632978979000,2.79497900390625,0.6106122136116028,0.1420266479253769,0.05482543259859085
1761380632989035000,2.805034912109375,0.6760112047195435,0.3280239403247833,-0.18013940751552582
1761380632999091200,2.81509130859375,0.7402655482292175,0.5412907004356384,-0.24469763040542603
1761380633009146000,2.82514599609375,0.7511342167854309,0.7117457985877991,-0.13966122269630432
1761380633019202300,2.835202392578125,0.7531962990760803,0.8591261506080627,0.010217750445008278
1761380633029258200,2.84525830078125,0.74873948097229,0.9252125024795532,0.14509886503219604
1761380633039314200,2.855314208984375,0.6886007785797119,0.7533233165740967,0.20268307626247406
1761380633049369000,2.865369140625,0.5801001191139221,0.31870660185813904,0.1847999393939972
1761380633059425000,2.875425048828125,0.5348996520042419,-0.13627341389656067,0.1520923227071762
1761380633069481200,2.885481201171875,0.4728471636772156,-0.4913178086280823,0.12276027351617813
1761380633079537200,2.895537109375,0.2760198712348938,-0.6480722427368164,0.1325114369392395
1761380633089592300,2.90559228515625,0.004373176954686642,-0.5527305603027344,0.17711353302001953
1761380633099648300,2.915648193359375,-0.21635334193706512,-0.262628972530365,0.17667436599731445
1761380633109704200,2.9257041015625,-0.34301966428756714,-0.06964325904846191,0.08257903158664703
1761380633119760400,2.935760498046875,-0.36779505014419556,-0.14453187584877014,-0.12122336030006409
1761380633129815000,2.94581494140625,-0.2382517158985138,-0.5225388407707214,-0.3593030273914337
1761380633139871200,2.955871337890625,0.028447087854146957,-1.2077869176864624,-0.46741777658462524
1761380633149927200,2.96592724609375,0.4109731614589691,-2.3062007427215576,-0.5209444165229797
1761380633159983000,2.975983154296875,0.7765769958496094,-3.31535267829895,-0.598630964756012
1761380633170038300,2.986038330078125,0.8173707127571106,-3.5139577388763428,-0.5311269760131836
1761380633180094200,2.99609423828125,0.167460098862648,-3.354593276977539,-0.4813133776187897
1761380633190150100,3.006150146484375,-0.6952328681945801,-3.2180724143981934,-0.861201286315918
1761380633200206300,3.016206298828125,-1.1718348264694214,-3.0655646324157715,-1.69698965549469
1761380633210261000,3.026260986328125,-1.0871915817260742,-3.027959108352661,-2.2077198028564453
1761380633220317200,3.036317138671875,-0.7568770051002502,-3.6669118404388428,-1.7318980693817139
1761380633230373000,3.046373046875,-0.6237828731536865,-4.278378486633301,-0.7816891670227051
1761380633240429000,3.056428955078125,-0.6501529812812805,-4.209884166717529,-0.04632622003555298
1761380633250484200,3.066484130859375,-0.6225882172584534,-3.739788293838501,0.24688434600830078
1761380633260540200,3.0765400390625,-0.460816353559494,-3.422807216644287,0.3292527198791504
1761380633270596400,3.086596435546875,-0.23551158607006073,-3.231796979904175,0.21642658114433289
1761380633280652300,3.09665234375,0.04652222990989685,-3.0058300495147705,-0.15315839648246765
1761380633290707200,3.106707275390625,0.28322210907936096,-2.6689789295196533,-0.6868308186531067
1761380633300763100,3.11676318359375,0.41769498586654663,-2.3306305408477783,-1.1455999612808228
1761380633310819000,3.126819091796875,0.419798344373703,-2.111891984939575,-1.4379829168319702
1761380633320875300,3.136875244140625,0.3901648223400116,-2.003666877746582,-1.5222684144973755
1761380633330930200,3.14693017578125,0.37565723061561584,-1.8652665615081787,-1.4429200887680054
1761380633340986400,3.156986328125,0.3838600516319275,-1.7085126638412476,-1.1596511602401733
1761380633351042300,3.167042236328125,0.41553568840026855,-1.6025973558425903,-0.7075446248054504
1761380633361098200,3.17709814453125,0.4475484788417816,-1.475662350654602,-0.2745538055896759
1761380633371153200,3.187153076171875,0.4430921971797943,-1.2734991312026978,-0.021759357303380966
1761380633381209000,3.197208984375,0.3844238519668579,-1.024903416633606,-0.017162209376692772
1761380633391265300,3.207265380859375,0.2532690167427063,-0.7140118479728699,-0.08718017488718033
1761380633401321200,3.2173212890625,-0.01703703962266445,-0.3830714821815491,-0.13760685920715332
1761380633411376000,3.227376220703125,-0.4046905040740967,-0.16866996884346008,-0.19415588676929474
1761380633421432300,3.237432373046875,-0.807994544506073,-0.02568618766963482,-0.23402553796768188
1761380633431488300,3.24748828125,-1.0587245225906372,0.10233169794082642,-0.3136519193649292
1761380633441544200,3.257544189453125,-1.0853360891342163,0.18510007858276367,-0.5011661648750305
1761380633451599000,3.26759912109375,-0.9974576830863953,0.30287864804267883,-0.648989737033844
1761380633461655000,3.277655029296875,-0.877930760383606,0.42025959491729736,-0.665660560131073
1761380633471711200,3.287711181640625,-0.8066981434822083,0.6061844825744629,-0.6310005784034729
1761380633481767200,3.29776708984375,-0.8314234614372253,1.0752440690994263,-0.6000171303749084
1761380633491822300,3.307822265625,-0.8938316702842712,1.7452349662780762,-0.6119941473007202
1761380633501878500,3.31787841796875,-0.8844656348228455,2.259141206741333,-0.5813273191452026
1761380633511934500,3.3279345703125,-0.7991456389427185,2.5319740772247314,-0.5622298121452332
1761380633521990700,3.33799072265625,-0.7223925590515137,2.641336441040039,-0.5459892749786377
1761380633532045300,3.34804541015625,-0.6605148315429688,2.631674289703369,-0.4425225555896759
1761380633542101500,3.3581015625,-0.4854878783226013,2.7768378257751465,0.10117295384407043
1761380633552157400,3.368157470703125,-0.30058300495147705,2.79170298576355,1.2797183990478516
1761380633562213400,3.37821337890625,-0.3687439560890198,2.8923895359039307,2.1818485260009766
1761380633572268500,3.3882685546875,-0.2998090982437134,2.856060028076172,2.197237014770508
1761380633582324500,3.398324462890625,0.1087011769413948,2.4225034713745117,1.607979655265808
1761380633592380400,3.40838037109375,0.6000392436981201,2.5390164852142334,1.0658423900604248
1761380633602436600,3.4184365234375,0.7279409766197205,3.2382781505584717,0.7901404500007629
1761380633612491300,3.4284912109375,0.5210743546485901,3.9787650108337402,0.506738543510437
1761380633622547500,3.43854736328125,0.3748713433742523,4.698882579803467,0.16456738114356995
1761380633632603400,3.448603271484375,0.4283292591571808,5.083466529846191,-0.34557896852493286
1761380633642659300,3.458659423828125,0.5397042632102966,5.229200839996338,-0.9644978642463684
1761380633652714500,3.468714599609375,0.6121946573257446,5.3019208908081055,-1.4965473413467407
1761380633662770400,3.4787705078125,0.6676195859909058,5.4663310050964355,-1.8114027976989746
1761380633672826600,3.48882666015625,0.7117079496383667,4.5452117919921875,-1.677470088005066
1761380633682882600,3.498882568359375,0.6495588421821594,2.8494715690612793,-1.3217942714691162
1761380633692937500,3.5089375,0.4321466088294983,1.2674564123153687,-0.8004002571105957
1761380633702993400,3.518993408203125,0.19262032210826874,0.22537720203399658,-0.2949908971786499
1761380633713049300,3.52904931640625,-0.10852114856243134,-0.38623133301734924,-0.07957632094621658
1761380633723105500,3.53910546875,-0.3657100796699524,-0.4957146644592285,0.0118515994399786
1761380633733160400,3.549160400390625,-0.4388785660266876,-0.09567698836326599,0.08455190062522888
1761380633743216600,3.559216552734375,-0.35509204864501953,0.46169358491897583,0.05787235498428345
1761380633753272600,3.5692724609375,-0.20102019608020782,0.8269578218460083,-0.08882041275501251
1761380633763328500,3.57932861328125,-0.017657557502388954,0.8546643257141113,-0.3528350293636322
1761380633773383400,3.589383544921875,0.1251794844865799,0.6145683526992798,-0.6233029961585999
1761380633783439400,3.599439453125,0.2696349322795868,0.33058270812034607,-0.7320446372032166
1761380633793495300,3.609495361328125,0.4151063859462738,0.02359054796397686,-0.6578724384307861
1761380633803551500,3.619551513671875,0.5100491642951965,-0.2890680134296417,-0.469748854637146
1761380633813606400,3.6296064453125,0.5767509341239929,-0.5494503378868103,-0.21612031757831573
1761380633823662600,3.63966259765625,0.6233080625534058,-0.7500777244567871,0.14919321238994598
1761380633833718500,3.649718505859375,0.6122700572013855,-0.9158605337142944,0.5864613652229309
1761380633843774500,3.6597744140625,0.5694149732589722,-1.1569628715515137,1.001521110534668
1761380633853829400,3.669829345703125,0.48832279443740845,-1.4956589937210083,1.2113755941390991
1761380633863885300,3.67988525390625,0.29594695568084717,-1.685156226158142,1.0623823404312134
1761380633873941500,3.68994140625,0.021216072142124176,-1.5815373659133911,0.6698222756385803
1761380633883997400,3.69999755859375,-0.21607691049575806,-1.506022334098816,0.25973355770111084
1761380633894052600,3.710052490234375,-0.3605518043041229,-1.4239355325698853,-0.12552064657211304
1761380633904108500,3.720108642578125,-0.35891661047935486,-1.410571813583374,-0.301520437002182
1761380633914164500,3.73016455078125,-0.3558662235736847,-2.464670419692993,-0.5594981908798218
1761380633924220700,3.740220703125,-0.36647891998291016,-4.27361536026001,-1.3119405508041382
1761380633934275300,3.750275390625,-0.18304093182086945,-5.524435520172119,-1.9701356887817383
1761380633944331500,3.76033154296875,-0.022907447069883347,-5.795826435089111,-2.095964193344116
1761380633954387500,3.770387451171875,-0.024148212745785713,-5.503849506378174,-1.64691162109375
1761380633964443400,3.780443359375,-0.24379855394363403,-4.900750160217285,-0.8822482824325562
1761380633974498600,3.79049853515625,-0.596174418926239,-3.9548749923706055,-0.04379621520638466
1761380633984554500,3.800554443359375,-0.887571394443512,-3.027339220046997,0.7200921177864075
1761380633994610400,3.8106103515625,-1.1103349924087524,-2.047121524810791,1.2668262720108032
1761380634004666400,3.820666259765625,-1.2608283758163452,-1.5288879871368408,1.45108163356781
1761380634014721300,3.83072119140625,-1.3612265586853027,-1.5971336364746094,1.1231015920639038
1761380634024777500,3.840777587890625,-1.3283250331878662,-1.5981121063232422,0.4171775281429291
1761380634034833400,3.85083349609375,-1.2205053567886353,-1.293716549873352,-0.3701106905937195
1761380634044889300,3.860889404296875,-1.106337547302246,-0.8929944038391113,-1.0042426586151123
1761380634054944500,3.870944580078125,-1.0209883451461792,-0.7210420966148376,-1.3200697898864746
1761380634065000400,3.88100048828125,-1.011151671409607,-0.7785546183586121,-1.2801213264465332
1761380634075056600,3.891056640625,-1.0971089601516724,-0.9034163951873779,-0.895554780960083
1761380634085112300,3.9011123046875,-1.2259899377822876,-0.9985873699188232,-0.3733203113079071
1761380634095167500,3.91116748046875,-1.37302565574646,-1.0262789726257324,0.09081538766622543
1761380634105223400,3.921223388671875,-1.4842842817306519,-0.8447951674461365,0.3987087607383728
1761380634115279400,3.931279296875,-1.5543899536132812,-0.5098704695701599,0.4559699296951294
1761380634125335600,3.94133544921875,-1.523478388786316,-0.153938427567482,0.4913223385810852
1761380634135390500,3.951390380859375,-1.3851771354675293,-0.022536467760801315,0.6744764447212219
1761380634145446700,3.96144677734375,-1.2404003143310547,-0.23759019374847412,1.0059784650802612
1761380634155502600,3.971502685546875,-1.050745964050293,-0.7754049301147461,1.4313337802886963
1761380634165558300,3.981558349609375,-0.8172373175621033,-1.2006016969680786,1.8170015811920166
1761380634175614500,3.991614501953125,-0.6355724334716797,-1.0126457214355469,2.0205068588256836
1761380634185669400,4.00166943359375,-0.48302099108695984,-0.14998602867126465,1.932122826576233
1761380634195725600,4.0117255859375,-0.4118879437446594,1.1463326215744019,1.5299495458602905
1761380634205778400,4.0217783203125,-0.3870435953140259,2.33925199508667,0.9208869934082031
1761380634215834400,4.03183447265625,-0.3212696313858032,3.0334391593933105,0.36786961555480957
1761380634225889500,4.0418896484375,-0.23015357553958893,3.0977962017059326,0.059296611696481705
1761380634235945500,4.051945556640625,-0.028919799253344536,2.6664299964904785,0.2837912440299988
1761380634246001400,4.06200146484375,0.21813499927520752,1.925241231918335,1.0087004899978638
1761380634256057600,4.0720576171875,0.5054392218589783,1.3275485038757324,2.063060760498047
1761380634266112500,4.082112548828125,0.6342470049858093,1.0155045986175537,2.652266025543213
1761380634276168400,4.09216845703125,0.7607066631317139,0.31861233711242676,2.0471246242523193
1761380634286224400,4.102224365234375,1.08551824092865,-0.21969960629940033,0.42585861682891846
1761380634296280300,4.1122802734375,1.2288440465927124,0.7806763648986816,-0.8156862854957581
1761380634306335500,4.12233544921875,0.7842649817466736,2.1715831756591797,-1.0629596710205078
1761380634316391400,4.132391357421875,0.06331425905227661,3.0406548976898193,-0.6247355341911316
1761380634326447400,4.142447265625,-0.6126572489738464,3.783271074295044,0.08963827043771744
1761380634336503600,4.152503662109375,-1.080696702003479,4.479822635650635,0.7983805537223816
1761380634346558200,4.16255810546875,-1.1983798742294312,4.818814277648926,1.3105026483535767
1761380634356614400,4.172614501953125,-1.0160393714904785,4.46650505065918,1.290220856666565
1761380634366670300,4.18267041015625,-0.5424243807792664,3.6993675231933594,0.6446782946586609
1761380634376726300,4.192726318359375,0.05763399973511696,3.1071290969848633,-0.47195714712142944
1761380634386782500,4.202782470703125,0.5920358896255493,2.7691588401794434,-1.6681956052780151
1761380634396837400,4.21283740234375,1.0854605436325073,2.435497760772705,-2.489185094833374
1761380634406893600,4.2228935546875,1.5205355882644653,2.08589243888855,-2.6635472774505615
1761380634416949500,4.232949462890625,1.8129628896713257,1.7513316869735718,-2.303663730621338
1761380634427005400,4.24300537109375,1.9255735874176025,1.4818904399871826,-1.6187191009521484
1761380634437060400,4.253060302734375,1.8410099744796753,1.1502927541732788,-0.851173460483551
1761380634447116300,4.2631162109375,1.638999342918396,0.8387607336044312,-0.24384301900863647
1761380634457172500,4.27317236328125,1.3995124101638794,0.9504600763320923,0.19286160171031952
1761380634467228400,4.283228515625,1.1460269689559937,1.2923681735992432,0.41989579796791077
1761380634477283600,4.29328369140625,0.9233288764953613,1.293447494506836,0.33118006587028503
1761380634487339500,4.303339599609375,0.795892059803009,0.9143872857093811,-0.0439930222928524
1761380634497395500,4.3133955078125,0.7758762836456299,0.4724080264568329,-0.43115246295928955
1761380634507454500,4.323454345703125,0.797004759311676,0.29047709703445435,-0.6170469522476196
1761380634517510400,4.333510498046875,0.7225371599197388,0.27901726961135864,-0.6039695143699646
1761380634527565600,4.343565673828125,0.5359979271888733,0.27457642555236816,-0.36085325479507446
1761380634537621500,4.35362158203125,0.3144221305847168,0.1216321587562561,0.05998850241303444
1761380634547677400,4.363677490234375,0.1355634182691574,-0.3968570828437805,0.4847152829170227
1761380634557733600,4.373733642578125,0.08735514432191849,-1.3933688402175903,0.7049520611763
1761380634567788500,4.38378857421875,0.09048302471637726,-2.5331339836120605,0.5723934769630432
1761380634577844500,4.393844482421875,0.12556910514831543,-3.3554701805114746,0.1657748520374298
1761380634587900400,4.403900390625,0.1266210526227951,-3.7592711448669434,-0.37855449318885803
1761380634597956400,4.413956298828125,-0.13427285850048065,-3.433636426925659,-0.8209438920021057
1761380634608012500,4.424012451171875,-0.7114309668540955,-2.9500534534454346,-0.9141374826431274
1761380634618068500,4.434068359375,-1.2912930250167847,-3.341064214706421,-0.9002360701560974
1761380634628124400,4.44412451171875,-1.6535910367965698,-3.793203115463257,-1.5629136562347412
1761380634638180600,4.4541806640625,-1.5193150043487549,-3.6154391765594482,-2.3650412559509277
1761380634648235500,4.464235595703125,-1.2557792663574219,-3.6160101890563965,-2.5537939071655273
1761380634658291500,4.47429150390625,-1.2606549263000488,-3.7058701515197754,-2.2217934131622314
1761380634668347600,4.48434765625,-1.4278184175491333,-3.4402413368225098,-1.658128261566162
1761380634678403300,4.4944033203125,-1.4141981601715088,-2.9452438354492188,-0.9153074026107788
1761380634688458500,4.50445849609375,-1.3636596202850342,-2.4643447399139404,-0.4154036045074463
1761380634698514400,4.514514404296875,-1.339026689529419,-1.8790867328643799,-0.4127928912639618
1761380634708570400,4.5245703125,-1.257362723350525,-1.1079882383346558,-0.6590200066566467
1761380634718626600,4.53462646484375,-1.1778790950775146,-0.49562546610832214,-0.8242211937904358
1761380634728682500,4.5446826171875,-1.0995409488677979,-0.5830967426300049,-0.8622024059295654
1761380634738737700,4.554737548828125,-0.9124048352241516,-1.3621379137039185,-0.8937880396842957
1761380634748793600,4.564793701171875,-0.6283345222473145,-2.2654213905334473,-0.9552481770515442
1761380634758849300,4.574849365234375,-0.423313170671463,-3.029561996459961,-1.018403172492981
1761380634768905500,4.584905517578125,-0.2997869849205017,-3.3636860847473145,-1.103127360343933
1761380634778960400,4.59496044921875,-0.28211212158203125,-3.3022708892822266,-1.299999475479126
1761380634789016600,4.6050166015625,-0.21274502575397491,-3.26657772064209,-1.2575608491897583
1761380634799072500,4.615072509765625,-0.19806328415870667,-2.7144718170166016,-0.7007889747619629
1761380634809128400,4.62512841796875,-0.3869868516921997,-1.8284779787063599,0.10440683364868164
1761380634819183600,4.63518359375,-0.7249270677566528,-0.9867672324180603,0.7382279634475708
1761380634829239600,4.645239501953125,-1.115812063217163,-0.2888016998767853,1.019668459892273
1761380634839295500,4.65529541015625,-1.5048364400863647,0.3597560524940491,0.971099317073822
1761380634849351400,4.665351318359375,-1.83423912525177,0.8961331844329834,0.7182707786560059
1761380634859407400,4.675407470703125,-2.004856586456299,1.2630501985549927,0.5422363877296448
1761380634869462500,4.685462646484375,-1.9593970775604248,1.3381609916687012,0.6090769171714783
1761380634879518500,4.6955185546875,-1.7543389797210693,1.2789716720581055,0.8140854835510254
1761380634889574400,4.705574462890625,-1.4344866275787354,1.2138882875442505,1.0360671281814575
1761380634899630600,4.715630615234375,-0.9790704250335693,1.1481201648712158,1.164312481880188
1761380634909685200,4.725685302734375,-0.47004234790802,1.0738059282302856,1.1389729976654053
1761380634919741400,4.735741455078125,-0.006669620517641306,1.0132441520690918,0.9199618101119995
1761380634929797400,4.74579736328125,0.339628666639328,1.0761243104934692,0.6135664582252502
1761380634939853300,4.755853271484375,0.5087788105010986,1.1922333240509033,0.41780975461006165
1761380634949908500,4.765908447265625,0.5695170164108276,1.006889820098877,0.6009020805358887
1761380634959964400,4.77596435546875,0.693230926990509,0.4264642298221588,1.373909592628479
1761380634970020600,4.7860205078125,0.760767936706543,0.030532609671354294,2.0770883560180664
1761380634980076500,4.79607666015625,0.7754557728767395,0.06494197994470596,1.923397183418274
1761380634990132500,4.806132568359375,0.878981351852417,0.044126447290182114,0.7158787250518799
1761380635000187400,4.8161875,1.0237233638763428,0.542303204536438,-0.7339000701904297
1761380635010243300,4.826243408203125,1.0077590942382812,1.5862869024276733,-1.585359811782837
1761380635020299500,4.836299560546875,0.7519991993904114,2.7852094173431396,-1.6205824613571167
1761380635030355500,4.84635546875,0.468668669462204,4.096017837524414,-0.9647226333618164
1761380635040410600,4.85641064453125,0.3609163761138916,4.909021854400635,0.13956907391548157
1761380635050466600,4.866466552734375,0.4115617275238037,4.902576923370361,1.21371328830719
1761380635060522500,4.8765224609375,0.43174102902412415,4.156314849853516,1.6993694305419922
1761380635070578700,4.88657861328125,0.5772793292999268,3.036342144012451,1.4908335208892822
1761380635080633300,4.89663330078125,0.8040115237236023,1.7965277433395386,0.8518698811531067
1761380635090689500,4.906689453125,1.0157674551010132,0.6592415571212769,0.1477082371711731
1761380635100745500,4.916745361328125,1.1834992170333862,-0.283627450466156,-0.35656771063804626
1761380635110801400,4.926801513671875,1.2347251176834106,-0.9430996179580688,-0.5587130784988403
1761380635120857600,4.936857666015625,1.1611329317092896,-1.0410866737365723,-0.4837152659893036
1761380635130912500,4.94691259765625,1.0321125984191895,-0.62993985414505,-0.17630764842033386
1761380635140968400,4.956968505859375,0.8889895081520081,0.05709923803806305,0.3027438819408417
1761380635151024600,4.967024658203125,0.7367550134658813,0.6593062877655029,0.8201987743377686
1761380635161080600,4.97708056640625,0.5930931568145752,0.9857150316238403,1.2121387720108032
1761380635171136300,4.98713623046875,0.47557133436203003,0.9795923829078674,1.4142969846725464
1761380635181191400,4.99719140625,0.4699472486972809,0.6478826403617859,1.3996304273605347
1761380635191247400,5.007247314453125,0.5377673506736755,0.1189626082777977,1.1573193073272705
1761380635201303600,5.017303466796875,0.5934804081916809,-0.3251200318336487,0.8132308721542358
1761380635211359500,5.027359375,0.6118506193161011,-0.673285722732544,0.40305212140083313
1761380635221414700,5.03741455078125,0.6572678685188293,-0.9042068123817444,0.016222113743424416
1761380635231470600,5.047470703125,0.6958253979682922,-1.0499738454818726,-0.17228654026985168
1761380635241526500,5.057526611328125,0.6559565663337708,-1.3896342515945435,-0.13816693425178528
1761380635251582500,5.06758251953125,0.5294265747070312,-1.9004541635513306,0.07206620275974274
1761380635261637400,5.077637451171875,0.3427906334400177,-2.4495720863342285,0.25787442922592163
1761380635271693600,5.087693603515625,0.1389957070350647,-2.9676578044891357,0.25520458817481995
1761380635281749500,5.09774951171875,-0.055751144886016846,-3.281642198562622,0.12310914695262909
1761380635291805400,5.107805419921875,-0.2634532153606415,-3.404172420501709,-0.07405771315097809
1761380635301861600,5.117861572265625,-0.42728209495544434,-3.53310227394104,-0.3943595588207245
1761380635311916500,5.12791650390625,-0.505993127822876,-3.6508328914642334,-0.6861328482627869
1761380635321972500,5.137972412109375,-0.6330651044845581,-3.4828646183013916,-0.7427159547805786
1761380635332028400,5.1480283203125,-1.0057483911514282,-2.8289966583251953,-0.4704711139202118
1761380635342084400,5.15808447265625,-1.5586440563201904,-2.3647072315216064,-0.05095532536506653
1761380635352140500,5.168140625,-2.0377845764160156,-2.1478688716888428,-0.3947499692440033
1761380635362195500,5.178195556640625,-2.0731377601623535,-1.7559864521026611,-1.5279990434646606
1761380635372251400,5.18825146484375,-1.6284358501434326,-2.0233840942382812,-2.10538387298584
1761380635382307600,5.1983076171875,-1.234769582748413,-3.1280009746551514,-2.054868698120117
1761380635392363500,5.208363525390625,-1.019081473350525,-4.012189865112305,-1.4751068353652954
1761380635402418400,5.21841845703125,-0.9249211549758911,-3.7725913524627686,-0.4730969965457916
1761380635412474400,5.228474365234375,-0.8164657950401306,-2.843991279602051,0.5549929141998291
1761380635422530300,5.2385302734375,-0.5821081399917603,-1.9069758653640747,1.181878924369812
1761380635432586500,5.24858642578125,-0.1983247995376587,-1.4879916906356812,1.236126184463501
1761380635442642400,5.258642333984375,0.15183453261852264,-1.3918888568878174,0.9507314562797546
1761380635452697600,5.268697509765625,0.43601885437965393,-1.2864530086517334,0.5897594094276428
1761380635462753500,5.27875341796875,0.6148725152015686,-1.1974374055862427,0.23501144349575043
1761380635472809500,5.2888095703125,0.6817188858985901,-1.22028648853302,-0.06628581136465073
1761380635482865700,5.29886572265625,0.6543580889701843,-1.2528263330459595,-0.1946973204612732
1761380635492920300,5.30892041015625,0.5868584513664246,-1.2112187147140503,-0.09387855976819992
1761380635502976500,5.3189765625,0.5181057453155518,-1.039326548576355,0.08080989122390747
1761380635513032400,5.329032470703125,0.4430091083049774,-0.8350796699523926,0.20323914289474487
1761380635523088400,5.33908837890625,0.26169711351394653,-0.6747382283210754,0.17884723842144012
1761380635533144600,5.34914453125,-0.04361938312649727,-0.5505169630050659,-0.012659869156777859
1761380635543199500,5.359199462890625,-0.39074352383613586,-0.09523703902959824,-0.2611892521381378
1761380635553255700,5.369255615234375,-0.7483072280883789,0.5157501697540283,-0.47505226731300354
1761380635563311400,5.379311279296875,-1.1072193384170532,0.844826877117157,-0.5957009196281433
1761380635573367300,5.3893671875,-1.372639536857605,1.0085997581481934,-0.5681300163269043
1761380635583422500,5.39942236328125,-1.4994744062423706,1.1503854990005493,-0.40801358222961426
1761380635593478400,5.409478515625,-1.5201631784439087,1.2644286155700684,-0.17068731784820557
1761380635603534300,5.419534423828125,-1.4901398420333862,1.3601610660552979,0.1818760633468628
1761380635613590500,5.429590576171875,-1.4513434171676636,1.5296592712402344,0.656322717666626
1761380635623646500,5.439646484375,-1.3516343832015991,1.746657371520996,1.0796856880187988
1761380635633701600,5.44970166015625,-1.1845828294754028,1.9940104484558105,1.2941216230392456
1761380635643757300,5.45975732421875,-1.0054125785827637,2.0832362174987793,1.1814653873443604
1761380635653813200,5.469813232421875,-0.8083018660545349,1.9732004404067993,0.7600246071815491
1761380635663869400,5.479869384765625,-0.5809603333473206,1.8695003986358643,0.2764350473880768
1761380635673925400,5.48992529296875,-0.35637250542640686,1.8747040033340454,-0.10087228566408157
1761380635683980500,5.49998046875,-0.1845993995666504,2.1132874488830566,-0.3193225860595703
1761380635694036500,5.510036376953125,-0.04723755270242691,2.45863938331604,0.0415668860077858
1761380635704092400,5.520092529296875,-0.07484068721532822,2.5836434364318848,0.680829644203186
1761380635714148600,5.530148681640625,-0.15329501032829285,2.5435597896575928,0.6228206753730774
1761380635724203300,5.540203369140625,-0.008686965331435204,2.347385883331299,-0.34289371967315674
1761380635734259500,5.550259521484375,0.3893600106239319,2.3658878803253174,-1.5282374620437622
1761380635744315400,5.5603154296875,0.7708525061607361,3.0813028812408447,-2.161227226257324
1761380635754371300,5.570371337890625,0.899971067905426,4.107385158538818,-2.1243698596954346
1761380635764427500,5.580427490234375,0.8059042096138,4.832098484039307,-1.7853310108184814
1761380635774482400,5.590482421875,0.6738548278808594,4.978261947631836,-1.3625965118408203
1761380635784538600,5.60053857421875,0.5612998008728027,4.879323959350586,-0.7703089714050293
1761380635794594600,5.610594482421875,0.4331740736961365,4.382737636566162,-0.0840405747294426
1761380635804650500,5.620650390625,0.4370476305484772,3.498570442199707,0.4998079538345337
1761380635814706700,5.630706787109375,0.619398295879364,2.6551690101623535,0.7168651819229126
1761380635824761300,5.64076123046875,0.8957659602165222,2.1254611015319824,0.5592635869979858
1761380635834817500,5.650817626953125,1.1830462217330933,1.8497313261032104,0.28834763169288635
1761380635844873500,5.66087353515625,1.4523862600326538,1.517958641052246,0.06952501833438873
1761380635854929400,5.670929443359375,1.6835156679153442,1.0472729206085205,-0.14546452462673187
1761380635864984600,5.680984619140625,1.8481674194335938,0.4928254187107086,-0.36246180534362793
1761380635875040500,5.69104052734375,1.9657984972000122,0.07912357896566391,-0.5750068426132202
1761380635885096400,5.701096435546875,2.07757830619812,-0.021765483543276787,-0.840644896030426
1761380635895152400,5.71115234375,2.1268534660339355,0.18649078905582428,-1.1512677669525146
1761380635905208300,5.721208251953125,2.0300910472869873,0.7010443806648254,-1.3346455097198486
1761380635915263500,5.731263427734375,1.84111750125885,1.2348593473434448,-1.2466312646865845
1761380635925319400,5.7413193359375,1.6138854026794434,1.5507831573486328,-0.8223029375076294
1761380635935375400,5.751375244140625,1.4095895290374756,1.5700253248214722,-0.19338783621788025
1761380635945431600,5.761431640625,1.208545207977295,1.4210169315338135,0.3870433270931244
1761380635955487500,5.771487548828125,1.0029795169830322,1.2305511236190796,0.7585108876228333
1761380635965542700,5.781542724609375,0.7880197763442993,1.0953160524368286,0.9098452925682068
1761380635975598300,5.791598388671875,0.6417661309242249,1.0500985383987427,0.8697178363800049
1761380635985654300,5.801654296875,0.5380192399024963,0.9478940963745117,0.8087258338928223
1761380635995710500,5.81171044921875,0.37929752469062805,0.6867120862007141,0.8935893177986145
1761380636005766400,5.821766357421875,0.10529952496290207,0.09138184785842896,1.1136831045150757
1761380636015821600,5.831821533203125,-0.14912104606628418,-0.7347205877304077,1.2993030548095703
1761380636025877500,5.84187744140625,-0.2627890110015869,-1.4372994899749756,1.3675822019577026
1761380636035933400,5.851933349609375,-0.3051125109195709,-1.8561772108078003,1.2093392610549927
1761380636045989600,5.86198974609375,-0.37244415283203125,-1.891319751739502,0.7177205681800842
1761380636056044300,5.872044189453125,-0.4135814607143402,-1.5871920585632324,0.06969572603702545
1761380636066100500,5.8821005859375,-0.46544891595840454,-0.962727427482605,-0.39574387669563293
1761380636076156400,5.892156494140625,-0.473295658826828,-0.019034944474697113,-0.28315073251724243
1761380636086212400,5.90221240234375,-0.5037579536437988,0.07825219631195068,0.3374733626842499
1761380636096268300,5.912268310546875,-0.5907972455024719,-1.3096193075180054,0.49903643131256104
1761380636106323500,5.922323486328125,-0.48768818378448486,-3.0599308013916016,-0.4433731734752655
1761380636116379400,5.93237939453125,0.09413981437683105,-4.322779178619385,-1.5614584684371948
1761380636126435600,5.942435546875,0.6432969570159912,-5.613622188568115,-1.9684648513793945
1761380636136491500,5.952491455078125,0.8528395295143127,-6.595954418182373,-1.6733261346817017
1761380636146547500,5.96254736328125,0.8382368683815002,-6.455157279968262,-0.988810122013092
1761380636156602400,5.972602294921875,0.617011547088623,-4.935410976409912,-0.07390138506889343
1761380636166658300,5.982658203125,0.16121739149093628,-3.125673770904541,0.6774080395698547
1761380636176714500,5.992714599609375,-0.30373433232307434,-1.947134256362915,0.9545125961303711
1761380636186770400,6.0027705078125,-0.5760718584060669,-1.450843334197998,0.7309804558753967
1761380636196826400,6.012826416015625,-0.7745508551597595,-1.25383460521698,0.13993340730667114
1761380636206881500,6.022881591796875,-0.9565757513046265,-1.1496405601501465,-0.6913696527481079
1761380636216937500,6.0329375,-1.0546597242355347,-1.3073105812072754,-1.5377068519592285
1761380636226993700,6.04299365234375,-1.0010769367218018,-1.617793083190918,-2.0293500423431396
1761380636237049300,6.05304931640625,-0.8504953980445862,-1.8151764869689941,-2.017591714859009
1761380636247105300,6.063105224609375,-0.7281436324119568,-1.7681381702423096,-1.560166358947754
1761380636257160400,6.073160400390625,-0.7277678847312927,-1.4277443885803223,-0.9170928001403809
1761380636267216400,6.08321630859375,-0.8000503182411194,-0.7834359407424927,-0.28254300355911255
1761380636277272600,6.0932724609375,-0.9481031894683838,-0.04638507589697838,0.22981402277946472
1761380636287328500,6.10332861328125,-1.1654640436172485,0.5853990316390991,0.49668407440185547
1761380636297383400,6.113383544921875,-1.3824481964111328,1.051360845565796,0.5316729545593262
1761380636307439600,6.123439697265625,-1.5151197910308838,1.1925920248031616,0.39009398221969604
1761380636317495300,6.133495361328125,-1.5421987771987915,1.0193449258804321,0.16679777204990387
1761380636327551500,6.143551513671875,-1.4884332418441772,0.7823901176452637,-0.11945182830095291
1761380636337607400,6.153607421875,-1.2619754076004028,0.5880120992660522,-0.40301722288131714
1761380636347662300,6.163662353515625,-0.92754065990448,0.5541569590568542,-0.5280414819717407
1761380636357718500,6.173718505859375,-0.6325569748878479,0.624780535697937,-0.4257955253124237
1761380636367774500,6.1837744140625,-0.38193458318710327,0.7657877206802368,-0.10327951610088348
1761380636377830400,6.193830322265625,-0.20426392555236816,1.019282341003418,0.1966123878955841
1761380636387886600,6.203886474609375,-0.14503096044063568,1.4456788301467896,0.20531533658504486
1761380636397941200,6.213941162109375,-0.22542700171470642,1.886466145515442,-0.09513317048549652
1761380636407997400,6.22399755859375,-0.4566405117511749,2.2176504135131836,-0.6574013233184814
1761380636418053400,6.234053466796875,-0.7363786697387695,2.7143259048461914,-1.2399097681045532
1761380636428109300,6.244109375,-0.9094316959381104,3.3034543991088867,-1.3965739011764526
1761380636438165500,6.25416552734375,-0.8966224193572998,3.8221163749694824,-0.870527446269989
1761380636448220400,6.264220458984375,-0.9132474660873413,4.159621715545654,-0.3859322667121887
1761380636458276600,6.274276611328125,-0.7235147953033447,3.9317281246185303,-0.7520652413368225
1761380636468332500,6.28433251953125,-0.07206913083791733,2.9797627925872803,-1.8136390447616577
1761380636478388500,6.294388427734375,0.6190427541732788,2.2322144508361816,-2.6763668060302734
1761380636488444400,6.3044443359375,0.9499319791793823,1.8783082962036133,-2.9871346950531006
1761380636498496300,6.314496337890625,0.8635051846504211,2.0712618827819824,-2.8655688762664795
1761380636508552200,6.32455224609375,0.7598651051521301,2.6799728870391846,-2.337791919708252
1761380636518608100,6.334608154296875,0.6357439756393433,3.2716989517211914,-1.541858196258545
1761380636528664000,6.3446640625,0.42681390047073364,3.5463435649871826,-0.5105165243148804
1761380636538720300,6.35472021484375,0.2743660509586334,3.3950095176696777,0.4868934750556946
1761380636548775200,6.364775146484375,0.31400638818740845,2.903683662414551,1.1121892929077148
1761380636558831000,6.3748310546875,0.4711179733276367,2.3393070697784424,1.2617018222808838
1761380636568887300,6.38488720703125,0.6733294129371643,1.778055191040039,1.0055233240127563
1761380636578943200,6.394943115234375,0.8573365211486816,1.2699099779129028,0.49666115641593933
1761380636588999200,6.404999267578125,0.957949697971344,0.6294413208961487,-0.07850972563028336
1761380636599054000,6.41505419921875,0.9873075485229492,-0.14995993673801422,-0.5069676041603088
1761380636609110000,6.425110107421875,0.9908450841903687,-0.7032769322395325,-0.6927715539932251
1761380636619166200,6.435166259765625,1.0073928833007812,-0.9354156255722046,-0.6431315541267395
1761380636629222100,6.44522216796875,1.0880645513534546,-0.938229501247406,-0.39661020040512085
1761380636639278000,6.455278076171875,1.2545086145401,-0.9257933497428894,0.021802499890327454
1761380636649333200,6.465333251953125,1.4011305570602417,-0.8798589110374451,0.49005547165870667
1761380636659389200,6.47538916015625,1.5039390325546265,-0.9190446138381958,0.8444457650184631
1761380636669445400,6.4854453125,1.5351618528366089,-1.0483030080795288,0.9776656031608582
1761380636679501300,6.495501220703125,1.5256621837615967,-1.2411390542984009,0.9467031359672546
1761380636689556200,6.50555615234375,1.4450335502624512,-1.4768147468566895,0.8195404410362244
1761380636699612200,6.515612060546875,1.2489527463912964,-1.6216890811920166,0.6580988168716431
1761380636709668000,6.525668212890625,0.9984534382820129,-1.611876130104065,0.5433043241500854
1761380636719724300,6.535724365234375,0.7123071551322937,-1.43575119972229,0.5089743137359619
1761380636729780200,6.5457802734375,0.3601653575897217,-1.2417789697647095,0.6155406832695007
1761380636739836200,6.555836181640625,-0.0333840548992157,-1.2503591775894165,0.8467603325843811
1761380636749891300,6.565891357421875,-0.31804269552230835,-1.4436473846435547,1.075398325920105
1761380636759947300,6.575947265625,-0.488800585269928,-1.7575353384017944,1.1185969114303589
1761380636770003200,6.586003173828125,-0.6100265979766846,-2.0592408180236816,0.8337012529373169
1761380636780059100,6.59605908203125,-0.7377656698226929,-2.3321731090545654,0.1796371340751648
1761380636790114000,6.606114013671875,-0.8188754320144653,-2.4032797813415527,-0.5135772824287415
1761380636800170200,6.616170166015625,-0.901991069316864,-2.2859668731689453,-0.7262440323829651
1761380636810226200,6.62622607421875,-1.1251919269561768,-2.5508780479431152,-0.4926280677318573
1761380636820282000,6.6362822265625,-1.5062298774719238,-2.8619513511657715,-0.5144097805023193
1761380636830338300,6.64633837890625,-1.8186322450637817,-2.4357659816741943,-1.1110010147094727
1761380636840393200,6.656393310546875,-1.76827073097229,-2.063732862472534,-1.6031633615493774
1761380636850449200,6.66644921875,-1.5746490955352783,-2.7385733127593994,-1.6153472661972046
1761380636860505000,6.676505126953125,-1.5053166151046753,-3.5983991622924805,-1.1888172626495361
1761380636870561000,6.68656103515625,-1.4936485290527344,-3.4168457984924316,-0.5402770638465881
1761380636880617200,6.6966171875,-1.3611801862716675,-2.6724953651428223,0.018148910254240036
1761380636890672000,6.706672119140625,-1.110891580581665,-2.2098920345306396,0.373322457075119
1761380636900728300,6.716728271484375,-0.8342815637588501,-2.120074510574341,0.566499650478363
1761380636910784300,6.7267841796875,-0.6339346170425415,-2.053419589996338,0.6229693293571472
1761380636920840200,6.736840087890625,-0.507857084274292,-1.8689966201782227,0.6317763924598694
1761380636930896400,6.746896484375,-0.4204854369163513,-1.649854063987732,0.6474019289016724
1761380636940951000,6.756950927734375,-0.349494606256485,-1.440767765045166,0.6360270380973816
1761380636951007200,6.76700732421875,-0.2706781029701233,-1.2975802421569824,0.4692170321941376
1761380636961063200,6.777063232421875,-0.1852332353591919,-1.25994873046875,0.13309812545776367
1761380636971119000,6.787119140625,-0.11960922181606293,-1.2972110509872437,-0.2527635395526886
1761380636981175300,6.79717529296875,-0.14029613137245178,-1.1785798072814941,-0.5513345003128052
1761380636991230200,6.807230224609375,-0.27567657828330994,-0.8799454569816589,-0.7558895349502563
1761380637001286100,6.8172861328125,-0.5432931184768677,-0.396828830242157,-0.8998328447341919
1761380637011342300,6.82734228515625,-0.8886520862579346,0.21682551503181458,-0.9983165264129639
1761380637021398300,6.837398193359375,-1.2222497463226318,0.8495667576789856,-1.0759093761444092
1761380637031454200,6.8474541015625,-1.4816714525222778,1.3363527059555054,-1.055443525314331
1761380637041509000,6.857509033203125,-1.7120682001113892,1.5354723930358887,-0.9593465328216553
1761380637051565000,6.86756494140625,-1.8612289428710938,1.518113374710083,-0.8077630996704102
1761380637061621200,6.877621337890625,-1.8851217031478882,1.3759416341781616,-0.5478575229644775
1761380637071677200,6.88767724609375,-1.8019815683364868,1.3254108428955078,-0.2719028890132904
1761380637081733000,6.897733154296875,-1.552258849143982,1.5003005266189575,0.02616768889129162
1761380637091788300,6.907788330078125,-1.0993475914001465,1.8078413009643555,0.3100590705871582
1761380637101844200,6.91784423828125,-0.49022430181503296,1.9787769317626953,0.5261186361312866
1761380637111900200,6.927900146484375,0.16102750599384308,1.9671564102172852,0.5992581248283386
1761380637121956000,6.9379560546875,0.7544767260551453,1.8674218654632568,0.4897233545780182
1761380637132012000,6.948011962890625,1.213114619255066,1.78334641456604,0.13792511820793152
1761380637142067200,6.958067138671875,1.4784035682678223,1.774183750152588,-0.3152729868888855
1761380637152123100,6.968123046875,1.5558197498321533,1.833788514137268,-0.746792197227478
1761380637162179300,6.978179443359375,1.5305125713348389,2.223184108734131,-1.072134017944336
1761380637172235300,6.9882353515625,1.5822029113769531,2.548856258392334,-0.8642354607582092
1761380637182291200,6.998291259765625,1.7181684970855713,2.721801280975342,-0.24168053269386292
1761380637192346000,7.00834619140625,1.7855619192123413,2.6839218139648438,-0.00021438446128740907
1761380637202402000,7.018402099609375,1.9351894855499268,2.078096389770508,-0.6110604405403137
1761380637212458200,7.028458251953125,2.2830913066864014,1.6838788986206055,-1.4950320720672607
1761380637222514200,7.03851416015625,2.7260262966156006,2.0929458141326904,-1.8671674728393555
1761380637232570000,7.048570068359375,2.7191359996795654,2.402820110321045,-1.7390556335449219
1761380637242625300,7.058625244140625,2.3432235717773438,2.6031041145324707,-1.2489863634109497
1761380637252681200,7.06868115234375,1.827347993850708,2.9900729656219482,-0.5108486413955688
1761380637262737200,7.078737060546875,1.3048522472381592,3.257720947265625,0.3593059778213501
1761380637272793300,7.08879345703125,0.9738884568214417,3.1376535892486572,1.1485337018966675
1761380637282849300,7.098849365234375,0.8618021011352539,2.741957664489746,1.5555835962295532
1761380637292904200,7.108904296875,0.8925075531005859,2.2957022190093994,1.3682714700698853
1761380637302960000,7.118960205078125,1.000854253768921,1.88827383518219,0.7265545725822449
1761380637313016000,7.12901611328125,1.1490381956100464,1.4681320190429688,-0.029028454795479774
1761380637323072300,7.139072265625,1.286485195159912,0.9355722069740295,-0.7311208248138428
1761380637333128200,7.149128173828125,1.3754574060440063,0.38750457763671875,-1.2682840824127197
1761380637343183400,7.159183349609375,1.3843244314193726,-0.026972761377692223,-1.5617623329162598
1761380637353239300,7.1692392578125,1.3259087800979614,-0.21199268102645874,-1.6572179794311523
1761380637363295000,7.179294921875,1.2381243705749512,-0.1830904632806778,-1.643941044807434
1761380637373351200,7.18935107421875,1.1441015005111694,-0.10304994881153107,-1.497345209121704
1761380637383407000,7.199406982421875,0.9984936714172363,-0.003096190979704261,-1.178816556930542
1761380637393462300,7.209462158203125,0.8154977560043335,0.0952783152461052,-0.7518380880355835
1761380637403518200,7.219518310546875,0.643696665763855,0.20051898062229156,-0.30562248826026917
1761380637413574100,7.22957421875,0.43382999300956726,0.21698211133480072,0.09883283823728561
1761380637423630300,7.23963037109375,0.20222553610801697,0.1203964501619339,0.3874411880970001
1761380637433686300,7.249686279296875,-0.01907995156943798,0.035359323024749756,0.48844558000564575
1761380637443741200,7.2597412109375,-0.21512402594089508,-0.009681656025350094,0.49885961413383484
1761380637453797000,7.269797119140625,-0.4112165570259094,-0.2291325181722641,0.6467718482017517
1761380637463853000,7.27985302734375,-0.5633363127708435,-0.6239160299301147,0.986640989780426
1761380637473909200,7.2899091796875,-0.655039370059967,-1.136007308959961,1.384743571281433
1761380637483965200,7.299965087890625,-0.7049981355667114,-1.7388982772827148,1.6671571731567383
1761380637494020000,7.31002001953125,-0.7734054327011108,-2.341951847076416,1.6327449083328247
1761380637504080100,7.320080078125,-0.7767884135246277,-2.752737045288086,1.1999492645263672
1761380637514136000,7.330135986328125,-0.7594903707504272,-2.8758578300476074,0.4282964766025543
1761380637524192000,7.34019189453125,-0.8159699440002441,-2.542928457260132,-0.47865232825279236
1761380637534248200,7.350248291015625,-0.9312549829483032,-2.0803372859954834,-1.1603528261184692
1761380637544304000,7.36030419921875,-1.0746755599975586,-1.6546568870544434,-1.2620512247085571
1761380637554359300,7.370359375,-1.277373194694519,-1.3242496252059937,-0.6029343605041504
1761380637564415200,7.380415283203125,-1.5841758251190186,-1.6159656047821045,0.3877418637275696
1761380637574471000,7.390470947265625,-1.8748701810836792,-2.1525089740753174,0.4351983368396759
1761380637584527000,7.400527099609375,-2.0245635509490967,-2.187504768371582,-0.6131030917167664
1761380637594582000,7.41058203125,-2.0803170204162598,-2.33909273147583,-1.5854625701904297
1761380637604638200,7.42063818359375,-2.1530401706695557,-2.5456924438476562,-1.6145377159118652
1761380637614694100,7.430694091796875,-2.253845453262329,-2.22598934173584,-0.9739744663238525
1761380637624750000,7.44075,-2.116431713104248,-1.8721942901611328,-0.37346014380455017
1761380637634806300,7.45080615234375,-1.796276330947876,-1.7127801179885864,0.09382742643356323
1761380637644861200,7.460861083984375,-1.5093399286270142,-1.644581913948059,0.4829312264919281
1761380637654917000,7.470917236328125,-1.3308777809143066,-1.7602301836013794,0.6055722236633301
1761380637664973000,7.48097314453125,-1.187116265296936,-1.8740386962890625,0.41096222400665283
1761380637675029000,7.491029052734375,-1.0423862934112549,-1.9559866189956665,0.03798866271972656
1761380637685085200,7.501085205078125,-0.9077081084251404,-1.99904465675354,-0.4093358516693115
1761380637695141000,7.51114111328125,-0.824363112449646,-2.0263278484344482,-0.7312079071998596
1761380637705196000,7.521196044921875,-0.8483917713165283,-1.999647855758667,-0.8096699118614197
1761380637715252200,7.531252197265625,-0.9367319941520691,-1.8361669778823853,-0.6824512481689453
1761380637725308200,7.54130810546875,-1.0056266784667969,-1.5006492137908936,-0.4172305166721344
1761380637735364000,7.551364013671875,-1.0268996953964233,-1.0672588348388672,-0.113805390894413
1761380637745420300,7.561420166015625,-1.0238094329833984,-0.6653463244438171,0.12026169896125793
1761380637755475000,7.571474853515625,-1.0136430263519287,-0.417184978723526,0.17348630726337433
1761380637765531100,7.58153125,-1.0124555826187134,-0.20777103304862976,0.0695125013589859
1761380637775587000,7.591587158203125,-1.069361686706543,-0.010056895203888416,-0.17329534888267517
1761380637785643000,7.60164306640625,-1.1676102876663208,0.1765151172876358,-0.4781399369239807
1761380637795699200,7.61169921875,-1.20750892162323,0.29287075996398926,-0.710718035697937
1761380637805754000,7.621754150390625,-1.0948420763015747,0.38501960039138794,-0.7434049248695374
1761380637815810300,7.631810302734375,-0.8039808869361877,0.5617163181304932,-0.5882744193077087
1761380637825866200,7.6418662109375,-0.45464926958084106,0.7507504224777222,-0.3319361209869385
1761380637835922000,7.651921875,-0.0919690728187561,0.9710878729820251,-0.06281651556491852
1761380637845978000,7.66197802734375,0.30283495783805847,1.2382663488388062,0.16042375564575195
1761380637856033000,7.672032958984375,0.7154249548912048,1.519318699836731,0.2552003264427185
1761380637866089200,7.682089111328125,1.0521451234817505,1.7528358697891235,0.15512460470199585
1761380637876145200,7.692145263671875,1.2740064859390259,1.8085989952087402,0.035362519323825836
1761380637886201000,7.702201171875,1.5017101764678955,1.6422127485275269,0.040590837597846985
1761380637896257300,7.71225732421875,1.7649450302124023,1.3639414310455322,0.1289989948272705
1761380637906312200,7.722312255859375,1.984360694885254,1.1721255779266357,0.20028889179229736
1761380637916368100,7.7323681640625,2.047698974609375,1.1000224351882935,0.1683192402124405
1761380637926424000,7.742424072265625,2.050307273864746,1.3182604312896729,0.2067188173532486
1761380637936480000,7.75247998046875,2.208472728729248,1.8950960636138916,0.4815370738506317
1761380637946536200,7.7625361328125,2.314020872116089,2.246856212615967,0.5969254374504089
1761380637956591000,7.772591064453125,2.318789005279541,1.928002953529358,0.2784462869167328
1761380637966647000,7.78264697265625,2.359553098678589,1.3558059930801392,-0.3036288619041443
1761380637976703200,7.792703125,2.518307685852051,1.5105702877044678,-0.6628091335296631
1761380637986759200,7.80275927734375,2.4003944396972656,1.9780434370040894,-0.6704134941101074
1761380637996815000,7.812815185546875,1.9672656059265137,2.5142006874084473,-0.4337248206138611
1761380638006870000,7.8228701171875,1.472307801246643,2.847290277481079,-0.01116024237126112
1761380638016926000,7.832926025390625,1.2561286687850952,2.620077133178711,0.5507568717002869
1761380638026982100,7.842982177734375,1.2198076248168945,2.077589750289917,0.9061858057975769
1761380638037038000,7.8530380859375,1.2207517623901367,1.6020647287368774,0.6930727362632751
1761380638047094000,7.863093994140625,1.2883191108703613,1.1933603286743164,0.16583050787448883
1761380638057149200,7.873149169921875,1.3726097345352173,0.7604123950004578,-0.2159605175256729
1761380638067205000,7.883205078125,1.4107816219329834,0.47049134969711304,-0.39611244201660156
1761380638077261300,7.89326123046875,1.4049538373947144,0.3073495626449585,-0.5104528665542603
1761380638087317200,7.903317138671875,1.368831992149353,0.1773095428943634,-0.5928153991699219
1761380638097373000,7.913373046875,1.3043580055236816,0.11132093518972397,-0.5812245011329651
1761380638107428000,7.923427978515625,1.2266546487808228,0.17392678558826447,-0.4589305520057678
1761380638117484000,7.933484130859375,1.1629624366760254,0.2844647467136383,-0.21655920147895813
1761380638127540200,7.943540283203125,1.142048716545105,0.4022449254989624,0.04993480443954468
1761380638137596200,7.95359619140625,1.1047545671463013,0.45028141140937805,0.2206636667251587
1761380638147652000,7.963652099609375,1.06194269657135,0.404035359621048,0.28322479128837585
1761380638157707300,7.973707275390625,1.0260735750198364,0.26571664214134216,0.22969470918178558
1761380638167763000,7.983762939453125,1.0012668371200562,0.10077641159296036,0.11312469094991684
1761380638177819100,7.993819091796875,0.9399328827857971,-0.056527189910411835,0.028569059446454048
1761380638187875000,8.003875,0.8523889183998108,-0.2783155143260956,0.07643085718154907
1761380638197931000,8.013930908203125,0.7369440793991089,-0.5204564929008484,0.22888857126235962
1761380638207986200,8.023986083984376,0.5763338804244995,-0.6471135020256042,0.4610171616077423
1761380638218041000,8.034041015625,0.36221200227737427,-0.639060914516449,0.7623125314712524
1761380638228097300,8.04409716796875,0.07362202554941177,-0.4650457203388214,1.1064653396606445
1761380638238153200,8.0541533203125,-0.2510303556919098,-0.26125022768974304,1.3834551572799683
1761380638248209000,8.064208984375,-0.5373260378837585,-0.2327972948551178,1.5631316900253296
1761380638258265000,8.07426513671875,-0.8153693675994873,-0.20141486823558807,1.6184581518173218
1761380638268320000,8.084320068359375,-1.062325119972229,-0.09512198716402054,1.496971845626831
1761380638278376200,8.094376220703126,-1.2138570547103882,-0.0017547567840665579,1.200249433517456
1761380638288432000,8.10443212890625,-1.2568399906158447,0.2263769507408142,0.9824899435043335
1761380638298488000,8.114488037109375,-1.2213269472122192,0.44377610087394714,1.1020312309265137
1761380638308544300,8.124544189453125,-1.2373477220535278,0.2231912761926651,1.3536863327026367
1761380638318599200,8.13459912109375,-1.3770215511322021,-0.4499357342720032,1.1212952136993408
1761380638328655000,8.144655029296874,-1.4765454530715942,-1.1229405403137207,0.15825675427913666
1761380638338711000,8.1547109375,-1.2774815559387207,-1.5671690702438354,-1.0045486688613892
1761380638348767000,8.16476708984375,-0.9698271155357361,-1.7670310735702515,-1.4870071411132812
1761380638358823200,8.1748232421875,-0.9622318148612976,-1.617760419845581,-1.1478538513183594
1761380638368878000,8.184878173828125,-1.138611078262329,-1.3643914461135864,-0.5566981434822083
1761380638378934300,8.194934326171875,-1.23334801197052,-0.9776461720466614,-0.12565407156944275
1761380638388990200,8.204990234375,-1.1595193147659302,-0.555138349533081,0.11175848543643951
1761380638399046100,8.215046142578124,-0.9704910516738892,-0.5676612854003906,0.0774918645620346
1761380638409102000,8.22510205078125,-0.7898895740509033,-0.8690890669822693,-0.20080500841140747
1761380638419157000,8.235156982421875,-0.583687424659729,-1.1154778003692627,-0.5448758602142334
1761380638429213000,8.245212890625,-0.3837742805480957,-1.1407709121704102,-0.7666434049606323
1761380638439269000,8.25526904296875,-0.30748671293258667,-1.0862396955490112,-0.7428141832351685
1761380638449325000,8.265324951171875,-0.35480788350105286,-1.0047755241394043,-0.4081696569919586
1761380638459381000,8.275381103515626,-0.46826574206352234,-0.978042721748352,0.12439172714948654
1761380638469436200,8.285436279296874,-0.5843364000320435,-0.9234596490859985,0.6538292169570923
1761380638479492000,8.2954921875,-0.6871901154518127,-0.8163930773735046,1.0381968021392822
1761380638489548300,8.30554833984375,-0.7956348061561584,-0.8071101307868958,1.2578411102294922
1761380638499604200,8.315604248046874,-0.8662144541740417,-0.6906338334083557,1.3019877672195435
1761380638509656000,8.325656005859376,-0.8353814482688904,-0.34552517533302307,1.0917695760726929
1761380638519711000,8.3357109375,-0.7031882405281067,0.14241600036621094,0.6510113477706909
1761380638529767000,8.345766845703125,-0.6023796200752258,0.6762160062789917,0.16717274487018585
1761380638539823000,8.355822998046875,-0.4656856656074524,0.9037916660308838,-0.36968350410461426
1761380638549879000,8.365879150390626,-0.32512056827545166,0.9605904817581177,-0.7126829624176025
1761380638559935000,8.37593505859375,-0.2284078747034073,0.8471318483352661,-0.7709534168243408
1761380638569990100,8.385990234375,-0.18071891367435455,0.57772296667099,-0.584436297416687
1761380638580046000,8.396046142578125,-0.14896072447299957,0.3087306618690491,-0.20029714703559875
1761380638590102300,8.406102294921874,-0.22812451422214508,0.22809281945228577,0.25608450174331665
1761380638600158200,8.416158203125,-0.3227628767490387,0.35642150044441223,0.6375898122787476
1761380638610217200,8.42621728515625,-0.2996671497821808,0.5118390321731567,0.7417851686477661
