time,seconds_elapsed,z,y,x
1761379831104230100,0.063230224609375,-0.7704315185546875,-0.333984375,0.0664215087890625
1761379831114313200,0.073313232421875,-0.7714996337890625,-0.34735107421875,0.074676513671875
1761379831124396000,0.08339599609375,-0.77691650390625,-0.3571929931640625,0.07977294921875
1761379831134479400,0.093479248046875,-0.79669189453125,-0.36529541015625,0.09002685546875
1761379831144562200,0.103562255859375,-0.8017120361328125,-0.369140625,0.09393310546875
1761379831154645200,0.113645263671875,-0.8076171875,-0.369781494140625,0.097320556640625
1761379831164728000,0.12372802734375,-0.8274078369140625,-0.3715057373046875,0.1075897216796875
1761379831174811100,0.13381103515625,-0.8489990234375,-0.3731842041015625,0.1235809326171875
1761379831184894200,0.143894287109375,-0.866119384765625,-0.3731231689453125,0.13397216796875
1761379831194977300,0.153977294921875,-0.879669189453125,-0.3686370849609375,0.13323974609375
1761379831205060400,0.164060302734375,-0.8874664306640625,-0.368316650390625,0.130401611328125
1761379831215143200,0.17414306640625,-0.8870391845703125,-0.3652801513671875,0.1182098388671875
1761379831225226200,0.184226318359375,-0.887420654296875,-0.3577728271484375,0.107635498046875
1761379831235309000,0.19430908203125,-0.8941192626953125,-0.3583984375,0.1044464111328125
1761379831245392400,0.204392333984375,-0.8937835693359375,-0.364013671875,0.106414794921875
1761379831255475200,0.21447509765625,-0.8846588134765625,-0.37005615234375,0.108612060546875
1761379831265558300,0.224558349609375,-0.8719940185546875,-0.3756103515625,0.1100006103515625
1761379831275641000,0.23464111328125,-0.87445068359375,-0.3861236572265625,0.1144256591796875
1761379831285724200,0.24472412109375,-0.884765625,-0.397125244140625,0.1115264892578125
1761379831295807200,0.25480712890625,-0.8899688720703125,-0.3983154296875,0.1002197265625
1761379831305890300,0.264890380859375,-0.885498046875,-0.4049835205078125,0.10479736328125
1761379831315973400,0.274973388671875,-0.876007080078125,-0.418670654296875,0.1083984375
1761379831326056200,0.28505615234375,-0.8743896484375,-0.4248046875,0.11480712890625
1761379831336139300,0.29513916015625,-0.878204345703125,-0.4250640869140625,0.1097412109375
1761379831346222000,0.30522216796875,-0.8872528076171875,-0.4231719970703125,0.1109771728515625
1761379831356305200,0.31530517578125,-0.90313720703125,-0.426910400390625,0.112396240234375
1761379831366393600,0.3253935546875,-0.9249420166015625,-0.4271087646484375,0.1218109130859375
1761379831376476400,0.335476318359375,-0.94610595703125,-0.4215850830078125,0.12432861328125
1761379831386559500,0.3455595703125,-0.9628143310546875,-0.40960693359375,0.135528564453125
1761379831396642600,0.355642578125,-0.9825286865234375,-0.4039306640625,0.1435546875
1761379831406725400,0.365725341796875,-1.0096588134765625,-0.411590576171875,0.14044189453125
1761379831416808700,0.37580859375,-1.0366363525390625,-0.4032135009765625,0.1334075927734375
1761379831426891500,0.3858916015625,-1.0587310791015625,-0.39239501953125,0.1285247802734375
1761379831436974600,0.395974609375,-1.06707763671875,-0.3992919921875,0.1391448974609375
1761379831447057400,0.406057373046875,-1.0582275390625,-0.429351806640625,0.1720123291015625
1761379831457140500,0.416140380859375,-1.054656982421875,-0.4495697021484375,0.1907501220703125
1761379831467223300,0.426223388671875,-1.040679931640625,-0.451171875,0.1827545166015625
1761379831477306600,0.436306640625,-1.0321502685546875,-0.46258544921875,0.16552734375
1761379831487389400,0.446389404296875,-1.056427001953125,-0.47882080078125,0.1660919189453125
1761379831497472500,0.456472412109375,-1.0919342041015625,-0.4781646728515625,0.1421051025390625
1761379831507555600,0.4665556640625,-1.134735107421875,-0.449859619140625,0.1082763671875
1761379831517638400,0.476638427734375,-1.1356048583984375,-0.417877197265625,0.0711212158203125
1761379831527721500,0.486721435546875,-1.1186370849609375,-0.3741455078125,0.0320587158203125
1761379831537804500,0.496804443359375,-1.1073455810546875,-0.3291168212890625,0.01995849609375
1761379831547887600,0.5068876953125,-1.0834197998046875,-0.28955078125,0.0279998779296875
1761379831557970400,0.516970458984375,-1.0389862060546875,-0.2536468505859375,0.04736328125
1761379831568053500,0.527053466796875,-0.9764404296875,-0.22662353515625,0.0704345703125
1761379831578136300,0.53713623046875,-0.909027099609375,-0.221710205078125,0.092620849609375
1761379831588219400,0.547219482421875,-0.8498077392578125,-0.2234954833984375,0.1141357421875
1761379831598302700,0.557302734375,-0.802093505859375,-0.2235107421875,0.1365814208984375
1761379831608385500,0.567385498046875,-0.769317626953125,-0.226318359375,0.1520843505859375
1761379831618468600,0.577468505859375,-0.763946533203125,-0.2412872314453125,0.175201416015625
1761379831628551400,0.587551513671875,-0.7901153564453125,-0.264495849609375,0.1987152099609375
1761379831638634500,0.597634521484375,-0.8245697021484375,-0.2721710205078125,0.2098236083984375
1761379831648717300,0.60771728515625,-0.86358642578125,-0.2760009765625,0.202911376953125
1761379831658800600,0.617800537109375,-0.8890228271484375,-0.2725830078125,0.18084716796875
1761379831668883500,0.627883544921875,-0.9097442626953125,-0.264678955078125,0.1534576416015625
1761379831678966500,0.637966552734375,-0.9317169189453125,-0.2647857666015625,0.1239013671875
1761379831689049600,0.648049560546875,-0.9510498046875,-0.265533447265625,0.0972442626953125
1761379831699132400,0.65813232421875,-0.957550048828125,-0.27130126953125,0.076751708984375
1761379831709215500,0.668215576171875,-0.9504547119140625,-0.2791748046875,0.0612640380859375
1761379831719298600,0.678298583984375,-0.9357147216796875,-0.2842254638671875,0.05010986328125
1761379831729381600,0.688381591796875,-0.9216156005859375,-0.28851318359375,0.0496826171875
1761379831739464400,0.69846435546875,-0.9100494384765625,-0.290374755859375,0.0598602294921875
1761379831749547500,0.708547607421875,-0.8958587646484375,-0.2888946533203125,0.0749359130859375
1761379831759630300,0.71863037109375,-0.878936767578125,-0.2901611328125,0.0937652587890625
1761379831769713400,0.72871337890625,-0.858673095703125,-0.2937469482421875,0.11566162109375
1761379831779796500,0.73879638671875,-0.8407745361328125,-0.3009033203125,0.1356048583984375
1761379831789879600,0.748879638671875,-0.8346099853515625,-0.3085174560546875,0.1499481201171875
1761379831799962600,0.758962646484375,-0.83831787109375,-0.3145904541015625,0.1599273681640625
1761379831810045400,0.76904541015625,-0.844451904296875,-0.3203277587890625,0.165496826171875
1761379831820128500,0.77912841796875,-0.8571014404296875,-0.3255615234375,0.1672821044921875
1761379831830211300,0.78921142578125,-0.87078857421875,-0.328277587890625,0.1638641357421875
1761379831840294700,0.799294677734375,-0.8882293701171875,-0.331207275390625,0.159942626953125
1761379831850377500,0.80937744140625,-0.90020751953125,-0.337005615234375,0.1455230712890625
1761379831860460500,0.81946044921875,-0.9115142822265625,-0.34033203125,0.1267242431640625
1761379831870543400,0.82954345703125,-0.9245452880859375,-0.3377532958984375,0.108245849609375
1761379831880626400,0.83962646484375,-0.94049072265625,-0.3371124267578125,0.092041015625
1761379831890709500,0.84970947265625,-0.9555511474609375,-0.3397979736328125,0.077301025390625
1761379831900792600,0.85979248046875,-0.962188720703125,-0.3430633544921875,0.063507080078125
1761379831910875600,0.869875732421875,-0.96270751953125,-0.3483428955078125,0.049468994140625
1761379831920958500,0.87995849609375,-0.96026611328125,-0.355804443359375,0.0395660400390625
1761379831931041500,0.89004150390625,-0.9528350830078125,-0.368011474609375,0.0373687744140625
1761379831941124400,0.900124267578125,-0.9391632080078125,-0.3845672607421875,0.03741455078125
1761379831951207400,0.91020751953125,-0.919097900390625,-0.4008941650390625,0.03857421875
1761379831961290500,0.92029052734375,-0.90533447265625,-0.41522216796875,0.0396270751953125
1761379831971374600,0.93037451171875,-0.8969879150390625,-0.4309234619140625,0.043609619140625
1761379831981456600,0.94045654296875,-0.8945770263671875,-0.4450836181640625,0.0440673828125
1761379831991539500,0.95053955078125,-0.903900146484375,-0.4517669677734375,0.040924072265625
1761379832001622500,0.96062255859375,-0.924835205078125,-0.456878662109375,0.0362091064453125
1761379832011705300,0.970705322265625,-0.935272216796875,-0.4589080810546875,0.028045654296875
1761379832021789400,0.98078955078125,-0.949371337890625,-0.456787109375,0.026824951171875
1761379832031871500,0.99087158203125,-0.9632568359375,-0.453399658203125,0.017242431640625
1761379832041954600,1.00095458984375,-0.985443115234375,-0.4440765380859375,0.003631591796875
1761379832052038400,1.011038330078125,-1.0074005126953125,-0.4298553466796875,-0.0079803466796875
1761379832062120400,1.021120361328125,-1.0148773193359375,-0.4181365966796875,-0.0176239013671875
1761379832072204500,1.03120458984375,-1.01275634765625,-0.4144287109375,-0.0089874267578125
1761379832082287600,1.04128759765625,-1.003509521484375,-0.4312896728515625,0.027587890625
1761379832092370400,1.051370361328125,-1.0037384033203125,-0.45050048828125,0.062164306640625
1761379832102453500,1.06145361328125,-1.0145721435546875,-0.4516754150390625,0.0743255615234375
1761379832112536300,1.071536376953125,-1.0162200927734375,-0.4583587646484375,0.070709228515625
1761379832122619400,1.081619384765625,-1.0355682373046875,-0.4573974609375,0.052398681640625
1761379832132702500,1.091702392578125,-1.05584716796875,-0.4486083984375,0.03521728515625
1761379832142785500,1.10178564453125,-1.0800628662109375,-0.438262939453125,0.0247802734375
1761379832152868600,1.11186865234375,-1.095733642578125,-0.4072113037109375,-0.00140380859375
1761379832162951400,1.121951416015625,-1.085906982421875,-0.36956787109375,-0.024444580078125
1761379832173034500,1.132034423828125,-1.0649566650390625,-0.34503173828125,-0.028961181640625
1761379832183117300,1.142117431640625,-1.0411529541015625,-0.3289031982421875,-0.01318359375
1761379832193200600,1.15220068359375,-1.003082275390625,-0.3090667724609375,0.004058837890625
1761379832203283500,1.162283447265625,-0.9543304443359375,-0.2914886474609375,0.0229034423828125
1761379832213366500,1.172366455078125,-0.91241455078125,-0.2886199951171875,0.03802490234375
1761379832223449300,1.182449462890625,-0.887603759765625,-0.2905731201171875,0.0423431396484375
1761379832233532400,1.192532470703125,-0.876220703125,-0.2924041748046875,0.04473876953125
1761379832243615500,1.202615478515625,-0.8722381591796875,-0.290863037109375,0.0306854248046875
1761379832253698600,1.212698486328125,-0.881622314453125,-0.2919464111328125,0.0023040771484375
1761379832263781600,1.22278173828125,-0.9038848876953125,-0.2938232421875,-0.009033203125
1761379832273864400,1.232864501953125,-0.9096527099609375,-0.2913970947265625,-0.024627685546875
1761379832283947500,1.242947509765625,-0.915618896484375,-0.28875732421875,-0.0483245849609375
1761379832294030300,1.2530302734375,-0.913818359375,-0.2927703857421875,-0.0665740966796875
1761379832304113400,1.263113525390625,-0.902008056640625,-0.2909088134765625,-0.0878753662109375
1761379832314196500,1.273196533203125,-0.908447265625,-0.27630615234375,-0.1112518310546875
1761379832324279600,1.283279541015625,-0.932373046875,-0.2687835693359375,-0.1188201904296875
1761379832334362600,1.293362548828125,-0.94757080078125,-0.26531982421875,-0.131988525390625
1761379832344445400,1.303445556640625,-0.9687957763671875,-0.2559051513671875,-0.1380462646484375
1761379832354528500,1.313528564453125,-0.9945831298828125,-0.2424468994140625,-0.1317901611328125
1761379832364606700,1.323606689453125,-0.995361328125,-0.2316131591796875,-0.1226043701171875
1761379832374689500,1.333689453125,-0.968536376953125,-0.231231689453125,-0.102203369140625
1761379832384772600,1.343772705078125,-0.932159423828125,-0.24237060546875,-0.0691070556640625
1761379832394855400,1.35385546875,-0.891876220703125,-0.268402099609375,-0.0288543701171875
1761379832404938800,1.363938720703125,-0.8395233154296875,-0.30322265625,-0.0019073486328125
1761379832415021600,1.374021484375,-0.7974090576171875,-0.3376007080078125,0.0095672607421875
1761379832425104600,1.384104736328125,-0.75750732421875,-0.3632659912109375,0.0198211669921875
1761379832435187500,1.3941875,-0.74322509765625,-0.3867034912109375,0.02593994140625
1761379832445270500,1.4042705078125,-0.7391357421875,-0.408966064453125,0.0366058349609375
1761379832455353600,1.414353515625,-0.7449188232421875,-0.4326019287109375,0.049560546875
1761379832465436700,1.424436767578125,-0.7465972900390625,-0.4403228759765625,0.050445556640625
1761379832475519700,1.434519775390625,-0.7451629638671875,-0.43902587890625,0.0511016845703125
1761379832485602600,1.4446025390625,-0.7607421875,-0.4415435791015625,0.0473480224609375
1761379832495685600,1.454685546875,-0.7920074462890625,-0.4452972412109375,0.048492431640625
1761379832505768400,1.4647685546875,-0.81817626953125,-0.4391326904296875,0.0502471923828125
1761379832515851500,1.4748515625,-0.83428955078125,-0.4229888916015625,0.0472564697265625
1761379832525934600,1.4849345703125,-0.856292724609375,-0.4064788818359375,0.050567626953125
1761379832536017700,1.495017578125,-0.8825531005859375,-0.403289794921875,0.06005859375
1761379832546100700,1.505100830078125,-0.903900146484375,-0.4026641845703125,0.0651092529296875
1761379832556183600,1.51518359375,-0.9187469482421875,-0.3979339599609375,0.0657196044921875
1761379832566266600,1.5252666015625,-0.9251556396484375,-0.39495849609375,0.06658935546875
1761379832576349400,1.535349365234375,-0.923919677734375,-0.3959503173828125,0.0723419189453125
1761379832586432800,1.545432861328125,-0.9136199951171875,-0.4004364013671875,0.084320068359375
1761379832596515600,1.555515625,-0.9045867919921875,-0.40631103515625,0.095489501953125
1761379832606598700,1.5655986328125,-0.8961181640625,-0.4136505126953125,0.1015625
1761379832616681500,1.575681396484375,-0.8971099853515625,-0.4201507568359375,0.1025848388671875
1761379832626764500,1.5857646484375,-0.898956298828125,-0.4253997802734375,0.1005859375
1761379832636847600,1.59584765625,-0.9051361083984375,-0.426910400390625,0.097930908203125
1761379832646930700,1.6059306640625,-0.916595458984375,-0.428314208984375,0.100372314453125
1761379832657013800,1.616013671875,-0.93206787109375,-0.431671142578125,0.1075897216796875
1761379832667096600,1.6260966796875,-0.9476470947265625,-0.4325103759765625,0.1115875244140625
1761379832677179600,1.6361796875,-0.9593048095703125,-0.4334564208984375,0.1143951416015625
1761379832687262500,1.646262451171875,-0.968994140625,-0.4390716552734375,0.1189117431640625
1761379832697345500,1.656345458984375,-0.98162841796875,-0.450897216796875,0.1227874755859375
1761379832707428600,1.6664287109375,-0.9905242919921875,-0.4613037109375,0.1252899169921875
1761379832717511700,1.67651171875,-0.9952850341796875,-0.4719696044921875,0.1290740966796875
1761379832727594500,1.686594482421875,-0.9847869873046875,-0.507476806640625,0.152069091796875
1761379832737677600,1.696677490234375,-0.9913330078125,-0.5383453369140625,0.1773223876953125
1761379832747760600,1.7067607421875,-1.0137176513671875,-0.5428619384765625,0.1813507080078125
1761379832757843500,1.716843505859375,-1.0308990478515625,-0.5300750732421875,0.163970947265625
1761379832767926800,1.7269267578125,-1.0652618408203125,-0.525970458984375,0.130889892578125
1761379832778009600,1.737009521484375,-1.086669921875,-0.5343017578125,0.112823486328125
1761379832788092700,1.7470927734375,-1.110382080078125,-0.525665283203125,0.088134765625
1761379832798175500,1.757175537109375,-1.1494598388671875,-0.494232177734375,0.0620880126953125
1761379832808258600,1.767258544921875,-1.172576904296875,-0.4555511474609375,0.0367431640625
1761379832818341400,1.77734130859375,-1.1840362548828125,-0.412322998046875,0.0197296142578125
1761379832828424700,1.7874248046875,-1.180999755859375,-0.368896484375,0.0186767578125
1761379832838507800,1.7975078125,-1.15081787109375,-0.331146240234375,0.0172576904296875
1761379832848590600,1.807590576171875,-1.099090576171875,-0.2944183349609375,0.0169525146484375
1761379832858673700,1.817673583984375,-1.0408782958984375,-0.2765350341796875,0.02716064453125
1761379832868756500,1.827756591796875,-0.9856414794921875,-0.275543212890625,0.0360870361328125
1761379832878839600,1.837839599609375,-0.93145751953125,-0.2699737548828125,0.0378875732421875
1761379832888922600,1.847922607421875,-0.882171630859375,-0.2605743408203125,0.0393524169921875
1761379832899005700,1.858005615234375,-0.8510589599609375,-0.2621612548828125,0.04095458984375
1761379832909088500,1.868088623046875,-0.8266754150390625,-0.2703399658203125,0.049163818359375
1761379832919171600,1.878171630859375,-0.8220062255859375,-0.2740478515625,0.0533905029296875
1761379832929254700,1.888254638671875,-0.827911376953125,-0.2825775146484375,0.057861328125
1761379832939337500,1.89833740234375,-0.847747802734375,-0.2803955078125,0.0536651611328125
1761379832949420800,1.9084208984375,-0.89300537109375,-0.285003662109375,0.043487548828125
1761379832959503600,1.918503662109375,-0.912933349609375,-0.282928466796875,0.0148468017578125
1761379832969586700,1.928586669921875,-0.9274749755859375,-0.2642059326171875,-0.02294921875
1761379832979669500,1.93866943359375,-0.93890380859375,-0.247772216796875,-0.0591278076171875
1761379832989752600,1.948752685546875,-0.9433135986328125,-0.2327880859375,-0.0838470458984375
1761379832999835400,1.95883544921875,-0.94622802734375,-0.2213897705078125,-0.08563232421875
1761379833009918700,1.968918701171875,-0.933349609375,-0.2140045166015625,-0.0754852294921875
1761379833020001500,1.97900146484375,-0.9091949462890625,-0.210601806640625,-0.0564422607421875
1761379833030084600,1.989084716796875,-0.8766021728515625,-0.2144927978515625,-0.027587890625
1761379833040167700,1.999167724609375,-0.8435211181640625,-0.2259521484375,0.0057830810546875
1761379833050250500,2.00925048828125,-0.811431884765625,-0.24774169921875,0.0377044677734375
1761379833060333600,2.01933349609375,-0.78277587890625,-0.2630462646484375,0.0612030029296875
1761379833070416600,2.029416748046875,-0.766632080078125,-0.2735595703125,0.0725250244140625
1761379833080499700,2.039499755859375,-0.7661590576171875,-0.2909088134765625,0.08770751953125
1761379833090582500,2.04958251953125,-0.78619384765625,-0.3054351806640625,0.104705810546875
1761379833100665600,2.05966552734375,-0.80609130859375,-0.3118133544921875,0.11822509765625
1761379833110748400,2.06974853515625,-0.8260345458984375,-0.32049560546875,0.1317901611328125
1761379833120831500,2.07983154296875,-0.8347015380859375,-0.3286590576171875,0.1287689208984375
1761379833130914800,2.089914794921875,-0.84185791015625,-0.340087890625,0.124267578125
1761379833140997600,2.09999755859375,-0.84368896484375,-0.356689453125,0.123748779296875
1761379833151080700,2.110080810546875,-0.8577880859375,-0.381103515625,0.1192169189453125
1761379833161163500,2.12016357421875,-0.8702392578125,-0.4017333984375,0.113067626953125
1761379833171246600,2.13024658203125,-0.88092041015625,-0.4133758544921875,0.100494384765625
1761379833181329400,2.140329345703125,-0.901519775390625,-0.4178009033203125,0.0902557373046875
1761379833191412700,2.150412841796875,-0.926849365234375,-0.420654296875,0.0810089111328125
1761379833201495600,2.16049560546875,-0.9491119384765625,-0.4190521240234375,0.0682220458984375
1761379833211578600,2.17057861328125,-0.967529296875,-0.4068450927734375,0.0549163818359375
1761379833221661400,2.180661376953125,-0.9841766357421875,-0.3909149169921875,0.0467071533203125
1761379833231744500,2.19074462890625,-1.0004730224609375,-0.3734893798828125,0.044097900390625
1761379833241827600,2.20082763671875,-1.0155181884765625,-0.3579864501953125,0.04290771484375
1761379833251910700,2.21091064453125,-1.0328216552734375,-0.34344482421875,0.045654296875
1761379833261993700,2.22099365234375,-1.048065185546875,-0.3342742919921875,0.0493011474609375
1761379833272076500,2.23107666015625,-1.046905517578125,-0.3253936767578125,0.0491180419921875
1761379833282159600,2.24115966796875,-1.0372161865234375,-0.320037841796875,0.050445556640625
1761379833292242400,2.251242431640625,-1.0169525146484375,-0.320831298828125,0.055877685546875
1761379833302325500,2.261325439453125,-0.985076904296875,-0.3280181884765625,0.0645904541015625
1761379833312408600,2.27140869140625,-0.9504852294921875,-0.3379974365234375,0.0721588134765625
1761379833322491600,2.28149169921875,-0.9172210693359375,-0.343170166015625,0.0770263671875
1761379833332574700,2.29157470703125,-0.88531494140625,-0.3429718017578125,0.0778961181640625
1761379833342657500,2.301657470703125,-0.8668060302734375,-0.344482421875,0.083038330078125
1761379833352740600,2.31174072265625,-0.8523406982421875,-0.3452606201171875,0.089599609375
1761379833362823400,2.321823486328125,-0.8436279296875,-0.346405029296875,0.095428466796875
1761379833372906500,2.331906494140625,-0.84588623046875,-0.344940185546875,0.1036376953125
1761379833382989300,2.3419892578125,-0.85882568359375,-0.34381103515625,0.1118011474609375
1761379833393072400,2.352072265625,-0.8745880126953125,-0.34075927734375,0.1112823486328125
1761379833403155500,2.362155517578125,-0.8926849365234375,-0.3298492431640625,0.1084442138671875
1761379833413238500,2.372238525390625,-0.9102630615234375,-0.3156585693359375,0.1050567626953125
1761379833423321600,2.382321533203125,-0.9269866943359375,-0.3000030517578125,0.1051025390625
1761379833433404400,2.392404296875,-0.9348907470703125,-0.2873077392578125,0.1089935302734375
1761379833443487500,2.402487548828125,-0.9339141845703125,-0.288055419921875,0.124359130859375
1761379833453570300,2.4125703125,-0.9226531982421875,-0.3090972900390625,0.1592254638671875
1761379833463653600,2.422653564453125,-0.9240875244140625,-0.32977294921875,0.1965484619140625
1761379833473736400,2.432736328125,-0.9340362548828125,-0.3453216552734375,0.220062255859375
1761379833483819500,2.442819580078125,-0.9578399658203125,-0.3547821044921875,0.22015380859375
1761379833493902300,2.45290234375,-0.9862823486328125,-0.358978271484375,0.210235595703125
1761379833503985400,2.4629853515625,-1.0153045654296875,-0.347747802734375,0.185211181640625
1761379833514068500,2.473068359375,-1.052093505859375,-0.3272857666015625,0.155487060546875
1761379833524151600,2.483151611328125,-1.097320556640625,-0.293975830078125,0.124847412109375
1761379833534234600,2.493234619140625,-1.117156982421875,-0.2555084228515625,0.0963897705078125
1761379833544317400,2.5033173828125,-1.1158294677734375,-0.22894287109375,0.0722198486328125
1761379833554400500,2.513400390625,-1.117279052734375,-0.2088165283203125,0.0730438232421875
1761379833564483300,2.5234833984375,-1.101104736328125,-0.1913299560546875,0.0823516845703125
1761379833574566400,2.53356640625,-1.0786285400390625,-0.1695709228515625,0.0861663818359375
1761379833584649500,2.5436494140625,-1.066558837890625,-0.1611785888671875,0.104217529296875
1761379833594732500,2.553732666015625,-1.055816650390625,-0.174713134765625,0.1180572509765625
1761379833604815400,2.5638154296875,-1.043731689453125,-0.1826019287109375,0.1175079345703125
1761379833614898400,2.5738984375,-1.026336669921875,-0.1773681640625,0.1056671142578125
1761379833624981500,2.5839814453125,-1.0026092529296875,-0.1817474365234375,0.1007843017578125
1761379833635064300,2.594064208984375,-0.9897918701171875,-0.1912384033203125,0.0894012451171875
1761379833645147600,2.604147705078125,-0.9771728515625,-0.20709228515625,0.071533203125
1761379833655230500,2.61423046875,-0.9636993408203125,-0.216949462890625,0.044677734375
1761379833665313500,2.6243134765625,-0.9554901123046875,-0.2255859375,0.016265869140625
1761379833675396400,2.634396240234375,-0.953155517578125,-0.2324981689453125,-0.011566162109375
1761379833685479400,2.6444794921875,-0.9427337646484375,-0.2363739013671875,-0.035736083984375
1761379833695562200,2.654562255859375,-0.92816162109375,-0.23272705078125,-0.0581207275390625
1761379833705645600,2.6646455078125,-0.91168212890625,-0.23162841796875,-0.0671844482421875
1761379833715728600,2.674728759765625,-0.8987884521484375,-0.2345428466796875,-0.0643310546875
1761379833725811500,2.6848115234375,-0.890167236328125,-0.2364959716796875,-0.052398681640625
1761379833735894500,2.69489453125,-0.8975982666015625,-0.2394256591796875,-0.0423583984375
1761379833745977300,2.704977294921875,-0.91583251953125,-0.2428741455078125,-0.03302001953125
1761379833756060400,2.715060302734375,-0.9322052001953125,-0.2446136474609375,-0.0286865234375
1761379833766143500,2.7251435546875,-0.9513092041015625,-0.2459564208984375,-0.0232391357421875
1761379833776226600,2.7352265625,-0.9654541015625,-0.2493743896484375,-0.0121002197265625
1761379833786309400,2.745309326171875,-0.9732513427734375,-0.2539520263671875,-0.0051727294921875
1761379833796392400,2.755392333984375,-0.9782867431640625,-0.25640869140625,-0.003692626953125
1761379833806475500,2.7654755859375,-0.987213134765625,-0.260223388671875,-0.004486083984375
1761379833816558300,2.775558349609375,-0.99188232421875,-0.265045166015625,-0.0058746337890625
1761379833826641700,2.7856416015625,-0.9960479736328125,-0.267608642578125,-0.010040283203125
1761379833836724500,2.795724365234375,-1.0032501220703125,-0.2686767578125,-0.0152435302734375
1761379833846807600,2.8058076171875,-1.010955810546875,-0.2688446044921875,-0.01885986328125
1761379833856890400,2.815890380859375,-1.01983642578125,-0.270751953125,-0.018524169921875
1761379833866973400,2.825973388671875,-1.022796630859375,-0.2753753662109375,-0.013702392578125
1761379833877056300,2.83605615234375,-1.0209197998046875,-0.2808685302734375,-0.0082855224609375
1761379833887139600,2.8461396484375,-1.013885498046875,-0.2848968505859375,0.0012359619140625
1761379833897222400,2.856222412109375,-0.9999542236328125,-0.28985595703125,0.0110015869140625
1761379833907305500,2.866305419921875,-0.981597900390625,-0.29534912109375,0.023773193359375
1761379833917388500,2.876388427734375,-0.9685516357421875,-0.302978515625,0.0416107177734375
1761379833927471400,2.886471435546875,-0.9599761962890625,-0.313690185546875,0.0518646240234375
1761379833937554400,2.896554443359375,-0.954132080078125,-0.3209991455078125,0.0543060302734375
1761379833947637500,2.906637451171875,-0.9442596435546875,-0.328704833984375,0.0557861328125
1761379833957720600,2.916720458984375,-0.9348907470703125,-0.338836669921875,0.0659027099609375
1761379833967803400,2.926803466796875,-0.92559814453125,-0.354644775390625,0.0811614990234375
1761379833977886500,2.936886474609375,-0.9116058349609375,-0.3718719482421875,0.0961456298828125
1761379833987969300,2.94696923828125,-0.8954315185546875,-0.3831329345703125,0.1007080078125
1761379833998052400,2.95705224609375,-0.8829193115234375,-0.392578125,0.1098480224609375
1761379834008135700,2.9671357421875,-0.882598876953125,-0.4020233154296875,0.1211090087890625
1761379834018218500,2.977218505859375,-0.88006591796875,-0.407470703125,0.127655029296875
1761379834028301600,2.987301513671875,-0.881103515625,-0.406463623046875,0.1327972412109375
1761379834038384400,2.99738427734375,-0.8870086669921875,-0.4055023193359375,0.1441192626953125
1761379834048467500,3.007467529296875,-0.8970947265625,-0.4013824462890625,0.1566925048828125
1761379834058550300,3.01755029296875,-0.9116363525390625,-0.3909759521484375,0.16796875
1761379834068633600,3.027633544921875,-0.921173095703125,-0.387969970703125,0.18450927734375
1761379834078716400,3.03771630859375,-0.9305877685546875,-0.3958282470703125,0.210662841796875
1761379834088799500,3.047799560546875,-0.937744140625,-0.412109375,0.241058349609375
1761379834098882600,3.057882568359375,-0.9542388916015625,-0.42303466796875,0.2655181884765625
1761379834108965400,3.06796533203125,-0.9590301513671875,-0.42718505859375,0.2681732177734375
1761379834119048400,3.07804833984375,-0.97479248046875,-0.425689697265625,0.2534942626953125
1761379834129131500,3.088131591796875,-1.0029754638671875,-0.43023681640625,0.2335205078125
1761379834139214600,3.098214599609375,-1.0443572998046875,-0.42132568359375,0.2068328857421875
1761379834149297400,3.10829736328125,-1.0774383544921875,-0.3966827392578125,0.1694793701171875
1761379834159380500,3.11838037109375,-1.09930419921875,-0.370513916015625,0.134918212890625
1761379834169463300,3.12846337890625,-1.0999755859375,-0.3446502685546875,0.1221771240234375
1761379834179546400,3.13854638671875,-1.079986572265625,-0.3260040283203125,0.1261138916015625
1761379834189629400,3.14862939453125,-1.0355987548828125,-0.32086181640625,0.14337158203125
1761379834199712500,3.15871240234375,-0.9863739013671875,-0.317474365234375,0.168853759765625
1761379834209795600,3.168795654296875,-0.94873046875,-0.3275604248046875,0.19873046875
1761379834219878400,3.17887841796875,-0.9322357177734375,-0.3514404296875,0.218841552734375
1761379834229961500,3.18896142578125,-0.92791748046875,-0.3702239990234375,0.2125244140625
1761379834240044300,3.199044189453125,-0.927398681640625,-0.3690948486328125,0.18585205078125
1761379834250127600,3.209127685546875,-0.9265899658203125,-0.3592529296875,0.1729583740234375
1761379834260210400,3.21921044921875,-0.901092529296875,-0.3655548095703125,0.1826171875
1761379834270293500,3.22929345703125,-0.859283447265625,-0.36956787109375,0.1958160400390625
1761379834280376300,3.239376220703125,-0.8122406005859375,-0.3712921142578125,0.20941162109375
1761379834290459400,3.24945947265625,-0.76416015625,-0.38482666015625,0.2256011962890625
1761379834300542500,3.25954248046875,-0.7376861572265625,-0.4024505615234375,0.2384033203125
1761379834310625500,3.26962548828125,-0.7286529541015625,-0.4174041748046875,0.2510528564453125
1761379834320708600,3.27970849609375,-0.7346649169921875,-0.4317779541015625,0.2581939697265625
1761379834330791400,3.28979150390625,-0.7574615478515625,-0.4381866455078125,0.26019287109375
1761379834340874500,3.29987451171875,-0.791839599609375,-0.4410400390625,0.2563629150390625
1761379834350957300,3.309957275390625,-0.8326568603515625,-0.4360504150390625,0.241485595703125
1761379834361040400,3.320040283203125,-0.8796234130859375,-0.4140777587890625,0.2171630859375
1761379834371123200,3.330123291015625,-0.917572021484375,-0.3892974853515625,0.1984405517578125
1761379834381206000,3.3402060546875,-0.936004638671875,-0.379058837890625,0.1826629638671875
1761379834391289300,3.350289306640625,-0.9395294189453125,-0.3676300048828125,0.161895751953125
1761379834401372200,3.3603720703125,-0.9372406005859375,-0.3636016845703125,0.152984619140625
1761379834411455200,3.370455322265625,-0.9312744140625,-0.3714599609375,0.1552581787109375
1761379834421538000,3.3805380859375,-0.9183197021484375,-0.386077880859375,0.1665496826171875
1761379834431621000,3.39062109375,-0.8962249755859375,-0.402618408203125,0.173370361328125
1761379834441704000,3.400703857421875,-0.8761444091796875,-0.412261962890625,0.17547607421875
1761379834451787300,3.410787353515625,-0.85302734375,-0.4219818115234375,0.177581787109375
1761379834461870000,3.4208701171875,-0.8379669189453125,-0.4309539794921875,0.178192138671875
1761379834471953200,3.430953125,-0.8288726806640625,-0.4316864013671875,0.1808624267578125
1761379834482036200,3.4410361328125,-0.8264923095703125,-0.4326171875,0.185272216796875
1761379834492119000,3.451119140625,-0.82684326171875,-0.4272613525390625,0.18560791015625
1761379834502202000,3.4612021484375,-0.828521728515625,-0.4202117919921875,0.1853790283203125
1761379834512285200,3.47128515625,-0.8267822265625,-0.4193115234375,0.188018798828125
1761379834522368300,3.4813681640625,-0.8218536376953125,-0.4247894287109375,0.18817138671875
1761379834532451000,3.491451171875,-0.8123931884765625,-0.432098388671875,0.1884765625
1761379834542534100,3.5015341796875,-0.8066558837890625,-0.4420928955078125,0.1888427734375
1761379834552617000,3.511616943359375,-0.801788330078125,-0.449127197265625,0.1876068115234375
1761379834562700000,3.521699951171875,-0.7979583740234375,-0.455657958984375,0.1901092529296875
1761379834572783000,3.531783203125,-0.785858154296875,-0.462677001953125,0.192718505859375
1761379834582866200,3.5418662109375,-0.77581787109375,-0.4691619873046875,0.1937103271484375
1761379834592949200,3.55194921875,-0.773101806640625,-0.4751434326171875,0.19482421875
1761379834603032000,3.562031982421875,-0.7766571044921875,-0.479766845703125,0.1967926025390625
1761379834613115100,3.572115234375,-0.7897491455078125,-0.487030029296875,0.192901611328125
1761379834623198000,3.582197998046875,-0.8025054931640625,-0.4889984130859375,0.18499755859375
1761379834633281300,3.59228125,-0.815765380859375,-0.4938812255859375,0.1780548095703125
1761379834643364000,3.602364013671875,-0.8301849365234375,-0.500335693359375,0.1746673583984375
1761379834653447200,3.612447265625,-0.8402252197265625,-0.50323486328125,0.172454833984375
1761379834663530000,3.622530029296875,-0.84967041015625,-0.5059661865234375,0.169921875
1761379834673613000,3.632613037109375,-0.856597900390625,-0.5081634521484375,0.1663055419921875
1761379834683696000,3.642696044921875,-0.8624725341796875,-0.506927490234375,0.1602783203125
1761379834693779200,3.652779296875,-0.8714752197265625,-0.503082275390625,0.1552276611328125
1761379834703862300,3.6628623046875,-0.8743133544921875,-0.499237060546875,0.150543212890625
1761379834713945000,3.672945068359375,-0.87445068359375,-0.4980926513671875,0.1500701904296875
1761379834724028200,3.683028076171875,-0.8734893798828125,-0.4990997314453125,0.1520233154296875
1761379834734111000,3.693111083984375,-0.8776702880859375,-0.5022125244140625,0.155914306640625
1761379834744194000,3.703194091796875,-0.882843017578125,-0.5065765380859375,0.1615142822265625
1761379834754277000,3.713277099609375,-0.884368896484375,-0.5127716064453125,0.1661376953125
1761379834764360200,3.723360107421875,-0.88861083984375,-0.515716552734375,0.1696624755859375
1761379834774443300,3.733443359375,-0.8980712890625,-0.5194854736328125,0.172393798828125
1761379834784526000,3.743526123046875,-0.9090118408203125,-0.5196685791015625,0.1746368408203125
1761379834794609200,3.753609130859375,-0.92071533203125,-0.51568603515625,0.1728668212890625
1761379834804692000,3.76369189453125,-0.941162109375,-0.51043701171875,0.17156982421875
1761379834814775300,3.773775390625,-0.9587554931640625,-0.506500244140625,0.1700286865234375
1761379834824858000,3.783858154296875,-0.9730072021484375,-0.5039825439453125,0.1649627685546875
1761379834834941200,3.793941162109375,-0.97894287109375,-0.5075836181640625,0.1639862060546875
1761379834845024000,3.80402392578125,-0.9630279541015625,-0.5383453369140625,0.1851806640625
1761379834855107000,3.814107177734375,-0.9479217529296875,-0.5759124755859375,0.2137603759765625
1761379834865190100,3.824190185546875,-0.9319000244140625,-0.586883544921875,0.23089599609375
1761379834875274200,3.834274169921875,-0.9123687744140625,-0.5940704345703125,0.230682373046875
1761379834885356300,3.844356201171875,-0.916748046875,-0.5865936279296875,0.214752197265625
1761379834895440100,3.854440185546875,-0.9324188232421875,-0.5682525634765625,0.1991729736328125
1761379834905523000,3.86452294921875,-0.960845947265625,-0.5530853271484375,0.1731719970703125
1761379834915606000,3.87460595703125,-0.9882049560546875,-0.52215576171875,0.1436920166015625
1761379834925689300,3.884689453125,-1.0117950439453125,-0.47216796875,0.122283935546875
1761379834935772200,3.894772216796875,-1.041748046875,-0.4216156005859375,0.10943603515625
1761379834945855200,3.904855224609375,-1.05975341796875,-0.381805419921875,0.108978271484375
1761379834955938000,3.91493798828125,-1.05157470703125,-0.335723876953125,0.108734130859375
1761379834966021000,3.925021240234375,-1.0361785888671875,-0.2908477783203125,0.11114501953125
1761379834976104000,3.93510400390625,-1.011016845703125,-0.267578125,0.122589111328125
1761379834986187300,3.945187255859375,-0.9757843017578125,-0.267242431640625,0.1274871826171875
1761379834996270000,3.95527001953125,-0.927154541015625,-0.26409912109375,0.12054443359375
1761379835006353200,3.965353271484375,-0.8737030029296875,-0.2589263916015625,0.116973876953125
1761379835016436200,3.975436279296875,-0.834930419921875,-0.2675933837890625,0.1249542236328125
1761379835026519000,3.98551904296875,-0.80242919921875,-0.2867431640625,0.1357879638671875
1761379835036602000,3.99560205078125,-0.772613525390625,-0.3080291748046875,0.1409454345703125
1761379835046685200,4.005685302734375,-0.7563629150390625,-0.3282928466796875,0.1416168212890625
1761379835056768300,4.015768310546875,-0.7447967529296875,-0.3558197021484375,0.14593505859375
1761379835066851000,4.02585107421875,-0.7454376220703125,-0.392181396484375,0.1531829833984375
1761379835076934100,4.03593408203125,-0.752899169921875,-0.4202423095703125,0.156646728515625
1761379835087017000,4.046016845703125,-0.76385498046875,-0.442840576171875,0.1567535400390625
1761379835097100000,4.05610009765625,-0.7896881103515625,-0.4615020751953125,0.15655517578125
1761379835107183000,4.06618310546875,-0.82440185546875,-0.4705047607421875,0.148468017578125
1761379835117266200,4.07626611328125,-0.8624267578125,-0.46533203125,0.1334228515625
1761379835127349200,4.086349365234375,-0.8964080810546875,-0.453582763671875,0.12188720703125
1761379835137432000,4.09643212890625,-0.9191436767578125,-0.438629150390625,0.1129150390625
1761379835147515100,4.10651513671875,-0.923736572265625,-0.43115234375,0.1040496826171875
1761379835157598000,4.116597900390625,-0.9198455810546875,-0.422149658203125,0.1138916015625
1761379835167681300,4.126681396484375,-0.9096221923828125,-0.41705322265625,0.1390380859375
1761379835177764000,4.13676416015625,-0.8835906982421875,-0.4205474853515625,0.1728057861328125
1761379835187847200,4.14684716796875,-0.8564453125,-0.4314422607421875,0.2086029052734375
1761379835197930000,4.156929931640625,-0.8433685302734375,-0.4459075927734375,0.2390289306640625
1761379835208013000,4.167012939453125,-0.836944580078125,-0.4513702392578125,0.25750732421875
1761379835218096000,4.17709619140625,-0.84149169921875,-0.453460693359375,0.26739501953125
1761379835228179200,4.18717919921875,-0.853118896484375,-0.449127197265625,0.26953125
1761379835238262300,4.19726220703125,-0.867828369140625,-0.4412078857421875,0.2715911865234375
1761379835248345000,4.207344970703125,-0.88067626953125,-0.433197021484375,0.26873779296875
1761379835258428200,4.21742822265625,-0.883087158203125,-0.422576904296875,0.2618255615234375
1761379835268511000,4.227510986328125,-0.8803253173828125,-0.4205780029296875,0.2513885498046875
1761379835278594000,4.237593994140625,-0.8757476806640625,-0.421630859375,0.2397003173828125
1761379835288677000,4.247677001953125,-0.87774658203125,-0.4183197021484375,0.227508544921875
1761379835298760200,4.25776025390625,-0.8799285888671875,-0.4114990234375,0.20843505859375
1761379835308843000,4.267843017578125,-0.8836669921875,-0.402099609375,0.1876220703125
1761379835318926000,4.277926025390625,-0.890869140625,-0.391754150390625,0.1663360595703125
1761379835329009200,4.288009033203125,-0.8963623046875,-0.3787384033203125,0.1395111083984375
1761379835339092000,4.298092041015625,-0.8989715576171875,-0.3633880615234375,0.1179351806640625
1761379835349175300,4.30817529296875,-0.8979034423828125,-0.350311279296875,0.105316162109375
1761379835359258000,4.318258056640625,-0.884857177734375,-0.3448333740234375,0.099700927734375
1761379835369341700,4.328341796875,-0.8717193603515625,-0.342742919921875,0.102264404296875
1761379835379424500,4.338424560546875,-0.8643035888671875,-0.345916748046875,0.108978271484375
1761379835389507600,4.348507568359375,-0.85760498046875,-0.3525390625,0.1090240478515625
1761379835399590700,4.358590576171875,-0.8502197265625,-0.350189208984375,0.1027679443359375
1761379835409673700,4.368673828125,-0.8480682373046875,-0.3515625,0.1036224365234375
1761379835419756500,4.378756591796875,-0.850250244140625,-0.3590087890625,0.1031951904296875
1761379835429839600,4.388839599609375,-0.851043701171875,-0.360382080078125,0.10040283203125
1761379835439922700,4.398922607421875,-0.8598175048828125,-0.35955810546875,0.095611572265625
1761379835450005500,4.409005615234375,-0.8699951171875,-0.359344482421875,0.0924224853515625
1761379835460088800,4.4190888671875,-0.880462646484375,-0.3563232421875,0.0896148681640625
1761379835470171600,4.429171630859375,-0.8863372802734375,-0.3570709228515625,0.0871429443359375
1761379835480254700,4.439254638671875,-0.8955841064453125,-0.3545684814453125,0.0890350341796875
1761379835490337500,4.449337646484375,-0.915557861328125,-0.3509521484375,0.095947265625
1761379835500420600,4.459420654296875,-0.935943603515625,-0.341156005859375,0.10107421875
1761379835510503400,4.46950341796875,-0.9624176025390625,-0.3215789794921875,0.098175048828125
1761379835520586800,4.479586669921875,-0.9825439453125,-0.3089447021484375,0.090118408203125
1761379835530669600,4.489669677734375,-0.9987945556640625,-0.2943878173828125,0.080230712890625
1761379835540752600,4.499752685546875,-1.0146484375,-0.281524658203125,0.071929931640625
1761379835550835700,4.509835693359375,-1.0272674560546875,-0.2707672119140625,0.0655364990234375
1761379835560918500,4.51991845703125,-1.038116455078125,-0.2583160400390625,0.061614990234375
1761379835571001600,4.530001708984375,-1.041412353515625,-0.247650146484375,0.0599365234375
1761379835581084700,4.540084716796875,-1.041229248046875,-0.245849609375,0.06298828125
1761379835591167700,4.550167724609375,-1.0388031005859375,-0.2488250732421875,0.0738067626953125
1761379835601250600,4.56025048828125,-1.0271759033203125,-0.2608642578125,0.08380126953125
1761379835611333600,4.570333740234375,-1.01019287109375,-0.284332275390625,0.0916595458984375
1761379835621416400,4.58041650390625,-0.9920501708984375,-0.318817138671875,0.09796142578125
1761379835631499500,4.59049951171875,-0.9804229736328125,-0.354095458984375,0.0980377197265625
1761379835641582800,4.600582763671875,-0.9841766357421875,-0.371337890625,0.08685302734375
1761379835651665700,4.610665771484375,-0.9924468994140625,-0.3617095947265625,0.066497802734375
1761379835661748700,4.620748779296875,-1.000213623046875,-0.34075927734375,0.0547027587890625
1761379835671831600,4.63083154296875,-0.994964599609375,-0.30816650390625,0.0501251220703125
1761379835681914600,4.64091455078125,-0.97406005859375,-0.27264404296875,0.0640869140625
1761379835691997400,4.65099755859375,-0.944549560546875,-0.2629547119140625,0.0998382568359375
1761379835702080800,4.661080810546875,-0.9127197265625,-0.2748870849609375,0.1358642578125
1761379835712163600,4.67116357421875,-0.87518310546875,-0.281402587890625,0.1665802001953125
1761379835722246700,4.68124658203125,-0.869903564453125,-0.2979736328125,0.1956939697265625
1761379835732329700,4.691329833984375,-0.893890380859375,-0.3279266357421875,0.204620361328125
1761379835742412500,4.70141259765625,-0.94744873046875,-0.33197021484375,0.198638916015625
1761379835752495600,4.71149560546875,-1.0035247802734375,-0.3206634521484375,0.182403564453125
1761379835762578700,4.72157861328125,-1.054962158203125,-0.3105621337890625,0.17095947265625
1761379835772661800,4.731661865234375,-1.0987701416015625,-0.3098907470703125,0.1666259765625
1761379835782744600,4.74174462890625,-1.1088104248046875,-0.3043212890625,0.1527099609375
1761379835792827600,4.75182763671875,-1.11834716796875,-0.2923431396484375,0.1337890625
1761379835802910500,4.761910400390625,-1.126861572265625,-0.2923736572265625,0.1300506591796875
1761379835812993500,4.77199365234375,-1.10736083984375,-0.2899017333984375,0.1139068603515625
1761379835823076600,4.78207666015625,-1.0955810546875,-0.278839111328125,0.1039276123046875
1761379835833159700,4.79215966796875,-1.0891876220703125,-0.280792236328125,0.116241455078125
1761379835843242800,4.80224267578125,-1.064056396484375,-0.2781982421875,0.1308135986328125
1761379835853325600,4.81232568359375,-1.0206451416015625,-0.271148681640625,0.147064208984375
1761379835863408600,4.82240869140625,-0.9727325439453125,-0.2765350341796875,0.166259765625
1761379835873491500,4.832491455078125,-0.9222869873046875,-0.290771484375,0.186767578125
1761379835883574800,4.84257470703125,-0.87994384765625,-0.31292724609375,0.205596923828125
1761379835893657600,4.85265771484375,-0.848602294921875,-0.3350067138671875,0.223907470703125
1761379835903741700,4.86274169921875,-0.8312835693359375,-0.3547515869140625,0.243133544921875
1761379835913824500,4.872824462890625,-0.8270263671875,-0.3761444091796875,0.2640380859375
1761379835923907600,4.882907470703125,-0.830535888671875,-0.389556884765625,0.2733612060546875
1761379835933990700,4.89299072265625,-0.841064453125,-0.393707275390625,0.2717132568359375
1761379835944073700,4.90307373046875,-0.8652801513671875,-0.3945159912109375,0.2677459716796875
1761379835954156500,4.913156494140625,-0.8967742919921875,-0.38812255859375,0.2643890380859375
1761379835964239600,4.923239501953125,-0.9269561767578125,-0.376922607421875,0.2606353759765625
1761379835974322400,4.933322509765625,-0.94927978515625,-0.36328125,0.2587432861328125
1761379835984405500,4.943405517578125,-0.9543914794921875,-0.3550872802734375,0.2605438232421875
1761379835994488800,4.95348876953125,-0.950775146484375,-0.354766845703125,0.2613677978515625
1761379836004571600,4.963571533203125,-0.9470977783203125,-0.353729248046875,0.2653045654296875
1761379836014654700,4.97365478515625,-0.9449920654296875,-0.3510894775390625,0.2625579833984375
1761379836024737500,4.983737548828125,-0.94635009765625,-0.3509674072265625,0.2549285888671875
1761379836034820600,4.993820556640625,-0.956390380859375,-0.3462982177734375,0.2422637939453125
1761379836044903400,5.0039033203125,-0.9704132080078125,-0.336944580078125,0.22265625
1761379836054986800,5.01398681640625,-0.96844482421875,-0.3235321044921875,0.201629638671875
1761379836065069600,5.024069580078125,-0.956573486328125,-0.3115386962890625,0.197540283203125
1761379836075152600,5.034152587890625,-0.94073486328125,-0.3063812255859375,0.20013427734375
1761379836085235700,5.044235595703125,-0.923675537109375,-0.30419921875,0.2020721435546875
1761379836095318500,5.054318603515625,-0.909423828125,-0.2963409423828125,0.201995849609375
1761379836105401600,5.064401611328125,-0.8952789306640625,-0.29132080078125,0.194610595703125
1761379836115484700,5.074484619140625,-0.8918914794921875,-0.2873077392578125,0.1852264404296875
1761379836125567700,5.084567626953125,-0.897613525390625,-0.2890777587890625,0.1782379150390625
1761379836135650600,5.094650634765625,-0.9048309326171875,-0.289459228515625,0.1601409912109375
1761379836145733600,5.104733642578125,-0.915679931640625,-0.283447265625,0.1456146240234375
1761379836155816400,5.11481640625,-0.92236328125,-0.287109375,0.1397705078125
1761379836165899500,5.1248994140625,-0.9300689697265625,-0.29022216796875,0.1263427734375
1761379836175982600,5.134982666015625,-0.9242706298828125,-0.2971954345703125,0.1112823486328125
1761379836186065700,5.145065673828125,-0.9152984619140625,-0.3130950927734375,0.0968780517578125
1761379836196148700,5.155148681640625,-0.9082489013671875,-0.3281097412109375,0.089691162109375
1761379836206231600,5.1652314453125,-0.9088592529296875,-0.33465576171875,0.0910491943359375
1761379836216314600,5.175314697265625,-0.91162109375,-0.3330535888671875,0.0937957763671875
1761379836226397400,5.1853974609375,-0.9148406982421875,-0.3325042724609375,0.0999908447265625
1761379836236480800,5.195480712890625,-0.9253082275390625,-0.3353424072265625,0.102752685546875
1761379836246563600,5.2055634765625,-0.9466552734375,-0.3423004150390625,0.0969085693359375
1761379836256646700,5.215646728515625,-0.9524993896484375,-0.3526763916015625,0.085693359375
1761379836266729500,5.2257294921875,-0.948394775390625,-0.3701019287109375,0.077667236328125
1761379836276812500,5.2358125,-0.9329376220703125,-0.3981475830078125,0.084014892578125
1761379836286895600,5.2458955078125,-0.9176483154296875,-0.428009033203125,0.0945892333984375
1761379836296978700,5.255978759765625,-0.90887451171875,-0.4532318115234375,0.103118896484375
1761379836307061800,5.266061767578125,-0.917022705078125,-0.4666900634765625,0.098114013671875
1761379836317144600,5.27614453125,-0.947418212890625,-0.4613494873046875,0.073394775390625
1761379836327227600,5.2862275390625,-0.981201171875,-0.44189453125,0.0447998046875
1761379836337310500,5.296310546875,-1.0054931640625,-0.427398681640625,0.03985595703125
1761379836347393500,5.3063935546875,-1.0097808837890625,-0.426544189453125,0.056671142578125
1761379836357476600,5.3164765625,-0.999420166015625,-0.4222869873046875,0.0690155029296875
1761379836367560000,5.326559814453125,-0.98468017578125,-0.4161376953125,0.08355712890625
1761379836377642800,5.336642822265625,-0.970184326171875,-0.421051025390625,0.0913848876953125
1761379836387726000,5.34672607421875,-0.96038818359375,-0.4353485107421875,0.08660888671875
1761379836397809200,5.35680908203125,-0.9463348388671875,-0.4548187255859375,0.0783843994140625
1761379836407892000,5.36689208984375,-0.9325714111328125,-0.4622802734375,0.0613250732421875
1761379836417975000,5.37697509765625,-0.9080352783203125,-0.4657440185546875,0.0467376708984375
1761379836428057900,5.387057861328125,-0.8806610107421875,-0.4708709716796875,0.0477447509765625
1761379836438141000,5.397140869140625,-0.8541107177734375,-0.47833251953125,0.06024169921875
1761379836448224000,5.40722412109375,-0.824432373046875,-0.482421875,0.0715789794921875
1761379836458307000,5.41730712890625,-0.7974700927734375,-0.4806976318359375,0.081298828125
1761379836468390000,5.427389892578125,-0.7946929931640625,-0.473358154296875,0.09161376953125
1761379836478473000,5.437472900390625,-0.7969512939453125,-0.464019775390625,0.1022796630859375
1761379836488556000,5.44755615234375,-0.806488037109375,-0.45458984375,0.1075439453125
1761379836498638800,5.457638916015625,-0.8227691650390625,-0.445648193359375,0.111480712890625
1761379836508722200,5.46772216796875,-0.847503662109375,-0.4371490478515625,0.1142578125
1761379836518805000,5.477804931640625,-0.8662109375,-0.42852783203125,0.1141357421875
1761379836528888000,5.48788818359375,-0.8683624267578125,-0.4190216064453125,0.114898681640625
1761379836538971000,5.497970947265625,-0.860931396484375,-0.417510986328125,0.124114990234375
1761379836549054000,5.508053955078125,-0.851898193359375,-0.4212188720703125,0.1346893310546875
1761379836559136800,5.51813671875,-0.8477783203125,-0.4220123291015625,0.13604736328125
1761379836569220000,5.52822021484375,-0.84039306640625,-0.4207916259765625,0.129791259765625
1761379836579303000,5.538302978515625,-0.8365020751953125,-0.4203643798828125,0.123748779296875
1761379836589386000,5.548385986328125,-0.83807373046875,-0.421112060546875,0.1169281005859375
1761379836599469000,5.558468994140625,-0.83905029296875,-0.424072265625,0.10888671875
1761379836609552000,5.5685517578125,-0.8411102294921875,-0.4247589111328125,0.1050872802734375
1761379836619635000,5.578635009765625,-0.840362548828125,-0.427764892578125,0.1047821044921875
1761379836629718000,5.588718017578125,-0.84503173828125,-0.4318389892578125,0.10626220703125
1761379836639801000,5.598801025390625,-0.847991943359375,-0.434722900390625,0.1080780029296875
1761379836649884000,5.6088837890625,-0.8480682373046875,-0.4376678466796875,0.1078643798828125
1761379836659967000,5.618967041015625,-0.845977783203125,-0.43878173828125,0.1042938232421875
1761379836670049800,5.6290498046875,-0.8401336669921875,-0.446197509765625,0.101898193359375
1761379836680132900,5.6391328125,-0.832489013671875,-0.4587554931640625,0.101837158203125
1761379836690216200,5.64921630859375,-0.8267822265625,-0.4676361083984375,0.1051788330078125
1761379836700299000,5.659299072265625,-0.8287200927734375,-0.4771881103515625,0.116302490234375
1761379836710382000,5.669382080078125,-0.8341827392578125,-0.482025146484375,0.1209716796875
1761379836720465000,5.67946484375,-0.84808349609375,-0.4784088134765625,0.1175994873046875
1761379836730548000,5.6895478515625,-0.86767578125,-0.4799346923828125,0.1128692626953125
1761379836740630800,5.699630859375,-0.878875732421875,-0.4830169677734375,0.1053619384765625
1761379836750714000,5.709714111328125,-0.89068603515625,-0.4813232421875,0.1013031005859375
1761379836760797000,5.719796875,-0.9008941650390625,-0.482696533203125,0.1079559326171875
1761379836770880000,5.7298798828125,-0.909149169921875,-0.4850006103515625,0.1107025146484375
1761379836780963000,5.739963134765625,-0.9237823486328125,-0.476104736328125,0.1119537353515625
1761379836791046000,5.7500458984375,-0.9317626953125,-0.4737548828125,0.1183624267578125
1761379836801129000,5.76012890625,-0.94293212890625,-0.4764404296875,0.1179351806640625
1761379836811212000,5.7702119140625,-0.9293212890625,-0.495697021484375,0.1302947998046875
1761379836821295000,5.780295166015625,-0.914886474609375,-0.536346435546875,0.16961669921875
1761379836831378000,5.7903779296875,-0.9604339599609375,-0.5494384765625,0.182891845703125
1761379836841461000,5.8004609375,-0.982940673828125,-0.517730712890625,0.143157958984375
1761379836851543800,5.810543701171875,-1.0160064697265625,-0.4774932861328125,0.0749969482421875
1761379836861627000,5.820626953125,-1.06915283203125,-0.4577789306640625,0.032928466796875
1761379836871710000,5.8307099609375,-1.12261962890625,-0.4509124755859375,0.0002593994140625
1761379836881793000,5.84079296875,-1.16400146484375,-0.4291534423828125,-0.0290679931640625
1761379836891876000,5.8508759765625,-1.1799774169921875,-0.3935546875,-0.057220458984375
1761379836901959000,5.860958984375,-1.19989013671875,-0.364166259765625,-0.0661163330078125
1761379836912042000,5.8710419921875,-1.1989898681640625,-0.340240478515625,-0.0663604736328125
1761379836922124800,5.881124755859375,-1.17388916015625,-0.3147430419921875,-0.0535430908203125
1761379836932208000,5.8912080078125,-1.1306304931640625,-0.2894287109375,-0.0315399169921875
1761379836942291000,5.901291015625,-1.0720672607421875,-0.272247314453125,-0.000213623046875
1761379836952374000,5.9113740234375,-0.986083984375,-0.261993408203125,0.02532958984375
1761379836962456800,5.921456787109375,-0.914886474609375,-0.271209716796875,0.0561065673828125
1761379836972540000,5.931539794921875,-0.8673858642578125,-0.30609130859375,0.0851287841796875
1761379836982622000,5.9416220703125,-0.8283843994140625,-0.3280487060546875,0.1006011962890625
1761379836992706000,5.9517060546875,-0.817047119140625,-0.3290252685546875,0.1057586669921875
1761379837002788000,5.9617880859375,-0.82574462890625,-0.328399658203125,0.1037445068359375
1761379837012871000,5.971870849609375,-0.85357666015625,-0.3255462646484375,0.0922088623046875
1761379837022954000,5.9819541015625,-0.8962554931640625,-0.313385009765625,0.0704803466796875
1761379837033037000,5.992037109375,-0.9454803466796875,-0.305938720703125,0.0446319580078125
1761379837043119900,6.002119873046875,-0.9834136962890625,-0.299285888671875,0.007843017578125
1761379837053203000,6.012202880859375,-1.0013275146484375,-0.2788238525390625,-0.033416748046875
1761379837063286000,6.0222861328125,-0.9960479736328125,-0.2708282470703125,-0.0621490478515625
1761379837073369000,6.032369140625,-0.9809112548828125,-0.2811126708984375,-0.072113037109375
1761379837083452000,6.042451904296875,-0.9622344970703125,-0.285797119140625,-0.0855560302734375
1761379837093535000,6.052534912109375,-0.9542999267578125,-0.2893524169921875,-0.079559326171875
1761379837103617800,6.06261767578125,-0.9532928466796875,-0.2981109619140625,-0.0703277587890625
1761379837113700900,6.072700927734375,-0.9533843994140625,-0.298736572265625,-0.070953369140625
1761379837123784200,6.0827841796875,-0.943634033203125,-0.294158935546875,-0.0684814453125
1761379837133867000,6.092866943359375,-0.9494476318359375,-0.3094329833984375,-0.053497314453125
1761379837143950000,6.1029501953125,-0.923583984375,-0.315582275390625,-0.056793212890625
1761379837154033000,6.113032958984375,-0.9074249267578125,-0.3218994140625,-0.046966552734375
1761379837164116000,6.123115966796875,-0.9064178466796875,-0.33843994140625,-0.0387420654296875
1761379837174198800,6.13319873046875,-0.8937530517578125,-0.3388519287109375,-0.0281219482421875
1761379837184282000,6.1432822265625,-0.9036102294921875,-0.339599609375,-0.01788330078125
1761379837194365000,6.153364990234375,-0.880615234375,-0.34259033203125,-0.0179290771484375
1761379837204448000,6.163447998046875,-0.8659515380859375,-0.3515777587890625,-0.01434326171875
1761379837214531000,6.173531005859375,-0.8549346923828125,-0.3600006103515625,-0.0174407958984375
1761379837224614000,6.18361376953125,-0.8464813232421875,-0.3660888671875,-0.0147552490234375
1761379837234697000,6.193697021484375,-0.8544769287109375,-0.365020751953125,-0.015716552734375
1761379837244780000,6.203780029296875,-0.85772705078125,-0.36016845703125,-0.0274658203125
1761379837254863000,6.213863037109375,-0.880950927734375,-0.3590087890625,-0.030975341796875
1761379837264946000,6.22394580078125,-0.906524658203125,-0.36749267578125,-0.04864501953125
1761379837275029000,6.234029052734375,-0.91290283203125,-0.35992431640625,-0.0639801025390625
1761379837285111800,6.24411181640625,-0.9162139892578125,-0.356475830078125,-0.0688629150390625
1761379837295195000,6.25419482421875,-0.8961944580078125,-0.3642730712890625,-0.0710906982421875
1761379837305278000,6.26427783203125,-0.888092041015625,-0.374847412109375,-0.05908203125
1761379837315361000,6.274361083984375,-0.894378662109375,-0.389678955078125,-0.042572021484375
1761379837325444000,6.284444091796875,-0.8936004638671875,-0.399688720703125,-0.0218048095703125
1761379837335527000,6.29452685546875,-0.8984222412109375,-0.408233642578125,-0.0070343017578125
1761379837345610000,6.30460986328125,-0.8948974609375,-0.408599853515625,0.00048828125
1761379837355692800,6.31469287109375,-0.90167236328125,-0.4015655517578125,0.0069580078125
1761379837365776100,6.324776123046875,-0.91033935546875,-0.3999176025390625,0.0094451904296875
1761379837375858400,6.3348583984375,-0.9336395263671875,-0.3961029052734375,0.00872802734375
1761379837385941200,6.344941162109375,-0.9515228271484375,-0.39300537109375,-0.0024261474609375
1761379837396024600,6.355024658203125,-0.9665069580078125,-0.383209228515625,-0.01214599609375
1761379837406107400,6.365107421875,-0.9705047607421875,-0.3690032958984375,-0.0231170654296875
1761379837416190500,6.3751904296875,-0.9698486328125,-0.3643341064453125,-0.027435302734375
1761379837426273300,6.385273193359375,-0.9608306884765625,-0.36700439453125,-0.0311126708984375
1761379837436356400,6.3953564453125,-0.959716796875,-0.3699493408203125,-0.0225830078125
1761379837446439200,6.405439208984375,-0.954254150390625,-0.37945556640625,-0.0097198486328125
1761379837456522500,6.4155224609375,-0.959625244140625,-0.3788909912109375,-0.00384521484375
1761379837466605300,6.425605224609375,-0.9801177978515625,-0.371917724609375,-0.0040435791015625
1761379837476688400,6.4356884765625,-1.0012054443359375,-0.374786376953125,0.0036773681640625
1761379837486771500,6.445771484375,-1.0124359130859375,-0.397430419921875,0.0247955322265625
1761379837496854300,6.455854248046875,-1.040008544921875,-0.3861236572265625,0.021942138671875
1761379837506936300,6.465936279296875,-1.065338134765625,-0.3751220703125,0.00128173828125
1761379837517020400,6.4760205078125,-1.0791168212890625,-0.3617401123046875,-0.0194091796875
1761379837527102500,6.4861025390625,-1.09521484375,-0.3514251708984375,-0.0302886962890625
1761379837537185500,6.496185546875,-1.0897064208984375,-0.3424072265625,-0.039276123046875
1761379837547268400,6.506268310546875,-1.068328857421875,-0.3080291748046875,-0.0408935546875
1761379837557351400,6.516351318359375,-1.055755615234375,-0.2891082763671875,-0.0436248779296875
1761379837567434200,6.526434326171875,-1.0270233154296875,-0.3009796142578125,-0.0242919921875
1761379837577517300,6.536517333984375,-0.989471435546875,-0.2898101806640625,0.00311279296875
1761379837587600400,6.546600341796875,-0.96807861328125,-0.2916717529296875,0.034759521484375
1761379837597683500,6.556683349609375,-0.9658203125,-0.3055419921875,0.051513671875
1761379837607766300,6.566766357421875,-0.9715576171875,-0.3113250732421875,0.033935546875
1761379837617849300,6.576849365234375,-0.971954345703125,-0.298492431640625,-0.021759033203125
1761379837627932400,6.586932373046875,-0.9840545654296875,-0.26751708984375,-0.0889892578125
1761379837638015200,6.59701513671875,-1.014892578125,-0.2344818115234375,-0.1358489990234375
1761379837648098600,6.6070986328125,-1.028228759765625,-0.213531494140625,-0.1558837890625
1761379837658181400,6.617181396484375,-1.01416015625,-0.2064971923828125,-0.1577911376953125
1761379837668264400,6.627264404296875,-0.9767913818359375,-0.178070068359375,-0.159332275390625
1761379837678347300,6.63734716796875,-0.9553680419921875,-0.177642822265625,-0.1535186767578125
1761379837688430300,6.647430419921875,-0.93145751953125,-0.2044677734375,-0.1108551025390625
1761379837698513200,6.65751318359375,-0.90399169921875,-0.201934814453125,-0.0920257568359375
1761379837708596500,6.667596435546875,-0.884063720703125,-0.206756591796875,-0.0918121337890625
1761379837718679600,6.677679443359375,-0.8777313232421875,-0.205718994140625,-0.0987548828125
1761379837728762400,6.687762451171875,-0.8765106201171875,-0.194976806640625,-0.1077728271484375
1761379837738845400,6.697845458984375,-0.87066650390625,-0.186798095703125,-0.112579345703125
1761379837748928300,6.70792822265625,-0.868316650390625,-0.18231201171875,-0.1067352294921875
1761379837759011300,6.71801123046875,-0.867401123046875,-0.1821746826171875,-0.0921630859375
1761379837769094400,6.728094482421875,-0.857391357421875,-0.1843109130859375,-0.0861663818359375
1761379837779177500,6.738177490234375,-0.8596038818359375,-0.1840057373046875,-0.07525634765625
1761379837789260300,6.74826025390625,-0.8826141357421875,-0.193084716796875,-0.0539398193359375
1761379837799343400,6.75834326171875,-0.881561279296875,-0.2000732421875,-0.039337158203125
1761379837809426400,6.768426513671875,-0.8715362548828125,-0.204986572265625,-0.0313873291015625
1761379837819509200,6.77850927734375,-0.860260009765625,-0.2185211181640625,-0.025848388671875
1761379837829592600,6.788592529296875,-0.85467529296875,-0.244293212890625,-0.0180206298828125
1761379837839674400,6.79867431640625,-0.8555450439453125,-0.2588958740234375,-0.0142059326171875
1761379837849757400,6.80875732421875,-0.8529205322265625,-0.2650909423828125,-0.0108795166015625
1761379837859840500,6.818840576171875,-0.8727874755859375,-0.2735137939453125,0.00360107421875
1761379837869923300,6.82892333984375,-0.889312744140625,-0.275634765625,0.01275634765625
1761379837880006400,6.83900634765625,-0.895782470703125,-0.271453857421875,0.0109405517578125
1761379837890089200,6.849089111328125,-0.9166107177734375,-0.27276611328125,0.0129852294921875
1761379837900172500,6.859172607421875,-0.9297332763671875,-0.2829132080078125,0.0149993896484375
1761379837910255400,6.86925537109375,-0.931549072265625,-0.2939605712890625,0.019561767578125
1761379837920338400,6.87933837890625,-0.9372711181640625,-0.3067169189453125,0.0284271240234375
1761379837930421200,6.889421142578125,-0.9442291259765625,-0.3241424560546875,0.0395355224609375
1761379837940504300,6.89950439453125,-0.9369964599609375,-0.3308868408203125,0.0418853759765625
1761379837950587400,6.90958740234375,-0.947784423828125,-0.341033935546875,0.046478271484375
1761379837960670500,6.91967041015625,-0.951904296875,-0.3549041748046875,0.049774169921875
1761379837970753500,6.92975341796875,-0.9555206298828125,-0.361480712890625,0.0458984375
1761379837980836400,6.93983642578125,-0.9362945556640625,-0.3672027587890625,0.0392608642578125
1761379837990919400,6.94991943359375,-0.9245758056640625,-0.3694610595703125,0.0395965576171875
1761379838001002200,6.960002197265625,-0.928558349609375,-0.36175537109375,0.0530242919921875
1761379838011085300,6.970085205078125,-0.9840545654296875,-0.3791656494140625,0.084503173828125
1761379838021168400,6.98016845703125,-0.963958740234375,-0.392181396484375,0.0692596435546875
1761379838031251500,6.99025146484375,-0.9588775634765625,-0.384796142578125,0.05084228515625
1761379838041334300,7.000334228515625,-0.953338623046875,-0.3846282958984375,0.037689208984375
1761379838051417300,7.010417236328125,-0.949005126953125,-0.3775634765625,0.0313568115234375
1761379838061500400,7.02050048828125,-0.951171875,-0.3702239990234375,0.03369140625
1761379838071583200,7.030583251953125,-0.951141357421875,-0.368896484375,0.03741455078125
1761379838081665300,7.040665283203125,-0.94000244140625,-0.364013671875,0.0416717529296875
1761379838091748400,7.050748291015625,-0.9269866943359375,-0.363067626953125,0.047088623046875
