time,seconds_elapsed,z,y,x
1761378694905609200,0.059609130859375,-0.175079345703125,-0.980438232421875,-0.0322113037109375
1761378694915665200,0.0696650390625,-0.16943359375,-0.9789581298828125,-0.0327911376953125
1761378694925721000,0.07972119140625,-0.1739654541015625,-0.9779510498046875,-0.0336456298828125
1761378694935777300,0.08977734375,-0.17681884765625,-0.976470947265625,-0.0338897705078125
1761378694945832200,0.099832275390625,-0.1815948486328125,-0.977294921875,-0.03253173828125
1761378694955888400,0.109888427734375,-0.1850433349609375,-0.9813690185546875,-0.0304412841796875
1761378694965944000,0.119944091796875,-0.189056396484375,-0.983062744140625,-0.027801513671875
1761378694976000000,0.13,-0.1904754638671875,-0.9820556640625,-0.026275634765625
1761378694986056200,0.14005615234375,-0.1935272216796875,-0.9828033447265625,-0.027191162109375
1761378694996112100,0.150112060546875,-0.19146728515625,-0.98004150390625,-0.0272216796875
1761378695006168000,0.16016796875,-0.18438720703125,-0.9763336181640625,-0.0302886962890625
1761378695016223200,0.17022314453125,-0.1793212890625,-0.9763336181640625,-0.034271240234375
1761378695026279200,0.180279052734375,-0.175689697265625,-0.9774169921875,-0.035491943359375
1761378695036335000,0.190335205078125,-0.17279052734375,-0.97698974609375,-0.03643798828125
1761378695046391300,0.200391357421875,-0.17596435546875,-0.97869873046875,-0.0365753173828125
1761378695056447200,0.210447265625,-0.180145263671875,-0.979400634765625,-0.034881591796875
1761378695066503200,0.220503173828125,-0.1822509765625,-0.9801177978515625,-0.0335235595703125
1761378695076559000,0.23055908203125,-0.18634033203125,-0.9829559326171875,-0.03228759765625
1761378695086615000,0.240614990234375,-0.1885223388671875,-0.9892120361328125,-0.0311431884765625
1761378695096670200,0.250670166015625,-0.192169189453125,-0.991180419921875,-0.02734375
1761378695106726100,0.26072607421875,-0.1912078857421875,-0.988739013671875,-0.029022216796875
1761378695116782000,0.270781982421875,-0.1846160888671875,-0.977752685546875,-0.0294342041015625
1761378695126838300,0.28083837890625,-0.182373046875,-0.9700469970703125,-0.0301666259765625
1761378695136894200,0.290894287109375,-0.1794281005859375,-0.972198486328125,-0.029754638671875
1761378695146950100,0.3009501953125,-0.173980712890625,-0.9739990234375,-0.0285797119140625
1761378695157006300,0.31100634765625,-0.1705322265625,-0.97589111328125,-0.0275115966796875
1761378695167061000,0.32106103515625,-0.169189453125,-0.9798126220703125,-0.02813720703125
1761378695177117200,0.3311171875,-0.17218017578125,-0.9799957275390625,-0.026123046875
1761378695187173000,0.341173095703125,-0.1740264892578125,-0.982696533203125,-0.024505615234375
1761378695197229000,0.35122900390625,-0.17877197265625,-0.9852142333984375,-0.0265960693359375
1761378695207285200,0.36128515625,-0.1804351806640625,-0.9843902587890625,-0.0303955078125
1761378695217341200,0.371341064453125,-0.1885223388671875,-0.9854888916015625,-0.0316009521484375
1761378695227397000,0.381397216796875,-0.1877593994140625,-0.9850921630859375,-0.0300750732421875
1761378695237453300,0.391453369140625,-0.1795654296875,-0.9777374267578125,-0.0305328369140625
1761378695247508000,0.401508056640625,-0.17724609375,-0.9711456298828125,-0.0352325439453125
1761378695257564200,0.411564208984375,-0.1745758056640625,-0.975982666015625,-0.0351409912109375
1761378695267620000,0.4216201171875,-0.1685791015625,-0.9788665771484375,-0.03228759765625
1761378695277676000,0.431676025390625,-0.1687469482421875,-0.9765625,-0.0308990478515625
1761378695287732200,0.441732177734375,-0.1707611083984375,-0.9777984619140625,-0.0303192138671875
1761378695297788200,0.4517880859375,-0.1687469482421875,-0.980926513671875,-0.0266876220703125
1761378695307844000,0.461843994140625,-0.172515869140625,-0.983245849609375,-0.0260467529296875
1761378695317900300,0.471900390625,-0.1704254150390625,-0.9806671142578125,-0.0282745361328125
1761378695327955200,0.481955078125,-0.1700592041015625,-0.9785919189453125,-0.033416748046875
1761378695338011400,0.492011474609375,-0.172943115234375,-0.977508544921875,-0.0345306396484375
1761378695348067000,0.502067138671875,-0.1715240478515625,-0.9747161865234375,-0.037445068359375
1761378695358123000,0.512123046875,-0.1710968017578125,-0.9705657958984375,-0.0388336181640625
1761378695368179200,0.52217919921875,-0.1732635498046875,-0.9709320068359375,-0.0382080078125
1761378695378235100,0.532235107421875,-0.1779327392578125,-0.9800872802734375,-0.0359344482421875
1761378695388291000,0.542291015625,-0.176055908203125,-0.9829559326171875,-0.0334930419921875
1761378695398346200,0.55234619140625,-0.17657470703125,-0.977569580078125,-0.031829833984375
1761378695408402200,0.562402099609375,-0.17462158203125,-0.973388671875,-0.03228759765625
1761378695418458000,0.5724580078125,-0.1739044189453125,-0.975982666015625,-0.034271240234375
1761378695428514300,0.582514404296875,-0.1768035888671875,-0.982696533203125,-0.0330810546875
1761378695438570200,0.5925703125,-0.1790771484375,-0.9862060546875,-0.0323638916015625
1761378695448626200,0.602626220703125,-0.17987060546875,-0.9852447509765625,-0.0340728759765625
1761378695458682000,0.61268212890625,-0.181182861328125,-0.9873809814453125,-0.035003662109375
1761378695468738000,0.622738037109375,-0.185150146484375,-0.98828125,-0.034637451171875
1761378695478793200,0.632793212890625,-0.185791015625,-0.9865875244140625,-0.0357666015625
1761378695488849200,0.64284912109375,-0.1817169189453125,-0.9852294921875,-0.0365447998046875
1761378695498905000,0.652905029296875,-0.179168701171875,-0.98028564453125,-0.03399658203125
1761378695508961300,0.662961181640625,-0.1739044189453125,-0.9801483154296875,-0.03106689453125
1761378695519017200,0.673017333984375,-0.1685791015625,-0.9815673828125,-0.0278167724609375
1761378695529073200,0.6830732421875,-0.1652679443359375,-0.9794921875,-0.0265960693359375
1761378695539129300,0.69312939453125,-0.16290283203125,-0.97589111328125,-0.0288238525390625
1761378695549185300,0.703185302734375,-0.1670074462890625,-0.9801483154296875,-0.03228759765625
1761378695559240200,0.713240234375,-0.1737060546875,-0.983123779296875,-0.0313873291015625
1761378695569296100,0.723296142578125,-0.1785125732421875,-0.9835205078125,-0.0302734375
1761378695579352000,0.73335205078125,-0.1802215576171875,-0.9788665771484375,-0.0318450927734375
1761378695589408300,0.743408203125,-0.183868408203125,-0.9790496826171875,-0.0355987548828125
1761378695599464200,0.753464111328125,-0.1833038330078125,-0.9794158935546875,-0.036895751953125
1761378695609524000,0.76352392578125,-0.1835174560546875,-0.980621337890625,-0.0348052978515625
1761378695619580000,0.773579833984375,-0.177703857421875,-0.980712890625,-0.0310516357421875
1761378695629635800,0.7836357421875,-0.17401123046875,-0.979583740234375,-0.0255889892578125
1761378695639690800,0.793690673828125,-0.1734619140625,-0.980316162109375,-0.019256591796875
1761378695649747000,0.803746826171875,-0.169891357421875,-0.98046875,-0.0193328857421875
1761378695659803000,0.813802978515625,-0.167083740234375,-0.9768524169921875,-0.02239990234375
1761378695669858800,0.82385888671875,-0.1743621826171875,-0.9772796630859375,-0.0278778076171875
1761378695679915000,0.8339150390625,-0.1759490966796875,-0.98138427734375,-0.0342864990234375
1761378695689971000,0.843970947265625,-0.1805572509765625,-0.9793701171875,-0.0367279052734375
1761378695700027000,0.85402685546875,-0.1865386962890625,-0.9772491455078125,-0.03912353515625
1761378695710083000,0.8640830078125,-0.1859283447265625,-0.9772186279296875,-0.0382537841796875
1761378695720137700,0.8741376953125,-0.1847381591796875,-0.9737548828125,-0.0358428955078125
1761378695730194000,0.88419384765625,-0.1809234619140625,-0.971893310546875,-0.0335693359375
1761378695740249900,0.894249755859375,-0.1784210205078125,-0.9746856689453125,-0.0327606201171875
1761378695750305800,0.904305908203125,-0.17877197265625,-0.983551025390625,-0.0328521728515625
1761378695760362000,0.914362060546875,-0.180267333984375,-0.9937744140625,-0.0343475341796875
1761378695770418000,0.92441796875,-0.1792144775390625,-0.996795654296875,-0.034027099609375
1761378695780473900,0.934473876953125,-0.18487548828125,-0.99285888671875,-0.033294677734375
1761378695790530000,0.944530029296875,-0.19317626953125,-0.986358642578125,-0.030853271484375
1761378695800585000,0.9545849609375,-0.18951416015625,-0.979095458984375,-0.031890869140625
1761378695810641000,0.964640869140625,-0.185455322265625,-0.971466064453125,-0.0355682373046875
1761378695820696800,0.97469677734375,-0.18023681640625,-0.9676971435546875,-0.0381011962890625
1761378695830752800,0.984752685546875,-0.1728057861328125,-0.9698028564453125,-0.037933349609375
1761378695840809000,0.99480908203125,-0.1681671142578125,-0.97564697265625,-0.03662109375
1761378695850865000,1.004864990234375,-0.1647186279296875,-0.97906494140625,-0.0350494384765625
1761378695860920800,1.0149208984375,-0.1645965576171875,-0.9823455810546875,-0.0325927734375
1761378695870977000,1.02497705078125,-0.1718597412109375,-0.9881744384765625,-0.02899169921875
1761378695881032000,1.035031982421875,-0.1794281005859375,-0.988250732421875,-0.0247039794921875
1761378695891088100,1.045088134765625,-0.1845245361328125,-0.9855194091796875,-0.023284912109375
1761378695901144000,1.05514404296875,-0.1864166259765625,-0.987701416015625,-0.0259552001953125
1761378695911199700,1.06519970703125,-0.1859588623046875,-0.98492431640625,-0.0304107666015625
1761378695921256000,1.075255859375,-0.1847686767578125,-0.9830169677734375,-0.03399658203125
1761378695931311900,1.085311767578125,-0.181243896484375,-0.985015869140625,-0.0360870361328125
1761378695941367800,1.095367919921875,-0.1806640625,-0.989410400390625,-0.0360107421875
1761378695951424000,1.105424072265625,-0.17706298828125,-0.9906463623046875,-0.036834716796875
1761378695961479000,1.11547900390625,-0.1732025146484375,-0.985626220703125,-0.0408172607421875
1761378695971534800,1.125534912109375,-0.1732940673828125,-0.981231689453125,-0.0410003662109375
1761378695981591000,1.135591064453125,-0.1769256591796875,-0.9825286865234375,-0.0378875732421875
1761378695991647000,1.14564697265625,-0.1810302734375,-0.9841156005859375,-0.03411865234375
1761378696001703000,1.155702880859375,-0.181854248046875,-0.98272705078125,-0.0294952392578125
1761378696011758800,1.1657587890625,-0.1796875,-0.97943115234375,-0.02569580078125
1761378696021814800,1.175814697265625,-0.17974853515625,-0.97705078125,-0.023773193359375
1761378696031870700,1.18587060546875,-0.1820068359375,-0.9782867431640625,-0.02471923828125
1761378696041926000,1.19592578125,-0.183441162109375,-0.9801788330078125,-0.02606201171875
1761378696051981800,1.20598193359375,-0.1840972900390625,-0.9788970947265625,-0.028106689453125
1761378696062038000,1.2160380859375,-0.1815032958984375,-0.97821044921875,-0.0283203125
1761378696072094000,1.226093994140625,-0.18267822265625,-0.9780120849609375,-0.027191162109375
1761378696082150000,1.23614990234375,-0.1854095458984375,-0.9798736572265625,-0.0258636474609375
1761378696092206000,1.2462060546875,-0.1873016357421875,-0.9778594970703125,-0.0250701904296875
1761378696102262000,1.256261962890625,-0.188873291015625,-0.9724273681640625,-0.0266265869140625
1761378696112317700,1.266317626953125,-0.187530517578125,-0.9751739501953125,-0.0292816162109375
1761378696122372900,1.276372802734375,-0.184722900390625,-0.9748992919921875,-0.0282745361328125
1761378696132428800,1.2864287109375,-0.1845245361328125,-0.970947265625,-0.0295257568359375
1761378696142485000,1.296485107421875,-0.183990478515625,-0.973419189453125,-0.0303955078125
1761378696152541000,1.306541015625,-0.1766510009765625,-0.9791412353515625,-0.03057861328125
1761378696162596900,1.316596923828125,-0.1767425537109375,-0.9797210693359375,-0.0316314697265625
1761378696172653000,1.326653076171875,-0.1780242919921875,-0.9764556884765625,-0.0307769775390625
1761378696182709000,1.336708984375,-0.17388916015625,-0.9772491455078125,-0.0336151123046875
1761378696192765000,1.346764892578125,-0.1722259521484375,-0.975433349609375,-0.036895751953125
1761378696202819800,1.35681982421875,-0.1756744384765625,-0.97601318359375,-0.0377044677734375
1761378696212875800,1.366875732421875,-0.178466796875,-0.9821014404296875,-0.039154052734375
1761378696222932000,1.376931884765625,-0.1772918701171875,-0.98272705078125,-0.0383453369140625
1761378696232988000,1.38698779296875,-0.1757659912109375,-0.9773101806640625,-0.0390777587890625
1761378696243043800,1.3970439453125,-0.1743316650390625,-0.9799652099609375,-0.0397796630859375
1761378696253100000,1.40710009765625,-0.17401123046875,-0.983978271484375,-0.0408172607421875
1761378696263156000,1.417156005859375,-0.17401123046875,-0.986663818359375,-0.03985595703125
1761378696273212000,1.4272119140625,-0.1781158447265625,-0.993743896484375,-0.0352325439453125
1761378696283267000,1.43726708984375,-0.1847991943359375,-0.9979095458984375,-0.029876708984375
1761378696293322800,1.44732275390625,-0.1859283447265625,-0.99298095703125,-0.0275726318359375
1761378696303379000,1.45737890625,-0.185150146484375,-0.9852752685546875,-0.0263214111328125
1761378696313435000,1.467434814453125,-0.1840362548828125,-0.98028564453125,-0.0264434814453125
1761378696323490800,1.47749072265625,-0.1800537109375,-0.975677490234375,-0.0273590087890625
1761378696333546800,1.487546630859375,-0.1777801513671875,-0.9758148193359375,-0.0295257568359375
1761378696343603000,1.49760302734375,-0.17510986328125,-0.9758758544921875,-0.03271484375
1761378696353659000,1.507658935546875,-0.1746063232421875,-0.9753265380859375,-0.03369140625
1761378696363714000,1.517714111328125,-0.1704254150390625,-0.971893310546875,-0.0330810546875
1761378696373770000,1.52777001953125,-0.16949462890625,-0.9699859619140625,-0.0289764404296875
1761378696383826000,1.537825927734375,-0.1719207763671875,-0.9756317138671875,-0.0211181640625
1761378696393881900,1.5478818359375,-0.171630859375,-0.9763031005859375,-0.0177764892578125
1761378696403937800,1.557937744140625,-0.1715240478515625,-0.9731597900390625,-0.0194854736328125
1761378696413993700,1.56799365234375,-0.1753997802734375,-0.9774169921875,-0.0223541259765625
1761378696424050000,1.5780498046875,-0.17608642578125,-0.9843902587890625,-0.02691650390625
1761378696434105900,1.58810595703125,-0.181182861328125,-0.981475830078125,-0.0336761474609375
1761378696444161000,1.5981611328125,-0.1875762939453125,-0.9813690185546875,-0.0360107421875
1761378696454217000,1.608217041015625,-0.1880035400390625,-0.9849700927734375,-0.0352783203125
1761378696464273000,1.61827294921875,-0.1874847412109375,-0.9840087890625,-0.0337677001953125
1761378696474329000,1.6283291015625,-0.185150146484375,-0.981964111328125,-0.02789306640625
1761378696484385000,1.638385009765625,-0.1794891357421875,-0.9803009033203125,-0.02239990234375
1761378696494441000,1.64844091796875,-0.17236328125,-0.9776763916015625,-0.01953125
1761378696504497000,1.658496826171875,-0.1646575927734375,-0.9762725830078125,-0.021820068359375
1761378696514552800,1.668552734375,-0.1636199951171875,-0.9788818359375,-0.0254364013671875
1761378696524608800,1.67860888671875,-0.16558837890625,-0.9822235107421875,-0.029052734375
1761378696534664000,1.688663818359375,-0.1680755615234375,-0.981475830078125,-0.032318115234375
1761378696544720000,1.698719970703125,-0.1722259521484375,-0.978118896484375,-0.033599853515625
1761378696554776000,1.708776123046875,-0.17987060546875,-0.978485107421875,-0.034149169921875
1761378696564832000,1.71883203125,-0.1838226318359375,-0.984130859375,-0.0343170166015625
1761378696574888000,1.728887939453125,-0.1833343505859375,-0.987548828125,-0.0354461669921875
1761378696584944000,1.738944091796875,-0.1863555908203125,-0.99102783203125,-0.034271240234375
1761378696595000000,1.749,-0.1815032958984375,-0.9918365478515625,-0.0304107666015625
1761378696605052000,1.759052001953125,-0.1747894287109375,-0.9864349365234375,-0.0288238525390625
1761378696615107000,1.769107177734375,-0.1682891845703125,-0.978271484375,-0.03192138671875
1761378696625163000,1.7791630859375,-0.1644134521484375,-0.9733428955078125,-0.0369873046875
1761378696635219200,1.78921923828125,-0.1637420654296875,-0.974761962890625,-0.0376739501953125
1761378696645275100,1.799275146484375,-0.1668701171875,-0.9796295166015625,-0.030242919921875
1761378696655331000,1.8093310546875,-0.1718902587890625,-0.985382080078125,-0.022857666015625
1761378696665387300,1.81938720703125,-0.175933837890625,-0.9898223876953125,-0.0216217041015625
1761378696675443000,1.82944287109375,-0.1772308349609375,-0.9922332763671875,-0.024444580078125
1761378696685499000,1.839498779296875,-0.1800384521484375,-0.9890899658203125,-0.0271148681640625
1761378696695554000,1.849553955078125,-0.1815948486328125,-0.9847869873046875,-0.0311431884765625
1761378696705610000,1.85960986328125,-0.1786651611328125,-0.9791259765625,-0.035736083984375
1761378696715666200,1.869666259765625,-0.17706298828125,-0.9739532470703125,-0.0394287109375
1761378696725722000,1.87972216796875,-0.171905517578125,-0.9706573486328125,-0.0395355224609375
1761378696735778000,1.889778076171875,-0.1703338623046875,-0.974456787109375,-0.03814697265625
1761378696745834200,1.899834228515625,-0.1696624755859375,-0.9839630126953125,-0.0374603271484375
1761378696755890200,1.90989013671875,-0.167510986328125,-0.98333740234375,-0.034881591796875
1761378696765946000,1.919946044921875,-0.168182373046875,-0.9779052734375,-0.0356292724609375
1761378696776002000,1.930001953125,-0.172393798828125,-0.9766998291015625,-0.0349884033203125
1761378696786057000,1.940056884765625,-0.17706298828125,-0.9727935791015625,-0.03094482421875
1761378696796113000,1.95011279296875,-0.17669677734375,-0.9671630859375,-0.02886962890625
1761378696806169000,1.960169189453125,-0.171173095703125,-0.96295166015625,-0.0295867919921875
1761378696816225000,1.97022509765625,-0.1691436767578125,-0.9676666259765625,-0.02886962890625
1761378696826281000,1.980281005859375,-0.168731689453125,-0.9742584228515625,-0.0268707275390625
1761378696836337200,1.990337158203125,-0.1745452880859375,-0.9851226806640625,-0.0260772705078125
1761378696846393000,2.00039306640625,-0.17523193359375,-0.9911041259765625,-0.0274505615234375
1761378696856449000,2.010448974609375,-0.18060302734375,-0.989410400390625,-0.0312042236328125
1761378696866504000,2.02050390625,-0.185211181640625,-0.985137939453125,-0.0319976806640625
1761378696876560000,2.030559814453125,-0.19012451171875,-0.9849700927734375,-0.0336151123046875
1761378696886616000,2.040615966796875,-0.1959075927734375,-0.9908294677734375,-0.0355224609375
1761378696896672000,2.050672119140625,-0.1973419189453125,-0.991363525390625,-0.031402587890625
1761378696906728000,2.06072802734375,-0.188751220703125,-0.9857940673828125,-0.030609130859375
1761378696916784000,2.0707841796875,-0.181915283203125,-0.982208251953125,-0.0320281982421875
1761378696926840000,2.080840087890625,-0.174102783203125,-0.983612060546875,-0.034149169921875
1761378696936896000,2.09089599609375,-0.16326904296875,-0.9813385009765625,-0.0373992919921875
1761378696946951200,2.100951171875,-0.1585235595703125,-0.9828338623046875,-0.0395355224609375
1761378696957006800,2.1110068359375,-0.1578369140625,-0.9867401123046875,-0.0391387939453125
1761378696967063000,2.12106298828125,-0.1604461669921875,-0.9837799072265625,-0.0359344482421875
1761378696977119000,2.131118896484375,-0.1641845703125,-0.9809112548828125,-0.0322418212890625
1761378696987175000,2.1411748046875,-0.1704864501953125,-0.98492431640625,-0.0297088623046875
1761378696997231000,2.151231201171875,-0.175689697265625,-0.9838714599609375,-0.025634765625
1761378697007287000,2.161287109375,-0.177947998046875,-0.9788665771484375,-0.02386474609375
1761378697017343000,2.171343017578125,-0.1789093017578125,-0.977081298828125,-0.023956298828125
1761378697027399200,2.181399169921875,-0.177459716796875,-0.9815216064453125,-0.0243682861328125
1761378697037454000,2.1914541015625,-0.1737518310546875,-0.984619140625,-0.02801513671875
1761378697047510300,2.20151025390625,-0.16961669921875,-0.9835662841796875,-0.0294647216796875
1761378697057566000,2.21156591796875,-0.1678619384765625,-0.9854888916015625,-0.0306854248046875
1761378697067622000,2.221621826171875,-0.16497802734375,-0.9882354736328125,-0.0320281982421875
1761378697077678000,2.231677978515625,-0.1680755615234375,-0.98968505859375,-0.0323944091796875
1761378697087734000,2.241734130859375,-0.171630859375,-0.988616943359375,-0.0314483642578125
1761378697097790000,2.2517900390625,-0.174591064453125,-0.985748291015625,-0.0313262939453125
1761378697107846100,2.26184619140625,-0.174835205078125,-0.9799652099609375,-0.0320587158203125
1761378697117901000,2.271901123046875,-0.179351806640625,-0.9799652099609375,-0.034423828125
1761378697127957000,2.28195703125,-0.17852783203125,-0.9839019775390625,-0.0337677001953125
1761378697138013200,2.29201318359375,-0.17431640625,-0.981719970703125,-0.033447265625
1761378697148069000,2.302069091796875,-0.170654296875,-0.9753570556640625,-0.0366058349609375
1761378697158124800,2.312124755859375,-0.1699981689453125,-0.9776611328125,-0.0333099365234375
1761378697168181000,2.322180908203125,-0.1678009033203125,-0.981658935546875,-0.02850341796875
1761378697178237000,2.33223681640625,-0.1661224365234375,-0.98126220703125,-0.0294036865234375
1761378697188292900,2.34229296875,-0.1680145263671875,-0.976531982421875,-0.033599853515625
1761378697198349000,2.35234912109375,-0.1695098876953125,-0.972076416015625,-0.035369873046875
1761378697208404000,2.362404052734375,-0.1715850830078125,-0.97149658203125,-0.031341552734375
1761378697218460200,2.372460205078125,-0.1694793701171875,-0.9689788818359375,-0.0288238525390625
1761378697228516000,2.38251611328125,-0.1675262451171875,-0.9680938720703125,-0.027130126953125
1761378697238572000,2.392572021484375,-0.167449951171875,-0.9737548828125,-0.0252532958984375
1761378697248628200,2.402628173828125,-0.1636810302734375,-0.9758758544921875,-0.024871826171875
1761378697258684000,2.412683837890625,-0.163238525390625,-0.9775390625,-0.026611328125
1761378697268739800,2.42273974609375,-0.1651153564453125,-0.9812164306640625,-0.0312957763671875
1761378697278796000,2.432796142578125,-0.164520263671875,-0.9806060791015625,-0.0386962890625
1761378697288851000,2.442850830078125,-0.1687164306640625,-0.979827880859375,-0.0455780029296875
1761378697298907100,2.4529072265625,-0.1726837158203125,-0.983734130859375,-0.0469970703125
1761378697308963000,2.462963134765625,-0.1750946044921875,-0.98150634765625,-0.0435333251953125
1761378697319019000,2.47301904296875,-0.1744537353515625,-0.97601318359375,-0.040985107421875
1761378697329075200,2.4830751953125,-0.1720123291015625,-0.9751739501953125,-0.03778076171875
1761378697339131100,2.493131103515625,-0.1685791015625,-0.9779205322265625,-0.0350189208984375
1761378697349187000,2.50318701171875,-0.1690521240234375,-0.983184814453125,-0.033721923828125
1761378697359243300,2.5132431640625,-0.171142578125,-0.9907684326171875,-0.0333709716796875
1761378697369298000,2.5232978515625,-0.172760009765625,-0.9962921142578125,-0.032440185546875
1761378697379354000,2.53335400390625,-0.177581787109375,-0.996429443359375,-0.0321197509765625
1761378697389410000,2.54341015625,-0.178802490234375,-0.9926910400390625,-0.03265380859375
1761378697399466000,2.553466064453125,-0.17840576171875,-0.985015869140625,-0.0342559814453125
1761378697409522200,2.563522216796875,-0.17718505859375,-0.9802093505859375,-0.033966064453125
1761378697419578000,2.573578125,-0.175048828125,-0.9769134521484375,-0.037261962890625
1761378697429634000,2.583634033203125,-0.1700286865234375,-0.9723968505859375,-0.0361175537109375
1761378697439690200,2.593690185546875,-0.1660614013671875,-0.9719390869140625,-0.03631591796875
1761378697449746200,2.60374609375,-0.167999267578125,-0.977386474609375,-0.035247802734375
1761378697459800800,2.61380078125,-0.1667327880859375,-0.978759765625,-0.0352325439453125
1761378697469857000,2.62385693359375,-0.16400146484375,-0.978271484375,-0.0362701416015625
1761378697479913000,2.633912841796875,-0.164306640625,-0.9764404296875,-0.03509521484375
1761378697489969000,2.643968994140625,-0.1687164306640625,-0.975982666015625,-0.032562255859375
1761378697500025000,2.654025146484375,-0.1699981689453125,-0.9793548583984375,-0.03094482421875
1761378697510081000,2.6640810546875,-0.175506591796875,-0.980682373046875,-0.030975341796875
1761378697520137000,2.674136962890625,-0.1749725341796875,-0.9782867431640625,-0.0320892333984375
1761378697530193200,2.684193115234375,-0.17425537109375,-0.9778900146484375,-0.036224365234375
1761378697540248000,2.694248046875,-0.1762847900390625,-0.97991943359375,-0.03594970703125
1761378697550304000,2.704303955078125,-0.174041748046875,-0.982208251953125,-0.03411865234375
1761378697560360000,2.71435986328125,-0.173065185546875,-0.9819488525390625,-0.032928466796875
1761378697570415900,2.724415771484375,-0.1716766357421875,-0.985076904296875,-0.033538818359375
1761378697580472000,2.73447216796875,-0.1720428466796875,-0.9840087890625,-0.0366668701171875
1761378697590528000,2.744528076171875,-0.175201416015625,-0.9822235107421875,-0.042449951171875
1761378697600584000,2.754583984375,-0.1798858642578125,-0.9821929931640625,-0.045074462890625
1761378697610640600,2.764640625,-0.1839141845703125,-0.9828643798828125,-0.0446014404296875
1761378697620695300,2.7746953125,-0.1831207275390625,-0.985992431640625,-0.0439605712890625
1761378697630751500,2.78475146484375,-0.1849365234375,-0.9925537109375,-0.0400238037109375
1761378697640807400,2.794807373046875,-0.1841278076171875,-0.9951019287109375,-0.035400390625
1761378697650863400,2.80486328125,-0.18255615234375,-0.9923858642578125,-0.035308837890625
1761378697660919600,2.81491943359375,-0.1797637939453125,-0.9902191162109375,-0.036712646484375
1761378697670975500,2.8249755859375,-0.178466796875,-0.9879302978515625,-0.038055419921875
1761378697681031400,2.835031494140625,-0.1786956787109375,-0.98272705078125,-0.040008544921875
1761378697691087400,2.84508740234375,-0.1754302978515625,-0.9753265380859375,-0.040740966796875
1761378697701142300,2.855142333984375,-0.1734466552734375,-0.9735565185546875,-0.0399322509765625
1761378697711198200,2.8651982421875,-0.16937255859375,-0.974151611328125,-0.03790283203125
1761378697721254400,2.87525439453125,-0.1672821044921875,-0.97174072265625,-0.0376434326171875
1761378697731310300,2.885310302734375,-0.1681671142578125,-0.9728851318359375,-0.0385284423828125
1761378697741366300,2.8953662109375,-0.1660919189453125,-0.974212646484375,-0.037322998046875
1761378697751422500,2.90542236328125,-0.1620025634765625,-0.9717254638671875,-0.0371551513671875
1761378697761478400,2.915478515625,-0.167999267578125,-0.975860595703125,-0.0377349853515625
1761378697771534300,2.925534423828125,-0.172088623046875,-0.981964111328125,-0.034942626953125
1761378697781590500,2.935590576171875,-0.1766204833984375,-0.980926513671875,-0.0353240966796875
1761378697791645400,2.9456455078125,-0.1800537109375,-0.9814453125,-0.03564453125
1761378697801701400,2.955701416015625,-0.1775360107421875,-0.984527587890625,-0.035888671875
1761378697811757300,2.96575732421875,-0.1788787841796875,-0.983917236328125,-0.0350799560546875
1761378697821813200,2.975813232421875,-0.1787261962890625,-0.98126220703125,-0.0357208251953125
1761378697831869400,2.985869384765625,-0.17401123046875,-0.979827880859375,-0.0387115478515625
1761378697841925400,2.99592529296875,-0.1747894287109375,-0.9822235107421875,-0.039398193359375
1761378697851981300,3.005981201171875,-0.179229736328125,-0.98583984375,-0.03509521484375
1761378697862037500,3.01603759765625,-0.178466796875,-0.9888458251953125,-0.03082275390625
1761378697872092400,3.026092529296875,-0.17755126953125,-0.9866790771484375,-0.0284271240234375
1761378697882148600,3.036148681640625,-0.1780853271484375,-0.98431396484375,-0.0281982421875
1761378697892204500,3.04620458984375,-0.1737213134765625,-0.98382568359375,-0.029083251953125
1761378697902260200,3.05626025390625,-0.17181396484375,-0.9816436767578125,-0.0311737060546875
1761378697912316400,3.06631640625,-0.1723480224609375,-0.9810333251953125,-0.034271240234375
1761378697922372400,3.076372314453125,-0.170379638671875,-0.9763336181640625,-0.0358428955078125
1761378697932428300,3.08642822265625,-0.1685943603515625,-0.9741668701171875,-0.035614013671875
1761378697942484500,3.096484375,-0.1699066162109375,-0.9790496826171875,-0.036956787109375
1761378697952540400,3.10654052734375,-0.169891357421875,-0.9787445068359375,-0.0383758544921875
1761378697962595600,3.116595703125,-0.17144775390625,-0.9726409912109375,-0.0399017333984375
1761378697972651500,3.126651611328125,-0.1727294921875,-0.9731903076171875,-0.0394287109375
1761378697982707500,3.13670751953125,-0.1673583984375,-0.97509765625,-0.038238525390625
1761378697992763400,3.146763427734375,-0.1672821044921875,-0.9766082763671875,-0.03692626953125
1761378698002819300,3.1568193359375,-0.17034912109375,-0.9841766357421875,-0.0366973876953125
1761378698012875300,3.166875244140625,-0.17132568359375,-0.988128662109375,-0.0342559814453125
1761378698022931500,3.176931396484375,-0.172454833984375,-0.986053466796875,-0.033538818359375
1761378698032987400,3.1869873046875,-0.1766815185546875,-0.9830322265625,-0.0345611572265625
1761378698043043300,3.197043212890625,-0.177581787109375,-0.9805755615234375,-0.0367431640625
1761378698053098500,3.207098388671875,-0.179107666015625,-0.9784698486328125,-0.036712646484375
1761378698063154400,3.217154541015625,-0.179290771484375,-0.9826812744140625,-0.03704833984375
1761378698073210400,3.22721044921875,-0.179229736328125,-0.9843597412109375,-0.0338592529296875
1761378698083266600,3.2372666015625,-0.1772003173828125,-0.9871978759765625,-0.030120849609375
1761378698093322500,3.247322509765625,-0.17559814453125,-0.991973876953125,-0.03179931640625
1761378698103378200,3.257378173828125,-0.1725921630859375,-0.9882659912109375,-0.0336761474609375
1761378698113434400,3.267434326171875,-0.1718292236328125,-0.980255126953125,-0.032928466796875
1761378698123490300,3.277490234375,-0.1712646484375,-0.978546142578125,-0.0330047607421875
1761378698133545500,3.28754541015625,-0.168182373046875,-0.97711181640625,-0.03558349609375
1761378698143601400,3.297601318359375,-0.168365478515625,-0.9737548828125,-0.0369720458984375
1761378698153657300,3.3076572265625,-0.17059326171875,-0.9766845703125,-0.0368499755859375
1761378698163713500,3.317713623046875,-0.1747894287109375,-0.9823455810546875,-0.035797119140625
1761378698173769500,3.32776953125,-0.17608642578125,-0.983062744140625,-0.038665771484375
1761378698183825400,3.337825439453125,-0.177459716796875,-0.983123779296875,-0.040985107421875
1761378698193881600,3.347881591796875,-0.17913818359375,-0.98272705078125,-0.0400390625
1761378698203937500,3.3579375,-0.177947998046875,-0.980926513671875,-0.037261962890625
1761378698213993200,3.3679931640625,-0.1772613525390625,-0.978240966796875,-0.0346527099609375
1761378698224048400,3.37804833984375,-0.1738739013671875,-0.97637939453125,-0.0332183837890625
1761378698234104300,3.388104248046875,-0.1706085205078125,-0.9730224609375,-0.03485107421875
1761378698244160500,3.398160400390625,-0.1710357666015625,-0.9736480712890625,-0.03424072265625
1761378698254216400,3.408216552734375,-0.172454833984375,-0.9780120849609375,-0.035888671875
1761378698264272400,3.4182724609375,-0.1713104248046875,-0.978179931640625,-0.0391998291015625
1761378698274328600,3.42832861328125,-0.1772613525390625,-0.9792327880859375,-0.0399932861328125
1761378698284384500,3.438384521484375,-0.1818084716796875,-0.9835205078125,-0.0406951904296875
1761378698294440400,3.4484404296875,-0.1822662353515625,-0.986663818359375,-0.03924560546875
1761378698304496600,3.45849658203125,-0.1838836669921875,-0.9898681640625,-0.038116455078125
1761378698314551300,3.46855126953125,-0.181915283203125,-0.9875030517578125,-0.0388031005859375
1761378698324607500,3.478607421875,-0.180694580078125,-0.981475830078125,-0.038848876953125
1761378698334663400,3.488663330078125,-0.17626953125,-0.980926513671875,-0.0395050048828125
1761378698344719400,3.49871923828125,-0.174346923828125,-0.9793701171875,-0.0414886474609375
1761378698354775600,3.508775634765625,-0.16943359375,-0.9773101806640625,-0.0433197021484375
1761378698364831500,3.51883154296875,-0.1679229736328125,-0.9803009033203125,-0.04351806640625
1761378698374887400,3.528887451171875,-0.1701812744140625,-0.981658935546875,-0.0408935546875
1761378698384943400,3.538943359375,-0.1680755615234375,-0.978790283203125,-0.03985595703125
1761378698394999600,3.54899951171875,-0.1718597412109375,-0.9790496826171875,-0.0414886474609375
1761378698405054200,3.55905419921875,-0.1768798828125,-0.9833526611328125,-0.0399932861328125
1761378698415110400,3.5691103515625,-0.1819000244140625,-0.989044189453125,-0.03887939453125
1761378698425166300,3.579166259765625,-0.182098388671875,-0.9896087646484375,-0.0379180908203125
1761378698435222300,3.58922216796875,-0.183807373046875,-0.9871978759765625,-0.0367279052734375
1761378698445278500,3.599278564453125,-0.18121337890625,-0.9817352294921875,-0.037261962890625
1761378698455334400,3.60933447265625,-0.173431396484375,-0.9766845703125,-0.039398193359375
1761378698465390300,3.619390380859375,-0.1708984375,-0.974700927734375,-0.0407562255859375
1761378698475446500,3.629446533203125,-0.168212890625,-0.9736480712890625,-0.042022705078125
1761378698485502500,3.63950244140625,-0.167327880859375,-0.9724884033203125,-0.0415802001953125
1761378698495557400,3.649557373046875,-0.1681976318359375,-0.9768829345703125,-0.0399169921875
1761378698505613300,3.65961328125,-0.171142578125,-0.982666015625,-0.0407867431640625
1761378698515669200,3.669669189453125,-0.1727142333984375,-0.984283447265625,-0.0409393310546875
1761378698525725400,3.679725341796875,-0.1734771728515625,-0.982452392578125,-0.03924560546875
1761378698535781400,3.689781494140625,-0.1759033203125,-0.9809417724609375,-0.03741455078125
1761378698545837300,3.69983740234375,-0.175048828125,-0.97955322265625,-0.0389251708984375
1761378698555893500,3.7098935546875,-0.1723785400390625,-0.9765472412109375,-0.040496826171875
1761378698565949400,3.719949462890625,-0.1712493896484375,-0.9765777587890625,-0.041748046875
1761378698576005400,3.73000537109375,-0.1727447509765625,-0.97979736328125,-0.041717529296875
1761378698586060500,3.740060546875,-0.1749420166015625,-0.9855194091796875,-0.0419464111328125
1761378698596116200,3.7501162109375,-0.1800994873046875,-0.9877471923828125,-0.041778564453125
1761378698606172000,3.760171875,-0.1838836669921875,-0.9864044189453125,-0.041259765625
1761378698616227800,3.770227783203125,-0.1821136474609375,-0.9889373779296875,-0.0425567626953125
1761378698626283800,3.78028369140625,-0.1800537109375,-0.9881591796875,-0.041107177734375
1761378698636340000,3.790340087890625,-0.177734375,-0.98284912109375,-0.041015625
1761378698646396000,3.80039599609375,-0.175933837890625,-0.981109619140625,-0.0421295166015625
1761378698656451800,3.810451904296875,-0.1763458251953125,-0.9823455810546875,-0.04296875
1761378698666508000,3.820508056640625,-0.177001953125,-0.9812469482421875,-0.0427093505859375
1761378698676563000,3.83056298828125,-0.1772918701171875,-0.9778289794921875,-0.0394287109375
1761378698686619100,3.840619140625,-0.1757049560546875,-0.9766845703125,-0.0383148193359375
1761378698696675000,3.850675048828125,-0.171875,-0.977325439453125,-0.04034423828125
1761378698706730800,3.860730712890625,-0.1728668212890625,-0.9782867431640625,-0.0403900146484375
1761378698716787000,3.870786865234375,-0.1727752685546875,-0.9785614013671875,-0.039215087890625
1761378698726843000,3.8808427734375,-0.1732940673828125,-0.9787750244140625,-0.040618896484375
1761378698736898800,3.89089892578125,-0.1729278564453125,-0.97991943359375,-0.0397796630859375
1761378698746955000,3.900955078125,-0.1752166748046875,-0.9788970947265625,-0.0384063720703125
1761378698757011000,3.911010986328125,-0.17529296875,-0.976043701171875,-0.036834716796875
1761378698767067000,3.92106689453125,-0.1737213134765625,-0.9739990234375,-0.0363006591796875
1761378698777122000,3.9311220703125,-0.1741180419921875,-0.9701385498046875,-0.0384674072265625
1761378698787178000,3.941177978515625,-0.1711578369140625,-0.975189208984375,-0.035614013671875
1761378698797234200,3.951234130859375,-0.1694793701171875,-0.98223876953125,-0.0379791259765625
1761378698807289900,3.961289794921875,-0.1685791015625,-0.9800262451171875,-0.042816162109375
1761378698817345800,3.971345703125,-0.16717529296875,-0.97857666015625,-0.04376220703125
1761378698827402000,3.981402099609375,-0.169952392578125,-0.9821014404296875,-0.0408935546875
1761378698837458000,3.9914580078125,-0.1711883544921875,-0.982177734375,-0.0384368896484375
1761378698847513900,4.001513916015625,-0.170684814453125,-0.9800262451171875,-0.03839111328125
1761378698857570000,4.011570068359375,-0.170562744140625,-0.976776123046875,-0.037994384765625
1761378698867625000,4.021625,-0.1725006103515625,-0.976470947265625,-0.0395050048828125
1761378698877681000,4.031680908203125,-0.174774169921875,-0.980621337890625,-0.040863037109375
1761378698887737000,4.041737060546875,-0.172637939453125,-0.985992431640625,-0.0435943603515625
1761378698897793000,4.05179296875,-0.1725006103515625,-0.9889984130859375,-0.0450897216796875
1761378698907849000,4.061848876953125,-0.1719818115234375,-0.99029541015625,-0.043975830078125
1761378698917905000,4.07190478515625,-0.172027587890625,-0.98883056640625,-0.03973388671875
1761378698927960800,4.0819609375,-0.17315673828125,-0.9861297607421875,-0.03814697265625
1761378698938016800,4.092016845703125,-0.1759185791015625,-0.982025146484375,-0.0359649658203125
1761378698948073000,4.102072998046875,-0.17425537109375,-0.98095703125,-0.0330657958984375
1761378698958127900,4.1121279296875,-0.1772308349609375,-0.98260498046875,-0.031280517578125
1761378698968184000,4.12218408203125,-0.176605224609375,-0.9847564697265625,-0.033172607421875
1761378698978240000,4.132239990234375,-0.1702880859375,-0.978057861328125,-0.035858154296875
1761378698988296000,4.1422958984375,-0.16973876953125,-0.971710205078125,-0.0377044677734375
1761378698998352100,4.15235205078125,-0.1693572998046875,-0.97369384765625,-0.0401458740234375
1761378699008408000,4.162407958984375,-0.1667938232421875,-0.977813720703125,-0.04205322265625
1761378699018463700,4.172463623046875,-0.167572021484375,-0.976348876953125,-0.043365478515625
1761378699028520000,4.18252001953125,-0.167999267578125,-0.976531982421875,-0.04248046875
1761378699038575900,4.192575927734375,-0.1685943603515625,-0.9802398681640625,-0.0377655029296875
1761378699048631800,4.2026318359375,-0.1726531982421875,-0.9822998046875,-0.04302978515625
1761378699058687000,4.21268701171875,-0.1707305908203125,-0.98126220703125,-0.045501708984375
1761378699068743000,4.222742919921875,-0.1760406494140625,-0.9800262451171875,-0.0404205322265625
1761378699078799000,4.232799072265625,-0.1785888671875,-0.9800567626953125,-0.0380096435546875
1761378699088855000,4.24285498046875,-0.17608642578125,-0.982086181640625,-0.03668212890625
1761378699098911000,4.252910888671875,-0.1806640625,-0.9870758056640625,-0.03753662109375
1761378699108967200,4.26296728515625,-0.1802978515625,-0.991607666015625,-0.0393218994140625
1761378699119022800,4.27302294921875,-0.1761016845703125,-0.99017333984375,-0.040771484375
1761378699129078800,4.283078857421875,-0.17376708984375,-0.986846923828125,-0.0422821044921875
1761378699139135000,4.293135009765625,-0.1741485595703125,-0.9818878173828125,-0.044158935546875
1761378699149191000,4.30319091796875,-0.17156982421875,-0.978851318359375,-0.0429840087890625
1761378699159246000,4.31324609375,-0.17083740234375,-0.9778594970703125,-0.0389251708984375
1761378699169302000,4.323302001953125,-0.16845703125,-0.9770050048828125,-0.037506103515625
1761378699179358000,4.33335791015625,-0.164306640625,-0.976470947265625,-0.0412750244140625
1761378699189414100,4.3434140625,-0.163055419921875,-0.9745941162109375,-0.04583740234375
1761378699199470000,4.353469970703125,-0.164154052734375,-0.976593017578125,-0.049102783203125
1761378699209526000,4.363526123046875,-0.1695709228515625,-0.9836273193359375,-0.0521697998046875
1761378699219582000,4.37358203125,-0.1735687255859375,-0.9844970703125,-0.05108642578125
1761378699229638000,4.383637939453125,-0.17816162109375,-0.9821624755859375,-0.045867919921875
1761378699239693800,4.39369384765625,-0.1800994873046875,-0.9853057861328125,-0.041656494140625
1761378699249749000,4.4037490234375,-0.181640625,-0.98492431640625,-0.035430908203125
1761378699259805000,4.413804931640625,-0.1811370849609375,-0.9809417724609375,-0.0357818603515625
1761378699269860900,4.42386083984375,-0.1727142333984375,-0.97698974609375,-0.038726806640625
1761378699279917000,4.4339169921875,-0.1722412109375,-0.977874755859375,-0.04290771484375
1761378699289973000,4.443972900390625,-0.1726837158203125,-0.9789276123046875,-0.0462493896484375
1761378699300029000,4.45402880859375,-0.1712188720703125,-0.977386474609375,-0.0491790771484375
1761378699310085000,4.464085205078125,-0.17236328125,-0.97894287109375,-0.0494384765625
1761378699320140800,4.474140869140625,-0.17669677734375,-0.98394775390625,-0.0443115234375
1761378699330196700,4.48419677734375,-0.1781768798828125,-0.9833526611328125,-0.0389556884765625
1761378699340253000,4.4942529296875,-0.1775665283203125,-0.9754791259765625,-0.03802490234375
1761378699350307800,4.504307861328125,-0.178497314453125,-0.9733123779296875,-0.0380096435546875
1761378699360364000,4.514364013671875,-0.177398681640625,-0.97906494140625,-0.035308837890625
1761378699370420000,4.524419921875,-0.1772918701171875,-0.9770050048828125,-0.0327301025390625
1761378699380476000,4.534475830078125,-0.176513671875,-0.9742584228515625,-0.0339508056640625
1761378699390532000,4.544531982421875,-0.1731719970703125,-0.9766998291015625,-0.03643798828125
1761378699400588000,4.554588134765625,-0.1732330322265625,-0.9782562255859375,-0.0389251708984375
1761378699410644000,4.56464404296875,-0.173309326171875,-0.9789886474609375,-0.045318603515625
1761378699420700200,4.5747001953125,-0.1716766357421875,-0.9767303466796875,-0.0506439208984375
1761378699430755800,4.584755859375,-0.172698974609375,-0.9773101806640625,-0.0538330078125
1761378699440811800,4.594811767578125,-0.1738739013671875,-0.9805450439453125,-0.0507354736328125
1761378699450867000,4.604866943359375,-0.175079345703125,-0.983184814453125,-0.045745849609375
1761378699460923000,4.6149228515625,-0.178131103515625,-0.9850006103515625,-0.0420074462890625
1761378699470979000,4.62497900390625,-0.1788482666015625,-0.9885101318359375,-0.0400238037109375
1761378699481035000,4.635034912109375,-0.18414306640625,-0.991455078125,-0.038360595703125
1761378699491091000,4.645091064453125,-0.1832122802734375,-0.9899139404296875,-0.03826904296875
1761378699501147100,4.655147216796875,-0.182281494140625,-0.9864044189453125,-0.0390625
1761378699511203000,4.665203125,-0.1839599609375,-0.98345947265625,-0.040771484375
1761378699521259000,4.675259033203125,-0.1806793212890625,-0.9814300537109375,-0.0469207763671875
1761378699531315000,4.68531494140625,-0.1773681640625,-0.9811859130859375,-0.0526580810546875
1761378699541371000,4.695370849609375,-0.17645263671875,-0.9846649169921875,-0.0546112060546875
1761378699551426000,4.705426025390625,-0.175323486328125,-0.98760986328125,-0.0521392822265625
1761378699561482000,4.71548193359375,-0.175323486328125,-0.98388671875,-0.0493316650390625
1761378699571538000,4.725537841796875,-0.173736572265625,-0.979522705078125,-0.04827880859375
1761378699581594000,4.735593994140625,-0.1728515625,-0.9788055419921875,-0.0471038818359375
1761378699591650000,4.745650146484375,-0.1703643798828125,-0.9770050048828125,-0.045654296875
1761378699601706000,4.7557060546875,-0.17120361328125,-0.974090576171875,-0.044677734375
1761378699611761700,4.76576171875,-0.175811767578125,-0.9751739501953125,-0.0447540283203125
1761378699621817600,4.775817626953125,-0.1748809814453125,-0.9727325439453125,-0.0434722900390625
1761378699631873500,4.78587353515625,-0.1736297607421875,-0.9710693359375,-0.044464111328125
1761378699641929700,4.7959296875,-0.173095703125,-0.9749908447265625,-0.0453948974609375
1761378699651984400,4.805984375,-0.177581787109375,-0.98016357421875,-0.0443572998046875
1761378699662040600,4.81604052734375,-0.1790771484375,-0.985626220703125,-0.0424957275390625
1761378699672096500,4.826096435546875,-0.178131103515625,-0.985595703125,-0.04327392578125
1761378699682152400,4.83615234375,-0.1778564453125,-0.984405517578125,-0.044677734375
1761378699692208600,4.846208740234375,-0.177337646484375,-0.984954833984375,-0.042327880859375
1761378699702264600,4.8562646484375,-0.1806640625,-0.9835357666015625,-0.0401153564453125
1761378699712320500,4.866320556640625,-0.177459716796875,-0.9784698486328125,-0.03765869140625
1761378699722376700,4.876376708984375,-0.1734466552734375,-0.977996826171875,-0.035186767578125
1761378699732432600,4.8864326171875,-0.173431396484375,-0.9811859130859375,-0.0341949462890625
1761378699742488600,4.896488525390625,-0.1736297607421875,-0.9809112548828125,-0.0370025634765625
1761378699752543500,4.90654345703125,-0.1735076904296875,-0.9758453369140625,-0.0410614013671875
1761378699762599400,4.916599365234375,-0.1727752685546875,-0.9733123779296875,-0.043701171875
1761378699772655400,4.9266552734375,-0.1734161376953125,-0.9755706787109375,-0.0436553955078125
1761378699782711600,4.936711669921875,-0.1706085205078125,-0.974700927734375,-0.0417938232421875
1761378699792767500,4.946767578125,-0.1686553955078125,-0.97283935546875,-0.037261962890625
1761378699802823400,4.956823486328125,-0.1672821044921875,-0.979949951171875,-0.0345458984375
1761378699812879600,4.966879638671875,-0.165924072265625,-0.98583984375,-0.0349578857421875
1761378699822935600,4.976935546875,-0.1711883544921875,-0.985443115234375,-0.035736083984375
1761378699832991500,4.986991455078125,-0.172943115234375,-0.983795166015625,-0.0418243408203125
1761378699843047700,4.997047607421875,-0.181060791015625,-0.983673095703125,-0.0408477783203125
1761378699853102300,5.007102294921875,-0.1861114501953125,-0.984588623046875,-0.0423431396484375
1761378699863158500,5.017158447265625,-0.1813201904296875,-0.9842681884765625,-0.04254150390625
1761378699873214500,5.02721435546875,-0.1840362548828125,-0.984771728515625,-0.0391082763671875
1761378699883270400,5.0372705078125,-0.17791748046875,-0.984375,-0.036163330078125
1761378699893326600,5.04732666015625,-0.169158935546875,-0.9838104248046875,-0.0388336181640625
1761378699903382500,5.057382568359375,-0.16339111328125,-0.9801177978515625,-0.0404510498046875
1761378699913438500,5.0674384765625,-0.16015625,-0.981414794921875,-0.0444183349609375
1761378699923494700,5.07749462890625,-0.159912109375,-0.984893798828125,-0.0483245849609375
1761378699933550600,5.087550537109375,-0.1669769287109375,-0.9849700927734375,-0.049713134765625
1761378699943606500,5.0976064453125,-0.17218017578125,-0.9838104248046875,-0.0478515625
1761378699953661400,5.107661376953125,-0.176788330078125,-0.985626220703125,-0.0460968017578125
1761378699963717400,5.11771728515625,-0.1751251220703125,-0.9837799072265625,-0.0461883544921875
1761378699973773600,5.127773681640625,-0.1722259521484375,-0.9810791015625,-0.0469970703125
1761378699983829500,5.13782958984375,-0.1679534912109375,-0.978851318359375,-0.04498291015625
1761378699993885400,5.147885498046875,-0.1649627685546875,-0.9777984619140625,-0.0439300537109375
1761378700003941600,5.157941650390625,-0.1645660400390625,-0.9840545654296875,-0.0413970947265625
1761378700013997600,5.16799755859375,-0.1684417724609375,-0.9863128662109375,-0.0381317138671875
1761378700024053500,5.178053466796875,-0.1723175048828125,-0.9806976318359375,-0.038238525390625
1761378700034109700,5.188109619140625,-0.1756744384765625,-0.977447509765625,-0.037567138671875
1761378700044165600,5.19816552734375,-0.1756134033203125,-0.9790191650390625,-0.039764404296875
1761378700054221600,5.2082216796875,-0.1753082275390625,-0.9770355224609375,-0.043426513671875
1761378700064276500,5.2182763671875,-0.1704254150390625,-0.97430419921875,-0.0474090576171875
1761378700074332400,5.22833251953125,-0.16033935546875,-0.9735107421875,-0.052886962890625
1761378700084388600,5.238388671875,-0.16986083984375,-0.9741668701171875,-0.0489654541015625
1761378700094444500,5.248444580078125,-0.1670989990234375,-0.9839630126953125,-0.043212890625
1761378700104500500,5.25850048828125,-0.170013427734375,-0.9855194091796875,-0.0367889404296875
1761378700114556700,5.268556640625,-0.1753387451171875,-0.9833831787109375,-0.034393310546875
1761378700124612600,5.278612548828125,-0.1706390380859375,-0.9798126220703125,-0.035888671875
1761378700134668500,5.28866845703125,-0.1639251708984375,-0.976470947265625,-0.035797119140625
1761378700144724500,5.298724365234375,-0.16009521484375,-0.974578857421875,-0.037994384765625
1761378700154780700,5.30878076171875,-0.1572113037109375,-0.9761810302734375,-0.0420989990234375
1761378700164835300,5.31883544921875,-0.1605224609375,-0.9762420654296875,-0.0441741943359375
1761378700174891500,5.3288916015625,-0.1678009033203125,-0.981414794921875,-0.04669189453125
1761378700184947500,5.338947509765625,-0.17254638671875,-0.998291015625,-0.0514984130859375
1761378700195003400,5.34900341796875,-0.1832122802734375,-0.988800048828125,-0.0469512939453125
1761378700205059600,5.3590595703125,-0.188079833984375,-0.9847412109375,-0.0481109619140625
1761378700215115500,5.369115478515625,-0.181640625,-0.9853057861328125,-0.045745849609375
1761378700225171500,5.37917138671875,-0.1814422607421875,-0.98785400390625,-0.0423736572265625
1761378700235227600,5.3892275390625,-0.175323486328125,-0.98828125,-0.04058837890625
1761378700245283600,5.39928369140625,-0.167755126953125,-0.9869232177734375,-0.0431671142578125
1761378700255339500,5.409339599609375,-0.160614013671875,-0.985443115234375,-0.0462493896484375
1761378700265395700,5.419395751953125,-0.1573333740234375,-0.9822235107421875,-0.0469818115234375
1761378700275450400,5.429450439453125,-0.1547088623046875,-0.9815216064453125,-0.0477294921875
1761378700285506600,5.439506591796875,-0.1577911376953125,-0.9829559326171875,-0.04583740234375
1761378700295562500,5.4495625,-0.1617431640625,-0.983612060546875,-0.043487548828125
1761378700305618400,5.459618408203125,-0.1613006591796875,-0.9827880859375,-0.04278564453125
1761378700315674600,5.469674560546875,-0.16729736328125,-0.9833984375,-0.0410003662109375
1761378700325730600,5.47973046875,-0.171356201171875,-0.98486328125,-0.040496826171875
1761378700335786500,5.489786376953125,-0.1706085205078125,-0.9865570068359375,-0.0459136962890625
1761378700345842700,5.4998427734375,-0.17730712890625,-0.9862060546875,-0.0498046875
1761378700355898600,5.509898681640625,-0.17840576171875,-0.9842987060546875,-0.048675537109375
1761378700365954600,5.51995458984375,-0.176727294921875,-0.9817657470703125,-0.0444793701171875
1761378700376009500,5.530009521484375,-0.171844482421875,-0.982330322265625,-0.03875732421875
1761378700386065400,5.5400654296875,-0.162445068359375,-0.9778594970703125,-0.03857421875
1761378700396121600,5.55012158203125,-0.1591796875,-0.9777374267578125,-0.0426177978515625
1761378700406177500,5.560177490234375,-0.1592864990234375,-0.982757568359375,-0.045623779296875
1761378700416233500,5.5702333984375,-0.1575469970703125,-0.977813720703125,-0.0467376708984375
1761378700426289700,5.58028955078125,-0.161285400390625,-0.97381591796875,-0.0498046875
1761378700436345600,5.590345703125,-0.1643218994140625,-0.978515625,-0.0470123291015625
1761378700446401500,5.600401611328125,-0.1671905517578125,-0.983062744140625,-0.0431671142578125
1761378700456457700,5.610457763671875,-0.1702880859375,-0.9787445068359375,-0.040435791015625
1761378700466513700,5.620513671875,-0.1688690185546875,-0.97100830078125,-0.04296875
1761378700476569600,5.630569580078125,-0.165863037109375,-0.968505859375,-0.0410308837890625
1761378700486624500,5.64062451171875,-0.15814208984375,-0.9688568115234375,-0.039398193359375
1761378700496680400,5.650680419921875,-0.160491943359375,-0.973724365234375,-0.0412750244140625
1761378700506736600,5.660736572265625,-0.1598052978515625,-0.9780120849609375,-0.0421295166015625
1761378700516792600,5.67079248046875,-0.163543701171875,-0.98602294921875,-0.039459228515625
1761378700526848500,5.6808486328125,-0.17303466796875,-0.9918212890625,-0.03314208984375
1761378700536904400,5.690904541015625,-0.1820526123046875,-0.992889404296875,-0.0308990478515625
1761378700546960600,5.700960693359375,-0.1853179931640625,-0.9919586181640625,-0.03350830078125
1761378700557016600,5.7110166015625,-0.18121337890625,-0.9889068603515625,-0.0421905517578125
1761378700567072500,5.721072509765625,-0.172943115234375,-0.983642578125,-0.0488128662109375
1761378700577128700,5.731128662109375,-0.1688385009765625,-0.9868621826171875,-0.05157470703125
1761378700587183400,5.741183349609375,-0.1628875732421875,-0.9921417236328125,-0.0523681640625
1761378700597239600,5.751239501953125,-0.15673828125,-0.9884185791015625,-0.05328369140625
1761378700607296000,5.7612958984375,-0.153564453125,-0.9810638427734375,-0.0549468994140625
1761378700617352000,5.77135205078125,-0.1498565673828125,-0.977996826171875,-0.0547637939453125
1761378700627408100,5.781408203125,-0.1572113037109375,-0.973480224609375,-0.0514984130859375
1761378700637463800,5.7914638671875,-0.1548004150390625,-0.9742584228515625,-0.0519561767578125
1761378700647519700,5.801519775390625,-0.1522674560546875,-0.97039794921875,-0.0476531982421875
1761378700657576000,5.811575927734375,-0.190155029296875,-0.98272705078125,-0.032623291015625
1761378700667631900,5.8216318359375,-0.1793975830078125,-0.9978485107421875,-0.0361785888671875
1761378700677687800,5.831687744140625,-0.172393798828125,-0.983978271484375,-0.047882080078125
1761378700687743000,5.841742919921875,-0.1623687744140625,-0.975128173828125,-0.0567779541015625
1761378700697799000,5.851798828125,-0.1561431884765625,-0.9764404296875,-0.053741455078125
1761378700707855000,5.861855224609375,-0.154205322265625,-0.9765777587890625,-0.0493316650390625
1761378700717911000,5.8719111328125,-0.1503753662109375,-0.9744720458984375,-0.0446624755859375
1761378700727967000,5.881967041015625,-0.1529998779296875,-0.9724884033203125,-0.0431976318359375
1761378700738023000,5.89202294921875,-0.1553802490234375,-0.9807586669921875,-0.0461578369140625
1761378700748078800,5.902078857421875,-0.164947509765625,-0.9823760986328125,-0.0417022705078125
