time,seconds_elapsed,z,y,x
1761378694954628400,0.10862841796875,0.025213936233520508,0.02631517547369003,-0.010089140076935291
1761378694964684300,0.118684326171875,-0.01576966993138194,-0.004200958821177482,0.01732992325173691
1761378694974740200,0.128740234375,-0.04054769896566868,-0.007978723794221878,0.038416386025398964
1761378694984796200,0.138796142578125,-0.06122063076868653,-0.00168225399851799,0.042023434074036775
1761378694994852000,0.14885205078125,-0.08935454610213636,-0.0005295768320560455,0.03982744013341143
1761378695004908000,0.158907958984375,-0.02736424613520503,0.04314648328721523,0.033300540849007666
1761378695014964200,0.168964111328125,0.01523965470790863,0.0671375997275114,-0.008820581445842982
1761378695025019100,0.17901904296875,0.0632341625481844,0.05127075303196907,-0.030489976940304038
1761378695035075000,0.189074951171875,0.0828347889445722,0.054581485015153884,-0.03374156261477619
1761378695045131300,0.19913134765625,0.08980535860955714,0.04902794254124164,-0.045035219643265005
1761378695055187200,0.209187255859375,0.0339184900842607,0.0338671982884407,-0.03124536188486963
1761378695065243100,0.2192431640625,0.014473931032419203,0.027539748832583425,-0.020970599575340747
1761378695075299300,0.22929931640625,-0.02540668232664466,0.02167231810390949,-0.006289857391826808
1761378695085355300,0.239355224609375,-0.05140037076100707,-0.03397884196937084,0.00002794745285063982
1761378695095410200,0.24941015625,-0.08691255977749825,-0.07575695951282978,0.029132132590562104
1761378695105466000,0.259466064453125,-0.10641440197452902,-0.07872866879999638,0.039908268550969656
1761378695115522000,0.26952197265625,-0.0672192866615951,-0.010452420431375503,0.02519146867338568
1761378695125578200,0.279578125,-0.02221709250509739,0.10468144070208071,0.024250059637427327
1761378695135634200,0.28963427734375,-0.01740662348344922,0.12337620429992675,0.01790153086092323
1761378695145690000,0.299690185546875,0.02895896798074245,0.0954804816365242,0.026487755561619995
1761378695155746300,0.309746337890625,0.06340601198375224,0.0883387931883335,0.04102203847914934
1761378695165802200,0.31980224609375,0.09959098569527268,0.051202363970875735,0.03614482436422258
1761378695175857200,0.329857177734375,0.07758242137432098,0.033815175840258595,0.04454465964734554
1761378695185913000,0.3399130859375,0.0652291357576847,0.019414310044050215,0.06348696826547384
1761378695195969000,0.349968994140625,0.021416297516226767,-0.007616320222616196,0.06884308847114444
1761378695206025200,0.360025146484375,0.0026730186015367506,-0.019382161340117453,0.02758095762580633
1761378695216081200,0.3700810546875,-0.04898877957463264,-0.010875029757618903,0.003432604797184467
1761378695226137000,0.38013720703125,-0.11246186544522642,-0.027673604345321654,0.005948861934430897
1761378695236193300,0.390193359375,-0.04576747944056987,0.01521393574476242,0.017702537690103052
1761378695246249200,0.400249267578125,0.0011579378634691238,0.09641805474758147,-0.012505115177482366
1761378695256304400,0.410304443359375,0.012368044794350861,0.11070669234097004,-0.04621577119734138
1761378695266360300,0.4203603515625,0.05184840678945184,0.05022095171809196,-0.019686806842498482
1761378695276416000,0.430416015625,0.09710559862032532,0.05939210016727447,-0.003320047800801694
1761378695286472200,0.44047216796875,0.06123334411978721,0.06970949604213238,0.000969137293100357
1761378695296528100,0.450528076171875,0.07056362865343689,0.04469546629488468,0.028661026213783768
1761378695306584000,0.460583984375,0.06647314446941018,0.011247370201349258,0.04992695547388866
1761378695316640300,0.47064013671875,0.040306437555700535,0.013303133687376975,0.04853493485990911
1761378695326695200,0.480695068359375,0.07783741904869675,0.04269640143215656,0.0049636502893641585
1761378695336751000,0.490751220703125,0.04858677464500069,0.05367489156424999,-0.024117628896795213
1761378695346807300,0.500807373046875,0.048219694898277515,0.06842237884104252,-0.042132447406463325
1761378695356863200,0.51086328125,0.06031213762164116,0.1103249995470047,-0.0675926500186324
1761378695366919200,0.520919189453125,0.0605804331690073,0.13804945729672907,-0.06914484789669513
1761378695376975000,0.53097509765625,0.006722586253285407,0.08112287046015262,-0.05807298039272427
1761378695387031000,0.541031005859375,0.005151391413807869,0.005545943689346313,-0.026155454867333172
1761378695397087000,0.5510869140625,0.010700111582130193,0.02907411879301071,-0.011567140207625925
1761378695407142100,0.56114208984375,0.012277736162394285,0.08638590555489063,0.0015835793970152734
1761378695417198000,0.571197998046875,0.034189854371547694,0.09472001865804194,-0.01546338046118617
1761378695427254300,0.581254150390625,0.02211173243448138,0.045591538351774215,-0.02511241208780557
1761378695437310200,0.591310302734375,-0.009036708414554595,-0.020044424641132354,-0.003955459627509117
1761378695447366100,0.6013662109375,-0.01770034573301673,-0.0165828860104084,-0.01618639750611037
1761378695457422300,0.61142236328125,-0.025873276925086973,-0.026552491360902784,-0.024038462713360784
1761378695467478300,0.621478271484375,-0.04773030394613743,-0.04559972165822983,-0.03053819999620318
1761378695477534000,0.631533935546875,-0.09175824624300002,-0.03445873444080352,-0.029331162294000384
1761378695487589000,0.641589111328125,-0.060306876924633976,-0.025729484540224074,-0.046338118935376406
1761378695497645000,0.65164501953125,-0.03332359293103218,0.008041852158308029,-0.03716317109391093
1761378695507701200,0.661701171875,-0.009762246210128068,0.042110125976800916,-0.007269004622288048
1761378695517757200,0.671757080078125,0.05653042712584137,0.02639233236312866,0.018177936649508772
1761378695527813000,0.681813232421875,0.08657017608061432,0.026347324177622793,0.045105691063590345
1761378695537869300,0.691869384765625,0.12861585851907728,0.0684627108514309,0.043122664020210505
1761378695547925200,0.70192529296875,0.11785758700892328,0.060442486003041265,0.010537577964179217
1761378695557981200,0.711981201171875,0.07042246661707759,0.016768179449439046,-0.007411481832899153
1761378695568036000,0.7220361328125,0.00329085823893547,-0.0026876316487789154,0.014479483990371226
1761378695578092000,0.732092041015625,-0.009596680384874344,0.02250935344994068,0.013764029197394848
1761378695588148200,0.742148193359375,-0.04680032961964607,0.05370996287763118,-0.014903554621338843
1761378695598204200,0.7522041015625,-0.0585936432659626,0.03615793957412243,-0.04691767238900065
1761378695608264000,0.762263916015625,-0.05846037227511405,0.03801671918332577,-0.04404226308315992
1761378695618320000,0.77231982421875,-0.03728431325554848,0.023545126238465306,-0.01537643283009529
1761378695628376000,0.7823759765625,0.022756606209278104,0.035350130322575564,0.030141748024523258
1761378695638430700,0.7924306640625,0.02805412809550762,0.03747837452292442,0.08818798654079436
1761378695648487000,0.80248681640625,0.05110416429340839,0.027992753297090528,0.12903437619209288
1761378695658542800,0.81254296875,0.09734189159423112,0.04757131399214268,0.10860862408317624
1761378695668598800,0.822598876953125,0.07373276020884513,0.07292085930407047,0.07477496273815631
1761378695678655000,0.832655029296875,0.019700871900469062,0.036819033831357956,0.012422587993182242
1761378695688711000,0.8427109375,0.0146494337297976,0.021265490868687627,-0.02772968191411346
1761378695698766800,0.852766845703125,-0.060213207291811705,0.056768765926361084,-0.046863421451114114
1761378695708823000,0.862822998046875,-0.07028042779788375,0.055773909670114516,-0.055722727472148834
1761378695718878000,0.8728779296875,-0.07077975562214851,0.07238485273122787,-0.037736148676276206
1761378695728934000,0.882933837890625,-0.039595512807369226,0.11024199743866919,-0.014024579829722642
1761378695738989800,0.89298974609375,-0.009136515527218579,0.10218962388634681,-0.00043119449149817227
1761378695749045800,0.903045654296875,0.008898176726698875,0.050021629753708836,0.005709171427041292
1761378695759102000,0.91310205078125,-0.006270604702085256,-0.05806932713091373,-0.006354885452054441
1761378695769158000,0.923157958984375,-0.001146247425675392,-0.1270166066288948,-0.012164046654850243
1761378695779213800,0.9332138671875,-0.0024492928482592103,-0.12338555665016174,-0.005293759026564657
1761378695789270000,0.94327001953125,-0.09712649527788161,-0.06687865653038025,0.01892725717946887
1761378695799325000,0.953324951171875,-0.11434957888796925,0.001695113480091095,0.02515866238232702
1761378695809381000,0.963381103515625,-0.06633607408627867,0.07818915509581566,0.0050489904852584
1761378695819437000,0.97343701171875,-0.02940072039887309,0.14100246188342572,-0.03230751122366637
1761378695829492700,0.98349267578125,0.03573123859465122,0.14561083246171475,-0.045631724231690166
1761378695839549000,0.993548828125,0.09083645522296428,0.10581541316807269,-0.03428703113570809
1761378695849604900,1.00360498046875,0.14281272617578505,0.047665422016382214,-0.029079817881435155
1761378695859660800,1.013660888671875,0.15744038646519184,0.029946225452423095,-0.006454144575446844
1761378695869717000,1.023717041015625,0.1356739603370428,-0.02505786888897419,0.016347323688864705
1761378695879772000,1.03377197265625,0.05624269622564315,-0.06219955880343914,0.05782981928661465
1761378695889827800,1.043827880859375,-0.0007240764908492565,-0.03471475502848625,0.09751392369288951
1761378695899884000,1.053884033203125,-0.03352978302761912,-0.038758477461338044,0.08688936156500131
1761378695909940000,1.06393994140625,-0.035472295397520066,-0.04227963732481003,0.05346007976979017
1761378695919996000,1.073995849609375,-0.031106501403450965,-0.010290507867932319,0.01192220072299242
1761378695930051800,1.0840517578125,-0.003834901987761259,-0.008311316749453544,-0.014356405599974096
1761378695940107800,1.094107666015625,0.013226122928410768,-0.04314882137477398,-0.020577764332853257
1761378695950164000,1.1041640625,0.02534136200547218,-0.08138590531051158,-0.020021482156962155
1761378695960219000,1.114218994140625,0.07283142745494842,-0.05823533134758472,-0.04959595168754458
1761378695970274800,1.12427490234375,0.09000994127094746,-0.0005880290210247039,-0.07785860796719789
1761378695980331000,1.1343310546875,0.07330781279504299,0.014687281522154807,-0.060762219476699825
1761378695990387000,1.144386962890625,0.026260376546531915,-0.007304185533523559,-0.03020717794355005
1761378696000443000,1.15444287109375,0.006025397769361734,-0.009907646030187607,0.008294256016798318
1761378696010499000,1.1644990234375,0.008559154030680655,0.014750994408130646,0.05290171523466706
1761378696020555000,1.174554931640625,0.02414543021917343,0.050958033820986744,0.07789251023679972
1761378696030610700,1.184610595703125,0.00870060832798481,0.05547697255015373,0.08881912405118346
1761378696040665900,1.194665771484375,-0.015373948612064122,0.030829438027739523,0.06936583370361477
1761378696050721800,1.2047216796875,-0.033205373378843064,0.03437456328868866,0.05903879321757704
1761378696060778000,1.214778076171875,-0.019987726017832753,0.04302314916849136,0.036958588432520624
1761378696070834000,1.224833984375,-0.007198971593379974,0.051287119644880294,0.0518137738674879
1761378696080889900,1.234889892578125,-0.03705298871770501,0.0399585009008646,0.059661820486746724
1761378696090946000,1.244946044921875,-0.055388125222921365,0.026660627910494804,0.07298267249390482
1761378696101002000,1.255001953125,-0.07697042695581913,0.08378186053633689,0.07116627072170377
1761378696111058000,1.265057861328125,-0.07803820231780409,0.09528115967214107,0.04242156654614955
1761378696121114000,1.275114013671875,-0.060274728220701214,0.07296528296768665,0.03368292776271701
1761378696131168800,1.285168701171875,-0.03943403863534331,0.09988894572854042,0.03823726659882813
1761378696141225000,1.295224853515625,-0.05309840685054659,0.11553075149655341,0.01654945866484195
1761378696151281000,1.305281005859375,-0.0052151042997837065,0.06865969472825527,0.016178396862745283
1761378696161336800,1.3153369140625,0.04193462327942252,0.02645896785855293,0.006668335315398871
1761378696171393000,1.32539306640625,0.011401683980226516,0.05418751726150512,0.010003361489623785
1761378696181449000,1.335448974609375,0.037246319332718845,0.0661094257235527,0.0008827741838991641
1761378696191505000,1.3455048828125,0.06763619689941405,0.06035013154447078,-0.029068419704586266
1761378696201560000,1.35556005859375,0.06202844002023339,0.08565700675845146,-0.04993961402606219
1761378696211615700,1.36561572265625,0.018524813858419656,0.044316111588478084,-0.06138265292998403
1761378696221672000,1.375671875,0.012591916678100824,-0.00887654941678047,-0.06586315934490412
1761378696231727900,1.385727783203125,0.028911767838150262,0.03589022854864597,-0.06319525530990212
1761378696241783800,1.39578369140625,0.03818038531243801,0.055794952458143234,-0.07228329205289483
1761378696251840000,1.405840087890625,0.04776479073762893,0.010789105039834976,-0.08367723111808299
1761378696261896000,1.41589599609375,0.05480535689890385,-0.01612228276133537,-0.08680135448798537
1761378696271952000,1.425951904296875,0.03504150276482105,-0.06535246987640857,-0.06379895682409405
1761378696282007800,1.4360078125,-0.02319382858276367,-0.13095686868727208,-0.007198825462907552
1761378696292063000,1.44606298828125,-0.06501563913747668,-0.12885142084062098,0.03105261579174548
1761378696302119000,1.456118896484375,-0.059346069068461654,-0.055121583241224285,0.044944874478690326
1761378696312174800,1.4661748046875,-0.059223757863044735,0.00817687671482563,0.054052931096404785
1761378696322230800,1.476230712890625,-0.03064648267626762,0.057663084417581556,0.04394304049238562
1761378696332286700,1.48628662109375,-0.01025602107644081,0.08151450012624263,0.03731061674058437
1761378696342343000,1.496343017578125,0.01622866574525833,0.07257189973592758,0.0009796586871147156
1761378696352398800,1.50639892578125,0.02067103210687637,0.07835749740004538,-0.017219868739694357
1761378696362454800,1.516454833984375,0.042836686685681344,0.09300620047748089,-0.023701778104901313
1761378696372510000,1.526510009765625,0.0769499686896801,0.13737901068925856,-0.005509849462658167
1761378696382566000,1.53656591796875,0.06047463470697403,0.10698094981610774,0.05847571597471833
1761378696392622000,1.5466220703125,0.044320203241705894,0.06596855594813823,0.12098653268441557
1761378696402678000,1.556677978515625,0.06327668651565908,0.09063362612724303,0.12586725393068043
1761378696412734000,1.56673388671875,0.0363245283126831,0.09385025008618832,0.10113763061538338
1761378696422790000,1.576789794921875,0.01769771538451314,0.014781389546394347,0.0727259577864781
1761378696432845800,1.586845703125,0.005856324812769889,0.0003986439287662506,0.010588321770727634
1761378696442901800,1.59690185546875,-0.07022840534970164,0.02941781766414642,-0.036810375600866974
1761378696452957000,1.60695703125,-0.09175590815544128,0.0034971944659948346,-0.04321896400153637
1761378696463012900,1.617012939453125,-0.09385098073855042,-0.01794482201337814,-0.030424254760332402
1761378696473069000,1.627069091796875,-0.0848491975069046,0.007573065602779388,-0.0031441432446241376
1761378696483125000,1.637125,-0.047186698588728905,0.020415596041083336,0.05694295344948768
1761378696493181000,1.647180908203125,0.015540098959207533,0.04612286874949932,0.1034749875217676
1761378696503237000,1.657237060546875,0.09061199881732464,0.06984393607676029,0.10639511275216937
1761378696513293000,1.66729296875,0.13615429119989275,0.0652419952392578,0.07344937669020146
1761378696523348700,1.6773486328125,0.12505202855765818,0.02567395496070385,0.04099938825592398
1761378696533404000,1.68740380859375,0.10720116843804717,0.01066343283355236,0.006597462036274373
1761378696543459800,1.6974599609375,0.08631327871009707,0.03520984506905079,-0.014541187582351267
1761378696553516000,1.70751611328125,0.02522051210477948,0.059386254948377605,-0.02495992493983358
1761378696563572000,1.717572021484375,-0.0425812506198883,0.019270517659187317,-0.02332680731266737
1761378696573628000,1.7276279296875,-0.04043269428387284,-0.02743102776110172,-0.03374872300792485
1761378696583683800,1.737683837890625,-0.061978025007247924,-0.05653437264859676,-0.0400955712839961
1761378696593740000,1.747739990234375,-0.06322466406747698,-0.08577332661449909,-0.008329984917305409
1761378696603796000,1.7577958984375,0.003770896840840578,-0.05847206271290779,0.021787359318323433
1761378696613847000,1.767846923828125,0.05988192951083183,0.009371054935455321,0.014838234300166368
1761378696623903000,1.777903076171875,0.11618439309969544,0.08356500291526317,-0.030580395170114932
1761378696633959200,1.787959228515625,0.1347686820603907,0.10070727637410164,-0.06585877543073147
1761378696644015000,1.79801513671875,0.11963394903168081,0.06575754354596137,-0.03506988860908895
1761378696654071000,1.808071044921875,0.07922317431867122,0.011326865178346633,0.05061053555756807
1761378696664127200,1.818127197265625,0.034378070420026774,-0.04171908083260059,0.09669657942801714
1761378696674183200,1.82818310546875,0.007691869676858186,-0.07897066086232661,0.08073215410951524
1761378696684239000,1.838239013671875,0.0004379530258476734,-0.0743266344487667,0.060536046038009224
1761378696694295000,1.848294921875,-0.03247705910429358,-0.0355272404551506,0.02868121048528701
1761378696704350000,1.858349853515625,-0.02227422951981425,0.012620412120223044,-0.011180698173306882
1761378696714406000,1.868406005859375,-0.0028588965624570845,0.0720177729845047,-0.0557590043619275
1761378696724462000,1.878462158203125,0.021788199568539855,0.11388824498653412,-0.07276431703548877
1761378696734518000,1.88851806640625,0.06707520201578736,0.12364157723784445,-0.06366725673582405
1761378696744574000,1.898573974609375,0.0579226121366024,0.04184241495132446,-0.05477379271686077
1761378696754630100,1.908630126953125,0.08213584689497948,-0.013754969108104705,-0.038861061052978034
1761378696764686000,1.91868603515625,0.09306289910078049,0.0309960267663002,-0.023970365913212298
1761378696774742000,1.928741943359375,0.06647606707885861,0.06883037512004375,-0.03711461924444884
1761378696784797000,1.938796875,0.022166385231167075,0.08147533715963363,-0.010812010991387068
1761378696794852900,1.948852783203125,-0.010992372526973486,0.13335866913199423,0.025555918071605264
1761378696804909000,1.958908935546875,0.03276025995984673,0.19075871869921684,0.025860453976131976
1761378696814965000,1.968965087890625,0.062051820895820856,0.1897796445339918,0.01991484344471246
1761378696825021000,1.97902099609375,0.08491407943665981,0.12524433625936507,0.03764978556707501
1761378696835077000,1.9890771484375,0.05089665902256965,0.04522036695182323,0.053006052391976116
1761378696845133000,1.999133056640625,0.018310148194432257,-0.05881517706215381,0.059400429604202505
1761378696855189000,2.00918896484375,0.012031798577308654,-0.07282850484549999,0.026972178077697754
1761378696865245200,2.0192451171875,-0.05161079864129424,-0.036947044125199315,0.005048844354785979
1761378696875299800,2.0292998046875,-0.08520517133772372,-0.005858662900328636,0.0038823943912982936
1761378696885356000,2.03935595703125,-0.14114026291891932,-0.04420446790754795,-0.02919873155336827
1761378696895412000,2.049411865234375,-0.18977321479320525,-0.08845335947871208,-0.009283815043419599
1761378696905468000,2.059468017578125,-0.1549187590330839,-0.0506681109637022,0.02061930191963911
1761378696915524000,2.069524169921875,-0.07065539859011769,0.002637362766265869,0.013984357417188583
1761378696925580000,2.079580078125,-0.01907645639181137,0.011055062499642372,0.0004604571186006069
1761378696935636000,2.089635986328125,0.0765719291575253,0.011619126123189926,-0.028321510327421126
1761378696945692200,2.099692138671875,0.15806991654038427,0.023914544072747228,-0.05804916112571954
1761378696955747000,2.1097470703125,0.1787554155640304,-0.011148586001992224,-0.06817735457140953
1761378696965803300,2.11980322265625,0.17069442031383514,-0.02182312475144863,-0.04794263152256608
1761378696975859000,2.12985888671875,0.14145780443549155,0.019544658425450324,-0.016236995182186364
1761378696985915000,2.139914794921875,0.09713292501866817,0.013202595922350882,0.013741378974169492
1761378696995971000,2.14997119140625,0.02956862431168556,-0.014921674799919127,0.04111892298236489
1761378697006027000,2.160027099609375,0.0008832125753164291,0.02107552125453949,0.07389306533709168
1761378697016083000,2.1700830078125,-0.02208952060267329,0.06484042870104313,0.07743282030317931
1761378697026139100,2.18013916015625,-0.018863105902075766,0.05090425780713558,0.08054740865975618
1761378697036194000,2.190194091796875,-0.001699643524736166,0.0006873977422714233,0.059005913861282164
1761378697046250000,2.20025,0.038555209974199534,-0.001841243952512741,0.032363698390312494
1761378697056306200,2.21030615234375,0.06319383053779602,0.00029927520751953123,0.02618278126567602
1761378697066362000,2.220362060546875,0.08470365155637263,-0.026776947766542433,0.013045067273080349
1761378697076418000,2.23041796875,0.08991817133426666,-0.049265258428454396,0.0009138999745249747
1761378697086474000,2.240473876953125,0.049724692633748055,-0.05048866274356842,0.0075362407237291335
1761378697096530000,2.250530029296875,0.012297609906643628,-0.03645253860652446,0.014897672869823872
1761378697106585900,2.2605859375,0.006138210494071245,0.013217208969593048,0.01318509679827839
1761378697116642000,2.27064208984375,-0.02658332489058375,0.05040916776657104,-0.0059153249910101294
1761378697126697000,2.280697021484375,-0.05774126422032714,0.020889058771729467,-0.014905710045807062
1761378697136753200,2.290753173828125,-0.022373013719171286,0.0033007951110601425,-0.0055003144493326545
1761378697146809000,2.30080908203125,0.013814151949435471,0.061648354661464684,-0.029434732266329228
1761378697156865000,2.310864990234375,0.028826719903200862,0.08357727787494659,-0.02897873212713748
1761378697166921200,2.320921142578125,0.0335842896938324,0.04394903184175491,0.021622195351868868
1761378697176977200,2.33097705078125,0.06334522170722484,0.020160159975290297,0.044874183862656354
1761378697187032800,2.34103271484375,0.05111994638442993,0.05435527504384517,0.012910481107980012
1761378697197089000,2.351089111328125,0.038244682720303534,0.10148995118439197,-0.021463789919763804
1761378697207144000,2.36114404296875,0.012536679359525441,0.1304372287273407,-0.008954473491199315
1761378697217200000,2.3712001953125,0.007524111894518137,0.1363666187763214,0.02980071603450924
1761378697227256000,2.381256103515625,0.03553673893585801,0.16393617822527884,0.04124273202512413
1761378697237312000,2.39131201171875,0.03826046481132507,0.14149579835832118,0.0641847412712872
1761378697247368200,2.4013681640625,0.05725669557377696,0.08816285209953785,0.07575546167548745
1761378697257424100,2.411424072265625,0.0895620513729751,0.0820429079145193,0.07228018678035586
1761378697267480000,2.42147998046875,0.07058569435477256,0.0505243185788393,0.0479002536855638
1761378697277536300,2.431536376953125,0.07597688587382435,0.026686346873641013,-0.012142236681841313
1761378697287591000,2.4415908203125,0.06171440563499927,0.049474517264962194,-0.08474354517534374
1761378697297647000,2.451647216796875,0.02016644358560443,0.024461072039604185,-0.12842358734998852
1761378697307703000,2.461703125,-0.01658916962072253,0.008229483684897423,-0.11247395774181931
1761378697317759000,2.471759033203125,-0.022314269269257784,0.05713935280442237,-0.07852894497681409
1761378697327815200,2.481815185546875,-0.00795315096154809,0.0927829131156206,-0.057597654498554765
1761378697337871000,2.49187109375,0.024677783530205485,0.08197101172208786,-0.021040194212831556
1761378697347927000,2.501927001953125,0.043756139618158336,0.04087853835523128,-0.0033788287833333014
1761378697357983200,2.511983154296875,0.024925182420015332,-0.022359715846180916,0.00196896198540926
1761378697368038000,2.522037841796875,0.017890023086220026,-0.09867080211043357,0.013687347231991588
1761378697378094000,2.532093994140625,-0.02018237180709839,-0.12275368848741054,0.01983472741320729
1761378697388150000,2.54214990234375,-0.046987376624345774,-0.10972528008818626,0.02223126716092229
1761378697398206000,2.5522060546875,-0.0484450280867517,-0.04885901571512222,0.006061966920085251
1761378697408262000,2.562261962890625,-0.04339958126544952,0.02211070952117443,0.00795242030918598
1761378697418318000,2.572318115234375,-0.02284764549359679,0.051071431067585944,-0.007061280155740678
1761378697428374000,2.5823740234375,-0.0002694645911455154,0.09542261396944522,-0.02236979884877801
1761378697438430000,2.592429931640625,0.06054010115861892,0.12886486484408377,-0.007215192075818777
1761378697448486100,2.602486083984375,0.05580898098349571,0.09486030391156673,-0.00926613325625658
1761378697458541000,2.612541015625,0.05409735476002097,0.05465864190459251,0.005218136507086455
1761378697468597000,2.622596923828125,0.07555617624372243,0.05420680648386478,-0.008326002861931919
1761378697478653000,2.63265283203125,0.09945347692072391,0.06650806965231895,-0.005057575650513172
1761378697488708900,2.642708984375,0.06803191821873188,0.08356617195904255,0.014136808032542466
1761378697498765000,2.65276513671875,0.04747603692412376,0.06518003591895104,0.03720160340815783
1761378697508821000,2.662821044921875,0.015797726982086896,0.03080956428349018,0.04205792086552828
1761378697518877000,2.672876953125,-0.023211364239454267,0.045028643772006036,0.04507233678326011
1761378697528933000,2.68293310546875,0.008754238211363553,0.06194003108441829,0.012089337450824677
1761378697538988000,2.692988037109375,-0.01507014335989952,0.05427227293550968,-0.010242577072978019
1761378697549044200,2.703044189453125,-0.01227554420530796,0.02373801846206188,0.008144581880420446
1761378697559100200,2.71310009765625,0.010455927562713623,0.022428689429163932,0.02584273565635085
1761378697569155800,2.72315576171875,0.021164806973189114,0.004465747237205505,0.029459428316168487
1761378697579212000,2.7332119140625,0.031057547695189713,-0.010645312654972075,0.019595986753888427
1761378697589268000,2.74326806640625,0.015396452704817055,0.01069265892803669,-0.028786351360194383
1761378697599324000,2.753323974609375,-0.02135784532725811,0.015179448953270912,-0.07896978407949208
1761378697609380600,2.763380615234375,-0.07209653730913997,0.015413842231035231,-0.07899312842246145
1761378697619435300,2.773435302734375,-0.08210194462537765,-0.00042202480435371396,-0.0777021022312343
1761378697629491500,2.783491455078125,-0.08325579083561897,-0.05370762479007244,-0.05939575342908501
1761378697639547400,2.79354736328125,-0.09630334232673049,-0.10856149700582027,-0.00790211489405483
1761378697649603300,2.803603271484375,-0.08287643612921237,-0.0963426514238119,0.018068156132102012
1761378697659659300,2.8136591796875,-0.06420037723183632,-0.07331891871094703,0.004039630779623985
1761378697669715500,2.823715576171875,-0.03822232475802302,-0.05000117148756981,-0.0011988178631290793
1761378697679771400,2.833771484375,-0.04343626001402735,-0.0184346513569355,-0.02159790116082877
1761378697689827300,2.843827392578125,-0.029926936230063438,0.05135784679353237,-0.0336896497644484
1761378697699883500,2.853883544921875,-0.0017773849360644817,0.10161270078122615,-0.033723953892849386
1761378697709938400,2.8639384765625,0.021733839032799004,0.09933949515223503,-0.01807367255743593
1761378697719994400,2.873994384765625,0.05301043630614877,0.10683540386557579,-0.0014358414893969893
1761378697730050300,2.88405029296875,0.06155147015824913,0.12287234643101691,-0.009025858226977289
1761378697740106200,2.894106201171875,0.04863645900562405,0.09998597636222839,-0.008875782231800258
1761378697750162400,2.904162353515625,0.104361999489367,0.1085077209919691,0.00548800295703113
1761378697760218400,2.91421826171875,0.09327581119909882,0.1126905596345663,-0.006708375064842402
1761378697770274300,2.9242744140625,0.03140022365301847,0.04194879793524742,0.008482654728367924
1761378697780330500,2.93433056640625,0.005138678062707186,0.020836451801657677,0.02313029835987836
1761378697790386400,2.944386474609375,-0.04864727266058325,0.03326981691718101,0.014654438698478042
1761378697800441600,2.954441650390625,-0.044320787763595576,0.008122516179084778,0.015119973850995302
1761378697810497500,2.96449755859375,-0.026440993810445068,-0.005315642064809799,0.015549853168241678
1761378697820553200,2.97455322265625,-0.04910860656201839,0.009575053074955939,0.024820845262706278
1761378697830609400,2.984609375,-0.01875438483059406,0.03835691092312336,-0.001231733752042055
1761378697840665300,2.994665283203125,0.009588350947946309,0.03423135542571545,-0.023824418103881178
1761378697850721300,3.00472119140625,-0.029021511822938918,0.0019277531921863555,-0.007611644047498703
1761378697860777500,3.014777587890625,-0.05092588511705398,-0.03768587979376316,0.04308963853344321
1761378697870833400,3.02483349609375,-0.032678865286707874,-0.04166062864363193,0.0699500267997384
1761378697880888600,3.034888671875,-0.03456570194661617,-0.011372457885742187,0.08870762650072574
1761378697890944500,3.044944580078125,-0.01679506745636463,-0.002935468930006027,0.08528335114046931
1761378697901000400,3.05500048828125,0.021757073777914047,0.014372224223613738,0.06906418387591838
1761378697911056600,3.065056640625,0.02036459650620818,0.02155775181353092,0.04664612543862313
1761378697921112300,3.0751123046875,0.02614917125701904,0.04816343466639519,0.020093232218921182
1761378697931168300,3.085168212890625,0.04992518364191055,0.09292495193481445,0.019939795222878455
1761378697941224400,3.095224365234375,0.0474601087026298,0.07759995703101158,0.019178565059415995
1761378697951280400,3.1052802734375,0.04128945724368095,0.03260112387537956,0.0020849895805120466
1761378697961336300,3.11533642578125,0.0396763229586184,0.08434884676933288,-0.014600443488918244
1761378697971391500,3.1253916015625,0.011585954505950211,0.11658055281043052,-0.014807510368339716
1761378697981447400,3.135447509765625,0.038245267242193216,0.09182195912897587,-0.00968158218935132
1761378697991503400,3.14550341796875,0.08373816752508283,0.08490706517398357,0.004264269848354161
1761378698001559600,3.1555595703125,0.052832010999321936,0.03761515264511108,0.01372881175354123
1761378698011615500,3.165615478515625,0.03913885508105159,-0.03276888165771961,0.022170732612721622
1761378698021671200,3.175671142578125,0.03674494568184018,-0.03577741582393646,0.04593337405938655
1761378698031727400,3.185727294921875,0.008145312532782554,-0.005880874732136726,0.045015345899015666
1761378698041783300,3.195783203125,-0.021024667850136756,0.01847907502055168,0.028292320765554903
1761378698051838500,3.20583837890625,-0.027433365848660466,0.04897475104928017,0.012126637253910302
1761378698061894400,3.215894287109375,-0.0377145213663578,0.0373357511818409,0.014306319380551576
1761378698071950300,3.225950439453125,-0.04005860027447342,-0.0058352820247411724,0.020654775091819465
1761378698082006500,3.236006591796875,-0.026100071418285367,-0.01226677637696266,0.0679253891043365
1761378698092062500,3.2460625,-0.010722323413938284,-0.06369593484103679,0.08109075828883797
1761378698102118400,3.256118408203125,0.016558920612931252,-0.07323650112450122,0.05000467861890793
1761378698112174600,3.266174560546875,0.03238791951611638,0.000609071809053421,0.05310341181922704
1761378698122230500,3.27623046875,0.03765329269841313,0.04678337848484516,0.060046070563979446
1761378698132286200,3.2862861328125,0.05632511381208896,0.053430561414361,0.04681786527633667
1761378698142341400,3.29634130859375,0.08074234670996666,0.08310673775374888,0.022349340582638978
1761378698152397300,3.306397216796875,0.058398851346224544,0.09100596657097339,0.017174970152042807
1761378698162453500,3.31645361328125,0.03511792900189757,0.036548400196433066,0.029104477398656306
1761378698172509400,3.326509521484375,-0.0010334347009658812,0.004072948527336121,0.025322072783112524
1761378698182565400,3.3365654296875,-0.0021129005007445812,0.006584054565429687,-0.011709544353000818
1761378698192621600,3.34662158203125,-0.029024872823804615,0.00523673160970211,-0.009564349017851054
1761378698202677500,3.356677490234375,-0.025584961502999066,0.014991232904791832,0.0037865693340077993
1761378698212733400,3.3667333984375,-0.018315408891439438,0.03937280996739864,0.03419379989430308
1761378698222789600,3.37678955078125,-0.0019429507613182068,0.059406713214516634,0.057874973602592944
1761378698232844300,3.38684423828125,0.037243396723270414,0.09064882369637489,0.051763943376392126
1761378698242900500,3.396900390625,0.050062107894569635,0.10736498069763183,0.04730261658597737
1761378698252956400,3.406956298828125,0.03670870532467961,0.0771761786609888,0.0481378983663395
1761378698263012400,3.417012451171875,0.03895721490383148,0.04743745847940445,0.020413842475414275
1761378698273068500,3.427068603515625,0.026773586765676736,0.05807575687170028,-0.00248520441185683
1761378698283124500,3.43712451171875,-0.04218596769198775,0.022260347124934195,-0.0056693874059244986
1761378698293180400,3.447180419921875,-0.05092705416083335,-0.01659457644820213,-0.006037964989989995
1761378698303236600,3.457236572265625,-0.06761340054571628,-0.048128363353013986,0.010908055244386195
1761378698313292500,3.46729248046875,-0.06393135103210806,-0.061520344367623325,0.011236008557118475
1761378698323347500,3.477347412109375,-0.04739814938232302,-0.005318564674258232,0.0036803324805572625
1761378698333403400,3.4874033203125,-0.026202947270870205,0.027940146327018738,0.008292465918511151
1761378698343459300,3.497459228515625,0.011218728628754615,0.02839431983530521,-0.010863631580770016
1761378698353515300,3.507515380859375,0.03228212105408311,0.05868716676831245,-0.026668044031970203
1761378698363571500,3.517571533203125,0.08137465326413512,0.047367315852642054,-0.043980924817360934
1761378698373627400,3.52762744140625,0.06040624564588069,0.021800328397750854,-0.02703063026666641
1761378698383683300,3.537683349609375,0.0720481681227684,0.02786941917836666,-0.008984393705427645
1761378698393739500,3.547739501953125,0.06712897802963852,0.054179333955049515,-0.01016319169383496
1761378698403795500,3.55779541015625,0.021433979303389788,0.024510171878337858,-0.021198672710172832
1761378698413850400,3.567850341796875,-0.02819704369753599,-0.03041442748606205,0.0016133534807711838
1761378698423906300,3.57790625,-0.055582186490297315,-0.06204407598078251,0.005641366887837648
1761378698433962200,3.587962158203125,-0.057904491958022115,-0.05607435392141342,0.02448971361219883
1761378698444018400,3.598018310546875,-0.06921265243589877,-0.009168225839734078,0.026353023266047236
1761378698454074400,3.608074462890625,-0.006601590222120285,0.04492576791942119,0.015778291629254818
1761378698464130300,3.61813037109375,0.04430909732580185,0.07945289142131805,-0.008511223235726355
1761378698474186500,3.6281865234375,0.05945946631506085,0.09209259276390075,-0.012226115573011337
1761378698484242400,3.638242431640625,0.0827585088379681,0.10468260974586009,-0.02835804294552654
1761378698494298400,3.64829833984375,0.08178761797919869,0.0969920552432537,-0.00485631745737046
1761378698504353500,3.658353515625,0.06400748500823975,0.031068507480621337,-0.0025743805326521397
1761378698514409200,3.6684091796875,0.03877952024936676,-0.0037999768048524855,-0.011429887161403893
1761378698524465400,3.67846533203125,0.032695962551981206,-0.0039794250249862665,-0.0026741511126980185
1761378698534521300,3.688521240234375,0.014953969634324311,0.01883037267625332,0.022636085102148353
1761378698544577300,3.698577392578125,0.0009441489823162555,0.03213876706063747,0.02699983326960355
1761378698554633500,3.708633544921875,0.030319296548515555,0.0507639725536108,0.0060698579655960195
1761378698564689400,3.718689453125,0.04982479200735688,0.0752770670413971,-0.0034996421514078974
1761378698574745300,3.728745361328125,0.043578591094166036,0.0580272415548563,-0.013345036600343882
1761378698584801500,3.738801513671875,0.028553455919772385,0.008117255482077599,-0.012029862348549067
1761378698594856400,3.7488564453125,-0.0037735271893441676,-0.04195288958847523,-0.012352664562128484
1761378698604912600,3.75891259765625,-0.061217562028765674,-0.03555529750585556,-0.006337386327981948
1761378698614968000,3.768968017578125,-0.06875014949068427,-0.034918753167986864,-0.014270042490772902
1761378698625023700,3.779023681640625,-0.044090632269531485,-0.05937397998869419,-0.012443484650738537
1761378698635080000,3.789079833984375,-0.03187237120941281,-0.022761866906285285,0.0024041019996628166
1761378698645136000,3.799135986328125,-0.005478139150142669,0.02518061848580837,-0.0062879942283034325
1761378698655191800,3.80919189453125,-0.004359364253282547,0.015510872864723205,-0.014026333395391702
1761378698665248000,3.819248046875,-0.012482903345674276,0.014666823256015777,-0.024441600154154003
1761378698675304000,3.829303955078125,-0.02224851055666804,0.042182022169232364,-0.006825571703724563
1761378698685359000,3.839359130859375,-0.02016658971607685,0.06660510028600693,0.023275807777792215
1761378698695415000,3.8494150390625,0.013894523709267376,0.06671089874804019,0.012797339589707553
1761378698705471000,3.859470947265625,0.023502310010045765,0.058282093098759646,-0.0010323021898046136
1761378698715527200,3.869527099609375,0.014290391159057616,0.052992754518985746,0.013218816404789686
1761378698725582800,3.879582763671875,0.01403334765806794,0.0502495932906866,0.005612177325971425
1761378698735638800,3.889638671875,0.01036781088784337,0.0455833550453186,0.0015836524622514843
1761378698745695000,3.899695068359375,0.0026293255902826783,0.041647184640169144,0.015125271080620586
1761378698755751000,3.9097509765625,-0.02062660844326019,0.06241700094640255,0.030843028161674738
1761378698765806800,3.919806884765625,-0.00653729281425476,0.08912789773941039,0.046157940062880515
1761378698775862000,3.929862060546875,0.00010419102683663367,0.11986848843991756,0.030017135264165697
1761378698785918000,3.93991796875,0.0002665419816970825,0.12239946822226047,0.03646276773959398
1761378698795974100,3.94997412109375,0.04133797256052494,0.044857378858327863,0.048850394017249346
1761378698806030000,3.960030029296875,0.039780806246399875,0.016758242577314376,0.001156622689217329
1761378698816086000,3.9700859375,0.06330898135006427,0.05960837326645851,-0.028845716864615678
1761378698826142000,3.980141845703125,0.05040025380775332,0.03078033818900585,-0.0201919068204239
1761378698836198000,3.990197998046875,0.03219327372685075,0.013615852898359298,0.017801796813495457
1761378698846253800,4.00025390625,0.023696079016476867,0.029977205112576483,0.026098500515706835
1761378698856310000,4.01031005859375,0.03738558167293667,0.05139876332581043,0.029642456732876597
1761378698866366000,4.020365966796875,0.026221213579922912,0.07896773825287819,0.027271928209252654
1761378698876420900,4.0304208984375,0.0001223112054169178,0.0579617751032114,0.008436294835992156
1761378698886477000,4.04047705078125,-0.0017366145342588423,-0.0008218377768993377,-0.006304214710742235
1761378698896533000,4.050532958984375,0.021925562212616205,-0.03323006942868233,-0.03426770538073033
1761378698906589000,4.0605888671875,0.016255699882656335,-0.06675532241165638,-0.03518935027029365
1761378698916645000,4.07064501953125,0.025702158141881225,-0.054853287693858145,-0.009374233273230493
1761378698926701000,4.080701171875,0.020338000760227442,-0.04016191451847553,0.024302703140117225
1761378698936756700,4.0907568359375,-0.006464665969461202,0.00048690673410892486,0.034432467488385736
1761378698946813000,4.10081298828125,-0.006892974384129047,0.025317396607995032,0.06487995699383318
1761378698956868900,4.110868896484375,-0.012746668848395346,0.026937691286206242,0.09257438493147492
1761378698966924000,4.120924072265625,-0.03661328212618828,-0.006821954974532127,0.09267331526130437
1761378698976980000,4.13097998046875,0.0057348903901875015,0.014769699108600615,0.0657469125540927
1761378698987036000,4.141035888671875,0.047115533048659564,0.09836977333724498,0.04958736652228981
1761378698997092000,4.151092041015625,0.031359599381685255,0.11493921534419059,0.029411680184304713
1761378699007148000,4.16114794921875,0.061384735289216036,0.07823240971565246,0.009059943159669638
1761378699017204000,4.171203857421875,0.06763663529083132,0.06123860481679439,-0.005144852075167
1761378699027260200,4.18126025390625,0.05241173976063728,0.08185410734415054,-0.016583470532298087
1761378699037315800,4.19131591796875,0.06508008267581462,0.051798576298356054,0.033072102387994524
1761378699047371800,4.201371826171875,0.022977409353107214,0.020846388673782346,0.030107516961358487
1761378699057427000,4.211427001953125,0.025683891832828522,0.01423486157953739,-0.033794425313174725
1761378699067483000,4.22148291015625,0.01572714596390724,0.03381108418703079,-0.009399988768994807
1761378699077539000,4.2315390625,-0.03865443256497383,0.03760346220731735,0.031577626046538354
1761378699087595000,4.241594970703125,-0.02528977794870734,0.028632220244407654,0.04867858111429959
1761378699097651000,4.25165087890625,-0.03285173763558268,-0.005493336719274521,0.05265917518306523
1761378699107707100,4.26170703125,-0.07078603923246264,-0.06170271519720554,0.0342432285265997
1761378699117763000,4.27176318359375,-0.03875029415488243,-0.07419044084846974,0.021960049004107713
1761378699127819000,4.281819091796875,-0.006360036551207303,-0.047403556209802626,0.011760909214057027
1761378699137875000,4.291875,0.0019511340677738189,-0.004213818302750587,-0.011063538067042827
1761378699147931000,4.301930908203125,0.004959814364463091,0.037171500530838966,-0.015638115973584353
1761378699157986000,4.311986083984375,0.029096769016236066,0.0536000727623701,0.012836064164899288
1761378699168042000,4.3220419921875,0.028620091415196655,0.06580547434091567,0.0529317085141316
1761378699178098000,4.332097900390625,0.0784102505005896,0.06541968989372253,0.03755147629175335
1761378699188153900,4.34215380859375,0.09387480000555515,0.0840735369592905,-0.010912731419503689
1761378699198210000,4.3522099609375,0.10694295589327811,0.08964695317745208,-0.04870367902293801
1761378699208266000,4.362265869140625,0.0673772537022829,0.0391349095582962,-0.07924640906378626
1761378699218322000,4.372322021484375,0.021658289578557012,-0.015461773025989532,-0.09837693373039365
1761378699228378000,4.382378173828125,-0.01747077476084232,0.010409165811538695,-0.06470350444838405
1761378699238433800,4.392433837890625,-0.055805035460740324,0.003928571620583534,-0.02257018025908619
1761378699248489000,4.402489013671875,-0.06305427593663335,-0.022279636347293852,0.035072445892356335
1761378699258545000,4.412544921875,-0.08666296893060207,0.007976385706663132,0.07057488069981337
1761378699268600800,4.422600830078125,-0.02875613888502121,0.050661681222915644,0.04709595156535506
1761378699278657000,4.432656982421875,0.018610007923841477,0.06860416514873505,0.015465426287800073
1761378699288713000,4.442712890625,0.002859481084346771,0.05164718512892723,-0.022881693893671035
1761378699298769000,4.452768798828125,0.020162059671431778,0.05240297193229198,-0.05392941431459039
1761378699308825000,4.4628251953125,0.017721534651517868,0.0670633654475212,-0.07851224957033992
1761378699318881000,4.472881103515625,-0.008492372404783963,0.024008067575097082,-0.055345710853300985
1761378699328937000,4.48293701171875,-0.050068391504883764,-0.00968611223399639,0.0035103462085127827
1761378699338993200,4.4929931640625,-0.035103315954655406,0.040085926672816276,0.027698336927779017
1761378699349048800,4.503048828125,-0.04148541820719838,0.10916823072731495,0.026846615469269454
1761378699359104000,4.51310400390625,-0.04374152657091617,0.07658990320563316,0.03781973530650139
1761378699369160000,4.523159912109375,-0.02708016849681735,0.045400984215736385,0.06664824530798942
1761378699379216000,4.5332158203125,-0.0327573373503983,0.09263152194619179,0.0807851264057681
1761378699389272000,4.54327197265625,-0.013514146089553833,0.08416355333030223,0.05349354364797473
1761378699399328000,4.553327880859375,0.01750526155233383,0.05944587618112564,0.0424482718899846
1761378699409384000,4.563384033203125,-0.0010888181500136851,0.049768531775474543,-0.006035882630757987
1761378699419440000,4.573440185546875,0.019469401232153176,0.05538637165725231,-0.06841693548094481
1761378699429496000,4.58349609375,0.023667437443882226,0.07494330504238605,-0.1130577489791438
1761378699439552000,4.593552001953125,0.010989011526107787,0.04872749828994274,-0.12039353522732853
1761378699449608000,4.60360791015625,0.007079729127883911,0.016098901885747908,-0.07515943201109766
1761378699459662800,4.613662841796875,-0.020174042370170352,-0.0019938041657209396,-0.03079345339890569
1761378699469719000,4.623718994140625,-0.034356443110108374,-0.029203298130631446,-0.004637450542300939
1761378699479775000,4.63377490234375,-0.06094809743762016,-0.06237316180467605,0.014072949016094207
1761378699489831000,4.643830810546875,-0.09612009471431374,-0.07570727515220642,0.02486055621858686
1761378699499887000,4.65388720703125,-0.06850654999315739,-0.04195055150091648,0.021342355497181414
1761378699509943000,4.663943115234375,-0.09081789665296673,-0.010626023432612418,0.016588110174797475
1761378699519999000,4.6739990234375,-0.08123743675053119,0.011138064607977867,-0.02394917699471116
1761378699530055200,4.68405517578125,-0.03813362356126308,0.0326169059664011,-0.08449643854647874
1761378699540111000,4.694111083984375,-0.02846870024576783,0.010932897424697875,-0.12594901393000035
1761378699550166000,4.704166015625,-0.013387158709019421,-0.029328970336914062,-0.12376019864883273
1761378699560222000,4.714221923828125,-0.015651011987775562,-0.024119126734137533,-0.08868786235433071
1761378699570278000,4.72427783203125,-0.007933569478243589,0.026696283745765683,-0.07072199755292385
1761378699580333800,4.734333740234375,0.00015256021320819854,0.05119710327386856,-0.0636892128393054
1761378699590390000,4.74439013671875,0.015296791722625493,0.056653030592203134,-0.0461240743258968
1761378699600446000,4.754446044921875,0.032843700459599494,0.08594166891872883,-0.037613837470859286
1761378699610501600,4.764501708984375,-0.009845102187991141,0.0963736310839653,-0.031322336111217736
1761378699620557600,4.7745576171875,-0.028396511792391537,0.09340425988435745,-0.024507066605798898
1761378699630613500,4.784613525390625,-0.01025236781463027,0.1272334642499685,-0.016554792427085338
1761378699640669700,4.794669677734375,0.0016794775195419786,0.11246961036026477,-0.031667898145876824
1761378699650724600,4.804724609375,-0.014020342046022415,0.06397358273863792,-0.035530309195071455
1761378699660780500,4.814780517578125,-0.05826090418025851,0.0056254386663436885,-0.011652115077339112
1761378699670836500,4.82483642578125,-0.045445261748880146,-0.020872692158818245,-0.009848718917183577
1761378699680892400,4.834892333984375,-0.04541209013164043,-0.006252630653977393,-0.024225801979005337
1761378699690948600,4.844948486328125,-0.03669336162507534,-0.007218260815739631,-0.014710516267269848
1761378699701004500,4.855004638671875,-0.05403437252640724,-0.010168342792987823,0.003919657661765814
1761378699711060500,4.865060546875,-0.06896934519931673,0.03315583514869213,0.031853703041560946
1761378699721116400,4.875116455078125,-0.015616379065811634,0.06401975996792315,0.05825834689699113
1761378699731172600,4.885172607421875,0.0035283202566206455,0.044050738650560375,0.0747323291728273
1761378699741228500,4.895228515625,-0.012304624169319867,0.024312603479623794,0.0752278576048091
1761378699751283700,4.90528369140625,-0.00034881343767046927,0.0489034393787384,0.03989935459215194
1761378699761339400,4.91533935546875,-0.0032918811522424218,0.10214110856950283,-0.0006492211563512683
1761378699771395300,4.925395263671875,-0.006337970849871635,0.09888122999072074,-0.008018325152248144
1761378699781451500,4.935451416015625,0.0023187983363866806,0.07870353435873985,-0.0009461948089301586
1761378699791507500,4.945507568359375,0.03506605268418789,0.11066986746191977,0.026033289792388677
1761378699801563400,4.9555634765625,0.03716331722438335,0.08153554291427136,0.07479834361374378
1761378699811619600,4.96561962890625,0.07220598903298378,0.0035299276918172836,0.08058496419116855
1761378699821675500,4.975675537109375,0.04697159453332424,-0.02242693586349487,0.07990253488495945
1761378699831731500,4.9857314453125,0.005219780474901199,-0.0037958851516246795,0.04464738936945796
1761378699841787600,4.99578759765625,-0.016990882289409637,0.0026180735439062116,0.006677870328724384
1761378699851842600,5.005842529296875,-0.12782090874910354,-0.0042681788384914396,0.02807780123203993
1761378699861898500,5.0158984375,-0.08653378959298133,-0.0032832594543695448,-0.005916530567407608
1761378699871954400,5.025954345703125,-0.10479249986112117,-0.004846855509281158,0.023493249920755622
1761378699882010400,5.03601025390625,-0.08887596880495548,-0.005134440279006958,0.05757935165688395
1761378699892066600,5.046066650390625,-0.012107055770605802,-0.006574117693305015,0.057868288133479655
1761378699902122500,5.05612255859375,0.06118775141239166,0.02600070269703865,0.03692410164102912
1761378699912178400,5.066178466796875,0.09550035538077353,0.03957856167256832,0.013247019585967064
1761378699922234600,5.076234619140625,0.12772986946478485,0.005956278055906296,-0.02921568268816918
1761378699932290600,5.08629052734375,0.0850442816875875,-0.011463058778643608,-0.05626830559093505
1761378699942346500,5.096346435546875,0.022475305049866435,-0.0006727846950292587,-0.05358812659624964
1761378699952402700,5.106402587890625,-0.029032033216953277,-0.005018704944849014,-0.02950286559909582
1761378699962457600,5.11645751953125,-0.04818579262867569,-0.009760346513986587,-0.025618900305218992
1761378699972513500,5.126513427734375,-0.02088569777086377,0.019365794727206228,-0.03298767550755292
1761378699982569500,5.136569580078125,0.01093596616461873,0.04276186788380146,-0.029608627528510987
1761378699992625400,5.14662548828125,0.04963774500265717,0.06370119553804397,-0.011643639509938656
1761378700002681600,5.156681640625,0.06787175922095776,0.04274783935844898,-0.0008357201717793941
1761378700012737500,5.166737548828125,0.04614332701563835,-0.02532441087067127,0.03595920213162899
1761378700022793500,5.17679345703125,0.0034749826341867445,0.007476034969091415,0.049574324377626176
1761378700032849700,5.186849609375,-0.03083279902860522,0.05672551130652427,0.0516901840204373
1761378700042905600,5.196905517578125,-0.05526771371364593,0.06363631360828877,0.04897942722439766
1761378700052961500,5.20696142578125,-0.04097147733569145,0.05402969635128975,0.014608663327991961
1761378700063016700,5.2170166015625,-0.03488543542027473,0.08907704433500767,-0.017532003428786993
1761378700073072400,5.227072265625,0.05844926635921001,0.10340952107012272,-0.07127294596657156
1761378700083128600,5.237128662109375,0.06538871023356914,0.11326923630535601,-0.08985022066459059
1761378700093184500,5.2471845703125,-0.010026303973793983,0.05655483091473579,-0.028694764086604117
1761378700103240400,5.257240478515625,0.03143909435868263,-0.015007599517703056,0.02808276966810226
1761378700113296400,5.26729638671875,-0.043484921461343765,0.0022317045748233796,0.07729191399514675
1761378700123352600,5.2773525390625,-0.042374329870939254,0.027012510088086125,0.07778671177476644
1761378700133408500,5.287408447265625,0.024947248121351004,0.06557809532582759,0.07326729812156409
1761378700143464400,5.29746435546875,0.08076748115122317,0.08680383870601653,0.06891191592365503
1761378700153520600,5.307520751953125,0.11283376749753951,0.09763386027812958,0.040547845096141094
1761378700163576600,5.31757666015625,0.1272710197813809,0.06715455086231231,-0.0004649506306275725
1761378700173631500,5.327631591796875,0.0753865187652409,0.08517068454623222,-0.0020397987319156524
1761378700183687400,5.3376875,0.012490063738822936,-0.07707914802730083,-0.05855784130021929
1761378700193743400,5.347743408203125,-0.04049392295181751,-0.11258826830387114,-0.049449675084650514
1761378700203799600,5.357799560546875,-0.16353329651281237,-0.010890811848640441,-0.02555394531022757
1761378700213855500,5.36785546875,-0.1177706393778324,-0.008515314888954162,-0.03468713636919856
1761378700223911400,5.377911376953125,-0.1018951709844172,-0.022899814072251317,0.006730148505233228
1761378700233967600,5.387967529296875,-0.07833952335193753,-0.042674774122238156,0.032546580676548184
1761378700244023600,5.3980234375,-0.009645780223608017,-0.028802900636196133,0.029537936912477015
1761378700254079500,5.40807958984375,0.05686462751626968,-0.02031856540739536,-0.00022270283997058866
1761378700264135700,5.4181357421875,0.11039821091368794,0.007460252878069877,-0.023339484131149946
1761378700274190300,5.4281904296875,0.13193360476493834,0.03311258052885532,-0.025277649119496343
1761378700284246500,5.43824658203125,0.13718436489999294,0.021419804647564888,-0.026483079386502503
1761378700294302500,5.448302490234375,0.08708908538818359,0.010416180074214935,0.0003853460557758808
1761378700304358400,5.4583583984375,0.07974997467175125,0.012290741774439812,0.01819985622037202
1761378700314414600,5.46841455078125,0.06108385264649987,0.014442951372265814,0.024761552823521195
1761378700324470500,5.478470458984375,-0.01332403034493327,0.00289046074450016,0.049456579749472436
1761378700334526500,5.4885263671875,-0.004992839851230383,-0.012075637719035148,0.022790691141970455
1761378700344582700,5.498582763671875,-0.04391498344168067,-0.021810265269875524,-0.03001910802554339
1761378700354638600,5.508638671875,-0.09570479191169143,-0.009920505511760712,-0.045414391686581075
1761378700364694500,5.518694580078125,-0.08714286140203475,0.021498715102672577,-0.017026391994208096
1761378700374749400,5.52874951171875,-0.07011456971168517,0.022839023795723914,0.03532178101092577
1761378700384805400,5.538805419921875,0.007806435967236756,0.038897009149193765,0.07023516388405114
1761378700394861600,5.548861572265625,0.07362126265838742,0.08511690853238105,0.047641347021050745
1761378700404917500,5.55891748046875,0.07480491948500276,0.03904898484051227,0.002538176708109677
1761378700414973400,5.568973388671875,0.08328267884254455,0.03458732925653457,-0.005326747980713844
1761378700425029600,5.579029541015625,0.07809811581149696,0.10093290182352066,-0.0356872167898342
1761378700435085600,5.58908544921875,0.03818462309613824,0.09119184453189373,-0.04331537358071655
1761378700445141500,5.5991416015625,0.014624007027596234,0.03637012102007866,-0.0003742766724899411
1761378700455197700,5.60919775390625,-0.02634191735014319,0.02858078231811523,0.03164093707371503
1761378700465253600,5.619253662109375,-0.021295301485061643,0.0975759926110506,0.02866305377408862
1761378700475309600,5.6293095703125,-0.018207126211374998,0.15749065534770487,0.022861126029677686
1761378700485364500,5.639364501953125,0.054180502998828886,0.16407997061014173,0.04280702219977975
1761378700495420400,5.64942041015625,0.07502046193182468,0.13693711214065551,0.03746303082332015
1761378700505476400,5.659476318359375,0.05990311842933297,0.09224515297710895,0.019724289308674633
1761378700515532500,5.669532470703125,0.06255202550292015,0.028140052813291547,0.021282734264433383
1761378700525588500,5.67958837890625,-0.006014145722985267,-0.04458440713584423,0.07536985989138484
1761378700535644400,5.68964453125,-0.10340309132933616,-0.07822948710620403,0.11983064064756035
1761378700545700600,5.69970068359375,-0.154699417193979,-0.07691080572307109,0.12196388981658965
1761378700555756500,5.709756591796875,-0.15879750016257166,-0.06067278762757778,0.06231211579982191
1761378700565812500,5.7198125,-0.08127411549910903,-0.012902151671051978,-0.017620229701511562
1761378700575868700,5.72986865234375,-0.02749941682219505,0.009997077879309653,-0.0637559944652021
1761378700585923300,5.73992333984375,0.01625336179509759,-0.05295242250859737,-0.0760899543268606
1761378700595979500,5.7499794921875,0.08421148412525653,-0.06425415324568748,-0.08007745306044817
1761378700606035500,5.760035400390625,0.11936872222423553,0.006678747111558914,-0.0947514367096126
1761378700616092000,5.770091796875,0.16482523601949214,0.049588499033451076,-0.10492065628543495
1761378700626148000,5.780148193359375,0.14855740730762482,0.09565291559398174,-0.0820746182270348
1761378700636204000,5.7902041015625,0.09806742938980459,0.10727964050173759,-0.06728888129908592
1761378700646260000,5.800260009765625,0.19886779087483883,0.11958908697664737,-0.07572977924495936
1761378700656316000,5.81031591796875,-0.05430032998621463,0.11433715779781341,0.05187558705732226
1761378700666371800,5.820371826171875,-0.20273615674078463,-0.08615268132090569,0.12196107680499553
1761378700676427800,5.830427734375,-0.07119783490374684,-0.07830138329863548,0.03245481073986739
1761378700686484000,5.84048388671875,-0.009849778363108635,0.07543605699539184,-0.08954816897809505
1761378700696539000,5.850538818359375,0.08732932388484478,0.09328209480941295,-0.1082389870531857
1761378700706595000,5.860594970703125,0.111358580378443,0.07816285161077975,-0.0640862128002569
1761378700716651000,5.870651123046875,0.147398884922266,0.08967384118437767,-0.019831366412341594
1761378700726707000,5.88070703125,0.16091317714229225,0.11963292611837387,0.016725545884110033
1761378700736763000,5.890762939453125,0.1313613578349352,0.08515548697710036,0.00016994973942637443
1761378700746819000,5.900819091796875,0.10442191298305988,0.017608721926808357,-0.007948328655958176
