time,seconds_elapsed,z,y,x
1761378694954628400,0.10862841796875,-0.004238252528011799,0.020002033561468124,-0.005428939126431942
1761378694964684300,0.118684326171875,0.0032102104742079973,0.015472106635570526,0.006162798032164574
1761378694974740200,0.128740234375,0.009157315827906132,0.009539649821817875,0.021687962114810944
1761378694984796200,0.138796142578125,0.02461656741797924,0.00018647266551852226,0.0341058149933815
1761378694994852000,0.14885205078125,0.031387653201818466,0.0022799838334321976,0.04846850782632828
1761378695004908000,0.158907958984375,0.03434819355607033,0.012090323492884636,0.055457986891269684
1761378695014964200,0.168964111328125,0.03496737778186798,0.01699506677687168,0.058958981186151505
1761378695025019100,0.17901904296875,0.029509305953979492,0.021579185500741005,0.04957747459411621
1761378695035075000,0.189074951171875,0.024163275957107544,0.026226136833429337,0.042042326182127
1761378695045131300,0.19913134765625,0.012229575775563717,0.02174033410847187,0.02973385900259018
1761378695055187200,0.209187255859375,-0.0020369780249893665,0.019586369395256042,0.02059442363679409
1761378695065243100,0.2192431640625,-0.012170970439910889,0.009231043979525566,0.008591883815824986
1761378695075299300,0.22929931640625,-0.011983217671513557,0.00626002112403512,0.005635508336126804
1761378695085355300,0.239355224609375,-0.0063423579558730125,0.005371782463043928,0.010436356998980045
1761378695095410200,0.24941015625,-0.0008943295106291771,0.0022151381708681583,0.019369132816791534
1761378695105466000,0.259466064453125,0.006249390542507172,0.011490222066640854,0.031574446707963943
1761378695115522000,0.26952197265625,0.005266417749226093,0.019036289304494858,0.05518496409058571
1761378695125578200,0.279578125,0.0005197897553443909,0.01983947865664959,0.06862432509660721
1761378695135634200,0.28963427734375,-0.003988408949226141,0.018184058368206024,0.0631701722741127
1761378695145690000,0.299690185546875,-0.004476109519600868,0.019831692799925804,0.04791196435689926
1761378695155746300,0.309746337890625,-0.0024747448042035103,0.02149110846221447,0.027788588777184486
1761378695165802200,0.31980224609375,-0.004230623599141836,0.02017013356089592,0.005139832850545645
1761378695175857200,0.329857177734375,0.0008352412842214108,0.01812748983502388,-0.006178335286676884
1761378695185913000,0.3399130859375,-0.0004776027053594589,0.010119575075805187,-0.01290629617869854
1761378695195969000,0.349968994140625,0.0025727818720042706,0.013720966875553131,-0.010997342877089977
1761378695206025200,0.360025146484375,-0.002829229924827814,0.017145700752735138,0.0004499419592320919
1761378695216081200,0.3700810546875,0.00022674724459648132,0.006894661579281092,0.014978550374507904
1761378695226137000,0.38013720703125,0.005000672768801451,0.010446427389979362,0.03440466523170471
1761378695236193300,0.390193359375,-0.0020657586865127087,0.019477205350995064,0.04632790386676788
1761378695246249200,0.400249267578125,-0.0075208647176623344,0.015514606609940529,0.04691788926720619
1761378695256304400,0.410304443359375,-0.007340835407376289,0.014491420239210129,0.04324698820710182
1761378695266360300,0.4203603515625,-0.009958036243915558,0.01734800823032856,0.032325003296136856
1761378695276416000,0.430416015625,-0.010118892416357994,0.01577834039926529,0.01869654282927513
1761378695286472200,0.44047216796875,-0.002910476177930832,0.010907319374382496,0.012645386159420013
1761378695296528100,0.450528076171875,0.009143523871898651,0.015732966363430023,0.004500375594943762
1761378695306584000,0.460583984375,0.01624491810798645,0.006358971819281578,-0.001956566236913204
1761378695316640300,0.47064013671875,0.01924123987555504,0.0076018692925572395,-0.008812608197331429
1761378695326695200,0.480695068359375,0.015808675438165665,0.001620391383767128,-0.010059754364192486
1761378695336751000,0.490751220703125,0.009615227580070496,0.006270270328968763,-0.012298673391342163
1761378695346807300,0.500807373046875,0.0019998615607619286,0.0128985196352005,-0.010914675891399384
1761378695356863200,0.51086328125,-0.0008182954043149948,0.024601249024271965,-0.010007603093981743
1761378695366919200,0.520919189453125,-0.0022885892540216446,0.02744141034781933,-0.006507065612822771
1761378695376975000,0.53097509765625,0.0029264125041663647,0.029414011165499687,-0.003158939303830266
1761378695387031000,0.541031005859375,0.010046809911727905,0.03445702791213989,0.0008022631518542767
1761378695397087000,0.5510869140625,0.012979749590158463,0.03119492344558239,0.006636183708906174
1761378695407142100,0.56114208984375,0.012270626612007618,0.027647655457258224,0.010513372719287872
1761378695417198000,0.571197998046875,0.00715469429269433,0.02328033745288849,0.003648275975137949
1761378695427254300,0.581254150390625,0.0051103015430271626,0.014811579138040543,-0.01091647706925869
1761378695437310200,0.591310302734375,0.0014103720895946026,0.007068971637636423,-0.017146410420536995
1761378695447366100,0.6013662109375,0.0022678887471556664,0.006253096740692854,-0.015745412558317184
1761378695457422300,0.61142236328125,0.007953205145895481,0.009517066180706024,-0.007783627603203058
1761378695467478300,0.621478271484375,0.005052546970546246,0.008019443601369858,0.005263122729957104
1761378695477534000,0.631533935546875,0.0019148103892803192,0.009767542593181133,0.021060461178421974
1761378695487589000,0.641589111328125,-0.008622042834758759,0.00865078717470169,0.03398207202553749
1761378695497645000,0.65164501953125,-0.013661010190844536,0.00210393825545907,0.03931398689746857
1761378695507701200,0.661701171875,-0.00920477882027626,-0.0004191300831735134,0.03216703236103058
1761378695517757200,0.671757080078125,-0.002200931776314974,-0.003948085010051727,0.01869063638150692
1761378695527813000,0.681813232421875,0.005097135901451111,-0.006410758011043072,-0.0033471931237727404
1761378695537869300,0.691869384765625,0.002640636172145605,-0.006230195518583059,-0.02162899449467659
1761378695547925200,0.70192529296875,0.006421868223696947,0.0005406895652413368,-0.03555184230208397
1761378695557981200,0.711981201171875,0.011939404532313347,-0.00024121440947055817,-0.04179855436086655
1761378695568036000,0.7220361328125,0.012849749997258186,0.0065171075984835625,-0.03547699376940727
1761378695578092000,0.732092041015625,0.007225686218589544,0.01736016757786274,-0.021763578057289124
1761378695588148200,0.742148193359375,-0.00015204958617687225,0.030749181285500526,-0.0032805970404297113
1761378695598204200,0.7522041015625,-0.009741293266415596,0.03625553473830223,0.010020293295383453
1761378695608264000,0.762263916015625,-0.0160677470266819,0.035043343901634216,0.019911980256438255
1761378695618320000,0.77231982421875,-0.018489893525838852,0.03514827787876129,0.024437755346298218
1761378695628376000,0.7823759765625,-0.008628224954009056,0.020415429025888443,0.017270278185606003
1761378695638430700,0.7924306640625,0.009043978527188301,0.00006355158984661102,0.0001810411922633648
1761378695648487000,0.80248681640625,0.033875271677970886,-0.0045793745666742325,-0.01497139036655426
1761378695658542800,0.81254296875,0.043430961668491364,-0.0013217960949987173,-0.02508687414228916
1761378695668598800,0.822598876953125,0.046179041266441345,0.0036363122053444386,-0.033483635634183884
1761378695678655000,0.832655029296875,0.0442008450627327,0.019121794030070305,-0.03612628951668739
1761378695688711000,0.8427109375,0.028806136921048164,0.024234458804130554,-0.03211269900202751
1761378695698766800,0.852766845703125,0.013778450898826122,0.02786993980407715,-0.02096470631659031
1761378695708823000,0.862822998046875,0.0017747655510902405,0.020154256373643875,-0.0034984757658094168
1761378695718878000,0.8728779296875,-0.005573694594204426,0.010388709604740143,0.002306949347257614
1761378695728934000,0.882933837890625,-0.0016493359580636024,0.004878032486885786,0.007171321660280228
1761378695738989800,0.89298974609375,-0.0012085828930139542,0.0037224874831736088,-0.007800703402608633
1761378695749045800,0.903045654296875,-0.0007825344800949097,0.0038406401872634888,-0.02716672606766224
1761378695759102000,0.91310205078125,0.008710036985576153,0.00883699581027031,-0.04534706100821495
1761378695769158000,0.923157958984375,0.017172783613204956,0.0152067169547081,-0.04684897139668465
1761378695779213800,0.9332138671875,0.02105780318379402,0.011676164343953133,-0.04037722572684288
1761378695789270000,0.94327001953125,0.022911211475729942,0.0015935758128762245,-0.020976677536964417
1761378695799325000,0.953324951171875,0.017191007733345032,0.0024519129656255245,0.005761459469795227
1761378695809381000,0.963381103515625,0.0072328196838498116,0.004577435087412596,0.021956156939268112
1761378695819437000,0.97343701171875,-0.004898145329207182,0.009593233466148376,0.023552458733320236
1761378695829492700,0.98349267578125,-0.016928384080529213,0.008550386875867844,0.017043065279722214
1761378695839549000,0.993548828125,-0.028137627989053726,0.01965390518307686,-0.006165851838886738
1761378695849604900,1.00360498046875,-0.023009752854704857,0.027010546997189522,-0.030990036204457283
1761378695859660800,1.013660888671875,-0.012723825871944427,0.029193272814154625,-0.04913654923439026
1761378695869717000,1.023717041015625,-0.004624657332897186,0.018507173284888268,-0.05961909517645836
1761378695879772000,1.03377197265625,0.009287163615226746,0.005606288556009531,-0.054064009338617325
1761378695889827800,1.043827880859375,0.019635654985904694,-0.008002124726772308,-0.03974256291985512
1761378695899884000,1.053884033203125,0.0230514258146286,-0.015110899694263935,-0.017888927832245827
1761378695909940000,1.06393994140625,0.021169085055589676,-0.0199295487254858,-0.0005839401856064796
1761378695919996000,1.073995849609375,0.013270681723952293,-0.02701408974826336,0.014472240582108498
1761378695930051800,1.0840517578125,0.004503269679844379,-0.03321922942996025,0.01829536259174347
1761378695940107800,1.094107666015625,0.0005125226452946663,-0.031507350504398346,0.011609230190515518
1761378695950164000,1.1041640625,-0.010238125920295715,-0.02797679789364338,0.003956370521336794
1761378695960219000,1.114218994140625,-0.019456123933196068,-0.01679152064025402,0.00008733058348298073
1761378695970274800,1.12427490234375,-0.029958661645650864,-0.006815576925873756,-0.006416501477360725
1761378695980331000,1.1343310546875,-0.03253207355737686,-0.0013547649141401052,-0.005055892281234264
1761378695990387000,1.144386962890625,-0.026470012962818146,0.008731389418244362,-0.0038558735977858305
1761378696000443000,1.15444287109375,-0.020745817571878433,0.00829463079571724,0.007001034915447235
1761378696010499000,1.1644990234375,-0.006339353509247303,0.0033816671930253506,0.02046304941177368
1761378696020555000,1.174554931640625,0.003737781662493944,-0.002074883785098791,0.02449560910463333
1761378696030610700,1.184610595703125,0.008160608820617199,-0.0034094282891601324,0.030869057402014732
1761378696040665900,1.194665771484375,0.005318216979503632,-0.006583383772522211,0.026068976148962975
1761378696050721800,1.2047216796875,-0.0023502614349126816,-0.001464845146983862,0.015747344121336937
1761378696060778000,1.214778076171875,-0.0009137522429227829,-0.0036438435781747103,0.011596275493502617
1761378696070834000,1.224833984375,-0.0031423037871718407,0.0022439472377300262,0.005566644016653299
1761378696080889900,1.234889892578125,0.0028524715453386307,0.00005243159830570221,0.0009215581230819225
1761378696090946000,1.244946044921875,-0.004077548161149025,0.002991902641952038,0.0008469154126942158
1761378696101002000,1.255001953125,-0.006690640933811665,-0.006435954011976719,0.010206329636275768
1761378696111058000,1.265057861328125,-0.007790280971676111,-0.008020023815333843,0.018247753381729126
1761378696121114000,1.275114013671875,-0.015940885990858078,-0.010870138183236122,0.022339966148138046
1761378696131168800,1.285168701171875,-0.023684939369559288,-0.014006193727254868,0.02063092216849327
1761378696141225000,1.295224853515625,-0.02224629931151867,-0.014408331364393234,0.014201518148183823
1761378696151281000,1.305281005859375,-0.010010558180510998,-0.0076543246395885944,0.011511698365211487
1761378696161336800,1.3153369140625,-0.002479405142366886,-0.016052868217229843,0.004030079580843449
1761378696171393000,1.32539306640625,0.004781285300850868,-0.02002718672156334,0.0021662269718945026
1761378696181449000,1.335448974609375,0.01065754983574152,-0.014214306138455868,-0.0021153376437723637
1761378696191505000,1.3455048828125,0.01059812307357788,-0.010926266200840473,0.0031368699856102467
1761378696201560000,1.35556005859375,-0.001956817228347063,-0.01339901052415371,0.00592573219910264
1761378696211615700,1.36561572265625,-0.003418321255594492,-0.009184127673506737,0.008885648101568222
1761378696221672000,1.375671875,-0.009086327627301216,-0.008587579242885113,0.01711561530828476
1761378696231727900,1.385727783203125,-0.0074851782992482185,-0.01095188781619072,0.017557069659233093
1761378696241783800,1.39578369140625,-0.012642921879887581,-0.004032196942716837,0.01061367616057396
1761378696251840000,1.405840087890625,-0.016756344586610794,0.005942710675299168,0.0034993113949894905
1761378696261896000,1.41589599609375,-0.013464412651956081,0.014362294226884842,-0.006087535992264748
1761378696271952000,1.425951904296875,-0.010914795100688934,0.007669828832149506,-0.013454352505505085
1761378696282007800,1.4360078125,-0.00730914156883955,-0.0008296500891447067,-0.013558748178184032
1761378696292063000,1.44606298828125,-0.0019474765285849571,-0.005927054677158594,-0.004385527689009905
1761378696302119000,1.456118896484375,0.0009066327475011349,-0.013874193653464317,0.017084876075387
1761378696312174800,1.4661748046875,0.003492676420137286,-0.01673690788447857,0.034563031047582626
1761378696322230800,1.476230712890625,0.007649071980267763,-0.01926850900053978,0.04655258357524872
1761378696332286700,1.48628662109375,0.0030502304434776306,-0.008310077711939812,0.04612037166953087
1761378696342343000,1.496343017578125,-0.006535285618156195,-0.00006146915256977081,0.040927473455667496
1761378696352398800,1.50639892578125,-0.018490519374608994,0.005529453977942467,0.034337010234594345
1761378696362454800,1.516454833984375,-0.025119127705693245,0.01171837467700243,0.025321945548057556
1761378696372510000,1.526510009765625,-0.020260438323020935,0.014721497893333435,0.013038469478487968
1761378696382566000,1.53656591796875,-0.0021144570782780647,0.009479332715272903,-0.0021708430722355843
1761378696392622000,1.5466220703125,0.007838460616767406,0.004439116455614567,-0.009464269503951073
1761378696402678000,1.556677978515625,0.0184176005423069,-0.0038299986626952887,-0.022881807759404182
1761378696412734000,1.56673388671875,0.023760739713907242,-0.0059667048044502735,-0.03085455298423767
1761378696422790000,1.576789794921875,0.02122487872838974,0.0033980347216129303,-0.03548739105463028
1761378696432845800,1.586845703125,0.009787609800696373,0.0040021189488470554,-0.02892649546265602
1761378696442901800,1.59690185546875,-0.0029630735516548157,0.010254688560962677,-0.019908765330910683
1761378696452957000,1.60695703125,-0.01666092872619629,0.0207083597779274,-0.008050537668168545
1761378696463012900,1.617012939453125,-0.022701777517795563,0.022534755989909172,0.009183576330542564
1761378696473069000,1.627069091796875,-0.017547857016324997,0.015580499544739723,0.02430768683552742
1761378696483125000,1.637125,-0.005562565289437771,0.0038572638295590878,0.03211554139852524
1761378696493181000,1.647180908203125,0.006841620430350304,-0.004664292559027672,0.030439237132668495
1761378696503237000,1.657237060546875,0.013425753451883793,-0.008305633440613747,0.014862140640616417
1761378696513293000,1.66729296875,0.02145153284072876,-0.011783123016357422,-0.005770539864897728
1761378696523348700,1.6773486328125,0.02049306035041809,-0.006147608160972595,-0.02473917044699192
1761378696533404000,1.68740380859375,0.013562335632741451,-0.001323522999882698,-0.03665971755981445
1761378696543459800,1.6974599609375,0.002156283240765333,0.0033519226126372814,-0.037691425532102585
1761378696553516000,1.70751611328125,-0.004755779635161161,0.0014928258024156094,-0.0343795008957386
1761378696563572000,1.717572021484375,-0.007676735054701567,0.00891771912574768,-0.020251965150237083
1761378696573628000,1.7276279296875,-0.009618577547371387,0.007917860522866249,-0.002085271291434765
1761378696583683800,1.737683837890625,-0.00879246648401022,-0.004486877471208572,0.019293520599603653
1761378696593740000,1.747739990234375,-0.0006235246546566486,-0.013091765344142914,0.03530848026275635
1761378696603796000,1.7577958984375,0.007789401337504387,-0.012365255504846573,0.03642620891332626
1761378696613847000,1.767846923828125,0.001706322655081749,-0.0061892010271549225,0.03404437378048897
1761378696623903000,1.777903076171875,-0.007744437083601952,0.009864334017038345,0.02647487074136734
1761378696633959200,1.787959228515625,-0.010535484179854393,0.011915774084627628,0.011989115737378597
1761378696644015000,1.79801513671875,-0.005216085817664862,0.015253514982759953,-0.006053001619875431
1761378696654071000,1.808071044921875,0.00363353849388659,0.007891014218330383,-0.019990727305412292
1761378696664127200,1.818127197265625,0.012995881028473377,-0.004247940145432949,-0.03199412673711777
1761378696674183200,1.82818310546875,0.022046349942684174,-0.015238150022923946,-0.02933025360107422
1761378696684239000,1.838239013671875,0.022471657022833824,-0.01842568814754486,-0.014312955550849438
1761378696694295000,1.848294921875,0.01690337061882019,-0.024421826004981995,0.006999230943620205
1761378696704350000,1.858349853515625,0.010356787592172623,-0.02000417560338974,0.025986239314079285
1761378696714406000,1.868406005859375,0.004839608445763588,-0.012800167314708233,0.03986913338303566
1761378696724462000,1.878462158203125,0.0017340960912406445,-0.002958455588668585,0.038878969848155975
1761378696734518000,1.88851806640625,0.003045761026442051,0.0057845767587423325,0.02711038663983345
1761378696744574000,1.898573974609375,0.004498515278100967,0.010623540729284286,0.011439013294875622
1761378696754630100,1.908630126953125,0.000438125804066658,0.017317237332463264,-0.004094879142940044
1761378696764686000,1.91868603515625,-0.0016540531069040298,0.024074209854006767,-0.01093227881938219
1761378696774742000,1.928741943359375,-0.004216223955154419,0.021441718563437462,-0.007369599770754576
1761378696784797000,1.938796875,-0.007868749089539051,0.014710579067468643,-0.0002070278860628605
1761378696794852900,1.948852783203125,-0.012571699917316437,0.012468179687857628,0.009808572009205818
1761378696804909000,1.958908935546875,-0.007191583048552275,0.009604215621948242,0.01445499062538147
1761378696814965000,1.968965087890625,-0.003286760300397873,0.012833998538553715,0.005148681346327066
1761378696825021000,1.97902099609375,0.004057705402374268,0.011889376677572727,-0.012096351943910122
1761378696835077000,1.9890771484375,0.013248445466160774,0.007667081896215677,-0.03422398492693901
1761378696845133000,1.999133056640625,0.020418740808963776,0.006922462489455938,-0.04903781786561012
1761378696855189000,2.00918896484375,0.024560904130339622,0.006389284506440163,-0.05252241715788841
1761378696865245200,2.0192451171875,0.018017783761024475,0.004824677482247353,-0.04203622043132782
1761378696875299800,2.0292998046875,0.011805600486695766,0.003747485112398863,-0.02099696174263954
1761378696885356000,2.03935595703125,0.0017148833721876144,-0.008840478956699371,0.00321703078225255
1761378696895412000,2.049411865234375,0.0019499454647302628,-0.017921535298228264,0.03519122675061226
1761378696905468000,2.059468017578125,0.0036162855103611946,-0.022481132298707962,0.054667189717292786
1761378696915524000,2.069524169921875,0.005791328381747007,-0.023064998909831047,0.06459712982177734
1761378696925580000,2.079580078125,0.007533568423241377,-0.013624358922243118,0.058971207588911057
1761378696935636000,2.089635986328125,0.0009922366589307785,-0.00019112369045615196,0.03980362415313721
1761378696945692200,2.099692138671875,-0.004505859687924385,0.014434157870709896,0.01628551259636879
1761378696955747000,2.1097470703125,-0.0064624096266925335,0.026003962382674217,-0.0026558195240795612
1761378696965803300,2.11980322265625,-0.012338940054178238,0.03257478028535843,-0.017303738743066788
1761378696975859000,2.12985888671875,-0.014375458471477032,0.0343378409743309,-0.024225149303674698
1761378696985915000,2.139914794921875,-0.014379187487065792,0.02271074615418911,-0.016703583300113678
1761378696995971000,2.14997119140625,-0.014510825276374817,0.014409027993679047,-0.002798456232994795
1761378697006027000,2.160027099609375,-0.008912060409784317,0.00164023507386446,0.010500571690499783
1761378697016083000,2.1700830078125,0.0014542769640684128,-0.0023545995354652405,0.02540580928325653
1761378697026139100,2.18013916015625,0.010847778990864754,0.004308096598833799,0.03725128248333931
1761378697036194000,2.190194091796875,0.01742705889046192,0.01618725061416626,0.03876083716750145
1761378697046250000,2.20025,0.018098441883921623,0.020266946405172348,0.033370066434144974
1761378697056306200,2.21030615234375,0.01924249716103077,0.02257547341287136,0.025823652744293213
1761378697066362000,2.220362060546875,0.01672314666211605,0.02402636408805847,0.01256270706653595
1761378697076418000,2.23041796875,0.00977960042655468,0.014574190601706505,0.00347263365983963
1761378697086474000,2.240473876953125,0.005213610827922821,0.005521572660654783,-0.001084301620721817
1761378697096530000,2.250530029296875,0.0028166710399091244,0.002491171006113291,0.0023832744918763638
1761378697106585900,2.2605859375,-0.002396466676145792,-0.00223114644177258,0.016350222751498222
1761378697116642000,2.27064208984375,-0.004102563485503197,-0.0015224963426589966,0.026214824989438057
1761378697126697000,2.280697021484375,-0.0044501060619950294,0.0011590407229959965,0.035153187811374664
1761378697136753200,2.290753173828125,0.0005242405459284782,0.025299208238720894,0.04178870469331741
1761378697146809000,2.30080908203125,0.0005343607626855373,0.03020688146352768,0.04187072813510895
1761378697156865000,2.310864990234375,0.007813124917447567,0.029085539281368256,0.03531992435455322
1761378697166921200,2.320921142578125,0.01844020187854767,0.030064251273870468,0.0274345725774765
1761378697176977200,2.33097705078125,0.020172132179141045,0.033464059233665466,0.01638513058423996
1761378697187032800,2.34103271484375,0.006182546727359295,0.028445065021514893,0.017628293484449387
1761378697197089000,2.351089111328125,-0.0046255323104560375,0.021938636898994446,0.021052831783890724
1761378697207144000,2.36114404296875,-0.010353991761803627,0.01068971212953329,0.022493602707982063
1761378697217200000,2.3712001953125,-0.011115312576293945,0.008391469717025757,0.02130226418375969
1761378697227256000,2.381256103515625,-0.006195389665663242,0.0008541918359696865,0.015917617827653885
1761378697237312000,2.39131201171875,0.0021003028377890587,-0.0068130893632769585,0.0017164116725325584
1761378697247368200,2.4013681640625,0.014889867976307869,-0.014807632192969322,-0.006497842259705067
1761378697257424100,2.411424072265625,0.028398139402270317,-0.020969770848751068,-0.02095698192715645
1761378697267480000,2.42147998046875,0.03689548745751381,-0.016636542975902557,-0.03084183856844902
1761378697277536300,2.431536376953125,0.031228262931108475,-0.009733553975820541,-0.031223168596625328
1761378697287591000,2.4415908203125,0.022805484011769295,0.002330299001187086,-0.021894648671150208
1761378697297647000,2.451647216796875,0.011573908850550652,0.008843012154102325,-0.010247619822621346
1761378697307703000,2.461703125,0.00004375306889414787,0.009523715823888779,0.002229023724794388
1761378697317759000,2.471759033203125,-0.00630501564592123,0.0028286511078476906,0.00856076180934906
1761378697327815200,2.481815185546875,-0.0011864202097058296,0.012380078434944153,0.007917341776192188
1761378697337871000,2.49187109375,0.0007099583745002747,0.009739680215716362,0.0011593783274292946
1761378697347927000,2.501927001953125,0.004101227968931198,0.006666658911854029,-0.013832620345056057
1761378697357983200,2.511983154296875,0.008814549073576927,0.006737638730555773,-0.030110467225313187
1761378697368038000,2.522037841796875,0.012365341186523438,0.0011971984058618546,-0.035947319120168686
1761378697378094000,2.532093994140625,0.009576478973031044,-0.008737990632653236,-0.02838686853647232
1761378697388150000,2.54214990234375,0.010206582956016064,-0.008429596200585365,-0.01670384779572487
1761378697398206000,2.5522060546875,0.009190470911562443,-0.012286084704101086,0.00037476466968655586
1761378697408262000,2.562261962890625,0.012641128152608871,-0.004597272723913193,0.009325914084911346
1761378697418318000,2.572318115234375,0.016643311828374863,0.0009941589087247849,0.02219795063138008
1761378697428374000,2.5823740234375,0.020279590040445328,0.005467736627906561,0.02748219296336174
1761378697438430000,2.592429931640625,0.020572328940033913,0.0026970747858285904,0.019194751977920532
1761378697448486100,2.602486083984375,0.014576222747564316,0.00026081502437591553,0.0034378916025161743
1761378697458541000,2.612541015625,0.0034534158185124397,-0.002390278037637472,-0.012203212827444077
1761378697468597000,2.622596923828125,0.00018198881298303604,0.0038119573146104813,-0.02172774262726307
1761378697478653000,2.63265283203125,-0.00903698243200779,0.0005489932373166084,-0.026503341272473335
1761378697488708900,2.642708984375,-0.005534925498068333,-0.0029551940970122814,-0.028468221426010132
1761378697498765000,2.65276513671875,0.002186814323067665,0.002263763453811407,-0.023343507200479507
1761378697508821000,2.662821044921875,0.012246372178196907,-0.0017791811842471361,-0.01938045583665371
1761378697518877000,2.672876953125,0.014545809477567673,0.0015249792486429214,-0.012055745348334312
1761378697528933000,2.68293310546875,0.013643530197441578,0.0026059565134346485,-0.0033876888919621706
1761378697538988000,2.692988037109375,0.010773037560284138,-0.00023558223620057106,-0.0008385991677641869
1761378697549044200,2.703044189453125,0.014300394803285599,-0.003200212959200144,-0.0012095775455236435
1761378697559100200,2.71310009765625,0.02093786559998989,-0.008555812761187553,-0.011397220194339752
1761378697569155800,2.72315576171875,0.01918497309088707,-0.010981686413288116,-0.019057802855968475
1761378697579212000,2.7332119140625,0.016927393153309822,-0.0101863918825984,-0.026808898895978928
1761378697589268000,2.74326806640625,0.010091590695083141,-0.0044901566579937935,-0.02736443653702736
1761378697599324000,2.753323974609375,-0.002109321765601635,-0.0013820384629070759,-0.02020001783967018
1761378697609380600,2.763380615234375,-0.008508098311722279,-0.0013769783545285463,-0.0069470638409256935
1761378697619435300,2.773435302734375,-0.005402868613600731,0.01192031055688858,0.0050661019049584866
1761378697629491500,2.783491455078125,0.003374909982085228,0.006315687205642462,0.011690447106957436
1761378697639547400,2.79354736328125,0.0047522191889584064,0.004248473793268204,0.013770218007266521
1761378697649603300,2.803603271484375,0.01143781840801239,-0.0014741267077624798,0.017322875559329987
1761378697659659300,2.8136591796875,0.01422930508852005,-0.002579504856839776,0.01954893209040165
1761378697669715500,2.823715576171875,0.013138474896550179,-0.005554522387683392,0.016867928206920624
1761378697679771400,2.833771484375,0.0057931924238801,-0.005334736779332161,0.02233223244547844
1761378697689827300,2.843827392578125,0.004519935231655836,-0.001139458967372775,0.02655654028058052
1761378697699883500,2.853883544921875,0.004922798834741116,0.00508305337280035,0.027454424649477005
1761378697709938400,2.8639384765625,0.010160437785089016,0.007262850180268288,0.025959063321352005
1761378697719994400,2.873994384765625,0.007345607969909906,0.01145077869296074,0.018592018634080887
1761378697730050300,2.88405029296875,0.001362550538033247,0.005193415563553572,0.003757145255804062
1761378697740106200,2.894106201171875,0.000319160521030426,0.008593320846557617,-0.003521607257425785
1761378697750162400,2.904162353515625,-0.002536546904593706,0.003030243795365095,-0.013909267261624336
1761378697760218400,2.91421826171875,-0.002163474913686514,-0.0008548896294087172,-0.021738093346357346
1761378697770274300,2.9242744140625,-0.00014186929911375046,-0.004811281803995371,-0.025818854570388794
1761378697780330500,2.93433056640625,-0.0017682458274066448,-0.003113377373665571,-0.026390817016363144
1761378697790386400,2.944386474609375,0.0015236875042319298,0.005510470364242792,-0.02160990983247757
1761378697800441600,2.954441650390625,0.009239478036761284,0.009006788022816181,-0.01139877736568451
1761378697810497500,2.96449755859375,0.008303110487759113,0.008444594219326973,-0.00042096106335520744
1761378697820553200,2.97455322265625,0.0017041563987731934,0.011112222447991371,0.00964177306741476
1761378697830609400,2.984609375,-0.002690858207643032,0.016485949978232384,0.010975482873618603
1761378697840665300,2.994665283203125,-0.012041933834552765,0.015467679128050804,0.008656179532408714
1761378697850721300,3.00472119140625,-0.016076888889074326,0.006915203295648098,0.00467688450589776
1761378697860777500,3.014777587890625,-0.011827271431684494,0.0009687156416475773,-0.002956331241875887
1761378697870833400,3.02483349609375,0.001723690889775753,-0.004539499990642071,-0.004135046154260635
1761378697880888600,3.034888671875,0.010327090509235859,-0.00722121074795723,-0.000763703603297472
1761378697890944500,3.044944580078125,0.015493622981011868,-0.003644052892923355,0.00028957659378647804
1761378697901000400,3.05500048828125,0.01685061864554882,-0.0003649364225566387,-0.0003690500743687153
1761378697911056600,3.065056640625,0.014153635129332542,0.001567719504237175,0.00738021545112133
1761378697921112300,3.0751123046875,0.012686500325798988,0.004124886821955442,0.010803443379700184
1761378697931168300,3.085168212890625,0.014603443443775177,0.002133108675479889,0.012551541440188885
1761378697941224400,3.095224365234375,0.017413191497325897,0.006990097928792238,0.00481248926371336
1761378697951280400,3.1052802734375,0.011648513376712799,0.006467053201049566,0.004168003797531128
1761378697961336300,3.11533642578125,0.0042858244851231575,-0.001858436968177557,-0.0015690703876316547
1761378697971391500,3.1253916015625,0.001825596671551466,-0.0034315662924200296,-0.009320734068751335
1761378697981447400,3.135447509765625,0.00526438420638442,0.009095858782529831,-0.015173203311860561
1761378697991503400,3.14550341796875,0.005614323541522026,0.00866788998246193,-0.023119542747735977
1761378698001559600,3.1555595703125,0.010430118069052696,0.011227453127503395,-0.026666872203350067
1761378698011615500,3.165615478515625,0.01400727592408657,0.014616860076785088,-0.027062885463237762
1761378698021671200,3.175671142578125,0.013277912512421608,0.012081064283847809,-0.022508986294269562
1761378698031727400,3.185727294921875,0.011442728340625763,0.011386778205633163,-0.013857174664735794
1761378698041783300,3.195783203125,0.0019264551810920238,0.015310147777199745,-0.006051183678209782
1761378698051838500,3.20583837890625,0.0011701174080371857,0.016331203281879425,-0.00006972393020987511
1761378698061894400,3.215894287109375,0.00026570819318294525,0.016830813139677048,0.0027412427589297295
1761378698071950300,3.225950439453125,0.005088692530989647,0.010471183806657791,0.0014291033148765564
1761378698082006500,3.236006591796875,0.007280339952558279,0.007543944288045168,-0.002739749616011977
1761378698092062500,3.2460625,0.011498520150780678,0.013104625046253204,-0.007557674311101437
1761378698102118400,3.256118408203125,0.010084310546517372,0.01251264289021492,-0.002901801373809576
1761378698112174600,3.266174560546875,0.009311994537711143,0.0068097482435405254,-0.00018298020586371422
1761378698122230500,3.27623046875,0.010312199592590332,0.009232358075678349,-0.0018268437124788761
1761378698132286200,3.2862861328125,0.012356707826256752,0.007321805693209171,-0.00012774718925356865
1761378698142341400,3.29634130859375,0.014755584299564362,0.004666057415306568,-0.0027693442534655333
1761378698152397300,3.306397216796875,0.017555098980665207,0.010862966999411583,-0.010171866975724697
1761378698162453500,3.31645361328125,0.021714065223932266,0.016806136816740036,-0.01563825085759163
1761378698172509400,3.326509521484375,0.016968578100204468,0.024268582463264465,-0.011703962460160255
1761378698182565400,3.3365654296875,0.007852312177419662,0.02397856116294861,-0.006038087885826826
1761378698192621600,3.34662158203125,0.0012988047674298286,0.025541037321090698,0.00607796385884285
1761378698202677500,3.356677490234375,-0.0002752370201051235,0.01999082788825035,0.014430875889956951
1761378698212733400,3.3667333984375,0.0010741869919002056,0.009410621598362923,0.01600959524512291
1761378698222789600,3.37678955078125,0.0045590465888381,-0.0018501051235944033,0.012180863879621029
1761378698232844300,3.38684423828125,0.004811247810721397,-0.01139407604932785,0.0009705531410872936
1761378698242900500,3.396900390625,0.004596558399498463,-0.01938026398420334,-0.008426224812865257
1761378698252956400,3.406956298828125,0.006687140092253685,-0.01276896707713604,-0.020345201715826988
1761378698263012400,3.417012451171875,0.007901239208877087,-0.0052384608425199986,-0.022553959861397743
1761378698273068500,3.427068603515625,0.0021085976622998714,0.00040131574496626854,-0.023763034492731094
1761378698283124500,3.43712451171875,-0.000503412913531065,-0.0008360650390386581,-0.017842330038547516
1761378698293180400,3.447180419921875,-0.0011447020806372166,-0.006191682070493698,-0.010774565860629082
1761378698303236600,3.457236572265625,-0.001775873824954033,-0.009973688051104546,-0.0010200864635407925
1761378698313292500,3.46729248046875,-0.002732747234404087,-0.01752854324877262,0.008805112913250923
1761378698323347500,3.477347412109375,-0.004174235742539167,-0.024672886356711388,0.01466464251279831
1761378698333403400,3.4874033203125,-0.006457097362726927,-0.026336295530200005,0.01839280128479004
1761378698343459300,3.497459228515625,-0.008525059558451176,-0.024890655651688576,0.01239965669810772
1761378698353515300,3.507515380859375,-0.008473394438624382,-0.014006050303578377,0.0062805116176605225
1761378698363571500,3.517571533203125,-0.010633299127221107,-0.01116750854998827,-0.004458194598555565
1761378698373627400,3.52762744140625,-0.005912580527365208,-0.006004970986396074,-0.01038532517850399
1761378698383683300,3.537683349609375,-0.00013957032933831215,0.003065772820264101,-0.014488976448774338
1761378698393739500,3.547739501953125,0.00297126779332757,0.009699441492557526,-0.019940201193094254
1761378698403795500,3.55779541015625,-0.0004100669175386429,0.006076062563806772,-0.01866024360060692
1761378698413850400,3.567850341796875,0.003529014764353633,0.002487453166395426,-0.015554199926555157
1761378698423906300,3.57790625,0.005709326360374689,0.0006733839400112629,-0.008336201310157776
1761378698433962200,3.587962158203125,0.006032634060829878,-0.008114781230688095,0.005832081660628319
1761378698444018400,3.598018310546875,0.009564094245433807,-0.010474794544279575,0.018433960154652596
1761378698454074400,3.608074462890625,0.00960643868893385,-0.010221527889370918,0.02429291419684887
1761378698464130300,3.61813037109375,0.007082503754645586,-0.007125696167349815,0.02303505688905716
1761378698474186500,3.6281865234375,0.0061802249401807785,-0.0036015347577631474,0.020649928599596024
1761378698484242400,3.638242431640625,0.0046874480322003365,-0.005493727512657642,0.003690638579428196
1761378698494298400,3.64829833984375,0.004100753925740719,-0.004873477388173342,-0.007860289886593819
1761378698504353500,3.658353515625,0.004831964150071144,-0.005645467899739742,-0.01506891380995512
1761378698514409200,3.6684091796875,0.009830184280872345,-0.00543614337220788,-0.01630435511469841
1761378698524465400,3.67846533203125,0.015024375170469284,-0.005471996497362852,-0.012911301106214523
1761378698534521300,3.688521240234375,0.015681643038988113,-0.012043878436088562,-0.008707500994205475
1761378698544577300,3.698577392578125,0.011907091364264488,-0.01831832528114319,-0.005048482678830624
1761378698554633500,3.708633544921875,0.004077131859958172,-0.016540931537747383,-0.001982385292649269
1761378698564689400,3.718689453125,-0.0014132848009467125,-0.017892489209771156,-0.0038866528775542974
1761378698574745300,3.728745361328125,0.001081298105418682,-0.016088729724287987,-0.004488527309149504
1761378698584801500,3.738801513671875,0.0029971208423376083,-0.005440122447907925,-0.0073089818470180035
1761378698594856400,3.7488564453125,0.0013901698403060436,-0.010663912631571293,-0.003508384572342038
1761378698604912600,3.75891259765625,0.0004135868512094021,-0.008956078439950943,-0.001130327582359314
1761378698614968000,3.768968017578125,0.009175918996334076,-0.00836911704391241,0.010185176506638527
1761378698625023700,3.779023681640625,0.007418100256472826,-0.012520827353000641,0.01872267946600914
1761378698635080000,3.789079833984375,0.004642553627490997,-0.016457777470350266,0.02949356660246849
1761378698645136000,3.799135986328125,-0.0028616804629564285,-0.015776032581925392,0.02790616825222969
1761378698655191800,3.80919189453125,-0.01107859704643488,-0.01667778007686138,0.02742786705493927
1761378698665248000,3.819248046875,-0.015102613717317581,-0.02004270628094673,0.025150712579488754
1761378698675304000,3.829303955078125,-0.015167860314249992,-0.018062647432088852,0.018483754247426987
1761378698685359000,3.839359130859375,-0.010523858480155468,-0.014625495299696922,0.016887489706277847
1761378698695415000,3.8494150390625,-0.00046749506145715714,-0.008359875530004501,0.015661902725696564
1761378698705471000,3.859470947265625,0.0020166272297501564,-0.008579600602388382,0.013695945963263512
1761378698715527200,3.869527099609375,-0.00035438500344753265,-0.010440884158015251,0.016256574541330338
1761378698725582800,3.879582763671875,0.0013125617988407612,-0.012373792007565498,0.016111178323626518
1761378698735638800,3.889638671875,-0.0007460620254278183,-0.011040080338716507,0.015505308285355568
1761378698745695000,3.899695068359375,-0.0036956118419766426,-0.01628602109849453,0.015042177401483059
1761378698755751000,3.9097509765625,-0.001809561625123024,-0.02199983224272728,0.014671997167170048
1761378698765806800,3.919806884765625,-0.000029151327908039093,-0.020207347348332405,0.013981900177896023
1761378698775862000,3.929862060546875,-0.0006701741367578506,-0.025696920230984688,0.011703831143677235
1761378698785918000,3.93991796875,0.00024844100698828697,-0.029857108369469643,0.004595298320055008
1761378698795974100,3.94997412109375,-0.001881555188447237,-0.014415301382541656,-0.006482919678092003
1761378698806030000,3.960030029296875,-0.006278172601014376,-0.009799832478165627,-0.00782823096960783
1761378698816086000,3.9700859375,-0.005089337471872568,-0.009590507484972477,-0.00668466929346323
1761378698826142000,3.980141845703125,0.00020585302263498306,-0.007971804589033127,-0.0058305952697992325
1761378698836198000,3.990197998046875,0.0035912636667490005,-0.014040349051356316,-0.004130699671804905
1761378698846253800,4.00025390625,0.011365838348865509,-0.018657123669981956,-0.0033400726970285177
1761378698856310000,4.01031005859375,0.01089445874094963,-0.024264143779873848,-0.003213306190446019
1761378698866366000,4.020365966796875,0.006851635407656431,-0.024682769551873207,-0.00588593166321516
1761378698876420900,4.0304208984375,0.0024105478078126907,-0.019742071628570557,-0.017204899340867996
1761378698886477000,4.04047705078125,0.002374085132032633,-0.0062553128227591515,-0.014793289825320244
1761378698896533000,4.050532958984375,-0.005743496119976044,-0.0014701453037559986,-0.014305398799479008
1761378698906589000,4.0605888671875,-0.008738115429878235,0.005714070983231068,-0.00902508944272995
1761378698916645000,4.07064501953125,-0.005113554652780294,0.010635859332978725,-0.0020910166203975677
1761378698926701000,4.080701171875,-0.00326277082785964,0.006905652582645416,0.002352108247578144
1761378698936756700,4.0907568359375,0.0005178526043891907,-0.0008710441179573536,0.00617694016546011
1761378698946813000,4.10081298828125,0.005677421577274799,-0.01163251232355833,0.008047729730606079
1761378698956868900,4.110868896484375,0.008253497071564198,-0.019150614738464355,0.0045038615353405476
1761378698966924000,4.120924072265625,0.013185204938054085,-0.012053623795509338,0.006808106787502766
1761378698976980000,4.13097998046875,0.0229044109582901,-0.007508940063416958,0.008292819373309612
1761378698987036000,4.141035888671875,0.02256036177277565,-0.0009681580122560263,0.008512312546372414
1761378698997092000,4.151092041015625,0.018364550545811653,0.00012187380343675613,0.01032912079244852
1761378699007148000,4.16114794921875,0.016052817925810814,0.008131735026836395,0.0072151427157223225
1761378699017204000,4.171203857421875,0.012271927669644356,0.008592994883656502,0.0032254611141979694
1761378699027260200,4.18126025390625,0.015325389802455902,0.012253273278474808,0.0006126584485173225
1761378699037315800,4.19131591796875,0.005583280697464943,0.007900601252913475,-0.01146877184510231
1761378699047371800,4.201371826171875,-0.0017451313324272633,0.0059778145514428616,-0.020726706832647324
1761378699057427000,4.211427001953125,-0.012390851974487305,0.010777363553643227,-0.02195948362350464
1761378699067483000,4.22148291015625,-0.009541848674416542,0.009466839954257011,-0.01972324028611183
1761378699077539000,4.2315390625,-0.001261281780898571,0.013951871544122696,-0.011444538831710815
1761378699087595000,4.241594970703125,0.006386795546859503,0.010646222159266472,-0.0043990639969706535
1761378699097651000,4.25165087890625,0.008054466918110847,0.0027259811758995056,0.0009988974779844284
1761378699107707100,4.26170703125,0.008586755022406578,-0.0013854752760380507,0.009101936593651772
1761378699117763000,4.27176318359375,0.009059200063347816,-0.0005284699145704508,0.016959860920906067
1761378699127819000,4.281819091796875,0.0065433550626039505,-0.0009410388302057981,0.022919975221157074
1761378699137875000,4.291875,0.0009086388163268566,-0.0032534615602344275,0.022749267518520355
1761378699147931000,4.301930908203125,0.0012629125267267227,-0.009452487342059612,0.019719135016202927
1761378699157986000,4.311986083984375,0.0014400128275156021,-0.017700564116239548,0.012502500787377357
1761378699168042000,4.3220419921875,0.005879055242985487,-0.015690548345446587,-0.00021164817735552788
1761378699178098000,4.332097900390625,0.011216828599572182,-0.014914769679307938,-0.0041427407413721085
1761378699188153900,4.34215380859375,0.005242588464170694,-0.003688957542181015,-0.013454437255859375
1761378699198210000,4.3522099609375,-0.005556263029575348,0.00867876224219799,-0.016216136515140533
1761378699208266000,4.362265869140625,-0.012645445764064789,0.0192960686981678,-0.012164229527115822
1761378699218322000,4.372322021484375,-0.022840026766061783,0.021720878779888153,-0.0076301973313093185
1761378699228378000,4.382378173828125,-0.02136291190981865,0.012745789252221584,-0.0037549021653831005
1761378699238433800,4.392433837890625,-0.012916428968310356,0.010760136879980564,0.004331253468990326
1761378699248489000,4.402489013671875,-0.0033309864811599255,-0.012009616009891033,0.006810425315052271
1761378699258545000,4.412544921875,0.011577654629945755,-0.01476359087973833,0.011349782347679138
1761378699268600800,4.422600830078125,0.017735594883561134,-0.013578101992607117,0.013319894671440125
1761378699278657000,4.432656982421875,0.013030854985117912,-0.009130889549851418,0.008561357855796814
1761378699288713000,4.442712890625,-0.002408278174698353,-0.005849259439855814,0.006722381338477135
1761378699298769000,4.452768798828125,-0.02118542790412903,0.0020267730578780174,0.006427302956581116
1761378699308825000,4.4628251953125,-0.03233964741230011,0.008960828185081482,-0.002897932892665267
1761378699318881000,4.472881103515625,-0.032548438757658005,0.006077688653022051,-0.0069107841700315475
1761378699328937000,4.48293701171875,-0.030547216534614563,0.009621072560548782,-0.008787074126303196
1761378699338993200,4.4929931640625,-0.02901509776711464,0.0023040371015667915,-0.006993968039751053
1761378699349048800,4.503048828125,-0.014539196155965328,-0.0016752786468714476,-0.01039098110049963
1761378699359104000,4.51310400390625,-0.0006715846247971058,-0.006308380048722029,-0.003932815045118332
1761378699369160000,4.523159912109375,0.005732269492000341,-0.01573285087943077,-0.0006742053665220737
1761378699379216000,4.5332158203125,0.009073205292224884,-0.03163725137710571,-0.0011884616687893867
1761378699389272000,4.54327197265625,0.01056213490664959,-0.03120177797973156,-0.00452030636370182
1761378699399328000,4.553327880859375,0.006182300392538309,-0.030280057340860367,-0.012255989946424961
1761378699409384000,4.563384033203125,-0.005053493659943342,-0.020146606490015984,-0.01445651613175869
1761378699419440000,4.573440185546875,-0.014299456030130386,-0.006163679528981447,-0.015551874414086342
1761378699429496000,4.58349609375,-0.020918622612953186,0.006191229913383722,-0.016963638365268707
1761378699439552000,4.593552001953125,-0.019725261256098747,0.022035440430045128,-0.013511914759874344
1761378699449608000,4.60360791015625,-0.0106764305382967,0.020096303895115852,-0.012383580207824707
1761378699459662800,4.613662841796875,-0.004661947023123503,0.012515349313616753,-0.00767937209457159
1761378699469719000,4.623718994140625,0.0016730576753616333,0.0046267700381577015,-0.0035766332875937223
1761378699479775000,4.63377490234375,0.005731448996812105,-0.010276811197400093,-0.004003537818789482
1761378699489831000,4.643830810546875,0.010453147813677788,-0.023757880553603172,0.005912914872169495
1761378699499887000,4.65388720703125,0.015750974416732788,-0.039062269032001495,0.012834470719099045
1761378699509943000,4.663943115234375,0.013167889788746834,-0.04120916873216629,0.015962839126586914
1761378699519999000,4.6739990234375,0.0044068885035812855,-0.03668099641799927,0.01497374102473259
1761378699530055200,4.68405517578125,-0.0034607071429491043,-0.029099920764565468,0.011243892833590508
1761378699540111000,4.694111083984375,-0.0025999732315540314,-0.011510275304317474,0.006821713875979185
1761378699550166000,4.704166015625,-0.0011666659265756607,-0.004680922254920006,0.011016840115189552
1761378699560222000,4.714221923828125,-0.001150953583419323,-0.0010291959624737501,0.022471360862255096
1761378699570278000,4.72427783203125,0.0008578686974942684,-0.0018334705382585526,0.02574784867465496
1761378699580333800,4.734333740234375,0.004861931316554546,0.002029178198426962,0.026547862216830254
1761378699590390000,4.74439013671875,0.007195149548351765,0.005745599512010813,0.02338787168264389
1761378699600446000,4.754446044921875,0.0061288196593523026,-0.003137374296784401,0.013252681121230125
1761378699610501600,4.764501708984375,0.006190120242536068,-0.010722360573709011,0.007557212375104427
1761378699620557600,4.7745576171875,0.0008547431789338589,-0.012348753400146961,-0.0010754242539405823
1761378699630613500,4.784613525390625,0.0013594729825854301,-0.008215630427002907,-0.011739013716578484
1761378699640669700,4.794669677734375,0.0012438916601240635,-0.00375270564109087,-0.014637598767876625
1761378699650724600,4.804724609375,0.0017379643395543098,-0.007432837039232254,-0.019110333174467087
1761378699660780500,4.814780517578125,0.0009752348996698856,-0.0045944396406412125,-0.01422636117786169
1761378699670836500,4.82483642578125,0.002663934137672186,0.0003892672248184681,-0.005375958047807217
1761378699680892400,4.834892333984375,0.003928935620933771,0.011012351140379906,0.0020630499348044395
1761378699690948600,4.844948486328125,0.005480806343257427,0.016253165900707245,0.010591569356620312
1761378699701004500,4.855004638671875,0.005140720866620541,0.007204276043921709,0.015285390429198742
1761378699711060500,4.865060546875,0.010250231251120567,0.007296364288777113,0.01615220122039318
1761378699721116400,4.875116455078125,0.02157532423734665,0.011053020134568214,0.014197973534464836
1761378699731172600,4.885172607421875,0.028048725798726082,0.006516948342323303,0.010712208226323128
1761378699741228500,4.895228515625,0.024954132735729218,-0.0002655908465385437,0.008410705253481865
1761378699751283700,4.90528369140625,0.01522442139685154,-0.004820899572223425,0.008021107874810696
1761378699761339400,4.91533935546875,0.0010023429058492184,-0.00022082123905420303,0.010041647590696812
1761378699771395300,4.925395263671875,-0.005248759873211384,0.0051261684857308865,0.01009645126760006
1761378699781451500,4.935451416015625,-0.008686368353664875,0.0014390219002962112,0.00926208309829235
1761378699791507500,4.945507568359375,-0.0046583302319049835,0.0002193516120314598,-0.0014868159778416157
1761378699801563400,4.9555634765625,0.006634004879742861,0.0025024795904755592,-0.010863273404538631
1761378699811619600,4.96561962890625,0.017118269577622414,0.0021842941641807556,-0.022775674238801003
1761378699821675500,4.975675537109375,0.016174711287021637,0.005767310503870249,-0.029158739373087883
1761378699831731500,4.9857314453125,0.011511415243148804,0.015159412287175655,-0.023726213723421097
1761378699841787600,4.99578759765625,0.0002590264193713665,0.010095145553350449,-0.010349688120186329
1761378699851842600,5.005842529296875,-0.002626327332109213,0.012566430494189262,0.012861045077443123
1761378699861898500,5.0158984375,-0.003210891503840685,0.0054504647850990295,0.0329950749874115
1761378699871954400,5.025954345703125,-0.007159407716244459,-0.007165645249187946,0.04357998073101044
1761378699882010400,5.03601025390625,0.0011413991451263428,-0.022761382162570953,0.03992612659931183
1761378699892066600,5.046066650390625,0.005975325591862202,-0.027255220338702202,0.03076177090406418
1761378699902122500,5.05612255859375,0.0086704446002841,-0.02880251780152321,0.016169779002666473
1761378699912178400,5.066178466796875,0.013924499042332172,-0.02235047146677971,0.0033968640491366386
1761378699922234600,5.076234619140625,0.011430714279413223,-0.007946763187646866,-0.005689042620360851
1761378699932290600,5.08629052734375,0.0049392543733119965,-0.0013043631333857775,-0.008227984420955181
1761378699942346500,5.096346435546875,-0.0006027836352586746,0.002968945074826479,-0.002921635750681162
1761378699952402700,5.106402587890625,-0.006091117858886719,0.0009109168313443661,0.005604763515293598
1761378699962457600,5.11645751953125,-0.011497867293655872,0.0032579610124230385,0.01684143953025341
1761378699972513500,5.126513427734375,-0.013329129666090012,0.007051886525005102,0.02428123541176319
1761378699982569500,5.136569580078125,-0.01632172428071499,0.007649499457329512,0.024840231984853745
1761378699992625400,5.14662548828125,-0.012383028864860535,0.0031487843953073025,0.01602545753121376
1761378700002681600,5.156681640625,-0.0035788845270872116,0.0023884521797299385,0.011389694176614285
1761378700012737500,5.166737548828125,0.0007562148384749889,-0.0019343341700732708,0.00442487932741642
1761378700022793500,5.17679345703125,0.004658811260014772,-0.005961566232144833,0.003155350685119629
1761378700032849700,5.186849609375,0.00899521354585886,-0.015440534800291061,0.0013176528736948967
1761378700042905600,5.196905517578125,0.009344886988401413,-0.010086249560117722,0.007773421239107847
1761378700052961500,5.20696142578125,0.005931190215051174,-0.009893793612718582,0.010991539806127548
1761378700063016700,5.2170166015625,-0.003352855332195759,0.005055861081928015,0.01767287775874138
1761378700073072400,5.227072265625,-0.017077134922146797,0.01772187650203705,0.02731896936893463
1761378700083128600,5.237128662109375,-0.02160158008337021,0.010258634574711323,0.03013712540268898
1761378700093184500,5.2471845703125,-0.008776608854532242,0.01671614870429039,0.02859431877732277
1761378700103240400,5.257240478515625,-0.000002559274435043335,0.004199556540697813,0.01854647696018219
1761378700113296400,5.26729638671875,0.010123182088136673,-0.006044663488864899,0.007537443190813065
1761378700123352600,5.2773525390625,0.021029625087976456,-0.010354457423090935,-0.004331200383603573
1761378700133408500,5.287408447265625,0.027258504182100296,-0.008778265677392483,-0.02225286141037941
1761378700143464400,5.29746435546875,0.029783979058265686,-0.006813385523855686,-0.03638758882880211
1761378700153520600,5.307520751953125,0.027214545756578445,-0.0035727745853364468,-0.04998112842440605
1761378700163576600,5.31757666015625,0.01597840152680874,-0.009138248860836029,-0.058729078620672226
1761378700173631500,5.327631591796875,0.01077443826943636,-0.013157784938812256,-0.05231194943189621
1761378700183687400,5.3376875,0.005175407975912094,-0.0065169259905815125,-0.038742877542972565
1761378700193743400,5.347743408203125,-0.00257707666605711,-0.008708953857421875,-0.01819217950105667
1761378700203799600,5.357799560546875,-0.003244197927415371,-0.009021341800689697,0.012762540951371193
1761378700213855500,5.36785546875,0.0023406939581036568,-0.012467718683183193,0.035117797553539276
1761378700223911400,5.377911376953125,0.00877116248011589,-0.019649730995297432,0.04977477341890335
1761378700233967600,5.387967529296875,0.008921354077756405,-0.0194807518273592,0.05466771498322487
1761378700244023600,5.3980234375,0.00913440715521574,-0.01756673865020275,0.046878501772880554
1761378700254079500,5.40807958984375,-0.00028156163170933723,-0.017467129975557327,0.037077680230140686
1761378700264135700,5.4181357421875,-0.0068720863200724125,-0.013128307648003101,0.023211129009723663
1761378700274190300,5.4281904296875,-0.010615289211273193,-0.011975795030593872,0.01662347838282585
1761378700284246500,5.43824658203125,-0.005360606126487255,-0.006832166109234095,0.0026586600579321384
1761378700294302500,5.448302490234375,0.002277469728142023,0.0011164085008203983,-0.0058812410570681095
1761378700304358400,5.4583583984375,0.016605542972683907,0.007174833677709103,-0.009048271924257278
1761378700314414600,5.46841455078125,0.022878674790263176,0.005083810072392225,-0.0071275546215474606
1761378700324470500,5.478470458984375,0.02483663149178028,0.006430037785321474,0.00023608561605215073
1761378700334526500,5.4885263671875,0.017937390133738518,0.015229297801852226,0.009454037994146347
1761378700344582700,5.498582763671875,-0.0036105127073824406,0.01026090420782566,0.025824489071965218
1761378700354638600,5.508638671875,-0.017788706347346306,0.002051885239779949,0.041707802563905716
1761378700364694500,5.518694580078125,-0.01498785987496376,-0.006763710640370846,0.048986755311489105
1761378700374749400,5.52874951171875,-0.00665676686912775,-0.013483943417668343,0.04987863823771477
1761378700384805400,5.538805419921875,0.0036595205310732126,-0.012839991599321365,0.04250354692339897
1761378700394861600,5.548861572265625,0.006530464626848698,-0.013105949386954308,0.029567550867795944
1761378700404917500,5.55891748046875,0.00972918700426817,-0.004911403637379408,0.014942004345357418
1761378700414973400,5.568973388671875,-0.004964085295796394,0.00012056762352585793,0.005151262506842613
1761378700425029600,5.579029541015625,-0.014729896560311317,0.004758728668093681,0.00023480085656046867
1761378700435085600,5.58908544921875,-0.015378279611468315,0.009683173149824142,-0.005389401689171791
1761378700445141500,5.5991416015625,-0.008507590740919113,0.0123178381472826,-0.001868436112999916
1761378700455197700,5.60919775390625,-0.008128026500344276,0.0191228985786438,0.003052485641092062
1761378700465253600,5.619253662109375,-0.008517912589013577,0.013650367967784405,0.014615131542086601
1761378700475309600,5.6293095703125,-0.004920585080981255,0.018698450177907944,0.01962445303797722
1761378700485364500,5.639364501953125,-0.008442615158855915,0.027657054364681244,0.010543341748416424
1761378700495420400,5.64942041015625,-0.015580056235194206,0.02792576514184475,-0.0039657000452280045
1761378700505476400,5.659476318359375,-0.012433797121047974,0.03386887162923813,-0.01718882843852043
1761378700515532500,5.669532470703125,-0.006790190935134888,0.030670469626784325,-0.029879573732614517
1761378700525588500,5.67958837890625,-0.0007054004818201065,0.012820897623896599,-0.04222758859395981
1761378700535644400,5.68964453125,0.00419452553614974,-0.006528546568006277,-0.04016268998384476
1761378700545700600,5.69970068359375,0.009955475106835365,-0.01444559171795845,-0.032090649008750916
1761378700555756500,5.709756591796875,0.008849075995385647,-0.007789064198732376,-0.008630765601992607
1761378700565812500,5.7198125,0.009644296020269394,0.004927795846015215,0.014256706461310387
1761378700575868700,5.72986865234375,0.013910723850131035,0.014284519478678703,0.023644357919692993
1761378700585923300,5.73992333984375,0.01845407672226429,0.02822110615670681,0.020939648151397705
1761378700595979500,5.7499794921875,0.01879199780523777,0.037958044558763504,0.012355552986264229
1761378700606035500,5.760035400390625,0.019124360755085945,0.05264325067400932,-0.0019213869236409664
1761378700616092000,5.770091796875,0.012180207297205925,0.06587214022874832,-0.008687598630785942
1761378700626148000,5.780148193359375,0.007415013387799263,0.057707950472831726,-0.01913278177380562
1761378700636204000,5.7902041015625,0.005604846403002739,0.06692762672901154,-0.00837650615721941
1761378700646260000,5.800260009765625,-0.00035903649404644966,0.02542652189731598,0.013944512233138084
1761378700656316000,5.81031591796875,0.007676932029426098,-0.01554112508893013,0.021588072180747986
1761378700666371800,5.820371826171875,0.019252894446253777,-0.017722519114613533,0.022444812580943108
1761378700676427800,5.830427734375,0.012095626443624496,-0.007805952802300453,0.029195278882980347
1761378700686484000,5.84048388671875,0.005251569207757711,0.00831096526235342,0.03288588672876358
1761378700696539000,5.850538818359375,-0.0005058897659182549,0.009018871933221817,0.01947740465402603
1761378700706595000,5.860594970703125,-0.0024057887494564056,0.015431230887770653,-0.008948644623160362
1761378700716651000,5.870651123046875,-0.003223198466002941,0.016642307862639427,-0.03114374354481697
1761378700726707000,5.88070703125,-0.000851120799779892,0.014964781701564789,-0.04647849500179291
1761378700736763000,5.890762939453125,0.003516572993248701,0.023090729489922523,-0.0462450310587883
1761378700746819000,5.900819091796875,0.0023607611656188965,0.00838582031428814,-0.04097357019782066
