time,seconds_elapsed,z,y,x
1761378972299129300,0.11512939453125,-0.06922533363103867,-0.0003372351638972759,-0.038497574627399445
1761378972309184300,0.125184326171875,-0.060470759868621826,-0.05659576505422592,-0.08088825643062592
1761378972319240200,0.135240234375,-0.051985662430524826,-0.09990489482879639,-0.1309434324502945
1761378972329295000,0.145295166015625,-0.043666064739227295,-0.127401202917099,-0.17088282108306885
1761378972339351300,0.155351318359375,-0.03489574044942856,-0.12134277820587158,-0.1752661168575287
1761378972349406200,0.16540625,-0.04738078638911247,-0.09679196774959564,-0.1394468992948532
1761378972359462100,0.175462158203125,-0.06926131993532181,-0.04931872338056564,-0.08082008361816406
1761378972369517000,0.18551708984375,-0.09775972366333008,-0.009105738252401352,-0.014711499214172363
1761378972379573000,0.195572998046875,-0.1089111715555191,0.014230477623641491,0.02893052063882351
1761378972389629200,0.205629150390625,-0.10669010132551193,0.0026015182957053185,0.04049716144800186
1761378972399684000,0.21568408203125,-0.09806279093027115,-0.0382620245218277,0.024888640269637108
1761378972409740300,0.225740234375,-0.06830592453479767,-0.09347309172153473,-0.016572030261158943
1761378972419795200,0.235795166015625,-0.015897579491138458,-0.14658531546592712,-0.05487467721104622
1761378972429851400,0.245851318359375,0.029045600444078445,-0.16733881831169128,-0.06847934424877167
1761378972439906000,0.255906005859375,0.04267219826579094,-0.17119480669498444,-0.05988239869475365
1761378972449962200,0.265962158203125,0.025490377098321915,-0.16379056870937347,-0.057133227586746216
1761378972460017200,0.27601708984375,-0.00880527589470148,-0.12547487020492554,-0.062357015907764435
1761378972470073300,0.2860732421875,-0.031104810535907745,-0.09269727021455765,-0.08431704342365265
1761378972480128300,0.296128173828125,-0.033945340663194656,-0.0693269670009613,-0.10898937284946442
1761378972490184200,0.30618408203125,-0.03465792164206505,-0.06235695630311966,-0.1325945407152176
1761378972500239000,0.316239013671875,-0.02817472070455551,-0.06744305789470673,-0.14504562318325043
1761378972510295000,0.326294921875,-0.004849660210311413,-0.0725475549697876,-0.13561701774597168
1761378972520350200,0.33635009765625,0.020338784903287888,-0.09420011937618256,-0.1241592988371849
1761378972530406100,0.34640625,0.031876858323812485,-0.1158202737569809,-0.11175059527158737
1761378972540461300,0.35646142578125,0.038383759558200836,-0.1422758549451828,-0.1018148735165596
1761378972550517000,0.36651708984375,0.03508823737502098,-0.16557568311691284,-0.10582287609577179
1761378972560572200,0.376572265625,0.005888273939490318,-0.17002849280834198,-0.10820294171571732
1761378972570628000,0.386628173828125,-0.017468489706516266,-0.16242267191410065,-0.11667812615633011
1761378972580683300,0.396683349609375,-0.01541572529822588,-0.1604575216770172,-0.10879995673894882
1761378972590739200,0.4067392578125,0.0010215812362730503,-0.16625940799713135,-0.08512620627880096
1761378972600794400,0.41679443359375,0.017830921337008476,-0.16221220791339874,-0.04514789208769798
1761378972610850000,0.42685009765625,0.04136855527758598,-0.1553097665309906,-0.001222375314682722
1761378972620905200,0.4369052734375,0.06388425081968307,-0.15410734713077545,0.02813897654414177
1761378972630961200,0.446961181640625,0.07842189073562622,-0.17853176593780518,0.03620306774973869
1761378972641016300,0.457016357421875,0.08770620077848434,-0.2045324742794037,0.030024267733097076
1761378972651072300,0.467072265625,0.0867467075586319,-0.2269582599401474,0.027131211012601852
1761378972661127200,0.477127197265625,0.0890926867723465,-0.23543936014175415,0.01928980089724064
1761378972671183000,0.48718310546875,0.08500231802463531,-0.2444785237312317,-0.0010308939963579178
1761378972681238300,0.49723828125,0.08692964911460876,-0.2616695165634155,-0.036694083362817764
1761378972691294200,0.507294189453125,0.08829233050346375,-0.2902500331401825,-0.07878365367650986
1761378972701349400,0.517349365234375,0.08350209891796112,-0.3275103271007538,-0.10620488971471786
1761378972711405300,0.5274052734375,0.06499112397432327,-0.35456573963165283,-0.09483058005571365
1761378972721460200,0.537460205078125,0.023369913920760155,-0.3442310690879822,-0.06586497277021408
1761378972731516200,0.54751611328125,-0.022419065237045288,-0.31290921568870544,-0.03786248713731766
1761378972741571000,0.557571044921875,-0.06981880217790604,-0.28618094325065613,-0.008239880204200745
1761378972751627300,0.567627197265625,-0.1033291220664978,-0.2864452302455902,0.023478930816054344
1761378972761682200,0.57768212890625,-0.11731123924255371,-0.2795947790145874,0.05009349808096886
1761378972771738400,0.58773828125,-0.12488185614347458,-0.2741285562515259,0.07013863325119019
1761378972781793000,0.59779296875,-0.11495038866996765,-0.27509742975234985,0.07493871450424194
1761378972791849200,0.60784912109375,-0.08484755456447601,-0.27545425295829773,0.05309751629829407
1761378972801904000,0.617904052734375,-0.059893734753131866,-0.2937970459461212,0.009757230058312416
1761378972811960300,0.627960205078125,-0.05126439034938812,-0.2759969234466553,-0.001315129455178976
1761378972822015200,0.63801513671875,-0.05565034598112106,-0.2467261254787445,0.01940053515136242
1761378972832070100,0.648070068359375,-0.08216548711061478,-0.22448161244392395,0.03946239501237869
1761378972842126000,0.6581259765625,-0.09903953969478607,-0.20897509157657623,0.05869095027446747
1761378972852181200,0.66818115234375,-0.09606650471687317,-0.20748083293437958,0.06303846836090088
1761378972862237200,0.6782373046875,-0.09142515063285828,-0.20677509903907776,0.06281290203332901
1761378972872292400,0.688292236328125,-0.08235736191272736,-0.19515766203403473,0.08316279202699661
1761378972882348300,0.698348388671875,-0.07370927929878235,-0.16367509961128235,0.10913500934839249
1761378972892406800,0.70840673828125,-0.07260455936193466,-0.13003434240818024,0.10800428688526154
1761378972902462700,0.718462646484375,-0.07425198704004288,-0.12016067653894424,0.06779853999614716
1761378972912518000,0.728517822265625,-0.07806065678596497,-0.13466811180114746,0.00917011871933937
1761378972922573800,0.73857373046875,-0.08619581162929535,-0.15194377303123474,-0.03791004419326782
1761378972932629000,0.74862890625,-0.11206661909818649,-0.1528131067752838,-0.06895814836025238
1761378972942685000,0.758684814453125,-0.14756469428539276,-0.17434316873550415,-0.08782478421926498
1761378972952739800,0.76873974609375,-0.16963183879852295,-0.19257695972919464,-0.10953430831432343
1761378972962795800,0.778795654296875,-0.18122485280036926,-0.21394777297973633,-0.1441359519958496
1761378972972850700,0.7888505859375,-0.20910722017288208,-0.20203931629657745,-0.1872122436761856
1761378972982907000,0.798906982421875,-0.23301894962787628,-0.19023433327674866,-0.23481731116771698
1761378972992961800,0.8089619140625,-0.22027838230133057,-0.2138238102197647,-0.2760390341281891
1761378973003018000,0.81901806640625,-0.16699545085430145,-0.27633512020111084,-0.27503129839897156
1761378973013072600,0.82907275390625,-0.10738011449575424,-0.3119274377822876,-0.2045232504606247
1761378973023128800,0.83912890625,-0.07408687472343445,-0.32584699988365173,-0.07530055940151215
1761378973033183700,0.849183837890625,-0.06023910641670227,-0.3006347417831421,0.07809814065694809
1761378973043240000,0.859239990234375,-0.06640112400054932,-0.22924336791038513,0.21943342685699463
1761378973053294800,0.869294921875,-0.08806288242340088,-0.1694164276123047,0.30463483929634094
1761378973063351000,0.87935107421875,-0.10937429219484329,-0.15749292075634003,0.3140661418437958
1761378973073405700,0.88940576171875,-0.12235797941684723,-0.1703886240720749,0.25616830587387085
1761378973083462000,0.8994619140625,-0.14358045160770416,-0.19758856296539307,0.15847450494766235
1761378973093516800,0.909516845703125,-0.1659986674785614,-0.23220092058181763,0.028710676357150078
1761378973103572700,0.91957275390625,-0.15955063700675964,-0.2654488980770111,-0.08299028873443604
1761378973113628000,0.9296279296875,-0.12741217017173767,-0.26252564787864685,-0.13262225687503815
1761378973123683800,0.939683837890625,-0.08543355762958527,-0.2443264126777649,-0.11881270259618759
1761378973133738800,0.94973876953125,-0.02514001727104187,-0.22537803649902344,-0.07127024978399277
1761378973143794700,0.959794677734375,0.03910448029637337,-0.1632843017578125,-0.018364952877163887
1761378973153849900,0.969849853515625,0.08735086768865585,-0.11962591856718063,0.0141984224319458
1761378973163905800,0.97990576171875,0.11165754497051239,-0.038214683532714844,0.03013025037944317
1761378973173961000,0.9899609375,0.11460060626268387,0.01599162071943283,0.02162223309278488
1761378973184016600,1.0000166015625,0.11217287182807922,0.030693069100379944,-0.0017691110260784626
1761378973194071800,1.01007177734375,0.09346164762973785,-0.027400372549891472,-0.03969687968492508
1761378973204126700,1.020126708984375,0.052203692495822906,-0.10228873044252396,-0.09139682352542877
1761378973214183000,1.030182861328125,-0.000049727968871593475,-0.18150080740451813,-0.15665282309055328
1761378973224237800,1.04023779296875,-0.040712203830480576,-0.23805169761180878,-0.21679125726222992
1761378973234294000,1.0502939453125,-0.08722347021102905,-0.25081074237823486,-0.25741690397262573
1761378973244348700,1.0603486328125,-0.13455849885940552,-0.2510690689086914,-0.260943204164505
1761378973254404900,1.07040478515625,-0.17833279073238373,-0.21340031921863556,-0.22845037281513214
1761378973264459800,1.080459716796875,-0.19763405621051788,-0.16588978469371796,-0.16253633797168732
1761378973274516000,1.090515869140625,-0.18634039163589478,-0.10651365667581558,-0.07765056937932968
1761378973284571000,1.10057080078125,-0.14123736321926117,-0.03281174227595329,-0.01138686016201973
1761378973294626800,1.110626708984375,-0.07634750008583069,0.026109829545021057,0.02906082570552826
1761378973304681700,1.120681640625,-0.016693489626049995,0.05332440510392189,0.041557442396879196
1761378973314738000,1.130738037109375,0.028072383254766464,0.0429130420088768,0.04137954115867615
1761378973324792800,1.140792724609375,0.06495290249586105,0.013304019346833229,0.036967482417821884
1761378973334848800,1.150848876953125,0.09113706648349762,-0.013338152319192886,0.018319016322493553
1761378973344903700,1.160903564453125,0.09893161058425903,-0.037834443151950836,-0.007571968715637922
1761378973354959600,1.170959716796875,0.09308433532714844,-0.057645659893751144,-0.022509705275297165
1761378973365014800,1.181014892578125,0.07530533522367477,-0.07470481097698212,-0.008144080638885498
1761378973375070700,1.19107080078125,0.058762021362781525,-0.08351818472146988,0.02836684137582779
1761378973385126000,1.2011259765625,0.039679139852523804,-0.08098898082971573,0.06807111203670502
1761378973395180800,1.211180908203125,0.030220039188861847,-0.06900915503501892,0.09374330192804337
1761378973405236700,1.22123681640625,0.016787322238087654,-0.05371222272515297,0.08174150437116623
1761378973415292000,1.2312919921875,0.016464030370116234,-0.04820102080702782,0.04040483385324478
1761378973425347800,1.241347900390625,0.008565627038478851,0.005692037288099527,-0.019339190796017647
1761378973435402800,1.25140283203125,0.015040119178593159,0.002703641075640917,-0.0875825583934784
1761378973445459000,1.261458984375,0.048510193824768066,0.019881563261151314,-0.1294301450252533
1761378973455513600,1.271513671875,0.0861176922917366,0.05058526620268822,-0.14143143594264984
1761378973465569800,1.28156982421875,0.11661382019519806,0.07881557196378708,-0.1281702220439911
1761378973475624700,1.291624755859375,0.13401439785957336,0.11062508076429367,-0.08902392536401749
1761378973485681000,1.301680908203125,0.1504458487033844,0.12518563866615295,-0.03741506487131119
1761378973495735800,1.31173583984375,0.16242793202400208,0.13902263343334198,0.01104275044053793
1761378973505792000,1.3217919921875,0.15792080760002136,0.1672540009021759,0.05324852839112282
1761378973515846700,1.3318466796875,0.12922486662864685,0.18225480616092682,0.070707306265831
1761378973525901800,1.34190185546875,0.09130037575960159,0.19886919856071472,0.07117415964603424
1761378973535957800,1.351957763671875,0.04855253919959068,0.21904659271240234,0.06286260485649109
1761378973546013000,1.362012939453125,0.019183464348316193,0.23000788688659668,0.06015550345182419
1761378973556068900,1.37206884765625,0.013885283842682838,0.23386463522911072,0.06103144586086273
1761378973566123800,1.382123779296875,0.013998735696077347,0.22994525730609894,0.06311057507991791
1761378973576179700,1.3921796875,0.02246289886534214,0.21987096965312958,0.08057396858930588
1761378973586235000,1.40223486328125,0.035308122634887695,0.2296772599220276,0.12459389865398407
1761378973596290800,1.412290771484375,0.05473329499363899,0.25533169507980347,0.16861633956432343
1761378973606346000,1.422345947265625,0.08053027093410492,0.30007627606391907,0.2017417997121811
1761378973616402000,1.43240185546875,0.09058365970849991,0.35617080330848694,0.21636249125003815
1761378973626456800,1.442456787109375,0.10072577744722366,0.3915144205093384,0.22332985699176788
1761378973636512800,1.4525126953125,0.12949557602405548,0.4021199643611908,0.2046276181936264
1761378973646568000,1.46256787109375,0.1656634360551834,0.361416220664978,0.16170065104961395
1761378973656623900,1.472623779296875,0.2119636982679367,0.3019590973854065,0.09822507202625275
1761378973666678800,1.4826787109375,0.24515627324581146,0.25795942544937134,0.0023209163919091225
1761378973676733700,1.492733642578125,0.24523097276687622,0.2220020592212677,-0.11411413550376892
1761378973686789600,1.50278955078125,0.23518046736717224,0.250222772359848,-0.21871697902679443
1761378973696844800,1.5128447265625,0.19573384523391724,0.27779537439346313,-0.2745797634124756
1761378973706900700,1.522900634765625,0.1416623592376709,0.281729131937027,-0.24746134877204895
1761378973716956000,1.532955810546875,0.10585223138332367,0.26965659856796265,-0.15923984348773956
1761378973727011800,1.54301171875,0.09264402091503143,0.22534902393817902,-0.032386548817157745
1761378973737066800,1.553066650390625,0.09362483769655228,0.19375178217887878,0.11917053908109665
1761378973747122700,1.563122802734375,0.09249352663755417,0.1787528544664383,0.2615511119365692
1761378973757177900,1.573177734375,0.08678411692380905,0.17255663871765137,0.3489033877849579
1761378973767233800,1.58323388671875,0.08749224990606308,0.1489138901233673,0.3430958390235901
1761378973777289000,1.5932890625,0.10458658635616302,0.13741005957126617,0.24966369569301605
1761378973787343600,1.603343505859375,0.1178445965051651,0.14184236526489258,0.10991324484348297
1761378973797399800,1.61339990234375,0.11902784556150436,0.16830314695835114,-0.013997627422213554
1761378973807454700,1.623454833984375,0.12213069200515747,0.1908089816570282,-0.0748966708779335
1761378973817511000,1.633510986328125,0.12691691517829895,0.22169746458530426,-0.05680714547634125
1761378973827565800,1.64356591796875,0.1170099526643753,0.2054966539144516,0.0085518853738904
1761378973837622000,1.6536220703125,0.1131439357995987,0.18337197601795197,0.09274120628833771
1761378973847676700,1.6636767578125,0.09708534181118011,0.16681429743766785,0.17048554122447968
1761378973857732900,1.67373291015625,0.06375467777252197,0.15958991646766663,0.19521011412143707
1761378973867787800,1.683787841796875,0.026770830154418945,0.17184312641620636,0.1607821136713028
1761378973877844000,1.693843994140625,-0.0005589020438492298,0.17726978659629822,0.07038233429193497
1761378973887895600,1.7038955078125,0.0022584558464586735,0.17376933991909027,-0.04331626743078232
1761378973897950700,1.71395068359375,0.045025985687971115,0.15390267968177795,-0.13501638174057007
1761378973908006700,1.724006591796875,0.10968806594610214,0.11168970912694931,-0.18539778888225555
1761378973918061800,1.734061767578125,0.1766773909330368,0.07849714159965515,-0.19680196046829224
1761378973928117800,1.74411767578125,0.21815906465053558,0.0540115050971508,-0.17973536252975464
1761378973938172700,1.754172607421875,0.22703993320465088,0.05181431770324707,-0.13937626779079437
1761378973948228600,1.764228515625,0.21677318215370178,0.0753374844789505,-0.09394486993551254
1761378973958283800,1.77428369140625,0.1752270609140396,0.11132344603538513,-0.05014253035187721
1761378973968339700,1.784339599609375,0.11140520870685577,0.17335139214992523,-0.012630574405193329
1761378973978394600,1.79439453125,0.05180688947439194,0.2324979156255722,0.014283823780715466
1761378973988450800,1.804450927734375,0.007638894487172365,0.2787056267261505,0.02583714947104454
1761378973998505500,1.81450537109375,-0.008057119324803352,0.29410412907600403,0.01979012042284012
1761378974008560600,1.824560546875,-0.00022849161177873611,0.2843438982963562,0.007187508977949619
1761378974018616600,1.834616455078125,0.01944195106625557,0.24811208248138428,0.0027711051516234875
1761378974028671700,1.844671630859375,0.03762468323111534,0.1950424760580063,-0.010515671223402023
1761378974038727700,1.854727783203125,0.05421378090977669,0.14118589460849762,-0.033038824796676636
1761378974048782600,1.864782470703125,0.06035343185067177,0.09610524773597717,-0.06412270665168762
1761378974058838500,1.874838623046875,0.0646742507815361,0.06664807349443436,-0.09485574811697006
1761378974068893700,1.884893798828125,0.0556943379342556,0.04194192588329315,-0.12478435784578323
1761378974078949600,1.89494970703125,0.03494050353765488,0.04053670912981033,-0.13763397932052612
1761378974089004800,1.9050048828125,0.01185329258441925,0.05562485009431839,-0.14725784957408905
1761378974099060700,1.915060791015625,-0.018131522461771965,0.08370716869831085,-0.17395785450935364
1761378974109115600,1.92511572265625,-0.037390172481536865,0.10318712890148163,-0.18640360236167908
1761378974119170600,1.935170654296875,-0.049091193825006485,0.11222115159034729,-0.19250908493995667
1761378974129226800,1.945226806640625,-0.038150396198034286,0.11429096013307571,-0.17861297726631165
1761378974139281700,1.95528173828125,-0.01384823303669691,0.13087917864322662,-0.1536645144224167
1761378974149337900,1.965337890625,0.02654898911714554,0.14362026751041412,-0.11015672236680984
1761378974159392500,1.975392578125,0.05726144090294838,0.16551432013511658,-0.046098511666059494
1761378974169448700,1.98544873046875,0.06682351976633072,0.16215872764587402,0.018535610288381577
1761378974179503600,1.995503662109375,0.07044075429439545,0.1287241131067276,0.06158555671572685
1761378974189559800,2.005559814453125,0.09857439249753952,0.050117723643779755,0.07259240001440048
1761378974199614700,2.01561474609375,0.11947644501924515,-0.032476991415023804,0.06564947217702866
1761378974209670700,2.025670654296875,0.13399332761764526,-0.1126093789935112,0.03789187967777252
1761378974219725600,2.0357255859375,0.13675513863563538,-0.16373443603515625,0.006718451622873545
1761378974229780700,2.04578076171875,0.12297648191452026,-0.19287021458148956,-0.010830714367330074
1761378974239836700,2.055836669921875,0.08555768430233002,-0.1987249255180359,-0.011992566287517548
1761378974249891800,2.065891845703125,0.025305796414613724,-0.18213236331939697,0.011888265609741211
1761378974259947800,2.07594775390625,-0.03350156173110008,-0.17377100884914398,0.04556656256318092
1761378974270002700,2.086002685546875,-0.069637730717659,-0.1705019772052765,0.07745897769927979
1761378974280058600,2.09605859375,-0.08075916022062302,-0.187125101685524,0.09509269893169403
1761378974290113800,2.10611376953125,-0.07158403843641281,-0.20555897057056427,0.10171091556549072
1761378974300169700,2.116169677734375,-0.053680215030908585,-0.20152468979358673,0.10837449133396149
1761378974310225000,2.126224853515625,-0.04115457087755203,-0.2062576562166214,0.11336125433444977
1761378974320280800,2.13628076171875,-0.02169395238161087,-0.22363434731960297,0.12322133034467697
1761378974330335700,2.146335693359375,-0.003527998924255371,-0.24944277107715607,0.14861218631267548
1761378974340390700,2.156390625,0.01111659873276949,-0.25299686193466187,0.19157060980796814
1761378974350446600,2.166446533203125,0.016607237979769707,-0.27022403478622437,0.24201861023902893
1761378974360501800,2.176501708984375,0.01147075928747654,-0.29703351855278015,0.2619855999946594
1761378974370557700,2.1865576171875,-0.0029156371019780636,-0.3341532051563263,0.2352333515882492
1761378974380612600,2.196612548828125,-0.042540043592453,-0.3750767707824707,0.16245372593402863
1761378974390668500,2.20666845703125,-0.0985492467880249,-0.4058077931404114,0.06390291452407837
1761378974400723700,2.2167236328125,-0.15928512811660767,-0.41430991888046265,-0.021244455128908157
1761378974410779600,2.226779541015625,-0.2028517723083496,-0.41210800409317017,-0.09978213906288147
1761378974420834800,2.236834716796875,-0.2267991304397583,-0.4116792380809784,-0.17201967537403107
1761378974430890800,2.246890869140625,-0.21545061469078064,-0.40589430928230286,-0.2360370010137558
1761378974440945700,2.256945556640625,-0.18976065516471863,-0.36324360966682434,-0.2685425281524658
1761378974451001600,2.267001708984375,-0.1644827276468277,-0.3153727650642395,-0.25188738107681274
1761378974461056800,2.277056884765625,-0.11672748625278473,-0.27290257811546326,-0.19353711605072021
1761378974471111700,2.287111572265625,-0.0552060641348362,-0.22547407448291779,-0.08779869973659515
1761378974481168000,2.29716796875,0.004767031874507666,-0.19442272186279297,0.03362499922513962
1761378974491222500,2.307222412109375,0.04968443885445595,-0.18277831375598907,0.1414707750082016
1761378974501278700,2.31727880859375,0.07599914073944092,-0.18265606462955475,0.21012760698795319
1761378974511333600,2.327333740234375,0.06862084567546844,-0.18424038589000702,0.22938306629657745
1761378974521389800,2.337389892578125,0.026911873370409012,-0.19418105483055115,0.19902296364307404
1761378974531444700,2.34744482421875,-0.03254586085677147,-0.19905997812747955,0.14420925080776215
1761378974541501000,2.3575009765625,-0.10506115108728409,-0.21101711690425873,0.07328376919031143
1761378974551555600,2.3675556640625,-0.17068755626678467,-0.22606077790260315,-0.001900994684547186
1761378974561611800,2.37761181640625,-0.21654260158538818,-0.21250493824481964,-0.06167334318161011
1761378974571666700,2.387666748046875,-0.22691507637500763,-0.1923522651195526,-0.09495753049850464
1761378974581722600,2.39772265625,-0.1958567500114441,-0.187441885471344,-0.10509047657251358
1761378974591777800,2.40777783203125,-0.10972478985786438,-0.18753641843795776,-0.08864785730838776
1761378974601833500,2.41783349609375,-0.002276371233165264,-0.18613432347774506,-0.05886290967464447
1761378974611888600,2.427888671875,0.09174520522356033,-0.18925394117832184,-0.026637597009539604
1761378974621944600,2.437944580078125,0.15705455839633942,-0.18921628594398499,0.010650862008333206
1761378974631999700,2.447999755859375,0.19617506861686707,-0.20464745163917542,0.019416656345129013
1761378974642055000,2.458054931640625,0.2241651713848114,-0.23369091749191284,-0.010736240074038506
1761378974652110800,2.46811083984375,0.2179056853055954,-0.273662805557251,-0.07090982794761658
1761378974662165800,2.478165771484375,0.15600667893886566,-0.28774353861808777,-0.14040401577949524
1761378974672221700,2.4882216796875,0.055430810898542404,-0.2715959846973419,-0.20067109167575836
1761378974682276600,2.498276611328125,-0.0681677833199501,-0.20789960026741028,-0.2507842779159546
1761378974692332800,2.508332763671875,-0.16680513322353363,-0.14003773033618927,-0.29035618901252747
1761378974702387700,2.5183876953125,-0.20047295093536377,-0.1085839793086052,-0.30475717782974243
1761378974712443600,2.528443603515625,-0.1804073601961136,-0.10697542876005173,-0.2827157974243164
1761378974722498600,2.53849853515625,-0.13365356624126434,-0.12181179970502853,-0.23995187878608704
1761378974732554800,2.5485546875,-0.07834477722644806,-0.11804609000682831,-0.19040988385677338
1761378974742609700,2.558609619140625,-0.03300338238477707,-0.09309539943933487,-0.1553143709897995
1761378974752665900,2.568665771484375,-0.008330528624355793,-0.05158471316099167,-0.14783993363380432
1761378974762720500,2.578720458984375,0.00791548378765583,-0.016088586300611496,-0.14653927087783813
1761378974772776700,2.588776611328125,0.014113725163042545,0.010211460292339325,-0.12805108726024628
1761378974782831600,2.59883154296875,0.01586264744400978,0.034029826521873474,-0.09476026892662048
1761378974792887800,2.6088876953125,0.019929293543100357,0.05514736473560333,-0.05441844463348389
1761378974802942700,2.618942626953125,0.03320368006825447,0.06210150942206383,-0.022286666557192802
1761378974812998700,2.62899853515625,0.0599074624478817,0.06570450216531754,0.004030159674584866
1761378974823053600,2.639053466796875,0.08177360892295837,0.05843087658286095,0.012346945703029633
1761378974833109500,2.649109619140625,0.08184392750263214,0.06015341356396675,0.004739092662930489
1761378974843164700,2.65916455078125,0.05649082735180855,0.06717661023139954,-0.016773033887147903
1761378974853220600,2.669220703125,0.02286256104707718,0.08515321463346481,-0.053133971989154816
1761378974863275800,2.67927587890625,0.024108881130814552,0.08959812670946121,-0.09389625489711761
1761378974873331700,2.689331787109375,0.07218985259532928,0.10759443789720535,-0.12725447118282318
1761378974883386600,2.69938671875,0.13320855796337128,0.12973053753376007,-0.13933871686458588
1761378974893441800,2.70944189453125,0.18946437537670135,0.11824966222047806,-0.14370577037334442
1761378974903496700,2.71949658203125,0.22482368350028992,0.10203969478607178,-0.1233406662940979
1761378974913552600,2.729552734375,0.22800669074058533,0.06559380143880844,-0.09434443712234497
1761378974923607800,2.73960791015625,0.19495296478271484,0.04869682714343071,-0.05998276174068451
1761378974933663000,2.7496630859375,0.14488446712493896,0.02636835165321827,-0.02779766172170639
1761378974943719000,2.759718994140625,0.10559644550085068,0.021330859512090683,0.0007911319844424725
1761378974953773800,2.76977392578125,0.08052544295787811,0.040718670934438705,0.020064694806933403
1761378974963829800,2.779829833984375,0.06507212668657303,0.07179374992847443,0.024436630308628082
1761378974973885000,2.789885009765625,0.05707012489438057,0.10114338248968124,0.026134397834539413
1761378974983940900,2.79994091796875,0.05153186619281769,0.13629475235939026,0.031207246705889702
1761378974993996000,2.80999609375,0.03354461118578911,0.15329530835151672,0.03060643933713436
1761378975004052000,2.820052001953125,0.013472974300384521,0.1526801735162735,0.029107488691806793
1761378975014106600,2.830106689453125,-0.0027062618173658848,0.14964629709720612,0.028560474514961243
1761378975024162800,2.840162841796875,-0.018328353762626648,0.142314150929451,0.026343513280153275
1761378975034217700,2.8502177734375,-0.032925937324762344,0.12852217257022858,0.021295491605997086
1761378975044274000,2.86027392578125,-0.04475589841604233,0.12218127399682999,0.022811392322182655
1761378975054328800,2.870328857421875,-0.05716516822576523,0.12399701029062271,0.02559972181916237
1761378975064385000,2.880385009765625,-0.07369118928909302,0.13656176626682281,0.048756103962659836
1761378975074439700,2.890439697265625,-0.09533070772886276,0.1436561644077301,0.06985659152269363
1761378975084496000,2.900495849609375,-0.11532571911811829,0.14924933016300201,0.07400872558355331
1761378975094550800,2.91055078125,-0.12792512774467468,0.15844149887561798,0.06459365040063858
1761378975104607000,2.92060693359375,-0.1397855430841446,0.16170144081115723,0.04184284433722496
1761378975114662000,2.930661865234375,-0.13841642439365387,0.1684080809354782,0.021425720304250717
1761378975124717800,2.9407177734375,-0.12561149895191193,0.18367595970630646,0.012031027115881443
1761378975134772700,2.950772705078125,-0.11782760918140411,0.19994254410266876,0.02077498286962509
1761378975144828700,2.96082861328125,-0.1239454597234726,0.21981455385684967,0.0593450628221035
1761378975154883800,2.9708837890625,-0.1284531205892563,0.2419787049293518,0.11949121206998825
1761378975164939800,2.980939697265625,-0.11709482967853546,0.27211418747901917,0.1321198046207428
1761378975174994700,2.99099462890625,-0.10410339385271072,0.2940532863140106,0.07940252125263214
1761378975185050600,3.001050537109375,-0.08650373667478561,0.28067824244499207,-0.004848277196288109
1761378975195105800,3.011105712890625,-0.06651405245065689,0.24753788113594055,-0.0775672197341919
1761378975205161700,3.02116162109375,-0.04094536229968071,0.2067129760980606,-0.1086983010172844
1761378975215217000,3.031216796875,-0.0148924570530653,0.16338655352592468,-0.12656676769256592
1761378975225272800,3.04127294921875,0.0036041049752384424,0.11954284459352493,-0.13707444071769714
1761378975235327700,3.05132763671875,0.011323276907205582,0.10236518830060959,-0.1444396823644638
1761378975245383700,3.0613837890625,0.008792631328105927,0.08905959129333496,-0.14385202527046204
1761378975255438800,3.07143896484375,-0.015414703637361526,0.09231238067150116,-0.14453858137130737
1761378975265494800,3.081494873046875,-0.049882907420396805,0.09703326225280762,-0.15293316543102264
1761378975275550000,3.091550048828125,-0.09153661131858826,0.11278612166643143,-0.16938059031963348
1761378975285606000,3.10160595703125,-0.12249923497438431,0.12838992476463318,-0.20428717136383057
1761378975295660800,3.111660888671875,-0.12942610681056976,0.13784389197826385,-0.22791767120361328
1761378975305716700,3.121716796875,-0.12308048456907272,0.1631823629140854,-0.22416184842586517
1761378975315772000,3.13177197265625,-0.11043526977300644,0.1824825555086136,-0.17727795243263245
1761378975325827800,3.141827880859375,-0.08220849186182022,0.21106958389282227,-0.11808962374925613
1761378975335883800,3.1518837890625,-0.04399959370493889,0.22834764420986176,-0.04496241360902786
1761378975345939000,3.16193896484375,-0.006829355843365192,0.22392790019512177,0.042477067559957504
1761378975355995000,3.171994873046875,0.03171776980161667,0.22202454507350922,0.11799073219299316
1761378975366049800,3.1820498046875,0.06627499312162399,0.19922210276126862,0.17184284329414368
1761378975376105700,3.192105712890625,0.07495956122875214,0.19237405061721802,0.20066623389720917
1761378975386161000,3.202160888671875,0.06112794950604439,0.20052728056907654,0.2041153758764267
1761378975396216800,3.212216796875,0.03996007889509201,0.19329120218753815,0.1770496666431427
1761378975406272000,3.22227197265625,0.037543367594480515,0.1865764558315277,0.12784866988658905
1761378975416327700,3.23232763671875,0.0484524741768837,0.16615720093250275,0.05362556129693985
1761378975426382800,3.2423828125,0.06504907459020615,0.13804815709590912,-0.02947218529880047
1761378975436438800,3.252438720703125,0.07880323380231857,0.1257518082857132,-0.10236795991659164
1761378975446494000,3.262493896484375,0.09872367233037949,0.11146434396505356,-0.13365022838115692
1761378975456550000,3.2725498046875,0.12137279659509659,0.09553651511669159,-0.13634508848190308
1761378975466604800,3.282604736328125,0.13881751894950867,0.07890451699495316,-0.13387441635131836
1761378975476660700,3.29266064453125,0.15037856996059418,0.05853533372282982,-0.14209319651126862
1761378975486716000,3.3027158203125,0.1476554125547409,0.044821903109550476,-0.15408289432525635
1761378975496771800,3.312771728515625,0.1248675286769867,0.047460030764341354,-0.16112561523914337
1761378975506826800,3.32282666015625,0.08271051943302155,0.05421226844191551,-0.1587771475315094
1761378975516883000,3.332883056640625,0.04251942038536072,0.060906119644641876,-0.13777732849121094
1761378975526937600,3.3429375,0.00850692205131054,0.05733537673950195,-0.10154005885124207
1761378975536993800,3.352993896484375,-0.0114334961399436,0.032914187759160995,-0.057415205985307693
1761378975547048700,3.363048583984375,-0.006903354544192553,0.00004176422953605652,-0.014596786350011826
1761378975557105000,3.37310498046875,0.011785644106566906,-0.020436879247426987,0.014490257948637009
1761378975567159800,3.383159912109375,0.03551998734474182,-0.027884945273399353,0.025717373937368393
1761378975577216000,3.393216064453125,0.05409713461995125,-0.010880395770072937,0.03249911591410637
1761378975587270700,3.403270751953125,0.06167948618531227,-0.011134514585137367,0.03996186703443527
1761378975597326800,3.413326904296875,0.06256338953971863,-0.025976311415433884,0.0457470528781414
1761378975607381800,3.4233818359375,0.06503794342279434,-0.05581118166446686,0.03899414464831352
1761378975617438000,3.43343798828125,0.05854302644729614,-0.09059685468673706,0.0229139793664217
1761378975627494000,3.443493896484375,0.05366984009742737,-0.11711811274290085,-0.0027903823647648096
1761378975637548800,3.453548828125,0.05500541627407074,-0.1456719934940338,-0.03468706086277962
1761378975647604700,3.463604736328125,0.05640030652284622,-0.1533076912164688,-0.06842494755983353
1761378975657659600,3.47365966796875,0.05679711699485779,-0.13932903110980988,-0.0933673083782196
1761378975667715800,3.4837158203125,0.06404711306095123,-0.12881046533584595,-0.09868894517421722
1761378975677770800,3.493770751953125,0.09224199503660202,-0.138072669506073,-0.08483864367008209
1761378975687827000,3.503826904296875,0.11338422447443008,-0.15416456758975983,-0.03922310099005699
1761378975697881900,3.5138818359375,0.10010091215372086,-0.1620539128780365,0.03153336048126221
1761378975707937800,3.523937744140625,0.06727546453475952,-0.17294348776340485,0.10632095485925674
1761378975717992700,3.53399267578125,0.040755175054073334,-0.19339336454868317,0.17214497923851013
1761378975728049000,3.544048828125,0.01679345592856407,-0.20241594314575195,0.21417739987373352
1761378975738103800,3.554103759765625,-0.01282462291419506,-0.22436943650245667,0.23940126597881317
1761378975748160000,3.564159912109375,-0.04998666048049927,-0.25746750831604004,0.24731649458408356
1761378975758214700,3.574214599609375,-0.08602721989154816,-0.27494528889656067,0.2472539097070694
1761378975768270800,3.584270751953125,-0.12380075454711914,-0.29896554350852966,0.2609066665172577
1761378975778325800,3.59432568359375,-0.14570046961307526,-0.33650413155555725,0.28333207964897156
1761378975788381700,3.604381591796875,-0.1537599116563797,-0.36343005299568176,0.3071591556072235
1761378975798436900,3.614436767578125,-0.14816780388355255,-0.3762347996234894,0.33130204677581787
1761378975808492800,3.624492919921875,-0.13395850360393524,-0.3734845519065857,0.3580217957496643
1761378975818549000,3.634549072265625,-0.1273924857378006,-0.3529433310031891,0.4007311761379242
1761378975828603600,3.644603759765625,-0.13241927325725555,-0.3072105944156647,0.4695385992527008
1761378975838659800,3.654659912109375,-0.11768214404582977,-0.275949627161026,0.5177599191665649
1761378975848714800,3.66471484375,-0.10803691297769547,-0.28737977147102356,0.49760690331459045
1761378975858771000,3.67477099609375,-0.09398101270198822,-0.3409556448459625,0.40333259105682373
1761378975868825900,3.684825927734375,-0.09190753847360611,-0.3891584575176239,0.2731057107448578
1761378975878882000,3.694882080078125,-0.09844134002923965,-0.43292272090911865,0.12301605939865112
1761378975888937200,3.704937255859375,-0.10668662190437317,-0.4704703986644745,-0.0205246452242136
1761378975898993200,3.7149931640625,-0.12352126836776733,-0.4633837342262268,-0.1532677710056305
1761378975909048000,3.725048095703125,-0.14688776433467865,-0.4486234188079834,-0.2524983584880829
1761378975919104000,3.73510400390625,-0.17255663871765137,-0.3939095735549927,-0.3223610520362854
1761378975929159200,3.7451591796875,-0.19678595662117004,-0.3398796319961548,-0.3684931695461273
1761378975939215000,3.755215087890625,-0.20067258179187775,-0.289344847202301,-0.39822763204574585
1761378975949271300,3.765271240234375,-0.17947499454021454,-0.22655414044857025,-0.39963585138320923
1761378975959326200,3.775326171875,-0.14385388791561127,-0.1836591362953186,-0.35316476225852966
1761378975969382400,3.78538232421875,-0.10367059707641602,-0.15877856314182281,-0.25096824765205383
1761378975979437000,3.79543701171875,-0.06435807794332504,-0.138162761926651,-0.1101759672164917
1761378975989493200,3.8054931640625,-0.0376441664993763,-0.1474202424287796,0.030322140082716942
1761378975999548200,3.815548095703125,-0.022782130166888237,-0.1450875848531723,0.13256780803203583
1761378976009604000,3.82560400390625,-0.01320527121424675,-0.17479585111141205,0.1966170370578766
1761378976019659300,3.8356591796875,-0.022444043308496475,-0.20376572012901306,0.22186939418315887
1761378976029715200,3.845715087890625,-0.059451669454574585,-0.2165476530790329,0.21818757057189941
1761378976039770000,3.85577001953125,-0.10618641972541809,-0.2290533185005188,0.19682715833187103
1761378976049826000,3.865825927734375,-0.13666649162769318,-0.2264588475227356,0.1716649830341339
1761378976059881200,3.875881103515625,-0.14567117393016815,-0.2259906679391861,0.1449529379606247
1761378976069937200,3.885937255859375,-0.12146563827991486,-0.2084965705871582,0.1058812215924263
1761378976079992300,3.895992431640625,-0.08078745007514954,-0.19771422445774078,0.06872133165597916
1761378976090048300,3.90604833984375,-0.035786017775535583,-0.18696899712085724,0.04400646686553955
1761378976100104200,3.916104248046875,0.011717848479747772,-0.1799510270357132,0.0330001562833786
1761378976110159000,3.9261591796875,0.045415427535772324,-0.1459047496318817,0.028853226453065872
1761378976120215300,3.93621533203125,0.04874331131577492,-0.11008788645267487,0.02439349703490734
1761378976130270200,3.946270263671875,0.03610428050160408,-0.06592687964439392,-0.0064924717880785465
1761378976140326100,3.956326171875,-0.0005996711552143097,-0.04806532710790634,-0.03732175752520561
1761378976150381000,3.966381103515625,-0.04846825823187828,-0.08587665110826492,-0.05807238444685936
1761378976160437000,3.97643701171875,-0.08886628597974777,-0.14529924094676971,-0.060020219534635544
1761378976170492200,3.9864921875,-0.11074261367321014,-0.21378815174102783,-0.033807173371315
1761378976180548000,3.996548095703125,-0.12086822092533112,-0.27121415734291077,-0.0010305843316018581
1761378976190604300,4.006604248046875,-0.1185908317565918,-0.28531399369239807,0.013773489743471146
1761378976200659200,4.0166591796875,-0.12542769312858582,-0.263875812292099,0.012642178684473038
1761378976210715400,4.02671533203125,-0.14150558412075043,-0.2120792269706726,-0.012214227579534054
1761378976220770000,4.03677001953125,-0.151884987950325,-0.14283065497875214,-0.04565900191664696
1761378976230825200,4.0468251953125,-0.1671128123998642,-0.07729113847017288,-0.06611122936010361
1761378976240880000,4.056880126953125,-0.17586396634578705,-0.029031192883849144,-0.06378070265054703
1761378976250936300,4.066936279296875,-0.18301528692245483,0.00021730689331889153,-0.02690998464822769
1761378976260991000,4.076990966796875,-0.17751212418079376,0.018950780853629112,0.01829824037849903
1761378976271047200,4.087047119140625,-0.15276284515857697,0.0207974873483181,0.06246023625135422
1761378976281102000,4.09710205078125,-0.11788581311702728,0.012625576928257942,0.09565121680498123
1761378976291158300,4.107158203125,-0.07340602576732635,-0.005433496553450823,0.10571780800819397
1761378976301214200,4.117214111328125,-0.029704617336392403,-0.019449446350336075,0.09838772565126419
1761378976311269400,4.127269287109375,-0.007544591557234526,-0.023164579644799232,0.07234114408493042
1761378976321325300,4.1373251953125,-0.008652999997138977,-0.022317960858345032,0.046124186366796494
1761378976331380200,4.147380126953125,-0.024991029873490334,-0.004626379813998938,0.025031637400388718
1761378976341436200,4.157436279296875,-0.05460458621382713,0.007638541981577873,0.014289512299001217
1761378976351491300,4.1674912109375,-0.07143563032150269,0.007412537932395935,0.008515715599060059
1761378976361547300,4.17754736328125,-0.06013796478509903,-0.005378358531743288,0.0146617591381073
1761378976371602200,4.187602294921875,-0.02807590179145336,-0.008473094552755356,0.044060397893190384
1761378976381658000,4.197658203125,-0.00007382780313491821,-0.004683150444179773,0.08496495336294174
1761378976391714000,4.207714111328125,0.022959785535931587,0.016361862421035767,0.12157593667507172
1761378976401769200,4.217769287109375,0.04694847762584686,0.040358275175094604,0.1452101469039917
1761378976411825200,4.2278251953125,0.052436716854572296,0.05662999302148819,0.15008999407291412
1761378976421880300,4.23788037109375,0.0419212244451046,0.08142908662557602,0.1431407481431961
1761378976431936300,4.247936279296875,0.021855972707271576,0.13251039385795593,0.11862704157829285
1761378976441991200,4.2579912109375,0.005773408338427544,0.1730378419160843,0.09857237339019775
1761378976452047000,4.268047119140625,0.009656771086156368,0.18715016543865204,0.0742676705121994
1761378976462102300,4.278102294921875,0.03769559785723686,0.196513831615448,0.06894294917583466
1761378976472158200,4.288158203125,0.06106648966670036,0.19626368582248688,0.08593886345624924
1761378976482213400,4.29821337890625,0.09041319042444229,0.18552687764167786,0.121709905564785
1761378976492269300,4.308269287109375,0.12123390287160873,0.16907095909118652,0.16417959332466125
1761378976502325200,4.3183251953125,0.13838066160678864,0.1611296832561493,0.20719949901103973
1761378976512380200,4.328380126953125,0.13989326357841492,0.162665456533432,0.24196435511112213
1761378976522436000,4.33843603515625,0.12428633868694305,0.18472149968147278,0.2892948389053345
1761378976532491300,4.3484912109375,0.1036255955696106,0.20464421808719635,0.315017431974411
1761378976542547200,4.358547119140625,0.09109915792942047,0.2106512486934662,0.26639822125434875
1761378976552602400,4.368602294921875,0.08652026206254959,0.21024012565612793,0.16514983773231506
1761378976562658300,4.378658203125,0.07734860479831696,0.20483897626399994,0.073698490858078
1761378976572713200,4.388713134765625,0.060225993394851685,0.20255745947360992,0.02450467087328434
1761378976582769200,4.39876904296875,0.05878602713346481,0.1858290731906891,0.004021766595542431
1761378976592825000,4.4088251953125,0.07590655982494354,0.16931317746639252,-0.03200686722993851
1761378976602880300,4.41888037109375,0.10328784584999084,0.1589156538248062,-0.10053958743810654
1761378976612936200,4.428936279296875,0.14216020703315735,0.16353118419647217,-0.1648225486278534
1761378976622991000,4.4389912109375,0.1794191598892212,0.18739230930805206,-0.19231168925762177
1761378976633048300,4.44904833984375,0.2091303914785385,0.21449895203113556,-0.1726144552230835
1761378976643103200,4.459103271484375,0.2289951741695404,0.2204660326242447,-0.10772813111543655
1761378976653159200,4.4691591796875,0.2396116703748703,0.20958957076072693,-0.010290088132023811
1761378976663214000,4.479214111328125,0.23898155987262726,0.19002732634544373,0.08572138845920563
1761378976673270300,4.489270263671875,0.2194066047668457,0.17030127346515656,0.1620030254125595
1761378976683326200,4.499326171875,0.18403476476669312,0.15330657362937927,0.2044607251882553
1761378976693381400,4.50938134765625,0.1427127718925476,0.13725990056991577,0.19553640484809875
1761378976703437000,4.51943701171875,0.10893937200307846,0.1324707418680191,0.1458151787519455
1761378976713492200,4.5294921875,0.07836300879716873,0.13459308445453644,0.08799366652965546
1761378976723548200,4.539548095703125,0.055275000631809235,0.14754030108451843,0.049909405410289764
1761378976733603300,4.549603271484375,0.04340789094567299,0.15963229537010193,0.04198087379336357
1761378976743659300,4.5596591796875,0.047534726560115814,0.1565137356519699,0.06128665804862976
1761378976753714200,4.569714111328125,0.06793764978647232,0.15128996968269348,0.10703188180923462
1761378976763770000,4.57977001953125,0.11607908457517624,0.1383802890777588,0.17789939045906067
1761378976773826000,4.589825927734375,0.1529546082019806,0.1294211745262146,0.2533314526081085
1761378976783881200,4.599881103515625,0.15956643223762512,0.11905322223901749,0.3240703344345093
1761378976793937200,4.609937255859375,0.14872585237026215,0.11596088111400604,0.3491138219833374
1761378976803992300,4.619992431640625,0.14618094265460968,0.10964705795049667,0.3051162660121918
1761378976814048300,4.63004833984375,0.15486383438110352,0.09102132171392441,0.20387789607048035
1761378976824103200,4.640103271484375,0.16477477550506592,0.07330437749624252,0.06938719749450684
1761378976834159000,4.6501591796875,0.16923819482326508,0.04219465330243111,-0.06289151310920715
1761378976844215000,4.660215087890625,0.17650702595710754,0.03023865818977356,-0.15613916516304016
1761378976854270200,4.670270263671875,0.16586081683635712,0.03373805806040764,-0.17829529941082
1761378976864326100,4.680326171875,0.13335880637168884,0.03591173142194748,-0.15281817317008972
1761378976874381300,4.69038134765625,0.098359614610672,0.04157773405313492,-0.09464231878519058
1761378976884437000,4.70043701171875,0.06599608808755875,0.05868987366557121,-0.027872607111930847
1761378976894495700,4.710495849609375,0.03816821053624153,0.0704641342163086,0.030056331306695938
1761378976904551700,4.7205517578125,0.02010984718799591,0.08430618047714233,0.05734308063983917
1761378976914607900,4.73060791015625,0.012625997886061668,0.08609998971223831,0.047641560435295105
1761378976924662800,4.740662841796875,0.008376657962799072,0.076783187687397,0.0009227879345417023
1761378976934718700,4.75071875,0.0009755413047969341,0.036550216376781464,-0.07223182171583176
1761378976944774000,4.76077392578125,0.008859829045832157,-0.02894756756722927,-0.15446837246418
1761378976954829800,4.770829833984375,0.021166175603866577,-0.08540210872888565,-0.2079300582408905
1761378976964884700,4.780884765625,0.02442455291748047,-0.13409215211868286,-0.22327226400375366
1761378976974940700,4.790940673828125,0.026141619309782982,-0.15740787982940674,-0.20008818805217743
1761378976984995800,4.800995849609375,0.02937682718038559,-0.16702136397361755,-0.1549912840127945
1761378976995051800,4.8110517578125,0.026285700500011444,-0.16514629125595093,-0.10588458180427551
1761378977005108000,4.82110791015625,0.008352240547537804,-0.15024058520793915,-0.056931693106889725
1761378977015162600,4.83116259765625,-0.014049461111426353,-0.15128283202648163,-0.014694759622216225
1761378977025218800,4.84121875,-0.0279207993298769,-0.1470758318901062,0.006458994932472706
1761378977035273700,4.851273681640625,-0.028507836163043976,-0.15466658771038055,0.01040683500468731
1761378977045330000,4.861329833984375,-0.020452041178941727,-0.17522351443767548,0.003000583965331316
1761378977055384800,4.871384765625,0.0004345872439444065,-0.19922004640102386,-0.012349341996014118
1761378977065440800,4.881440673828125,0.020376337692141533,-0.22276771068572998,-0.03268550708889961
1761378977075497000,4.8914970703125,0.04196326434612274,-0.24653613567352295,-0.05952770635485649
1761378977085551600,4.901551513671875,0.06214682757854462,-0.2665703296661377,-0.08731965720653534
1761378977095607800,4.91160791015625,0.0733097717165947,-0.29643315076828003,-0.10909336805343628
1761378977105662700,4.921662841796875,0.07321177423000336,-0.32942652702331543,-0.09935098886489868
1761378977115719000,4.931718994140625,0.04634362459182739,-0.36300355195999146,-0.03872748464345932
1761378977125773800,4.94177392578125,-0.0027237869799137115,-0.37237682938575745,0.0578688308596611
1761378977135830000,4.951830078125,-0.055885106325149536,-0.3517751693725586,0.15945863723754883
1761378977145885700,4.9618857421875,-0.09744453430175781,-0.33070769906044006,0.22995276749134064
1761378977155940900,4.97194091796875,-0.13142701983451843,-0.3288017809391022,0.23830896615982056
1761378977165996800,4.981996826171875,-0.12763547897338867,-0.33817076683044434,0.19765155017375946
1761378977176052000,4.992052001953125,-0.1097416952252388,-0.3650735020637512,0.1286381334066391
1761378977186108000,5.00210791015625,-0.08307759463787079,-0.38854846358299255,0.036968134343624115
1761378977196163800,5.012163818359375,-0.06219702214002609,-0.41960209608078003,-0.038703553378582
1761378977206218800,5.02221875,-0.05564165115356445,-0.4419284164905548,-0.07019117474555969
1761378977216274700,5.032274658203125,-0.05603690445423126,-0.44830650091171265,-0.042805265635252
1761378977226329900,5.042329833984375,-0.06294088810682297,-0.44989293813705444,0.027130944654345512
1761378977236385800,5.0523857421875,-0.07778548449277878,-0.43950217962265015,0.12930211424827576
1761378977246441000,5.06244091796875,-0.09251436591148376,-0.440334677696228,0.21734116971492767
1761378977256497000,5.072496826171875,-0.10246706008911133,-0.4461691379547119,0.2153913527727127
1761378977266552800,5.082552734375,-0.1050439327955246,-0.4714212417602539,0.14529110491275787
1761378977276607700,5.092607666015625,-0.1042938381433487,-0.48597803711891174,0.04907062277197838
1761378977286663700,5.10266357421875,-0.10577242821455002,-0.4849226176738739,-0.026956764981150627
1761378977296718800,5.11271875,-0.10698612034320831,-0.4871363043785095,-0.05857942998409271
1761378977306774800,5.12277490234375,-0.10138469189405441,-0.4896572530269623,-0.047460198402404785
1761378977316830000,5.132829833984375,-0.1050315871834755,-0.5034464001655579,0.008676690980792046
1761378977326886000,5.142885986328125,-0.1048121452331543,-0.5189012885093689,0.08453470468521118
1761378977336941800,5.15294189453125,-0.11039984226226807,-0.5178778171539307,0.15436230599880219
1761378977346996700,5.162996826171875,-0.1245628073811531,-0.5148902535438538,0.1992674618959427
1761378977357053000,5.173052978515625,-0.12664078176021576,-0.5080273151397705,0.20750871300697327
1761378977367107800,5.18310791015625,-0.11639399081468582,-0.5075687170028687,0.19511808454990387
1761378977377163800,5.193163818359375,-0.12453244626522064,-0.519156813621521,0.16440150141716003
1761378977387218700,5.20321875,-0.11694004386663437,-0.5388572812080383,0.10465455055236816
1761378977397274600,5.213274658203125,-0.09303489327430725,-0.5342837572097778,0.030574288219213486
1761378977407330800,5.223330810546875,-0.05891687050461769,-0.5438450574874878,-0.061198774725198746
1761378977417385700,5.2333857421875,-0.02813609316945076,-0.5325328707695007,-0.14948022365570068
1761378977427442000,5.24344189453125,-0.016657335683703423,-0.5030865669250488,-0.22910553216934204
1761378977437496800,5.253496826171875,-0.03104180283844471,-0.4662402868270874,-0.28036630153656006
1761378977447553000,5.263552978515625,-0.05723293125629425,-0.42886602878570557,-0.2850193679332733
1761378977457609000,5.27360888671875,-0.08687590062618256,-0.4097449481487274,-0.25184762477874756
1761378977467664000,5.283663818359375,-0.11057137697935104,-0.39293456077575684,-0.1864989846944809
1761378977477719800,5.2937197265625,-0.12866728007793427,-0.3840276896953583,-0.09939485043287277
1761378977487775000,5.30377490234375,-0.11690489947795868,-0.40218353271484375,-0.024717414751648903
1761378977497831000,5.313830810546875,-0.08493908494710922,-0.41974109411239624,0.037396807223558426
1761378977507886800,5.323886962890625,-0.04153116047382355,-0.4415675699710846,0.07750560343265533
1761378977517941800,5.333941650390625,-0.012351810932159424,-0.4574308395385742,0.08322720229625702
1761378977527997700,5.343997802734375,-0.012914270162582397,-0.44920700788497925,0.0689217671751976
1761378977538052900,5.354052978515625,-0.03871976584196091,-0.4192131459712982,0.0345936194062233
1761378977548108800,5.36410888671875,-0.06670080125331879,-0.388629674911499,0.0016625686548650265
1761378977558164000,5.3741640625,-0.08730621635913849,-0.37847575545310974,-0.0005514468066394329
1761378977568220000,5.384219970703125,-0.10516458004713058,-0.3832896947860718,0.015013931319117546
1761378977578275800,5.39427587890625,-0.11997313797473907,-0.3829268515110016,0.027986016124486923
1761378977588330800,5.404330810546875,-0.11703941226005554,-0.38751494884490967,0.019322752952575684
1761378977598386700,5.41438671875,-0.100832998752594,-0.3956815302371979,-0.021394316107034683
1761378977608441900,5.42444189453125,-0.08697497844696045,-0.4018629789352417,-0.09079016745090485
1761378977618497800,5.434497802734375,-0.09887433052062988,-0.4023558795452118,-0.16033491492271423
1761378977628554000,5.444553955078125,-0.12902051210403442,-0.4036349952220917,-0.20782174170017242
1761378977638609000,5.45460888671875,-0.14102844893932343,-0.3771818280220032,-0.21576088666915894
1761378977648664800,5.464664794921875,-0.14365431666374207,-0.25869378447532654,-0.21324260532855988
1761378977658719700,5.4747197265625,-0.15810026228427887,-0.22465063631534576,-0.18291625380516052
1761378977668775700,5.484775634765625,-0.13681042194366455,-0.16919590532779694,-0.12409473955631256
1761378977678830800,5.494830810546875,-0.1259055882692337,-0.14933130145072937,-0.06727499514818192
1761378977688886800,5.50488671875,-0.10392944514751434,-0.1703961044549942,-0.06394950300455093
1761378977698943000,5.51494287109375,-0.07010184228420258,-0.16863025724887848,-0.06386607885360718
1761378977708997600,5.52499755859375,-0.05661400035023689,-0.14259733259677887,-0.05662095174193382
1761378977719053800,5.5350537109375,-0.07216508686542511,-0.08180752396583557,-0.05393863469362259
1761378977729108700,5.545108642578125,-0.09673009067773819,-0.005827541928738356,-0.05286511778831482
1761378977739165000,5.5551650390625,-0.11475364118814468,0.06799011677503586,-0.04979165270924568
1761378977749220900,5.565220947265625,-0.12190050631761551,0.11126754432916641,-0.0510297566652298
1761378977759276000,5.575276123046875,-0.10645615309476852,0.1305168867111206,-0.05515919625759125
1761378977769332000,5.58533203125,-0.07588545978069305,0.1370546817779541,-0.04939744994044304
1761378977779387000,5.595386962890625,-0.03675701841711998,0.11743340641260147,-0.05577962100505829
