time,seconds_elapsed,z,y,x
1761378972256395000,0.07239501953125,-0.0009478190331719816,0.071532242000103,0.04481860250234604
1761378972266450200,0.0824501953125,-0.008053931407630444,0.07347821444272995,0.05420305207371712
1761378972276506000,0.092506103515625,-0.02394607849419117,0.07987219840288162,0.04109790176153183
1761378972286561300,0.102561279296875,-0.05410504713654518,0.061586666852235794,0.016715331003069878
1761378972296617200,0.1126171875,-0.07139508426189423,0.020077304914593697,-0.02196015976369381
1761378972306672000,0.122672119140625,-0.06943926215171814,-0.03626532852649689,-0.06064550206065178
1761378972316728000,0.13272802734375,-0.062012236565351486,-0.08289434760808945,-0.11347835510969162
1761378972326783200,0.142783203125,-0.05210527777671814,-0.11900041997432709,-0.15857553482055664
1761378972336839200,0.152839111328125,-0.046241797506809235,-0.11805979162454605,-0.17043112218379974
1761378972346894300,0.162894287109375,-0.04651716724038124,-0.10176737606525421,-0.14581260085105896
1761378972356950300,0.1729501953125,-0.068862684071064,-0.05816689878702164,-0.09175974875688553
1761378972367005200,0.183005126953125,-0.09993698447942734,-0.01016608439385891,-0.020848024636507034
1761378972377061000,0.19306103515625,-0.11575749516487122,0.015848204493522644,0.02762310579419136
1761378972387117000,0.203116943359375,-0.11368848383426666,0.013197560794651508,0.04601143300533295
1761378972397172200,0.213172119140625,-0.10857148468494415,-0.021626465022563934,0.03767281025648117
1761378972407228200,0.223228271484375,-0.08596790581941605,-0.07620155811309814,0.0021310613956302404
1761378972417283300,0.233283447265625,-0.036974530667066574,-0.13182221353054047,-0.0411389134824276
1761378972427339300,0.24333935546875,0.012025503441691399,-0.1593201458454132,-0.059966664761304855
1761378972437394200,0.253394287109375,0.035962529480457306,-0.17044523358345032,-0.05614156648516655
1761378972447450000,0.2634501953125,0.021280521526932716,-0.1631534993648529,-0.04945889487862587
1761378972457505300,0.27350537109375,-0.010875817388296127,-0.12999288737773895,-0.05218304321169853
1761378972467561200,0.283561279296875,-0.03328445181250572,-0.09684904664754868,-0.07175274938344955
1761378972477616400,0.293616455078125,-0.042508579790592194,-0.06683336198329926,-0.09647300839424133
1761378972487672000,0.303672119140625,-0.04093651473522186,-0.049795519560575485,-0.11781904101371765
1761378972497727200,0.313727294921875,-0.03900279104709625,-0.0649276003241539,-0.13640205562114716
1761378972507783200,0.323783203125,-0.016461264342069626,-0.06580591201782227,-0.1333569884300232
1761378972517838300,0.33383837890625,0.007748466916382313,-0.08361367136240005,-0.1206023171544075
1761378972527894300,0.343894287109375,0.023502662777900696,-0.10579273849725723,-0.10892541706562042
1761378972537949200,0.35394921875,0.030133135616779327,-0.13185790181159973,-0.09806451201438904
1761378972548005000,0.364005126953125,0.031623438000679016,-0.155618354678154,-0.09649431705474854
1761378972558060300,0.374060302734375,0.005862948950380087,-0.16527524590492249,-0.10341107845306396
1761378972568116200,0.3841162109375,-0.021324729546904564,-0.15572302043437958,-0.10685800760984421
1761378972578171100,0.394171142578125,-0.02441985532641411,-0.15966929495334625,-0.10376793891191483
1761378972588227300,0.404227294921875,-0.011449728161096573,-0.1566535234451294,-0.08373218029737473
1761378972598282000,0.414281982421875,0.007690676487982273,-0.1609009951353073,-0.04803117364645004
1761378972608338200,0.424338134765625,0.028111528605222702,-0.15136635303497314,-0.004756405483931303
1761378972618393000,0.43439306640625,0.05428321287035942,-0.14768452942371368,0.02931341342628002
1761378972628449300,0.44444921875,0.06815934926271439,-0.16693386435508728,0.04134823754429817
1761378972638504200,0.454504150390625,0.0806618258357048,-0.19279155135154724,0.039263781160116196
1761378972648560400,0.464560302734375,0.07828095555305481,-0.21675388514995575,0.032273516058921814
1761378972658615000,0.474614990234375,0.0816839411854744,-0.23065690696239471,0.02859009988605976
1761378972668671200,0.484671142578125,0.07867324352264404,-0.23787647485733032,0.012894759885966778
1761378972678726100,0.49472607421875,0.0782596543431282,-0.24992382526397705,-0.020175576210021973
1761378972688782300,0.5047822265625,0.0813790112733841,-0.27603772282600403,-0.061767760664224625
1761378972698837200,0.514837158203125,0.07959868758916855,-0.31486794352531433,-0.09503383934497833
1761378972708893200,0.52489306640625,0.06226470693945885,-0.3451768457889557,-0.09590601921081543
1761378972718948000,0.534947998046875,0.02600097469985485,-0.3450215756893158,-0.06706026196479797
1761378972729004000,0.545004150390625,-0.01661120168864727,-0.3194861114025116,-0.03966964781284332
1761378972739059200,0.55505908203125,-0.0674821063876152,-0.28588128089904785,-0.010495783761143684
1761378972749115100,0.565115234375,-0.10348351299762726,-0.2837930917739868,0.02190476655960083
1761378972759170300,0.57517041015625,-0.12096290290355682,-0.2760896384716034,0.05028926953673363
1761378972769226200,0.585226318359375,-0.1314419060945511,-0.27043867111206055,0.07335197925567627
1761378972779281200,0.59528125,-0.12573635578155518,-0.26803359389305115,0.07927138358354568
1761378972789337000,0.605337158203125,-0.09980276226997375,-0.2720474898815155,0.06728795915842056
1761378972799392300,0.615392333984375,-0.07150214910507202,-0.2866629362106323,0.025614017620682716
1761378972809448200,0.6254482421875,-0.059899818152189255,-0.2812385857105255,0.004309793468564749
1761378972819503400,0.63550341796875,-0.0596979521214962,-0.25150012969970703,0.019097527489066124
1761378972829558000,0.64555810546875,-0.08181177824735641,-0.224245086312294,0.0420001819729805
1761378972839614200,0.6556142578125,-0.1046164259314537,-0.20724213123321533,0.06082659959793091
1761378972849669000,0.665669189453125,-0.10702978074550629,-0.2018074244260788,0.06975670903921127
1761378972859725300,0.675725341796875,-0.1004275381565094,-0.20313660800457,0.06864484399557114
1761378972869780200,0.6857802734375,-0.09247507154941559,-0.19498759508132935,0.0827164500951767
1761378972879836200,0.695836181640625,-0.08485576510429382,-0.16919462382793427,0.1092604473233223
1761378972889894700,0.705894775390625,-0.07769373059272766,-0.13475434482097626,0.11878177523612976
1761378972899950800,0.715950927734375,-0.07907511293888092,-0.11669492721557617,0.08752185851335526
1761378972910005800,0.726005859375,-0.08375295251607895,-0.12239675223827362,0.02881487086415291
1761378972920062000,0.73606201171875,-0.0862581878900528,-0.14604482054710388,-0.022456306964159012
1761378972930116900,0.746116943359375,-0.11236968636512756,-0.14734017848968506,-0.05790271610021591
1761378972940172800,0.7561728515625,-0.1459505409002304,-0.16238677501678467,-0.07568730413913727
1761378972950227700,0.766227783203125,-0.17287883162498474,-0.1810198575258255,-0.09517817944288254
1761378972960283600,0.77628369140625,-0.18348753452301025,-0.2064192146062851,-0.12928448617458344
1761378972970338800,0.7863388671875,-0.2073260247707367,-0.19966064393520355,-0.16743133962154388
1761378972980394800,0.796394775390625,-0.2345256805419922,-0.18712274730205536,-0.21412506699562073
1761378972990450000,0.806449951171875,-0.23339730501174927,-0.19927050173282623,-0.26114344596862793
1761378973000505900,0.816505859375,-0.1909119039773941,-0.25146234035491943,-0.27366483211517334
1761378973010560800,0.826560791015625,-0.1270839124917984,-0.3017129898071289,-0.22295451164245605
1761378973020616700,0.83661669921875,-0.08765394985675812,-0.3209308683872223,-0.1045897901058197
1761378973030672000,0.846671875,-0.0710131898522377,-0.30522221326828003,0.04980910196900368
1761378973040727800,0.856727783203125,-0.07289045304059982,-0.24193300306797028,0.19610533118247986
1761378973050783000,0.866782958984375,-0.08870643377304077,-0.1771092712879181,0.29703885316848755
1761378973060839000,0.8768388671875,-0.11204291135072708,-0.15216103196144104,0.3253757059574127
1761378973070893800,0.886893798828125,-0.1284477263689041,-0.16284990310668945,0.28078025579452515
1761378973080949800,0.89694970703125,-0.14359179139137268,-0.18299591541290283,0.19163760542869568
1761378973091005000,0.9070048828125,-0.16647499799728394,-0.21859732270240784,0.06959398835897446
1761378973101060900,0.917060791015625,-0.17364156246185303,-0.2562999725341797,-0.05242139473557472
1761378973111116000,0.927115966796875,-0.14470446109771729,-0.2618483901023865,-0.12056050449609756
1761378973121171700,0.937171630859375,-0.10183262079954147,-0.2483655959367752,-0.12032907456159592
1761378973131227000,0.947226806640625,-0.04928366094827652,-0.22838416695594788,-0.07842662930488586
1761378973141282800,0.95728271484375,0.019884491339325905,-0.17579419910907745,-0.02582254260778427
1761378973151338000,0.967337890625,0.07117617875337601,-0.1260673850774765,0.01654781773686409
1761378973161394000,0.977393798828125,0.10249015688896179,-0.056480586528778076,0.03409804776310921
1761378973171448800,0.98744873046875,0.1091291531920433,0.014342454262077808,0.032763540744781494
1761378973181504800,0.9975048828125,0.10794617235660553,0.036140959709882736,0.011353055946528912
1761378973191559700,1.0075595703125,0.09376271069049835,-0.0031284152064472437,-0.01998036541044712
1761378973201614800,1.01761474609375,0.05775011330842972,-0.07998671382665634,-0.07155807316303253
1761378973211670800,1.0276708984375,0.007162838242948055,-0.162134051322937,-0.13282355666160583
1761378973221725700,1.0377255859375,-0.0395926833152771,-0.21995393931865692,-0.19546617567539215
1761378973231781600,1.04778173828125,-0.08370155096054077,-0.25101330876350403,-0.2424027919769287
1761378973241836800,1.0578369140625,-0.1301843672990799,-0.2488686740398407,-0.2574506998062134
1761378973251892700,1.067892822265625,-0.17768025398254395,-0.22085487842559814,-0.23611213266849518
1761378973261948000,1.077947998046875,-0.20047317445278168,-0.17148441076278687,-0.1745949685573578
1761378973272003800,1.08800390625,-0.20004068315029144,-0.11719825863838196,-0.09344792366027832
1761378973282058800,1.098058837890625,-0.1620759814977646,-0.04524550959467888,-0.018122278153896332
1761378973292114700,1.10811474609375,-0.09739100188016891,0.021220866590738297,0.027574103325605392
1761378973302169900,1.118169921875,-0.03954873979091644,0.05732826888561249,0.04478611424565315
1761378973312225800,1.128225830078125,0.013015400618314743,0.051833901554346085,0.04879177361726761
1761378973322281000,1.138281005859375,0.0528099499642849,0.02604731358587742,0.04790787026286125
1761378973332337000,1.1483369140625,0.07951133698225021,-0.004069842863827944,0.02991555444896221
1761378973342391800,1.158391845703125,0.09366390854120255,-0.026079803705215454,0.004760400392115116
1761378973352447700,1.16844775390625,0.08660706132650375,-0.04588892683386803,-0.01525724958628416
1761378973362503000,1.1785029296875,0.0747661143541336,-0.06377445161342621,-0.008815329521894455
1761378973372558800,1.188558837890625,0.053951915353536606,-0.08038591593503952,0.02521108090877533
1761378973382614000,1.198614013671875,0.038600921630859375,-0.07878882437944412,0.0645182728767395
1761378973392668700,1.208668701171875,0.025063008069992065,-0.06582455337047577,0.09546979516744614
1761378973402724900,1.218724853515625,0.012172509916126728,-0.04882000386714935,0.09197492897510529
1761378973412779800,1.22877978515625,0.006977482233196497,-0.052267998456954956,0.06004176661372185
1761378973422835700,1.238835693359375,0.005656820256263018,0.0014524880098178983,0.005194761790335178
1761378973432891000,1.248890869140625,0.005422195885330439,0.007904262281954288,-0.06542960554361343
1761378973442946800,1.25894677734375,0.031370438635349274,0.016049006953835487,-0.11574657261371613
1761378973453001700,1.269001708984375,0.07215035706758499,0.048663944005966187,-0.13431572914123535
1761378973463057700,1.2790576171875,0.10246725380420685,0.07677067816257477,-0.1308344453573227
1761378973473112800,1.28911279296875,0.12430757284164429,0.10995393246412277,-0.0935232937335968
1761378973483168800,1.299168701171875,0.14121198654174805,0.12447002530097961,-0.044083572924137115
1761378973493224000,1.309223876953125,0.15606310963630676,0.136751189827919,0.007698665838688612
1761378973503279900,1.31927978515625,0.15369048714637756,0.16060511767864227,0.05065971612930298
1761378973513334800,1.329334716796875,0.13298681378364563,0.1840590536594391,0.07706601917743683
1761378973523389700,1.3393896484375,0.09405725449323654,0.20128969848155975,0.07703033834695816
1761378973533446000,1.34944580078125,0.05318758636713028,0.21732112765312195,0.07247872650623322
1761378973543500800,1.359500732421875,0.020740432664752007,0.23153948783874512,0.0686139464378357
1761378973553557000,1.369556884765625,0.004289287142455578,0.24013110995292664,0.06684427708387375
1761378973563611600,1.379611572265625,0.005797701422125101,0.23459386825561523,0.06696944683790207
1761378973573667800,1.389667724609375,0.011347996070981026,0.22434788942337036,0.08185944706201553
1761378973583722800,1.39972265625,0.02389441430568695,0.23341888189315796,0.11988991498947144
1761378973593779000,1.409779052734375,0.04440554603934288,0.254862904548645,0.16370530426502228
1761378973603833900,1.419833740234375,0.06811992824077606,0.2909705936908722,0.20145109295845032
1761378973613890000,1.42989013671875,0.08487147837877274,0.3455885648727417,0.2196415513753891
1761378973623944700,1.43994482421875,0.08955944329500198,0.38845959305763245,0.22879429161548615
1761378973634001000,1.4500009765625,0.11314466595649719,0.40794166922569275,0.2175685465335846
1761378973644055800,1.460055908203125,0.15127873420715332,0.3807755708694458,0.1788051724433899
1761378973654111700,1.47011181640625,0.19436761736869812,0.32201558351516724,0.12499599903821945
1761378973664167000,1.4801669921875,0.23305295407772064,0.2710557281970978,0.037819284945726395
1761378973674221800,1.490221923828125,0.23910951614379883,0.2402472198009491,-0.08071934431791306
1761378973684277800,1.50027783203125,0.23656833171844482,0.23940859735012054,-0.19075636565685272
1761378973694333000,1.5103330078125,0.20098742842674255,0.27476391196250916,-0.2619658410549164
1761378973704388900,1.520388916015625,0.14624854922294617,0.2846834063529968,-0.25502297282218933
1761378973714444000,1.530444091796875,0.1061493381857872,0.2812362015247345,-0.17994287610054016
1761378973724499700,1.540499755859375,0.09030672907829285,0.24146348237991333,-0.05837675556540489
1761378973734555000,1.550554931640625,0.08535191416740417,0.20403142273426056,0.08620598912239075
1761378973744610800,1.56061083984375,0.08675327152013779,0.18482178449630737,0.23633024096488953
1761378973754665700,1.570665771484375,0.08175051957368851,0.18158550560474396,0.3402015268802643
1761378973764722000,1.580721923828125,0.07879601418972015,0.16085386276245117,0.3568364083766937
1761378973774776800,1.59077685546875,0.09188038855791092,0.14353665709495544,0.2859417498111725
1761378973784831700,1.600831787109375,0.1076580211520195,0.14114594459533691,0.15328702330589294
1761378973794887700,1.6108876953125,0.11479102820158005,0.16783641278743744,0.017311612144112587
1761378973804942800,1.62094287109375,0.1139417514204979,0.19005808234214783,-0.06024123728275299
1761378973814998800,1.630998779296875,0.119462750852108,0.2216450423002243,-0.06174032762646675
1761378973825054000,1.641053955078125,0.11064129322767258,0.21730968356132507,-0.004079164005815983
1761378973835109600,1.651109619140625,0.10879652202129364,0.19230154156684875,0.07738266885280609
1761378973845164800,1.661164794921875,0.09258799254894257,0.17413318157196045,0.1631721407175064
1761378973855220700,1.671220703125,0.0688304603099823,0.16332101821899414,0.20221088826656342
1761378973865276000,1.68127587890625,0.03418460115790367,0.17370708286762238,0.18430379033088684
1761378973875331800,1.691331787109375,-0.0031364047899842262,0.17835509777069092,0.10448619723320007
1761378973885383700,1.7013837890625,-0.009829993359744549,0.18180787563323975,-0.008344748988747597
1761378973895438600,1.7114384765625,0.024282969534397125,0.16658125817775726,-0.11072997748851776
1761378973905494800,1.721494873046875,0.08482354134321213,0.1283702254295349,-0.17067213356494904
1761378973915549700,1.7315498046875,0.1566215604543686,0.09114429354667664,-0.19019657373428345
1761378973925606000,1.74160595703125,0.20233125984668732,0.06573107838630676,-0.1792813390493393
1761378973935660500,1.75166064453125,0.22214917838573456,0.05697273835539818,-0.14249350130558014
1761378973945716700,1.761716796875,0.21525105834007263,0.06950557231903076,-0.09996175020933151
1761378973955771600,1.771771728515625,0.17918919026851654,0.10382519662380219,-0.055758871138095856
1761378973965827600,1.78182763671875,0.12151417881250381,0.16231167316436768,-0.013014867901802063
1761378973975882800,1.7918828125,0.05788061022758484,0.2239159196615219,0.01629934459924698
1761378973985938700,1.801938720703125,0.010485930368304253,0.2744142413139343,0.030297718942165375
1761378973995993600,1.81199365234375,-0.013782924041152,0.2965256869792938,0.027466511353850365
1761378974006048800,1.822048828125,-0.008505870588123798,0.2964833378791809,0.016227705404162407
1761378974016104700,1.832104736328125,0.005889846943318844,0.26360979676246643,0.010096576064825058
1761378974026159900,1.842159912109375,0.024712003767490387,0.20991435647010803,0.0017329188995063305
1761378974036215800,1.8522158203125,0.04247289150953293,0.16215641796588898,-0.021704230457544327
1761378974046270700,1.862270751953125,0.051831770688295364,0.11288180947303772,-0.05119474604725838
1761378974056326700,1.87232666015625,0.06094857305288315,0.0759914368391037,-0.08240166306495667
1761378974066381600,1.882381591796875,0.05030578002333641,0.05374791845679283,-0.1095733642578125
1761378974076437800,1.892437744140625,0.033005088567733765,0.04465535283088684,-0.1266074776649475
1761378974086492700,1.90249267578125,0.010615093633532524,0.05528455972671509,-0.1379951536655426
1761378974096548900,1.912548828125,-0.014999988488852978,0.08238009363412857,-0.1596977859735489
1761378974106603500,1.922603515625,-0.04150962457060814,0.10191597789525986,-0.1794200837612152
1761378974116658700,1.93265869140625,-0.05036729946732521,0.1143697202205658,-0.1843157857656479
1761378974126714600,1.942714599609375,-0.050572361797094345,0.11800014227628708,-0.17758038640022278
1761378974136769800,1.952769775390625,-0.02852644957602024,0.13568459451198578,-0.1574610024690628
1761378974146825700,1.96282568359375,0.0075756278820335865,0.14397235214710236,-0.11601874977350235
1761378974156880600,1.972880615234375,0.046119824051856995,0.16447310149669647,-0.060694772750139236
1761378974166936600,1.9829365234375,0.05754851549863815,0.16887956857681274,0.011483816429972649
1761378974176991700,1.99299169921875,0.056958623230457306,0.14869999885559082,0.06333156675100327
1761378974187047700,2.003047607421875,0.08369489759206772,0.07376503199338913,0.07793155312538147
1761378974197102800,2.013102783203125,0.10967136919498444,-0.006951116491109133,0.0754670575261116
1761378974207158800,2.02315869140625,0.12457601726055145,-0.090249203145504,0.05287972465157509
1761378974217213700,2.033213623046875,0.13267070055007935,-0.15046514570713043,0.020601946860551834
1761378974227268600,2.0432685546875,0.11943665146827698,-0.1835021823644638,-0.0024285365361720324
1761378974237324800,2.05332470703125,0.09163324534893036,-0.1921239048242569,-0.006932741031050682
1761378974247379700,2.063379638671875,0.035587821155786514,-0.1826758086681366,0.011062238365411758
1761378974257436000,2.073435791015625,-0.027654530480504036,-0.17056535184383392,0.044263601303100586
1761378974267490600,2.083490478515625,-0.06707464158535004,-0.16307413578033447,0.07803993672132492
1761378974277546800,2.093546630859375,-0.08665100485086441,-0.17560350894927979,0.09883816540241241
1761378974287601700,2.1036015625,-0.08341579884290695,-0.19734129309654236,0.10817813873291016
1761378974297657900,2.113657958984375,-0.06826720386743546,-0.19763292372226715,0.11158804595470428
1761378974307712800,2.123712646484375,-0.050631750375032425,-0.1995439976453781,0.11944597214460373
1761378974317768700,2.133768798828125,-0.03634762018918991,-0.21200679242610931,0.12378958612680435
1761378974327823600,2.14382373046875,-0.016622653231024742,-0.24187281727790833,0.1468973010778427
1761378974337878800,2.153878662109375,0.0046911584213376045,-0.24797704815864563,0.1851043403148651
1761378974347934700,2.163934814453125,0.011246263049542904,-0.26001960039138794,0.23875665664672852
1761378974357990000,2.173989990234375,0.005527656991034746,-0.28500163555145264,0.26647457480430603
1761378974368045800,2.1840458984375,-0.004866660572588444,-0.31971248984336853,0.25358647108078003
1761378974378100700,2.194100830078125,-0.03885951638221741,-0.36064422130584717,0.189952090382576
1761378974388156700,2.20415673828125,-0.09251422435045242,-0.3942149579524994,0.09448602795600891
1761378974398211800,2.2142119140625,-0.1488398164510727,-0.40969032049179077,0.00490314606577158
1761378974408267800,2.224267822265625,-0.20126919448375702,-0.40677574276924133,-0.07341615855693817
1761378974418322700,2.23432275390625,-0.23000310361385345,-0.40658292174339294,-0.1487647145986557
1761378974428378600,2.244378662109375,-0.2283729910850525,-0.4040643870830536,-0.21452029049396515
1761378974438433500,2.25443359375,-0.20623040199279785,-0.36538222432136536,-0.2601120173931122
1761378974448489700,2.26448974609375,-0.17685653269290924,-0.32515519857406616,-0.25448715686798096
1761378974458544600,2.274544677734375,-0.13833923637866974,-0.28221890330314636,-0.20425593852996826
1761378974468599800,2.284599853515625,-0.07920960336923599,-0.22968938946723938,-0.11231082677841187
1761378974478655700,2.29465576171875,-0.01690574735403061,-0.19642624258995056,0.009882990270853043
1761378974488710700,2.304710693359375,0.034937743097543716,-0.1802043914794922,0.12287931889295578
1761378974498766600,2.3147666015625,0.06449643522500992,-0.17889012396335602,0.20380932092666626
1761378974508821800,2.32482177734375,0.06740700453519821,-0.17944538593292236,0.23698484897613525
1761378974518877700,2.334877685546875,0.035477831959724426,-0.18722021579742432,0.21808919310569763
1761378974528932900,2.344932861328125,-0.023572703823447227,-0.19507388770580292,0.16492822766304016
1761378974538988500,2.354988525390625,-0.09029607474803925,-0.20318667590618134,0.09759952872991562
1761378974549043700,2.365043701171875,-0.16046157479286194,-0.22016938030719757,0.02376152202486992
1761378974559099600,2.375099609375,-0.21530938148498535,-0.21522842347621918,-0.04061693325638771
1761378974569154800,2.38515478515625,-0.23627059161663055,-0.19026660919189453,-0.0833263173699379
1761378974579210800,2.395210693359375,-0.2122209072113037,-0.18190348148345947,-0.09827650338411331
1761378974589265700,2.405265625,-0.14181679487228394,-0.18108776211738586,-0.08717271685600281
1761378974599321600,2.415321533203125,-0.03681580349802971,-0.1785966455936432,-0.06112700328230858
1761378974609376800,2.425376708984375,0.0636410266160965,-0.18359805643558502,-0.026441726833581924
1761378974619432700,2.4354326171875,0.13355566561222076,-0.18376396596431732,0.0075668394565582275
1761378974629487900,2.44548779296875,0.17819024622440338,-0.19652077555656433,0.025427062064409256
1761378974639542500,2.45554248046875,0.2128736525774002,-0.22324053943157196,0.007004912476986647
1761378974649598700,2.4655986328125,0.21642310917377472,-0.26213839650154114,-0.047268446534872055
1761378974659653600,2.475653564453125,0.17304235696792603,-0.28441309928894043,-0.11681503057479858
1761378974669709600,2.48570947265625,0.07792995125055313,-0.2699262797832489,-0.18090985715389252
1761378974679764700,2.4957646484375,-0.0424334779381752,-0.22157765924930573,-0.2317352294921875
1761378974689820700,2.505820556640625,-0.1508646160364151,-0.14928482472896576,-0.27892670035362244
1761378974699875600,2.51587548828125,-0.20597979426383972,-0.10872089117765427,-0.2962796092033386
1761378974709931500,2.525931640625,-0.19614553451538086,-0.10150744765996933,-0.28375527262687683
1761378974719986700,2.535986572265625,-0.15610358119010925,-0.11237607896327972,-0.24478045105934143
1761378974730042600,2.546042724609375,-0.09941287338733673,-0.1216081902384758,-0.19324429333209991
1761378974740097800,2.556097900390625,-0.050579022616147995,-0.09640323370695114,-0.1519322693347931
1761378974750153700,2.56615380859375,-0.015837552025914192,-0.05318945273756981,-0.14277100563049316
1761378974760208600,2.576208740234375,-0.0027198863681405783,-0.01919926144182682,-0.14167404174804688
1761378974770264600,2.5862646484375,0.006485596299171448,0.011176488362252712,-0.13012684881687164
1761378974780319700,2.59631982421875,0.008216651156544685,0.03079945780336857,-0.09863363206386566
1761378974790375700,2.606375732421875,0.010733338072896004,0.055757805705070496,-0.05884813517332077
1761378974800430800,2.616430908203125,0.019870644435286522,0.0694642961025238,-0.022183332592248917
1761378974810486800,2.62648681640625,0.04386252909898758,0.07021024823188782,0.0024628913961350918
1761378974820541700,2.636541748046875,0.07077696919441223,0.06419443339109421,0.016414126381278038
1761378974830597600,2.64659765625,0.07872916758060455,0.06276138871908188,0.016761669889092445
1761378974840652800,2.65665283203125,0.05759085714817047,0.07131492346525192,-0.0026024410035461187
1761378974850708700,2.666708740234375,0.020436566323041916,0.08568400889635086,-0.03419259190559387
1761378974860764000,2.676763916015625,0.013295565731823444,0.09096479415893555,-0.07688093185424805
1761378974870819800,2.68681982421875,0.049860768020153046,0.10471975803375244,-0.11399075388908386
1761378974880874800,2.696874755859375,0.11071053147315979,0.12976199388504028,-0.13343022763729095
1761378974890930000,2.706929931640625,0.1703195422887802,0.12880004942417145,-0.13805240392684937
1761378974900984800,2.71698486328125,0.213823601603508,0.1131979301571846,-0.12594035267829895
1761378974911040800,2.727040771484375,0.2224317342042923,0.07628890872001648,-0.0946817696094513
1761378974921096000,2.737095947265625,0.19616737961769104,0.05510453134775162,-0.05862549692392349
1761378974931150800,2.74715087890625,0.1493207812309265,0.03417980670928955,-0.0296095572412014
1761378974941207000,2.75720703125,0.10969161242246628,0.025967152789235115,0.0006090649403631687
1761378974951261700,2.76726171875,0.07676668465137482,0.03816336393356323,0.02298094891011715
1761378974961318000,2.77731787109375,0.0568465031683445,0.07200735062360764,0.028172248974442482
1761378974971372800,2.787372802734375,0.05167171731591225,0.09595608711242676,0.0311584509909153
1761378974981428700,2.7974287109375,0.04724154621362686,0.13400334119796753,0.035948678851127625
1761378974991484000,2.80748388671875,0.0322096012532711,0.1552007645368576,0.03690715134143829
1761378975001539600,2.81753955078125,0.011407916434109211,0.1610698401927948,0.03501391038298607
1761378975011594800,2.8275947265625,-0.007454453967511654,0.15759389102458954,0.03163941949605942
1761378975021650700,2.837650634765625,-0.02214391715824604,0.14868614077568054,0.034819234162569046
1761378975031705900,2.847705810546875,-0.03712979331612587,0.1322789490222931,0.02961275354027748
1761378975041761800,2.85776171875,-0.049137186259031296,0.1284130960702896,0.02672482095658779
1761378975051817000,2.86781689453125,-0.06120050698518753,0.12774358689785004,0.027781030163168907
1761378975061872600,2.87787255859375,-0.075951486825943,0.1383829116821289,0.04621942713856697
1761378975071927800,2.887927734375,-0.09524715691804886,0.14808720350265503,0.07219323515892029
1761378975081983700,2.897983642578125,-0.11949896812438965,0.15229685604572296,0.08143386989831924
1761378975092039000,2.908038818359375,-0.13503505289554596,0.16256122291088104,0.07414160668849945
1761378975102094800,2.9180947265625,-0.145999014377594,0.1670805960893631,0.05553968995809555
1761378975112149800,2.928149658203125,-0.14328418672084808,0.17095789313316345,0.029618611559271812
1761378975122205700,2.938205810546875,-0.13789582252502441,0.1840880811214447,0.018023476004600525
1761378975132260900,2.9482607421875,-0.125658318400383,0.1999027281999588,0.02148824743926525
1761378975142316800,2.95831689453125,-0.13030767440795898,0.22194011509418488,0.052622199058532715
1761378975152372000,2.9683720703125,-0.13406725227832794,0.24157001078128815,0.11405626684427261
1761378975162428000,2.978427978515625,-0.12835636734962463,0.2665504515171051,0.14128895103931427
1761378975172482800,2.98848291015625,-0.11385013908147812,0.2941565215587616,0.1047157570719719
1761378975182538800,2.998538818359375,-0.09825865924358368,0.2919895052909851,0.02195616438984871
1761378975192594000,3.008593994140625,-0.07963784039020538,0.26170697808265686,-0.05770856887102127
1761378975202649900,3.01864990234375,-0.05276094749569893,0.22179444134235382,-0.09766717255115509
1761378975212705000,3.028705078125,-0.027585821226239204,0.17898572981357574,-0.11585176736116409
1761378975222761000,3.038760986328125,-0.008973254822194576,0.13613946735858917,-0.12892389297485352
1761378975232815600,3.048815673828125,0.0027957865968346596,0.10908414423465729,-0.13663986325263977
1761378975242871800,3.058871826171875,0.0004468784318305552,0.09410732239484787,-0.13908705115318298
1761378975252926700,3.0689267578125,-0.013293168507516384,0.09497817605733871,-0.13879810273647308
1761378975262983000,3.07898291015625,-0.04933745414018631,0.09682108461856842,-0.1422189325094223
1761378975273037800,3.089037841796875,-0.08815595507621765,0.11154197156429291,-0.15827059745788574
1761378975283094000,3.099093994140625,-0.11907472461462021,0.13028769195079803,-0.18742448091506958
1761378975293148700,3.109148681640625,-0.13705451786518097,0.1404561847448349,-0.21785882115364075
1761378975303204900,3.119204833984375,-0.1327974647283554,0.15912626683712006,-0.22230736911296844
1761378975313259800,3.129259765625,-0.12162896245718002,0.17989785969257355,-0.18485213816165924
1761378975323316000,3.13931591796875,-0.09834787249565125,0.20534436404705048,-0.12996439635753632
1761378975333372000,3.149371826171875,-0.061168815940618515,0.23044413328170776,-0.057305898517370224
1761378975343426800,3.1594267578125,-0.023329291492700577,0.23140792548656464,0.02575942501425743
1761378975353482800,3.169482666015625,0.017916683107614517,0.2286776453256607,0.10901357233524323
1761378975363537700,3.17953759765625,0.052623528987169266,0.21307551860809326,0.16838021576404572
1761378975373593900,3.18959375,0.06647942215204239,0.19827979803085327,0.20043402910232544
1761378975383648800,3.199648681640625,0.05925852805376053,0.20247668027877808,0.21112608909606934
1761378975393705000,3.209705078125,0.03729304298758507,0.19971337914466858,0.19354230165481567
1761378975403759600,3.219759521484375,0.02617647685110569,0.19253136217594147,0.14600300788879395
1761378975413815800,3.22981591796875,0.032584041357040405,0.17746905982494354,0.07938244193792343
1761378975423870700,3.23987060546875,0.05245282128453255,0.1500355750322342,-0.0032629049383103848
1761378975433927000,3.249927001953125,0.06873778253793716,0.13265365362167358,-0.07898429781198502
1761378975443981800,3.25998193359375,0.0860304906964302,0.11738787591457367,-0.12445750832557678
1761378975454038000,3.2700380859375,0.10739409923553467,0.10288643091917038,-0.1329905390739441
1761378975464092700,3.2800927734375,0.12885598838329315,0.08399556577205658,-0.1285201609134674
1761378975474148900,3.29014892578125,0.14005909860134125,0.06936069577932358,-0.1339988112449646
1761378975484203800,3.300203857421875,0.14104020595550537,0.05176492780447006,-0.14270281791687012
1761378975494259700,3.310259765625,0.1234164759516716,0.05373859405517578,-0.1535317748785019
1761378975504315000,3.32031494140625,0.08485017716884613,0.05590933933854103,-0.15414083003997803
1761378975514370800,3.330370849609375,0.05001949146389961,0.0641973614692688,-0.13848809897899628
1761378975524425700,3.34042578125,0.011885421350598335,0.061041515320539474,-0.10497462004423141
1761378975534481700,3.350481689453125,-0.01606418751180172,0.04481274634599686,-0.06259520351886749
1761378975544536800,3.360536865234375,-0.019169965758919716,0.013429522514343262,-0.01973056234419346
1761378975554592800,3.3705927734375,-0.0002998719282913953,-0.013732856139540672,0.011477159336209297
1761378975564648000,3.38064794921875,0.023816116154193878,-0.023617977276444435,0.029991988092660904
1761378975574703900,3.390703857421875,0.045289717614650726,-0.012059592641890049,0.0364496186375618
1761378975584758800,3.4007587890625,0.05360383912920952,-0.0025566346012055874,0.043895553797483444
1761378975594814700,3.410814697265625,0.05216413363814354,-0.015047659166157246,0.05145413428544998
1761378975604870000,3.420869873046875,0.05847156420350075,-0.039986297488212585,0.04791373014450073
1761378975614925800,3.43092578125,0.05356442555785179,-0.07626387476921082,0.033370472490787506
1761378975624981800,3.440981689453125,0.048582982271909714,-0.10646385699510574,0.010361294262111187
1761378975635036700,3.45103662109375,0.04574538394808769,-0.1344371736049652,-0.016149941831827164
1761378975645092600,3.461092529296875,0.048766206949949265,-0.14812688529491425,-0.05510479584336281
1761378975655147800,3.471147705078125,0.04694567248225212,-0.14117497205734253,-0.0813920646905899
1761378975665203700,3.48120361328125,0.05209995433688164,-0.1274908483028412,-0.09322022646665573
1761378975675259000,3.4912587890625,0.075614333152771,-0.1314845234155655,-0.08627975732088089
1761378975685314800,3.501314697265625,0.10026002675294876,-0.14632739126682281,-0.04737790301442146
1761378975695369700,3.51136962890625,0.10148508101701736,-0.15446414053440094,0.021377993747591972
1761378975705425700,3.52142578125,0.06933113932609558,-0.16633065044879913,0.09373821318149567
1761378975715480800,3.531480712890625,0.0404835119843483,-0.1854628026485443,0.16476711630821228
1761378975725536800,3.541536865234375,0.017375262454152107,-0.19493938982486725,0.21323691308498383
1761378975735592000,3.551592041015625,-0.014977351762354374,-0.2136790007352829,0.24156628549098969
1761378975745647900,3.56164794921875,-0.04820161685347557,-0.24469496309757233,0.25342506170272827
1761378975755702800,3.571702880859375,-0.08568880707025528,-0.266480416059494,0.2537260055541992
1761378975765758700,3.5817587890625,-0.12276453524827957,-0.2883814573287964,0.26188966631889343
1761378975775814000,3.59181396484375,-0.1500379741191864,-0.32322466373443604,0.2837022840976715
1761378975785869800,3.601869873046875,-0.161312997341156,-0.35313647985458374,0.3063918948173523
1761378975795925000,3.611925048828125,-0.15667375922203064,-0.36782434582710266,0.33333083987236023
1761378975805981000,3.62198095703125,-0.1424144059419632,-0.37001028656959534,0.3583999574184418
1761378975816036900,3.632036865234375,-0.13763003051280975,-0.35692644119262695,0.3947489261627197
1761378975826091800,3.642091796875,-0.1367059201002121,-0.31247588992118835,0.4602283239364624
1761378975836147700,3.652147705078125,-0.12680880725383759,-0.27759671211242676,0.5219955444335938
1761378975846203000,3.662202880859375,-0.1146770492196083,-0.2773594260215759,0.5169062614440918
1761378975856258800,3.6722587890625,-0.1056198999285698,-0.3184165954589844,0.4406586289405823
1761378975866314000,3.68231396484375,-0.0969582349061966,-0.37370648980140686,0.3159574270248413
1761378975876369700,3.69236962890625,-0.10360255837440491,-0.4198888838291168,0.16473115980625153
1761378975886425300,3.70242529296875,-0.11272042244672775,-0.46634986996650696,0.02040380798280239
1761378975896481300,3.712481201171875,-0.12696699798107147,-0.4612467288970947,-0.11532606184482574
1761378975906536200,3.7225361328125,-0.15113332867622375,-0.45118770003318787,-0.22542406618595123
1761378975916592000,3.732592041015625,-0.17347991466522217,-0.40419915318489075,-0.30035504698753357
1761378975926647300,3.742647216796875,-0.19828565418720245,-0.3484905958175659,-0.3548840582370758
1761378975936703200,3.752703125,-0.21028345823287964,-0.302569180727005,-0.38589897751808167
1761378975946759200,3.76275927734375,-0.19425523281097412,-0.2401638627052307,-0.3966996669769287
1761378975956814300,3.772814453125,-0.1598740816116333,-0.1869208812713623,-0.3643476068973541
1761378975966870300,3.782870361328125,-0.11899270117282867,-0.1596977859735489,-0.27569442987442017
1761378975976925200,3.79292529296875,-0.07971134036779404,-0.13718634843826294,-0.14266420900821686
1761378975986981000,3.802981201171875,-0.05176546052098274,-0.14073634147644043,0.0026133600622415543
1761378975997036300,3.813036376953125,-0.03134700283408165,-0.13962127268314362,0.11855541169643402
1761378976007092200,3.82309228515625,-0.02323714643716812,-0.16064293682575226,0.1901763379573822
1761378976017147400,3.8331474609375,-0.025839319452643394,-0.19693516194820404,0.2240877002477646
1761378976027203000,3.843203125,-0.050944142043590546,-0.21119506657123566,0.22751198709011078
1761378976037258200,3.85325830078125,-0.10263023525476456,-0.22573113441467285,0.20999424159526825
1761378976047314200,3.863314208984375,-0.13797491788864136,-0.22196249663829803,0.1858324557542801
1761378976057369300,3.873369384765625,-0.15446360409259796,-0.22130842506885529,0.1580926924943924
1761378976067425300,3.88342529296875,-0.13546061515808105,-0.21001821756362915,0.12063480168581009
1761378976077480200,3.893480224609375,-0.09702800959348679,-0.1943444460630417,0.08387971669435501
1761378976087536000,3.9035361328125,-0.05361928418278694,-0.18549156188964844,0.055150870233774185
1761378976097592000,3.913592041015625,-0.005348959006369114,-0.17520643770694733,0.04246649891138077
1761378976107647200,3.923647216796875,0.0336407832801342,-0.15121401846408844,0.036864008754491806
1761378976117703200,3.933703125,0.044438838958740234,-0.11944597214460373,0.03525865450501442
1761378976127758300,3.94375830078125,0.033731065690517426,-0.07050585746765137,0.008289887569844723
1761378976137814300,3.953814208984375,0.004229366313666105,-0.044022850692272186,-0.02442757785320282
1761378976147869200,3.963869140625,-0.04375813156366348,-0.06646451354026794,-0.04831373691558838
1761378976157925000,3.973925048828125,-0.08716393262147903,-0.1251315474510193,-0.0524861104786396
1761378976167980300,3.983980224609375,-0.11353987455368042,-0.19067540764808655,-0.03717080503702164
1761378976178036200,3.9940361328125,-0.12727566063404083,-0.25603336095809937,-0.001954493811354041
1761378976188092200,4.004092041015625,-0.12690335512161255,-0.28035417199134827,0.017544372007250786
1761378976198147300,4.014147216796875,-0.12852069735527039,-0.2672833800315857,0.020660271868109703
1761378976208203000,4.024203125,-0.14309537410736084,-0.2230924665927887,0.003674363251775503
1761378976218258200,4.034258056640625,-0.15563780069351196,-0.15755979716777802,-0.030848193913698196
1761378976228311300,4.044311279296875,-0.16830512881278992,-0.0891336053609848,-0.05533862113952637
1761378976238366200,4.0543662109375,-0.17975378036499023,-0.032760344445705414,-0.06333423405885696
1761378976248422100,4.064422119140625,-0.1883470118045807,0.0023672839161008596,-0.03224608674645424
1761378976258477300,4.074477294921875,-0.1889861673116684,0.01984933763742447,0.01410729717463255
1761378976268533200,4.084533203125,-0.16666941344738007,0.02370160073041916,0.05678711459040642
1761378976278589200,4.094589111328125,-0.13607634603977203,0.016447415575385094,0.09324871748685837
1761378976288644400,4.104644287109375,-0.09276003390550613,0.00472524669021368,0.11464215815067291
1761378976298700000,4.114699951171875,-0.046433012932538986,-0.011243333108723164,0.11186981201171875
1761378976308755200,4.124755126953125,-0.019001120701432228,-0.016345949843525887,0.08819537609815598
1761378976318811100,4.13481103515625,-0.011254251934587955,-0.018190987408161163,0.05885559320449829
1761378976328866300,4.1448662109375,-0.02532586269080639,-0.005498362239450216,0.035894885659217834
1761378976338922200,4.154922119140625,-0.05317587032914162,0.01056449394673109,0.02286856435239315
1761378976348977200,4.16497705078125,-0.07581833004951477,0.01281646266579628,0.013629792258143425
1761378976359033000,4.175033203125,-0.07384572923183441,0.002246642718091607,0.019328158348798752
1761378976369089000,4.185089111328125,-0.04434189945459366,-0.0036759611684828997,0.04265265539288521
1761378976379144200,4.195144287109375,-0.014916365034878254,-0.0011470235185697675,0.07954861968755722
1761378976389200100,4.2052001953125,0.009861152619123459,0.011120827868580818,0.12068486958742142
1761378976399255300,4.21525537109375,0.036315396428108215,0.03819212689995766,0.146539106965065
1761378976409311200,4.225311279296875,0.0460207536816597,0.056831859052181244,0.15667802095413208
1761378976419366100,4.2353662109375,0.03815404325723648,0.07890146970748901,0.15047605335712433
1761378976429422000,4.245422119140625,0.020061591640114784,0.12336454540491104,0.1328006535768509
1761378976439477200,4.255477294921875,0.0020453077740967274,0.1688542664051056,0.11149616539478302
1761378976449533200,4.265533203125,0.0021342572290450335,0.187991201877594,0.08536896109580994
1761378976459588400,4.27558837890625,0.022432072088122368,0.19958607852458954,0.0752478837966919
1761378976469644300,4.285644287109375,0.05360064283013344,0.19828645884990692,0.09093842655420303
1761378976479700000,4.295699951171875,0.07337994128465652,0.1952989250421524,0.11910641938447952
1761378976489755100,4.305755126953125,0.10708091408014297,0.1776410937309265,0.1592985838651657
1761378976499811000,4.31581103515625,0.127316415309906,0.16967585682868958,0.20301596820354462
1761378976509866200,4.3258662109375,0.13079608976840973,0.1684316247701645,0.23887702822685242
1761378976519922200,4.335922119140625,0.12208409607410431,0.18221481144428253,0.28447940945625305
1761378976529977000,4.34597705078125,0.0999004989862442,0.2068871408700943,0.32215434312820435
1761378976540033000,4.356032958984375,0.08548720180988312,0.21335382759571075,0.29046830534935
1761378976550088200,4.366088134765625,0.08004476875066757,0.21436049044132233,0.19704648852348328
1761378976560144100,4.37614404296875,0.07414320111274719,0.21094392240047455,0.09984564036130905
1761378976570200300,4.386200439453125,0.05924707651138306,0.20963019132614136,0.03755030408501625
1761378976580255200,4.396255126953125,0.0506216324865818,0.196583092212677,0.013088637962937355
1761378976590311200,4.406311279296875,0.06332171708345413,0.17616437375545502,-0.014602910727262497
1761378976600366000,4.416365966796875,0.08742199093103409,0.16662812232971191,-0.07621487975120544
1761378976610422000,4.426422119140625,0.1256956160068512,0.16610108315944672,-0.14623497426509857
1761378976620477200,4.436477294921875,0.165574848651886,0.1866106241941452,-0.18132585287094116
1761378976630536200,4.4465361328125,0.1953393965959549,0.2116509974002838,-0.17329934239387512
1761378976640591000,4.456591064453125,0.21597570180892944,0.2251681387424469,-0.12106011062860489
1761378976650647000,4.46664697265625,0.23175892233848572,0.21698078513145447,-0.02906946837902069
1761378976660702200,4.4767021484375,0.2347717583179474,0.20086093246936798,0.0697638988494873
1761378976670758100,4.486758056640625,0.2193310260772705,0.17885975539684296,0.15200577676296234
1761378976680814300,4.496814453125,0.1846846342086792,0.15878617763519287,0.20703627169132233
1761378976690869000,4.506868896484375,0.14575853943824768,0.1454213708639145,0.20695078372955322
1761378976700925200,4.51692529296875,0.11005459725856781,0.1336832344532013,0.16702280938625336
1761378976710980000,4.52697998046875,0.0794072076678276,0.13921967148780823,0.10759144276380539
1761378976721036300,4.537036376953125,0.053947389125823975,0.14846430718898773,0.06346872448921204
1761378976731091200,4.54709130859375,0.03966858237981796,0.16010764241218567,0.04691797494888306
1761378976741147400,4.5571474609375,0.03647918254137039,0.16147571802139282,0.05831896513700485
1761378976751202000,4.5672021484375,0.053829409182071686,0.15881787240505219,0.09887731075286865
1761378976761258200,4.57725830078125,0.09637793153524399,0.1428474336862564,0.16693252325057983
1761378976771314200,4.587314208984375,0.13714081048965454,0.1351138800382614,0.24235165119171143
1761378976781369000,4.597369140625,0.15448544919490814,0.12386069446802139,0.3156743347644806
1761378976791425300,4.60742529296875,0.14393852651119232,0.12085185199975967,0.3564622402191162
1761378976801480200,4.617480224609375,0.1385008841753006,0.11871999502182007,0.3300594091415405
1761378976811536400,4.627536376953125,0.14680036902427673,0.10074019432067871,0.24129225313663483
1761378976821591000,4.637591064453125,0.1565219610929489,0.08307944238185883,0.11011132597923279
1761378976831647200,4.647647216796875,0.16072364151477814,0.05363473296165466,-0.02534317411482334
1761378976841703200,4.657703125,0.1696622669696808,0.03633377328515053,-0.13137027621269226
1761378976851758300,4.66775830078125,0.16303898394107819,0.03798040375113487,-0.17385675013065338
1761378976861814300,4.677814208984375,0.13336364924907684,0.04056287184357643,-0.15683569014072418
1761378976871869200,4.687869140625,0.09730524569749832,0.04411260038614273,-0.10484199225902557
1761378976881925000,4.697925048828125,0.0656285434961319,0.05770803615450859,-0.035242676734924316
1761378976891984000,4.70798388671875,0.03912503272294998,0.07130640745162964,0.02472398802638054
1761378976902039800,4.718039794921875,0.018128937110304832,0.08568774163722992,0.06107187643647194
1761378976912095700,4.728095703125,0.00749093946069479,0.09335871040821075,0.06241197884082794
1761378976922151000,4.73815087890625,-0.0004069310089107603,0.08637936413288116,0.02383582480251789
1761378976932206800,4.748206787109375,-0.004013383761048317,0.05215614661574364,-0.047980308532714844
1761378976942262000,4.758261962890625,0.0005917543894611299,-0.00842437706887722,-0.12574061751365662
1761378976952317700,4.768317626953125,0.015487080439925194,-0.0677846372127533,-0.18943384289741516
1761378976962372900,4.778372802734375,0.018274610862135887,-0.12052561342716217,-0.21914859116077423
1761378976972428800,4.7884287109375,0.01842241734266281,-0.14804725348949432,-0.2037842869758606
1761378976982484000,4.79848388671875,0.02335379272699356,-0.16105040907859802,-0.16077396273612976
1761378976992540000,4.808539794921875,0.022293055430054665,-0.16278572380542755,-0.1123260110616684
1761378977002595800,4.818595947265625,0.008156729862093925,-0.14495666325092316,-0.05961645767092705
1761378977012650800,4.828650634765625,-0.015214372426271439,-0.14521871507167816,-0.014436463825404644
1761378977022706700,4.838706787109375,-0.03050917387008667,-0.14604535698890686,0.010755442082881927
1761378977032761900,4.848761962890625,-0.03749384731054306,-0.14619609713554382,0.01894546113908291
1761378977042817800,4.85881787109375,-0.030281739309430122,-0.16450931131839752,0.012208995409309864
1761378977052873000,4.868873046875,-0.01182230468839407,-0.18580155074596405,-0.00035473305615596473
1761378977062929000,4.878928955078125,0.006134325172752142,-0.2122637927532196,-0.018790198490023613
1761378977072984800,4.88898486328125,0.030955785885453224,-0.2358199805021286,-0.04540769383311272
1761378977083039700,4.899039794921875,0.0496802031993866,-0.2557191252708435,-0.07447876036167145
1761378977093095700,4.909095703125,0.06435715407133102,-0.2811070382595062,-0.09786637872457504
1761378977103150800,4.91915087890625,0.06710713356733322,-0.317021906375885,-0.10077108442783356
1761378977113206800,4.929206787109375,0.04771079868078232,-0.3528379499912262,-0.05378227308392525
1761378977123262000,4.939261962890625,0.0027915253303945065,-0.3716830015182495,0.03808559849858284
1761378977133317600,4.949317626953125,-0.04936062544584274,-0.35699939727783203,0.1406785547733307
1761378977143373800,4.959373779296875,-0.09290650486946106,-0.3354714810848236,0.2241036742925644
1761378977153428700,4.9694287109375,-0.13137027621269226,-0.31957507133483887,0.2454875260591507
1761378977163485000,4.97948486328125,-0.1371791660785675,-0.3355870544910431,0.21756960451602936
1761378977173539800,4.989539794921875,-0.12466789782047272,-0.3509625494480133,0.15620611608028412
1761378977183595800,4.999595703125,-0.09628738462924957,-0.38114044070243835,0.06848478317260742
1761378977193652000,5.00965185546875,-0.0737338736653328,-0.40805938839912415,-0.01577416993677616
1761378977203706600,5.01970654296875,-0.06221969798207283,-0.4325213134288788,-0.06081008538603783
1761378977213762800,5.0297626953125,-0.06160823628306389,-0.44390180706977844,-0.048230111598968506
1761378977223817700,5.039817626953125,-0.06667596846818924,-0.4484637975692749,0.012687832117080688
1761378977233874000,5.0498740234375,-0.07807429879903793,-0.43884339928627014,0.11016858369112015
1761378977243928800,5.0599287109375,-0.09406444430351257,-0.43571925163269043,0.20828795433044434
1761378977253985000,5.069985107421875,-0.10643482953310013,-0.4376923739910126,0.23372779786586761
1761378977264040700,5.080040771484375,-0.11315079033374786,-0.46030953526496887,0.17293661832809448
1761378977274095900,5.090095947265625,-0.10951077938079834,-0.48186489939689636,0.07818987965583801
1761378977284151800,5.10015185546875,-0.11001358926296234,-0.4827541410923004,-0.005361475981771946
1761378977294207000,5.11020703125,-0.11406078934669495,-0.48109713196754456,-0.046661511063575745
1761378977304263000,5.120262939453125,-0.10934033989906311,-0.4831906259059906,-0.049743056297302246
1761378977314317800,5.13031787109375,-0.10658449679613113,-0.4931606948375702,0.000639424950350076
1761378977324373800,5.140373779296875,-0.11257687956094742,-0.5097023844718933,0.07001397013664246
1761378977334429700,5.1504296875,-0.11580036580562592,-0.5114478468894958,0.13999545574188232
1761378977344484900,5.16048486328125,-0.1311553567647934,-0.5138640999794006,0.19860577583312988
1761378977354540800,5.170540771484375,-0.13561588525772095,-0.506499171257019,0.21691899001598358
1761378977364596000,5.180595947265625,-0.13089409470558167,-0.49852004647254944,0.20561228692531586
1761378977374652000,5.19065185546875,-0.12475471198558807,-0.5085689425468445,0.18034793436527252
1761378977384706800,5.200706787109375,-0.12584048509597778,-0.5311211347579956,0.13139396905899048
1761378977394762800,5.2107626953125,-0.10715734213590622,-0.5299869179725647,0.05548882484436035
1761378977404818700,5.220818603515625,-0.07395225763320923,-0.542750358581543,-0.0318458154797554
1761378977414873900,5.230873779296875,-0.04296770691871643,-0.5338982939720154,-0.12216425687074661
1761378977424929800,5.2409296875,-0.01920032687485218,-0.5057430863380432,-0.20629777014255524
1761378977434985000,5.25098486328125,-0.03405890241265297,-0.47018828988075256,-0.26473525166511536
1761378977445040600,5.26104052734375,-0.057381533086299896,-0.4337535798549652,-0.28049236536026
1761378977455096800,5.271096923828125,-0.0847601592540741,-0.40462151169776917,-0.2560434937477112
1761378977465151700,5.28115185546875,-0.11116620153188705,-0.39554306864738464,-0.19907128810882568
1761378977475207700,5.291207763671875,-0.13293328881263733,-0.3782719373703003,-0.1129918023943901
1761378977485262800,5.301262939453125,-0.12769457697868347,-0.39440083503723145,-0.03524933382868767
1761378977495318800,5.31131884765625,-0.09856439381837845,-0.41030949354171753,0.030775755643844604
1761378977505375000,5.321375,-0.05983323976397514,-0.4336246848106384,0.07653605192899704
1761378977515429600,5.3314296875,-0.023620640859007835,-0.45094960927963257,0.0895775556564331
1761378977525485800,5.34148583984375,-0.018738001585006714,-0.44984200596809387,0.08194919675588608
1761378977535540700,5.351540771484375,-0.038898661732673645,-0.4245949685573578,0.04872093349695206
1761378977545597000,5.361596923828125,-0.06563946604728699,-0.3874877989292145,0.01455870270729065
1761378977555651800,5.37165185546875,-0.09254271537065506,-0.3742196559906006,0.005446164403110743
1761378977565708000,5.3817080078125,-0.10916297137737274,-0.3761126399040222,0.014906245283782482
1761378977575763700,5.391763671875,-0.12609454989433289,-0.3789212107658386,0.03014139086008072
1761378977585819000,5.40181884765625,-0.12641093134880066,-0.379791259765625,0.03322133794426918
1761378977595874800,5.411874755859375,-0.10935232043266296,-0.38540735840797424,0.00043116576853208244
1761378977605929700,5.4219296875,-0.0948929563164711,-0.39553961157798767,-0.06549166142940521
1761378977615986000,5.43198583984375,-0.10268057137727737,-0.3981790542602539,-0.13747291266918182
1761378977626041900,5.442041748046875,-0.12659309804439545,-0.40055567026138306,-0.19227036833763123
1761378977636096800,5.4520966796875,-0.1478283405303955,-0.38840872049331665,-0.21020516753196716
1761378977646152700,5.462152587890625,-0.1459614634513855,-0.2805083692073822,-0.21069519221782684
1761378977656208000,5.472207763671875,-0.16515779495239258,-0.22561927139759064,-0.1887613981962204
1761378977666263800,5.482263916015625,-0.1478259414434433,-0.1823200136423111,-0.13887186348438263
1761378977676319000,5.492319091796875,-0.13832750916481018,-0.13952460885047913,-0.06937028467655182
1761378977686375000,5.502375,-0.11850614100694656,-0.16280116140842438,-0.052568934857845306
1761378977696430800,5.512430908203125,-0.08514498919248581,-0.16596153378486633,-0.06017039716243744
1761378977706485800,5.52248583984375,-0.0654197558760643,-0.1502363681793213,-0.05374658480286598
1761378977716541700,5.532541748046875,-0.07233811169862747,-0.09732788801193237,-0.04591289535164833
1761378977726596900,5.542596923828125,-0.0963374525308609,-0.0223883967846632,-0.04734780639410019
1761378977736652800,5.55265283203125,-0.1166914626955986,0.05631786584854126,-0.046074818819761276
1761378977746709000,5.562708984375,-0.12837901711463928,0.10782819241285324,-0.043470777571201324
1761378977756764000,5.572763916015625,-0.12100498378276825,0.12951751053333282,-0.049373939633369446
1761378977766819800,5.58281982421875,-0.0897301509976387,0.1451803594827652,-0.04493524879217148
1761378977776874800,5.592874755859375,-0.05461956933140755,0.12771561741828918,-0.0445147380232811
