time,seconds_elapsed,z,y,x
1761380279073574000,0.127573974609375,-0.004603158682584763,-0.07205937057733536,-0.07491984963417053
1761380279083628800,0.13762890625,-0.0037655015476047993,-0.05808170139789581,-0.06017701327800751
1761380279093684000,0.14768408203125,0.008479446172714233,-0.036250170320272446,-0.03931354358792305
1761380279103739000,0.15773876953125,0.01659245789051056,-0.02438553050160408,-0.004314994439482689
1761380279113793800,0.167793701171875,0.02133874222636223,-0.009059838019311428,0.0333130769431591
1761380279123849000,0.177848876953125,0.02223910763859749,0.0007277480326592922,0.06355652958154678
1761380279133902800,0.18790283203125,0.026020264253020287,0.01817091926932335,0.07126318663358688
1761380279143957800,0.197957763671875,0.020531978458166122,0.014181497506797314,0.061560045927762985
1761380279154013000,0.208012939453125,0.016819797456264496,0.005242331884801388,0.04363750293850899
1761380279164067800,0.21806787109375,0.016319015994668007,-0.01689537987112999,0.025737185031175613
1761380279174122800,0.228122802734375,0.03476087376475334,-0.03290310874581337,0.011053846217691898
1761380279184178000,0.238177978515625,0.0470975860953331,-0.04241306334733963,0.000684359110891819
1761380279194232800,0.24823291015625,0.05007313936948776,-0.04446769133210182,0.0034260833635926247
1761380279204287700,0.258287841796875,0.04415309429168701,-0.023755617439746857,0.0208443570882082
1761380279214343000,0.268343017578125,0.043805018067359924,-0.0066613201051950455,0.03192204236984253
1761380279224397800,0.278397705078125,0.052653953433036804,0.011362219229340553,0.03410310298204422
1761380279234453000,0.288452880859375,0.06105010211467743,0.0170573890209198,0.00931147113442421
1761380279244508000,0.2985078125,0.08675358444452286,-0.00017433194443583488,-0.03500787913799286
1761380279254561800,0.308561767578125,0.132016122341156,-0.02105058543384075,-0.08695469796657562
1761380279264617000,0.318616943359375,0.19499129056930542,-0.05142427235841751,-0.12552902102470398
1761380279274671900,0.328671875,0.250458300113678,-0.06805038452148438,-0.1295834183692932
1761380279284726800,0.338726806640625,0.28441572189331055,-0.08159123361110687,-0.1125146746635437
1761380279294782000,0.348781982421875,0.2927394509315491,-0.08585042506456375,-0.08588306605815887
1761380279304836900,0.3588369140625,0.28145721554756165,-0.06760617345571518,-0.08439435809850693
1761380279314891800,0.368891845703125,0.25041675567626953,-0.04841969162225723,-0.11328113824129105
1761380279324947000,0.378947021484375,0.20024821162223816,-0.022430365905165672,-0.1604594588279724
1761380279335001900,0.389001953125,0.1461849808692932,0.005625503603368998,-0.20931699872016907
1761380279345056800,0.399056884765625,0.08364496380090714,0.0322507880628109,-0.2538743317127228
1761380279355112000,0.40911181640625,0.027683429419994354,0.02943955734372139,-0.28860461711883545
1761380279365165800,0.419165771484375,-0.007883438840508461,-0.004012423101812601,-0.30907297134399414
1761380279375220700,0.429220703125,-0.03828129172325134,-0.0160890594124794,-0.30861249566078186
1761380279385276000,0.43927587890625,-0.07009611278772354,-0.010606657713651657,-0.3016761243343353
1761380279395330800,0.449330810546875,-0.09742040932178497,-0.016979869455099106,-0.3130432963371277
1761380279405386000,0.459385986328125,-0.11603552103042603,-0.020267298445105553,-0.3531215488910675
1761380279415441000,0.46944091796875,-0.12772707641124725,-0.042838118970394135,-0.42772096395492554
1761380279425495800,0.479495849609375,-0.13107317686080933,-0.036802198737859726,-0.515182614326477
1761380279435551000,0.489551025390625,-0.15526746213436127,-0.0020332997664809227,-0.5978673696517944
1761380279445605600,0.499605712890625,-0.1941065490245819,0.015153609216213226,-0.6461272835731506
1761380279455660800,0.509660888671875,-0.23449444770812988,0.020146237686276436,-0.620758593082428
1761380279465716000,0.519716064453125,-0.26639610528945923,-0.035209205001592636,-0.531051516532898
1761380279475769900,0.529769775390625,-0.25166481733322144,-0.15836548805236816,-0.41899341344833374
1761380279485824800,0.53982470703125,-0.16691137850284576,-0.2812836468219757,-0.3109622597694397
1761380279495880000,0.5498798828125,-0.03723515197634697,-0.309732586145401,-0.2052939087152481
1761380279505934800,0.559934814453125,0.08308781683444977,-0.23790180683135986,-0.09034459292888641
1761380279515989800,0.56998974609375,0.1463589370250702,-0.04281754046678543,0.006937479134649038
1761380279526045000,0.580044921875,0.13449187576770782,0.20528706908226013,0.09871551394462585
1761380279536099800,0.590099853515625,0.06992458552122116,0.4368675649166107,0.1812436729669571
1761380279546155000,0.600155029296875,-0.03723050653934479,0.6379765272140503,0.20313294231891632
1761380279556210000,0.6102099609375,-0.13854114711284637,0.7575864791870117,0.12343518435955048
1761380279566264800,0.620264892578125,-0.24667561054229736,0.6922900676727295,-0.0560685396194458
1761380279576320000,0.630320068359375,-0.324445515871048,0.51291823387146,-0.320438414812088
1761380279586374700,0.640374755859375,-0.32963117957115173,0.3344433307647705,-0.5854225754737854
1761380279596428800,0.6504287109375,-0.19288399815559387,0.1957288384437561,-0.7775115966796875
1761380279606484000,0.66048388671875,-0.11094842106103897,0.20989306271076202,-0.830768883228302
1761380279616539000,0.670538818359375,-0.16173037886619568,0.10654111951589584,-0.7193920016288757
1761380279626593800,0.68059375,-0.3261374831199646,-0.04488329216837883,-0.4807908236980438
1761380279636649000,0.69064892578125,-0.5484544634819031,-0.5051701664924622,-0.1543748676776886
1761380279646703900,0.700703857421875,-0.636761486530304,-1.0300896167755127,0.1025087907910347
1761380279656758800,0.7107587890625,-0.5522199869155884,-1.3859750032424927,0.12800642848014832
1761380279666814000,0.72081396484375,-0.24379318952560425,-1.2359944581985474,0.03275511413812637
1761380279676868900,0.730868896484375,0.15163429081439972,-0.7849292755126953,-0.019578661769628525
1761380279686923800,0.740923828125,0.45279303193092346,-0.3961302638053894,0.026933494955301285
1761380279696978700,0.750978759765625,0.6932135820388794,-0.0019568530842661858,0.2939896881580353
1761380279707033900,0.761033935546875,0.8383622169494629,0.37533196806907654,0.8155901432037354
1761380279717087700,0.771087646484375,0.8913990259170532,0.650287389755249,1.4498651027679443
1761380279727143000,0.781142822265625,0.8186573386192322,1.0226621627807617,1.993682861328125
1761380279737197800,0.79119775390625,0.6069610714912415,1.082859754562378,2.2807557582855225
1761380279747253000,0.8012529296875,0.33773505687713623,0.9588921666145325,2.274678945541382
1761380279757307600,0.8113076171875,-0.01841960847377777,0.8947773575782776,2.098479986190796
1761380279767362800,0.82136279296875,-0.3996521830558777,0.6683120727539062,1.895725965499878
1761380279777418000,0.83141796875,-0.5888204574584961,0.3205368220806122,1.6877403259277344
1761380279787473000,0.841472900390625,-0.6521971821784973,-0.05166197195649147,1.4665333032608032
1761380279797527800,0.85152783203125,-0.6589877009391785,-0.28135085105895996,1.2556037902832031
1761380279807583000,0.8615830078125,-0.573250949382782,-0.40093886852264404,1.042342185974121
1761380279817638000,0.871637939453125,-0.3681691884994507,-0.39933136105537415,0.8188766837120056
1761380279827692800,0.88169287109375,-0.05692879110574722,-0.21408390998840332,0.6071794033050537
1761380279837747000,0.891746826171875,0.2611951231956482,-0.06111752614378929,0.44562461972236633
1761380279847801900,0.9018017578125,0.5268584489822388,-0.1341138333082199,0.3103136122226715
1761380279857856800,0.911856689453125,0.6851404905319214,-0.32905614376068115,0.20652171969413757
1761380279867912000,0.921911865234375,0.6906700134277344,-0.4329735338687897,0.1008872389793396
1761380279877966800,0.931966796875,0.52154940366745,-0.5383819937705994,-0.0987534373998642
1761380279888022000,0.94202197265625,0.28864291310310364,-0.5698114037513733,-0.3691796362400055
1761380279898076700,0.95207666015625,0.10644595324993134,-0.5453572273254395,-0.6486618518829346
1761380279908131800,0.9621318359375,0.08965767174959183,-0.5205504298210144,-0.9000098705291748
1761380279918187000,0.97218701171875,0.2656550407409668,-0.5630811452865601,-1.046640157699585
1761380279928242000,0.982241943359375,0.5216073989868164,-0.5492655038833618,-1.0593807697296143
1761380279938296800,0.992296875,0.6310688853263855,-0.4724830985069275,-0.83943772315979
1761380279948351700,1.002351806640625,0.5591979622840881,-0.34039023518562317,-0.3042265772819519
1761380279958406000,1.012406005859375,0.38596171140670776,-0.10277076810598373,0.45721644163131714
1761380279968460500,1.02246044921875,0.18548627197742462,0.18422864377498627,1.3114244937896729
1761380279978515700,1.032515625,0.08008874207735062,0.5134614109992981,2.0088841915130615
1761380279988570600,1.042570556640625,0.04673979431390762,0.7474112510681152,2.3134143352508545
1761380279998625500,1.05262548828125,-0.004227516707032919,0.8999449014663696,2.109311103820801
1761380280008680700,1.0626806640625,-0.08969464898109436,0.9786951541900635,1.4649522304534912
1761380280018735600,1.072735595703125,-0.13018935918807983,0.9546167254447937,0.578755259513855
1761380280028790800,1.082790771484375,-0.1517711728811264,0.8080723881721497,-0.29360800981521606
1761380280038845400,1.092845458984375,-0.21768520772457123,0.6664358973503113,-0.9278944134712219
1761380280048900600,1.102900634765625,-0.3276008367538452,0.4877029061317444,-1.1786497831344604
1761380280058955800,1.112955810546875,-0.45489567518234253,0.3014683127403259,-1.1181294918060303
1761380280069010400,1.123010498046875,-0.5138908624649048,0.06887268275022507,-0.900628924369812
1761380280079065600,1.133065673828125,-0.4871343672275543,-0.14470110833644867,-0.616718590259552
1761380280089119700,1.14311962890625,-0.35964080691337585,-0.23741886019706726,-0.4044139087200165
1761380280099174400,1.15317431640625,-0.16369688510894775,-0.12914271652698517,-0.3168281316757202
1761380280109229600,1.1632294921875,0.010573100298643112,0.1376047432422638,-0.375503271818161
1761380280119284700,1.17328466796875,0.10873135924339294,0.33193907141685486,-0.5719987154006958
1761380280129339600,1.183339599609375,0.20370325446128845,0.4175523817539215,-0.830182671546936
1761380280139394600,1.19339453125,0.298399418592453,0.46040505170822144,-1.052017331123352
1761380280149449500,1.203449462890625,0.346201092004776,0.498177707195282,-1.1757885217666626
1761380280159504600,1.213504638671875,0.3005736768245697,0.43403682112693787,-1.1800780296325684
1761380280169559800,1.223559814453125,0.2547263205051422,0.27735087275505066,-1.083117961883545
1761380280179614500,1.233614501953125,0.27349016070365906,0.03994043916463852,-0.9141112565994263
1761380280189669600,1.243669677734375,0.334484726190567,-0.27723756432533264,-0.6575660705566406
1761380280199724800,1.253724853515625,0.41736602783203125,-0.4969062805175781,-0.3388091027736664
1761380280209779500,1.263779541015625,0.42875051498413086,-0.5083864331245422,0.009203784167766571
1761380280219833600,1.27383349609375,0.35569337010383606,-0.5553193092346191,0.3886443078517914
1761380280229888800,1.283888671875,0.18360662460327148,-0.5600369572639465,0.7405186891555786
1761380280239943400,1.293943359375,0.033085282891988754,-0.578980028629303,0.9800809621810913
1761380280249998600,1.30399853515625,0.09453627467155457,-0.5485570430755615,0.9284257888793945
1761380280260053800,1.3140537109375,0.27417686581611633,-0.4140018820762634,0.4082145392894745
1761380280270108700,1.324108642578125,0.3019154369831085,-0.4356807470321655,-0.3865741491317749
1761380280280163600,1.33416357421875,0.14011800289154053,-0.3340502381324768,-1.0949808359146118
1761380280290218500,1.344218505859375,-0.07680529356002808,-0.238258957862854,-1.4344666004180908
1761380280300273700,1.354273681640625,-0.31465858221054077,-0.263848215341568,-1.4702762365341187
1761380280310328800,1.364328857421875,-0.3948118984699249,-0.43345439434051514,-1.3869491815567017
1761380280320383500,1.374383544921875,-0.1957230120897293,-0.5006970763206482,-1.4606854915618896
1761380280330438700,1.384438720703125,0.2089887410402298,-0.5361452102661133,-1.7933682203292847
1761380280340493600,1.39449365234375,0.6090192198753357,-0.5802631378173828,-2.380051851272583
1761380280350547500,1.40454736328125,0.7189096212387085,-0.315308541059494,-2.9774680137634277
1761380280360602600,1.4146025390625,0.3648626208305359,-0.025769662111997604,-3.0820515155792236
1761380280370657800,1.42465771484375,-0.07380318641662598,-0.07319024205207825,-2.3276009559631348
1761380280380712400,1.43471240234375,-0.20686934888362885,0.00022965297102928162,-0.6994965672492981
1761380280390767600,1.444767578125,-0.23143434524536133,0.01501750573515892,1.2606874704360962
1761380280400822500,1.454822509765625,-0.12315981090068817,-0.04089156538248062,2.763601303100586
1761380280410877700,1.464877685546875,0.0542512908577919,0.017320409417152405,3.392829656600952
1761380280420932600,1.4749326171875,0.17965048551559448,0.34909889101982117,3.2583677768707275
1761380280430987500,1.484987548828125,0.18985846638679504,0.5728428363800049,2.5982725620269775
1761380280441042700,1.495042724609375,-0.10269830375909805,0.7729972004890442,1.6172761917114258
1761380280451097600,1.50509765625,-0.6968041062355042,0.8806140422821045,0.627054750919342
1761380280461152500,1.515152587890625,-1.2268797159194946,0.8215011954307556,-0.14478415250778198
1761380280471206700,1.52520654296875,-1.449831485748291,0.5734552145004272,-0.7416990995407104
1761380280481261800,1.53526171875,-1.4135462045669556,0.31143081188201904,-1.3750678300857544
1761380280491316500,1.54531640625,-1.142164945602417,-0.17409208416938782,-2.004441261291504
1761380280501371600,1.55537158203125,-0.8203464150428772,-0.6669744849205017,-2.4248342514038086
1761380280511426600,1.565426513671875,-0.4650340676307678,-1.1019692420959473,-2.603573799133301
1761380280521481500,1.5754814453125,-0.1069163903594017,-1.3216952085494995,-2.382981061935425
1761380280531536600,1.58553662109375,0.11765705794095993,-1.113369107246399,-1.6443663835525513
1761380280541591600,1.595591552734375,0.17888739705085754,-0.6105966567993164,-0.4498835504055023
1761380280551646700,1.605646728515625,0.10138089209794998,0.11870095878839493,0.9188856482505798
1761380280561701600,1.61570166015625,0.011426765471696854,0.766490638256073,2.0456361770629883
1761380280571756500,1.625756591796875,0.023039812222123146,1.091257095336914,2.6918935775756836
1761380280581811700,1.635811767578125,0.047948624938726425,1.1507829427719116,2.838846445083618
1761380280591866400,1.645866455078125,-0.032328151166439056,1.1434727907180786,2.535463809967041
1761380280601921500,1.655921630859375,-0.2660578191280365,1.0967239141464233,1.8916021585464478
1761380280611975700,1.6659755859375,-0.5620982646942139,0.9600659012794495,1.0296118259429932
1761380280622030600,1.676030517578125,-0.792353093624115,0.7577293515205383,0.16774016618728638
1761380280632085500,1.68608544921875,-0.860637903213501,0.6020488142967224,-0.5276450514793396
1761380280642140700,1.696140625,-0.7802700996398926,0.4798717498779297,-0.9785919785499573
1761380280652195600,1.706195556640625,-0.5484846830368042,0.22916975617408752,-1.1448808908462524
1761380280662250500,1.71625048828125,-0.2866376042366028,-0.04828555881977081,-1.078702688217163
1761380280672305700,1.7263056640625,-0.10946912318468094,-0.3483411371707916,-0.8701179623603821
1761380280682360600,1.736360595703125,0.019067546352744102,-0.6597115397453308,-0.5993836522102356
1761380280692415700,1.746415771484375,0.0586765892803669,-0.7773515582084656,-0.2923654615879059
1761380280702470700,1.756470703125,-0.03801879286766052,-0.6954486966133118,0.018485361710190773
1761380280712525600,1.766525634765625,-0.21993887424468994,-0.44225195050239563,0.2982378602027893
1761380280722580700,1.776580810546875,-0.3997904062271118,-0.20109739899635315,0.45918652415275574
1761380280732635400,1.786635498046875,-0.4386769235134125,0.03944210708141327,0.40804776549339294
1761380280742689500,1.796689453125,-0.2815229892730713,0.36018043756484985,0.11359323561191559
1761380280752744700,1.80674462890625,-0.032254792749881744,0.5742936730384827,-0.36224180459976196
1761380280762799600,1.816799560546875,0.20185384154319763,0.5646136403083801,-0.8790217638015747
1761380280772854500,1.8268544921875,0.3809206485748291,0.494622141122818,-1.3262691497802734
1761380280782909700,1.83690966796875,0.5050460696220398,0.42584413290023804,-1.6386659145355225
1761380280792964600,1.846964599609375,0.622140645980835,0.2304641753435135,-1.7484686374664307
1761380280803019500,1.85701953125,0.6740105152130127,0.23260216414928436,-1.6912559270858765
1761380280813074700,1.86707470703125,0.541876494884491,0.5632069706916809,-1.480615258216858
1761380280823129600,1.877129638671875,0.2370031177997589,0.7195228338241577,-1.1163374185562134
1761380280833184800,1.887184814453125,-0.0645308569073677,0.5434346199035645,-0.7357627153396606
1761380280843239400,1.897239501953125,-0.20537105202674866,-0.1359654664993286,-0.4826425611972809
1761380280853294600,1.907294677734375,-0.04061431065201759,-0.9794159531593323,-0.5036404132843018
1761380280863349800,1.917349853515625,0.3752974271774292,-1.2265024185180664,-0.9381639361381531
1761380280873404400,1.927404296875,0.7846377491950989,-0.7523314356803894,-1.724084496498108
1761380280883458600,1.93745849609375,0.8731191754341125,-0.5801489949226379,-2.5820024013519287
1761380280893513700,1.947513671875,0.6004355549812317,-0.9413735866546631,-3.0827434062957764
1761380280903568400,1.957568359375,0.29425114393234253,-1.6617130041122437,-2.7984631061553955
1761380280913623600,1.96762353515625,0.048612359911203384,-2.2315452098846436,-1.8003817796707153
1761380280923678700,1.9776787109375,0.0014640241861343384,-2.1937732696533203,-0.39214643836021423
1761380280933733600,1.987733642578125,0.00016181077808141708,-1.8284893035888672,0.7662423849105835
1761380280943788500,1.99778857421875,-0.024080146104097366,-0.9941816926002502,1.1053650379180908
1761380280953843700,2.00784375,0.10710547864437103,-0.01236264780163765,0.6168490648269653
1761380280963898600,2.017898681640625,0.31393587589263916,0.6129398345947266,-0.18075117468833923
1761380280973953800,2.027953857421875,0.4356589913368225,0.727008581161499,-0.7102723121643066
1761380280984008700,2.0380087890625,0.3774694502353668,0.4113350808620453,-0.6414921879768372
1761380280994064000,2.04806396484375,0.28490641713142395,-0.07891704887151718,0.047003552317619324
1761380281004118800,2.058118896484375,0.27786287665367126,-0.36455947160720825,1.1397907733917236
1761380281014172700,2.068172607421875,0.1094212681055069,-0.3341674506664276,2.2518792152404785
1761380281024227800,2.078227783203125,-0.15913935005664825,-0.1115892305970192,3.005664110183716
1761380281034282800,2.08828271484375,-0.4304071068763733,0.23361849784851074,3.094928503036499
1761380281044337700,2.098337646484375,-0.6277928948402405,0.49890634417533875,2.513625383377075
1761380281054392800,2.108392822265625,-0.6986674666404724,0.7492015361785889,1.592933177947998
1761380281064448000,2.118447998046875,-0.6399279832839966,1.023767113685608,0.6794511079788208
1761380281074502700,2.128502685546875,-0.6348669528961182,1.2335072755813599,-0.026791153475642204
1761380281084557800,2.138557861328125,-0.42441752552986145,1.448836326599121,-0.2973118722438812
1761380281094612700,2.14861279296875,-0.03127864748239517,1.7273809909820557,0.01104935072362423
1761380281104667600,2.158667724609375,0.235366091132164,1.620361566543579,0.8127351403236389
1761380281114722800,2.168722900390625,0.26711708307266235,0.9539180994033813,1.8612743616104126
1761380281124777700,2.17877783203125,0.24256247282028198,0.18213026225566864,2.6006317138671875
1761380281134833000,2.1888330078125,0.1951356679201126,-0.17404316365718842,2.761193037033081
1761380281144886800,2.19888671875,0.15741784870624542,-0.17434464395046234,2.465585708618164
1761380281154941700,2.208941650390625,0.18341298401355743,0.10725802183151245,2.094116449356079
1761380281164996900,2.218996826171875,0.20172327756881714,0.36944860219955444,1.8308367729187012
1761380281175051800,2.2290517578125,0.24147211015224457,0.4335525333881378,1.594704508781433
1761380281185106700,2.239106689453125,0.3021266758441925,0.47454577684402466,1.3219594955444336
1761380281195161900,2.249161865234375,0.30054935812950134,0.4121477007865906,1.0686206817626953
1761380281205216800,2.259216796875,0.22700802981853485,0.19081450998783112,0.8925862908363342
1761380281215271700,2.269271728515625,0.15337516367435455,-0.08253967761993408,0.7080814838409424
1761380281225326800,2.279326904296875,0.06649219989776611,-0.2617826461791992,0.5187797546386719
1761380281235381800,2.2893818359375,-0.04003624990582466,-0.3939692974090576,0.331096351146698
1761380281245436700,2.299436767578125,-0.12869501113891602,-0.4362693428993225,0.15096786618232727
1761380281255491800,2.309491943359375,-0.1772889792919159,-0.4270845353603363,-0.006458223797380924
1761380281265546800,2.319546630859375,-0.1902625560760498,-0.35926127433776855,-0.09683206677436829
1761380281275602000,2.329601806640625,-0.1817053258419037,-0.33673834800720215,-0.0762326717376709
1761380281285655800,2.33965576171875,-0.1956174224615097,-0.37291818857192993,0.005072836298495531
1761380281295710700,2.349710693359375,-0.184814453125,-0.4510674476623535,0.08750082552433014
1761380281305766000,2.359765869140625,-0.10617902874946594,-0.44715365767478943,0.10543827712535858
1761380281315820800,2.36982080078125,-0.020600460469722748,-0.3637293875217438,0.005606293678283691
1761380281325875700,2.379875732421875,-0.0036023007705807686,-0.2569566071033478,-0.2172238528728485
1761380281335931000,2.389930908203125,-0.042842354625463486,-0.11038788408041,-0.498534232378006
1761380281345985800,2.39998583984375,-0.09786565601825714,0.05151739716529846,-0.7277634739875793
1761380281356040700,2.410040771484375,-0.1713307946920395,0.17797233164310455,-0.8388941287994385
1761380281366096000,2.420095947265625,-0.2527103126049042,0.17922988533973694,-0.8181344866752625
1761380281376150800,2.43015087890625,-0.24399729073047638,0.12032575160264969,-0.6580522656440735
1761380281386205700,2.440205810546875,-0.1019112691283226,0.02563919499516487,-0.4162106215953827
1761380281396260900,2.4502607421875,0.1516391485929489,-0.19989366829395294,-0.20098364353179932
1761380281406315800,2.460315673828125,0.33389362692832947,-0.352184921503067,-0.06715928018093109
1761380281416371000,2.470370849609375,0.34838220477104187,-0.34088993072509766,-0.028765644878149033
1761380281426424800,2.4804248046875,0.16772136092185974,-0.13283340632915497,-0.05623321980237961
1761380281436479700,2.490479736328125,-0.15153232216835022,0.18354807794094086,-0.02584971860051155
1761380281446535000,2.500534912109375,-0.6091273427009583,0.313862681388855,0.09970899671316147
1761380281456589800,2.51058984375,-0.9815574288368225,0.12689517438411713,0.2599305510520935
1761380281466644700,2.520644775390625,-1.163015365600586,-0.17225025594234467,0.261543333530426
1761380281476700000,2.530699951171875,-1.111759066581726,-0.4246719777584076,-0.09315202385187149
1761380281486754800,2.5407548828125,-0.8295068144798279,-0.4599713981151581,-0.53438800573349
1761380281496809700,2.550809814453125,-0.5233367085456848,-0.2719372808933258,-0.5099332928657532
1761380281506865000,2.560864990234375,-0.2813973128795624,-0.0432061143219471,-0.06394539773464203
1761380281516919800,2.570919921875,-0.20557788014411926,0.32372501492500305,0.6547715663909912
1761380281526974700,2.580974609375,-0.23169471323490143,0.3370448052883148,1.4223486185073853
1761380281537029600,2.591029541015625,-0.08533691614866257,0.3083895444869995,1.892711877822876
1761380281547084800,2.601084716796875,0.33797305822372437,0.3443640470504761,1.8105205297470093
1761380281557138700,2.611138671875,1.0048975944519043,0.18543337285518646,1.0495034456253052
1761380281567193900,2.62119384765625,1.6690369844436646,-0.04628826305270195,-0.14358869194984436
1761380281577248800,2.631248779296875,1.9917817115783691,-0.3648219108581543,-1.255165696144104
1761380281587304000,2.641303955078125,1.819950819015503,-0.5390688180923462,-1.7634466886520386
1761380281597358600,2.651358642578125,1.2962348461151123,-0.8360996842384338,-1.585292100906372
1761380281607413800,2.661413818359375,0.7171341776847839,-0.9847033023834229,-0.8257582187652588
1761380281617469000,2.671468994140625,0.19405095279216766,-0.8255730867385864,0.31439143419265747
1761380281627523600,2.681523681640625,-0.044145368039608,-0.44145387411117554,1.4033182859420776
1761380281637578800,2.691578857421875,-0.03260260820388794,0.07488404959440231,2.1400673389434814
1761380281647633700,2.701633544921875,0.15557634830474854,0.638995885848999,2.3809099197387695
1761380281657688800,2.711688720703125,0.3808876872062683,0.8894963264465332,2.1629533767700195
1761380281667743700,2.72174365234375,0.5686189532279968,0.6979205012321472,1.617753505706787
1761380281677798700,2.731798583984375,0.6515198349952698,0.19175752997398376,0.9427197575569153
1761380281687853800,2.741853759765625,0.6394951343536377,-0.11747568845748901,0.2780408263206482
1761380281697907700,2.75190771484375,0.586820125579834,-0.23193249106407166,-0.18731629848480225
1761380281707962600,2.761962646484375,0.4883875250816345,-0.13637001812458038,-0.4231293499469757
1761380281718017800,2.772017822265625,0.26428478956222534,-0.020095806568861008,-0.44090840220451355
1761380281728073000,2.782072998046875,-0.08644632995128632,0.20001979172229767,-0.3131224811077118
1761380281738127600,2.792127685546875,-0.48857128620147705,0.29332345724105835,-0.08767478913068771
1761380281748182800,2.802182861328125,-0.7811698913574219,0.09127846360206604,0.2095920443534851
1761380281758238000,2.812238037109375,-0.9104370474815369,-0.17130330204963684,0.753153383731842
1761380281768292600,2.822292724609375,-0.9985381960868835,-0.3209114372730255,1.5884807109832764
1761380281778347800,2.83234765625,-0.9221460819244385,-0.3418852984905243,2.3924713134765625
1761380281788402700,2.842402587890625,-0.6844853162765503,-0.25579115748405457,2.8688175678253174
1761380281798457900,2.852457763671875,-0.3714303970336914,-0.05100451409816742,2.8452980518341064
1761380281808512800,2.8625126953125,-0.07639820873737335,0.2711884677410126,2.3060803413391113
1761380281818567700,2.872567626953125,0.14109134674072266,0.5339892506599426,1.3592177629470825
1761380281828622800,2.882622802734375,0.21938881278038025,0.5596604943275452,0.2507251799106598
1761380281838676700,2.8926767578125,0.22456003725528717,0.5393510460853577,-0.5996255278587341
1761380281848731600,2.902731689453125,0.14733768999576569,0.403976708650589,-1.0460714101791382
1761380281858786800,2.912786865234375,-0.06385336071252823,0.19091637432575226,-1.1099637746810913
1761380281868842000,2.922842041015625,-0.32962697744369507,-0.05610966682434082,-0.9047880172729492
1761380281878896600,2.932896728515625,-0.529068648815155,-0.27349230647087097,-0.6305233836174011
1761380281888951800,2.942951904296875,-0.5916460156440735,-0.4673728346824646,-0.4691123962402344
1761380281899006700,2.9530068359375,-0.5540295243263245,-0.5782192945480347,-0.5065089464187622
1761380281909061600,2.9630615234375,-0.5209746360778809,-0.5635617971420288,-0.7410433888435364
1761380281919116800,2.97311669921875,-0.5527147054672241,-0.4273911416530609,-1.1440932750701904
1761380281929171700,2.983171630859375,-0.6083819270133972,-0.2184043526649475,-1.5891377925872803
1761380281939227000,2.993226806640625,-0.6504679918289185,-0.0750299021601677,-1.9518330097198486
1761380281949281800,3.00328173828125,-0.6286394000053406,0.022799186408519745,-2.17152738571167
1761380281959336700,3.013336669921875,-0.4640909731388092,0.1344580054283142,-2.188396453857422
1761380281969392000,3.02339208984375,-0.2130907028913498,0.19170372188091278,-2.012336492538452
1761380281979446800,3.03344677734375,-0.0030011916533112526,0.2770736813545227,-1.7429749965667725
1761380281989502000,3.043501953125,0.1399112194776535,0.3171318769454956,-1.4721392393112183
1761380281999556000,3.05355615234375,0.22929206490516663,0.2868978977203369,-1.3671246767044067
1761380282009611000,3.063611083984375,0.23575849831104279,0.3465833067893982,-1.5507270097732544
1761380282019666000,3.073666015625,0.09769830107688904,0.32650306820869446,-1.8790197372436523
1761380282029721000,3.08372119140625,-0.15439625084400177,0.14934028685092926,-2.1497697830200195
1761380282039776000,3.09377587890625,-0.34644123911857605,-0.2555772364139557,-2.2235491275787354
1761380282049831000,3.103830810546875,-0.347001314163208,-0.6879377365112305,-2.1774063110351562
1761380282059886000,3.113885986328125,-0.1867912858724594,-0.8717426657676697,-2.046570301055908
1761380282069941000,3.12394091796875,-0.004440655931830406,-0.8450495600700378,-1.954430341720581
1761380282079996000,3.133995849609375,0.15747487545013428,-0.7262466549873352,-2.112571954727173
1761380282090050800,3.14405078125,0.22762519121170044,-0.42514804005622864,-2.3772904872894287
1761380282100106000,3.15410595703125,0.05951489135622978,-0.04848211258649826,-2.390098810195923
1761380282110161200,3.1641611328125,-0.3175937831401825,0.1758095771074295,-2.0088131427764893
1761380282120215800,3.1742158203125,-0.5274419784545898,0.056233249604701996,-1.1411710977554321
1761380282130271000,3.18427099609375,-0.3303501605987549,-0.21695861220359802,0.2405909299850464
1761380282140326100,3.194326171875,0.10836566984653473,-0.587918758392334,1.393363356590271
1761380282150379800,3.2043798828125,0.8333766460418701,-1.1539151668548584,1.5422707796096802
1761380282160435000,3.21443505859375,1.8176878690719604,-1.451207160949707,0.5605288147926331
1761380282170490000,3.224489990234375,2.687535285949707,-1.2511616945266724,-1.1754980087280273
1761380282180545000,3.234544921875,2.841440439224243,-0.7374801635742188,-2.674199342727661
1761380282190600000,3.244599853515625,2.281541109085083,-0.16776423156261444,-3.08195424079895
1761380282200655000,3.254655029296875,1.6558855772018433,0.43594664335250854,-2.1472644805908203
1761380282210710000,3.2647099609375,1.137150526046753,0.6507766246795654,-0.25398504734039307
1761380282220765000,3.274764892578125,0.6266924142837524,0.6425676345825195,1.723137378692627
1761380282230819800,3.28481982421875,0.16810832917690277,0.26768723130226135,3.068486452102661
1761380282240875000,3.294875,-0.006325470749288797,0.1730874925851822,3.8222599029541016
1761380282250930200,3.30493017578125,0.03728272765874863,-0.11124489456415176,3.830138921737671
1761380282260984800,3.31498486328125,-0.017809895798563957,-0.3410172462463379,3.2870664596557617
1761380282271040000,3.3250400390625,-0.11182694137096405,-0.2816993296146393,2.662327766418457
1761380282281095000,3.335094970703125,-0.2905139923095703,0.13753068447113037,2.0568509101867676
1761380282291150000,3.345150146484375,-0.42704707384109497,0.5432187914848328,1.471205472946167
1761380282301205000,3.355205078125,-0.4331006407737732,0.7517085671424866,1.1043894290924072
1761380282311259100,3.365259033203125,-0.4380786120891571,0.8490002155303955,1.0867044925689697
1761380282321314000,3.37531396484375,-0.4341600835323334,0.6463323831558228,1.3432221412658691
1761380282331369000,3.385368896484375,-0.296451210975647,0.3766542673110962,1.714500904083252
1761380282341423900,3.395423828125,-0.07111219316720963,0.05634809657931328,2.067072629928589
1761380282351479000,3.40547900390625,0.05281561240553856,-0.3028060793876648,2.343715190887451
1761380282361534000,3.415533935546875,0.13478803634643555,-0.6029359698295593,2.5664262771606445
1761380282371588900,3.4255888671875,0.1769924759864807,-0.8165606260299683,2.676701784133911
1761380282381644000,3.43564404296875,0.17708083987236023,-0.7164918780326843,2.6485865116119385
1761380282391699200,3.44569921875,0.05557917803525925,-0.36982205510139465,2.555191993713379
1761380282401753900,3.45575390625,-0.15437310934066772,-0.0016807194333523512,2.395871162414551
1761380282411809000,3.46580908203125,-0.2824903428554535,0.30283552408218384,2.1045939922332764
1761380282421864000,3.475864013671875,-0.2856598198413849,0.497481107711792,1.672586441040039
1761380282431919000,3.485919189453125,-0.25100356340408325,0.5568626523017883,1.1802159547805786
1761380282441974000,3.49597412109375,-0.1741296350955963,0.39853936433792114,0.7099797129631042
1761380282452029000,3.50602880859375,-0.002188755664974451,0.06886693835258484,0.3587084710597992
1761380282462084000,3.516083984375,0.16936944425106049,-0.241298645734787,0.1490408331155777
1761380282472139000,3.526138916015625,0.23861056566238403,-0.35741138458251953,0.026142340153455734
1761380282482193000,3.53619287109375,0.1998041868209839,-0.0870908871293068,-0.1149657592177391
1761380282492248000,3.546248046875,0.0026802020147442818,0.2552563548088074,-0.3937060534954071
1761380282502303000,3.556302978515625,-0.27650848031044006,0.40112125873565674,-0.6971999406814575
1761380282512358000,3.56635791015625,-0.47064095735549927,0.44361916184425354,-0.954717218875885
1761380282522413000,3.5764130859375,-0.45790302753448486,0.242233008146286,-1.2834163904190063
1761380282532468000,3.586468017578125,-0.22439360618591309,-0.1655651330947876,-1.636414885520935
1761380282542523000,3.59652294921875,0.06591270118951797,-0.5305933952331543,-1.961578369140625
1761380282552578000,3.606578125,0.25172412395477295,-0.6487690806388855,-2.2560789585113525
1761380282562633000,3.616633056640625,0.3413340449333191,-0.5325825810432434,-2.5154097080230713
1761380282572688100,3.626688232421875,0.3425242006778717,-0.36321356892585754,-2.722029209136963
1761380282582743000,3.636742919921875,0.24821189045906067,-0.25402122735977173,-2.8664019107818604
1761380282592798000,3.6467978515625,0.12767881155014038,-0.15824836492538452,-2.9152305126190186
1761380282602853000,3.65685302734375,0.0018233456648886204,0.14937682449817657,-2.897789478302002
1761380282612907800,3.66690771484375,-0.23525258898735046,0.7010917067527771,-2.873717784881592
1761380282622963000,3.676962890625,-0.6046416163444519,1.2017757892608643,-2.934576988220215
1761380282633018000,3.68701806640625,-0.9905533194541931,1.3444501161575317,-3.05954647064209
1761380282643073000,3.697072998046875,-1.2822004556655884,1.2689307928085327,-3.090677499771118
1761380282653128000,3.7071279296875,-1.4679758548736572,1.094212532043457,-3.045289993286133
1761380282663182000,3.71718212890625,-1.4402449131011963,0.7965356707572937,-3.011794328689575
1761380282673237000,3.727237060546875,-1.0701888799667358,0.49781662225723267,-2.9745044708251953
1761380282683292000,3.7372919921875,-0.5907734036445618,0.2676631808280945,-2.776334285736084
1761380282693347000,3.74734716796875,-0.3940119445323944,0.07313045859336853,-2.4876275062561035
1761380282703402000,3.757402099609375,-0.6051735877990723,-0.052260808646678925,-2.120591640472412
1761380282713457000,3.767456787109375,-1.0460423231124878,0.09331263601779938,-1.6385689973831177
1761380282723511800,3.77751171875,-1.4438260793685913,0.21095451712608337,-1.0897080898284912
1761380282733567000,3.78756689453125,-1.5942918062210083,0.20070719718933105,-0.6500793099403381
1761380282743622100,3.7976220703125,-1.4990049600601196,0.2287239134311676,-0.3774168789386749
1761380282753676800,3.8076767578125,-1.1129180192947388,0.2582298815250397,-0.29940569400787354
1761380282763732000,3.81773193359375,-0.43727800250053406,0.04450666904449463,-0.4472494125366211
1761380282773787100,3.827787109375,0.24569737911224365,-0.18815240263938904,-0.6990467309951782
1761380282783842000,3.837842041015625,0.5703262686729431,-0.4415888488292694,-0.9818567037582397
1761380282793897000,3.84789697265625,0.7055900692939758,-0.5127474069595337,-1.0905437469482422
1761380282803951900,3.857951904296875,0.8694831728935242,-0.3971022069454193,-0.8849350810050964
1761380282814007000,3.868007080078125,0.966183066368103,-0.23059341311454773,-0.3573087751865387
1761380282824062000,3.87806201171875,0.8821548223495483,0.19506222009658813,0.49726831912994385
1761380282834116900,3.888116943359375,0.6358619928359985,0.5847204923629761,1.4635838270187378
1761380282844172000,3.898172119140625,0.3241637647151947,0.9459294676780701,2.293200731277466
1761380282854226000,3.908225830078125,-0.0554317869246006,1.1779019832611084,2.8065733909606934
1761380282864280800,3.91828076171875,-0.470089852809906,1.217686653137207,2.8864614963531494
1761380282874336000,3.9283359375,-0.7191758155822754,1.0436410903930664,2.6254184246063232
1761380282884391200,3.93839111328125,-0.5207909345626831,0.4051242470741272,2.219557523727417
1761380282894445800,3.94844580078125,0.01962088607251644,-0.4197419583797455,1.981670618057251
1761380282904501000,3.9585009765625,0.5801499485969543,-0.7654043436050415,2.172513484954834
1761380282914556000,3.968555908203125,0.9387968182563782,-0.6858386993408203,2.564953088760376
1761380282924611000,3.978611083984375,1.0172300338745117,-0.3598461151123047,2.7751986980438232
1761380282934666000,3.988666015625,0.9335452318191528,-0.20482192933559418,2.851353406906128
1761380282944721000,3.998720947265625,0.7861396670341492,-0.4117334187030792,2.8196003437042236
1761380282954776000,4.008776123046875,0.5838795304298401,-0.8350058794021606,2.685171604156494
1761380282964831000,4.0188310546875,0.16849759221076965,-1.0768319368362427,2.4912543296813965
1761380282974884900,4.028884765625,-0.38302838802337646,-0.8002448678016663,2.116546154022217
1761380282984940000,4.03893994140625,-0.8172321319580078,-0.2081821858882904,1.5941295623779297
1761380282994995200,4.0489951171875,-0.8623628616333008,0.5723090767860413,1.0998777151107788
1761380283005049900,4.0590498046875,-0.6735780239105225,1.2102739810943604,0.8431325554847717
1761380283015105000,4.06910498046875,-0.47828444838523865,1.5690805912017822,0.88944411277771
1761380283025159200,4.0791591796875,-0.20950227975845337,1.6306517124176025,1.1766546964645386
1761380283035215000,4.089215087890625,0.16947032511234283,1.3691620826721191,1.6801035404205322
1761380283045269000,4.09926904296875,0.46419984102249146,1.0511788129806519,2.2874348163604736
1761380283055324200,4.10932421875,0.5507475137710571,0.6350710988044739,2.849630355834961
1761380283065379000,4.119379150390625,0.6205516457557678,0.36936071515083313,3.108938694000244
1761380283075434000,4.12943408203125,0.6952645182609558,0.16814664006233215,2.927988290786743
1761380283085489200,4.1394892578125,0.6709377765655518,0.01958387903869152,2.3990061283111572
1761380283095544000,4.1495439453125,0.6003965139389038,-0.12280202656984329,1.7568340301513672
1761380283105599000,4.159598876953125,0.5160303711891174,-0.3267619013786316,1.3121832609176636
1761380283115654000,4.16965380859375,0.537367582321167,-0.5778846740722656,1.0404715538024902
1761380283125709000,4.179708984375,0.6971650719642639,-0.8127666115760803,0.7740504741668701
1761380283135764200,4.18976416015625,0.7994526028633118,-0.9537580609321594,0.3902178704738617
1761380283145819000,4.19981884765625,0.6790069341659546,-1.0154649019241333,-0.15874797105789185
1761380283155874000,4.2098740234375,0.3641211986541748,-1.0454195737838745,-0.7999719381332397
1761380283165929000,4.219928955078125,0.0016636275686323643,-0.9311521649360657,-1.370712399482727
1761380283175984000,4.229984130859375,-0.29025158286094666,-0.710182249546051,-1.8002805709838867
1761380283186039000,4.2400390625,-0.5152732729911804,-0.4378110468387604,-2.078012466430664
1761380283196094000,4.250093994140625,-0.6593630909919739,-0.25264838337898254,-2.288586139678955
1761380283206149000,4.260149169921875,-0.6876890063285828,-0.306906133890152,-2.45162034034729
1761380283216204000,4.2702041015625,-0.6217321157455444,-0.3231956362724304,-2.6500048637390137
1761380283226259000,4.280259033203125,-0.5164839625358582,-0.18085826933383942,-3.013949155807495
1761380283236314000,4.290314208984375,-0.44962364435195923,-0.020861417055130005,-3.4974052906036377
1761380283246369000,4.300369140625,-0.48707714676856995,0.18612146377563477,-3.8512322902679443
1761380283256423000,4.3104228515625,-0.6109545826911926,0.4307730197906494,-3.912181854248047
1761380283266478000,4.32047802734375,-0.7512186765670776,0.5678322315216064,-3.7292935848236084
1761380283276533200,4.330533203125,-0.7879255414009094,0.45024698972702026,-3.3602511882781982
1761380283286588000,4.340587890625,-0.6026915311813354,0.227589413523674,-2.8260326385498047
1761380283296643000,4.35064306640625,-0.27834969758987427,0.0775892585515976,-2.3684515953063965
1761380283306698000,4.360697998046875,-0.05577870085835457,-0.12901365756988525,-2.395051956176758
1761380283316753000,4.3707529296875,-0.0644342377781868,-0.288549542427063,-2.8546526432037354
1761380283326808000,4.38080810546875,-0.2859939634799957,-0.10126225650310516,-3.5017518997192383
1761380283336863000,4.390863037109375,-0.49489739537239075,0.07149460911750793,-3.9007725715637207
1761380283346918100,4.400918212890625,-0.42749491333961487,-0.09248946607112885,-3.417884588241577
1761380283356973000,4.41097314453125,-0.1373419314622879,-0.18593552708625793,-1.9302904605865479
1761380283367028000,4.421028076171875,0.23540639877319336,-0.4431752562522888,-0.16943104565143585
1761380283377084000,4.431083984375,0.6833516955375671,-0.636089026927948,1.0008211135864258
1761380283387139000,4.44113916015625,1.0232481956481934,-0.5147151350975037,1.330036997795105
1761380283397194200,4.4511943359375,1.087684154510498,-0.5217815637588501,0.6283654570579529
1761380283407249000,4.461248779296875,1.0905084609985352,-0.754402220249176,-0.7470660209655762
1761380283417304000,4.471303955078125,1.0078785419464111,-0.8110679388046265,-1.9290332794189453
1761380283427359200,4.481359130859375,0.791792631149292,-0.5881718397140503,-2.3811395168304443
1761380283437414000,4.491413818359375,0.6137816309928894,-0.1449001431465149,-1.9360482692718506
1761380283447468000,4.501468017578125,0.4518904685974121,0.30951955914497375,-0.7721254825592041
1761380283457523200,4.511523193359375,0.3638620972633362,0.6341138482093811,0.7113302946090698
1761380283467577900,4.521577880859375,0.46078330278396606,0.6834173798561096,2.0622825622558594
1761380283477633000,4.531633056640625,0.5908030271530151,0.4226941764354706,2.7963225841522217
1761380283487688200,4.541688232421875,0.5882420539855957,0.1846228837966919,2.874788999557495
1761380283497743000,4.5517431640625,0.4200844466686249,0.3218494653701782,2.582235336303711
1761380283507798000,4.561798095703125,0.09920568019151688,0.5710805654525757,2.2520174980163574
1761380283517853000,4.57185302734375,-0.28794366121292114,0.6796646118164062,1.9550389051437378
1761380283527908000,4.581908203125,-0.6485028266906738,0.5004331469535828,1.6157313585281372
1761380283537963000,4.591962890625,-0.6995849609375,0.05639148876070976,1.2826701402664185
1761380283548018000,4.602017822265625,-0.5031877160072327,-0.43798521161079407,0.9645640850067139
1761380283558073000,4.612072998046875,-0.2277928590774536,-0.5812103152275085,0.6500189304351807
1761380283568128000,4.6221279296875,0.0031409040093421936,-0.44752785563468933,0.3806847631931305
1761380283578183000,4.632182861328125,0.21524196863174438,-0.2577270269393921,0.2291831225156784
1761380283588238000,4.642238037109375,0.43111616373062134,-0.07850268483161926,0.220298632979393
1761380283598293000,4.65229296875,0.632052481174469,-0.18704061210155487,0.39652639627456665
1761380283608348200,4.66234814453125,0.806054413318634,-0.3970562815666199,0.6875694394111633
1761380283618403000,4.672403076171875,0.8730605840682983,-0.7163980603218079,1.0186944007873535
1761380283628458000,4.6824580078125,0.7291325330734253,-0.9113407135009766,1.4076417684555054
1761380283638513200,4.69251318359375,0.45339494943618774,-0.8446682095527649,1.7035794258117676
1761380283648567800,4.70256787109375,0.14783291518688202,-0.5755554437637329,1.7611463069915771
1761380283658623000,4.712623046875,-0.1581597626209259,-0.15294934809207916,1.5944750308990479
1761380283668678100,4.72267822265625,-0.4635186195373535,0.27224743366241455,1.3263216018676758
1761380283678732000,4.73273193359375,-0.7001210451126099,0.7135936617851257,1.0740941762924194
1761380283688787000,4.742786865234375,-0.7714036703109741,1.1386553049087524,0.6857404112815857
1761380283698842000,4.752842041015625,-0.7113707065582275,1.2927244901657104,0.16402848064899445
1761380283708897000,4.76289697265625,-0.5168048739433289,1.1819756031036377,-0.32623735070228577
1761380283718952000,4.772951904296875,-0.282682329416275,0.9676268696784973,-0.8090921640396118
1761380283729007000,4.783007080078125,-0.17891527712345123,0.5865105986595154,-1.2018535137176514
1761380283739062000,4.79306201171875,-0.21211664378643036,0.19959938526153564,-1.4055752754211426
1761380283749117200,4.8031171875,-0.30426180362701416,-0.0411975234746933,-1.4373140335083008
1761380283759171800,4.813171875,-0.43123573064804077,-0.07092531770467758,-1.3730918169021606
1761380283769227000,4.82322705078125,-0.5858392715454102,0.04361597076058388,-1.2830276489257812
1761380283779282200,4.8332822265625,-0.77181077003479,0.21825143694877625,-1.1909067630767822
1761380283789336800,4.8433369140625,-0.918317973613739,0.3844575881958008,-1.1303389072418213
1761380283799392000,4.85339208984375,-0.9568922519683838,0.556604266166687,-1.1598083972930908
1761380283809447200,4.863447265625,-0.8651836514472961,0.6710034012794495,-1.2939540147781372
1761380283819502000,4.873502197265625,-0.674591064453125,0.6900087594985962,-1.4927865266799927
1761380283829557000,4.883556884765625,-0.4528333842754364,0.6848151087760925,-1.7130948305130005
1761380283839612000,4.89361181640625,-0.31632640957832336,0.5757799744606018,-1.878934383392334
1761380283849667000,4.9036669921875,-0.2548882067203522,0.5417994856834412,-1.841934084892273
1761380283859722200,4.91372216796875,-0.20689193904399872,0.28509658575057983,-1.6970607042312622
1761380283869777000,4.92377685546875,-0.1866932213306427,-0.0008110825438052416,-1.5237294435501099
1761380283879832000,4.93383203125,-0.18851056694984436,0.05467880889773369,-1.115478277206421
1761380283889887000,4.943886962890625,-0.23274624347686768,0.17443183064460754,-0.4591320753097534
1761380283899942000,4.95394189453125,-0.2438465654850006,-0.08491984009742737,0.17659004032611847
1761380283909997000,4.9639970703125,-0.02106580324470997,-0.7754944562911987,0.47995659708976746
1761380283920052000,4.974052001953125,0.31133636832237244,-1.6886640787124634,0.4382309913635254
1761380283930107100,4.984107177734375,0.5239288806915283,-2.1529126167297363,0.3758174479007721
1761380283940162000,4.994162109375,0.4961601197719574,-1.6857150793075562,0.5239017605781555
1761380283950217000,5.004217041015625,0.513670027256012,-0.8311280012130737,0.6401253938674927
1761380283960272100,5.014272216796875,0.7382219433784485,-0.039689239114522934,0.6202486157417297
1761380283970331600,5.02433154296875,1.0449687242507935,-0.16884876787662506,0.8780378103256226
1761380283980386600,5.034386474609375,1.0895603895187378,-1.0847537517547607,1.5963618755340576
1761380283990440700,5.044440673828125,0.8418512344360352,-1.8251570463180542,2.696195363998413
1761380284000495600,5.05449560546875,0.28864768147468567,-1.600357174873352,3.8743557929992676
1761380284010550500,5.064550537109375,-0.38341888785362244,-1.0169386863708496,4.268524169921875
1761380284020605400,5.07460546875,-0.5614197850227356,-0.7260003685951233,3.6554505825042725
1761380284030660600,5.08466064453125,-0.19028368592262268,-0.4375241994857788,2.5114526748657227
1761380284040715800,5.0947158203125,0.20488840341567993,-0.07389754056930542,1.5156127214431763
1761380284050770400,5.1047705078125,0.40272021293640137,0.41207608580589294,1.1100929975509644
1761380284060825600,5.11482568359375,0.5412599444389343,0.593673825263977,1.378387212753296
1761380284070880800,5.124880859375,0.5907748341560364,0.3350159823894501,1.9791786670684814
1761380284080935700,5.134935791015625,0.5141213536262512,-0.17140965163707733,2.565657138824463
1761380284090990600,5.144990478515625,0.44476044178009033,-0.6079034209251404,2.9613349437713623
1761380284101045500,5.15504541015625,0.41863057017326355,-0.795539140701294,3.060894250869751
1761380284111100700,5.1651005859375,0.31053051352500916,-0.5767792463302612,2.817340135574341
1761380284121155600,5.175155517578125,0.11777783930301666,-0.18427671492099762,2.343456745147705
1761380284131210500,5.18521044921875,-0.009030180051922798,0.0723295733332634,1.7780996561050415
1761380284141265700,5.195265625,0.08361160755157471,0.20349398255348206,1.1942788362503052
1761380284151320600,5.205320556640625,0.40055423974990845,0.264335572719574,0.6591911315917969
1761380284161375500,5.21537548828125,0.8796707391738892,0.06841692328453064,0.21099413931369781
1761380284171430700,5.2254306640625,1.4403153657913208,-0.2950526773929596,-0.24248415231704712
1761380284181485600,5.235485595703125,1.846322774887085,-0.6228529810905457,-0.6425505876541138
1761380284191540700,5.245540771484375,1.9144319295883179,-0.8013864159584045,-0.9620766639709473
1761380284201595600,5.255595703125,1.5903923511505127,-0.9551778435707092,-1.2190344333648682
1761380284211650600,5.265650634765625,1.0860886573791504,-0.7952805161476135,-1.297510027885437
1761380284221705700,5.275705810546875,0.5695757269859314,-0.19953323900699615,-1.0236808061599731
1761380284231760400,5.285760498046875,-0.021409347653388977,0.696835458278656,-0.4329387843608856
1761380284241815600,5.295815673828125,-0.7073909044265747,1.4633848667144775,0.2819673418998718
1761380284251870700,5.30587060546875,-1.3670316934585571,1.9101204872131348,0.8981698751449585
1761380284261925600,5.315925537109375,-1.831107258796692,2.098573684692383,1.2439757585525513
1761380284271980500,5.32598046875,-2.1070396900177,1.9729020595550537,1.196564793586731
1761380284282035700,5.33603564453125,-2.208146333694458,1.6169532537460327,0.7266125082969666
1761380284292090600,5.346090576171875,-2.1379435062408447,1.3326120376586914,0.006726226769387722
1761380284302144500,5.35614453125,-1.9524050951004028,0.8417403101921082,-0.7634069323539734
1761380284312199700,5.36619970703125,-1.6515135765075684,0.2530306279659271,-1.3713234663009644
1761380284322254600,5.376254638671875,-1.3668818473815918,-0.12343566864728928,-1.5622912645339966
1761380284332309800,5.386309814453125,-1.1267460584640503,-0.285062700510025,-1.3494105339050293
1761380284342364700,5.39636474609375,-0.905484676361084,-0.2793784439563751,-0.8124983906745911
1761380284352419600,5.406419677734375,-0.687740683555603,-0.2789231240749359,-0.05505597963929176
1761380284362474800,5.416474853515625,-0.4922422766685486,-0.3233310878276825,0.6533650755882263
1761380284372529400,5.426529296875,-0.34301161766052246,-0.35405683517456055,1.0487977266311646
1761380284382584600,5.43658447265625,-0.20015886425971985,-0.41258060932159424,1.0418565273284912
1761380284392639700,5.4466396484375,-0.07334861904382706,-0.485376238822937,0.6892707943916321
1761380284402694700,5.456694580078125,-0.02149873599410057,-0.509060263633728,0.03686077892780304
1761380284412749600,5.46674951171875,-0.04578095301985741,-0.444601446390152,-0.8288995623588562
1761380284422804500,5.476804443359375,-0.09220410883426666,-0.2914491891860962,-1.6584635972976685
1761380284432859600,5.486859619140625,-0.21612811088562012,-0.0719815343618393,-2.2347676753997803
1761380284442914800,5.496914794921875,-0.33185845613479614,0.05874665081501007,-2.5337560176849365
1761380284452969500,5.506969482421875,-0.3898293673992157,0.10097679495811462,-2.4703876972198486
1761380284463024600,5.517024658203125,-0.40262266993522644,0.16134053468704224,-2.100308656692505
1761380284473079800,5.527079833984375,-0.3807051479816437,0.15618598461151123,-1.546431541442871
1761380284483134500,5.537134521484375,-0.31956854462623596,-0.017977554351091385,-0.9712159037590027
1761380284493189600,5.547189697265625,-0.18183018267154694,-0.2822343707084656,-0.5668286681175232
1761380284503244500,5.55724462890625,0.07698752731084824,-0.5407213568687439,-0.447923868894577
1761380284513299700,5.5672998046875,0.35899198055267334,-0.5642426013946533,-0.5026163458824158
1761380284523354600,5.577354736328125,0.45119035243988037,-0.3864997327327728,-0.6797621250152588
1761380284533409500,5.587409423828125,0.3860941231250763,-0.38540297746658325,-0.9181296825408936
1761380284543464700,5.597464599609375,0.43780550360679626,-0.6292566061019897,-1.0930697917938232
1761380284553519600,5.60751953125,0.5867283940315247,-1.0891306400299072,-1.1323916912078857
1761380284563574500,5.617574462890625,0.7473822832107544,-1.4825003147125244,-1.1301040649414062
1761380284573629700,5.627629638671875,0.8309053778648376,-1.3500844240188599,-1.2545615434646606
1761380284583684600,5.6376845703125,0.7110125422477722,-1.0149136781692505,-1.3797674179077148
1761380284593739500,5.647739501953125,0.2726168930530548,-0.5660234093666077,-1.162759780883789
1761380284603794700,5.657794677734375,-0.24206584692001343,0.029141953215003014,-0.3209364116191864
1761380284613849600,5.667849609375,-0.44223618507385254,0.2719985842704773,0.6483044624328613
1761380284623904800,5.67790478515625,-0.1951073557138443,0.08818163722753525,1.004356026649475
1761380284633959400,5.68795947265625,0.13591615855693817,-0.21823668479919434,0.4939291775226593
1761380284644014600,5.6980146484375,0.3535403907299042,-0.7844947576522827,-0.7295408248901367
1761380284654069800,5.70806982421875,0.4399183690547943,-1.2465713024139404,-2.024620294570923
1761380284664124700,5.718124755859375,0.39081981778144836,-1.4631657600402832,-2.68697452545166
1761380284674179600,5.7281796875,0.13314560055732727,-1.4249999523162842,-2.319772720336914
1761380284684234500,5.738234375,-0.3583303987979889,-1.2842274904251099,-1.0001084804534912
1761380284694289700,5.74828955078125,-1.0697212219238281,-1.0933375358581543,0.5820233821868896
1761380284704344600,5.758344482421875,-1.8630532026290894,-0.19716261327266693,1.7399722337722778
1761380284714398700,5.768398681640625,-2.3723909854888916,0.6973123550415039,2.0183889865875244
1761380284724453600,5.77845361328125,-2.4718847274780273,1.2711533308029175,1.5980379581451416
1761380284734508500,5.788508544921875,-2.214383125305176,1.4465903043746948,1.205472707748413
1761380284744563500,5.7985634765625,-1.771674633026123,1.1565792560577393,1.1936357021331787
1761380284754618600,5.80861865234375,-0.9806486368179321,0.8178679943084717,1.6915489435195923
1761380284764673800,5.818673828125,-0.22460782527923584,0.7265028953552246,2.150806427001953
1761380284774728400,5.828728515625,0.1669895201921463,0.8081423044204712,2.275120496749878
1761380284784783600,5.83878369140625,0.2547428011894226,0.9832462072372437,2.1407358646392822
1761380284794838800,5.8488388671875,0.16678602993488312,1.0962580442428589,1.8091380596160889
1761380284804893400,5.8588935546875,0.10330238938331604,1.0336077213287354,1.3467565774917603
1761380284814948600,5.868948486328125,0.1658286452293396,0.6786199808120728,0.8708868026733398
1761380284825003500,5.87900341796875,0.4013522267341614,0.4436870515346527,0.6342729330062866
1761380284835058700,5.88905859375,0.5077072978019714,0.3338894546031952,0.7742937207221985
1761380284845113600,5.899113525390625,0.3392980396747589,-0.03018382005393505,1.0386064052581787
1761380284855168500,5.90916845703125,0.2638578414916992,-0.3967246413230896,1.3202202320098877
1761380284865223700,5.9192236328125,0.30485799908638,-0.5205792188644409,1.609870195388794
1761380284875278600,5.929278564453125,0.3496149480342865,-0.4141475260257721,1.8036761283874512
1761380284885333500,5.93933349609375,0.40036359429359436,-0.19370143115520477,1.8028792142868042
1761380284895388700,5.949388671875,0.40696433186531067,0.07765649259090424,1.5858144760131836
1761380284905443600,5.959443603515625,0.37583836913108826,0.2673308253288269,1.1399645805358887
1761380284915498500,5.96949853515625,0.34091272950172424,0.37244611978530884,0.6140720844268799
1761380284925553700,5.9795537109375,0.28324010968208313,0.4931491017341614,0.20441003143787384
1761380284935608600,5.989608642578125,0.20517687499523163,0.5624412298202515,-0.0871535986661911
1761380284945663700,5.999663818359375,0.12100446969270706,0.5003471970558167,-0.29710790514945984
1761380284955718400,6.009718505859375,0.0884045660495758,0.4946426451206207,-0.40538591146469116
1761380284965773600,6.019773681640625,0.08575499057769775,0.5724565386772156,-0.4065265357494354
1761380284975825200,6.0298251953125,0.06879079341888428,0.6627575159072876,-0.4018856883049011
1761380284985880000,6.039880126953125,0.021608369424939156,0.7977784276008606,-0.4839608371257782
1761380284995935200,6.049935302734375,-0.06101268157362938,0.9337092638015747,-0.6668013334274292
1761380285005990100,6.059990234375,-0.10524992644786835,0.9525394439697266,-0.8579651713371277
1761380285016045000,6.070045166015625,-0.07227618992328644,0.8906440138816833,-0.9429860711097717
1761380285026100200,6.080100341796875,0.04145277291536331,0.6982511281967163,-0.9304044842720032
1761380285036155100,6.090155029296875,0.2282070368528366,0.3605402112007141,-0.8490482568740845
1761380285046210000,6.1002099609375,0.46266987919807434,-0.029282405972480774,-0.7184931635856628
1761380285056265200,6.11026513671875,0.6646894812583923,-0.4486639201641083,-0.6306262612342834
1761380285066320100,6.120320068359375,0.7805699706077576,-0.7287269830703735,-0.6641573309898376
1761380285076375000,6.130375,0.8409841060638428,-0.8130288124084473,-0.8606593608856201
1761380285086430000,6.140429931640625,0.8561084270477295,-0.6905314326286316,-1.2177141904830933
1761380285096485000,6.150485107421875,0.7839626669883728,-0.45731616020202637,-1.5715316534042358
1761380285106540300,6.160540283203125,0.615992546081543,-0.18455947935581207,-1.7341877222061157
1761380285116595000,6.170594970703125,0.42967402935028076,0.1530170887708664,-1.682317852973938
1761380285126650000,6.180650146484375,0.26677432656288147,0.4839886426925659,-1.5559543371200562
1761380285136705300,6.190705322265625,0.029323838651180267,0.6169977784156799,-1.5489308834075928
1761380285146760200,6.20076025390625,-0.2919008135795593,0.6313202381134033,-1.7522690296173096
1761380285156815000,6.210815185546875,-0.48209577798843384,0.5485547780990601,-2.0024216175079346
1761380285166870000,6.2208701171875,-0.47878625988960266,0.41059690713882446,-1.988867998123169
1761380285176925200,6.23092529296875,-0.3835473358631134,0.2624044418334961,-1.7000771760940552
1761380285186980000,6.24097998046875,-0.2822968661785126,0.14860090613365173,-1.220988392829895
1761380285197035000,6.251034912109375,-0.09401407837867737,0.27684396505355835,-0.9632301330566406
1761380285207089200,6.261089111328125,0.2130713015794754,0.42126959562301636,-1.2487659454345703
1761380285217144000,6.27114404296875,0.3625160753726959,0.00959581695497036,-1.617246389389038
1761380285227199000,6.281198974609375,0.3866826593875885,-0.7528901100158691,-1.5804060697555542
1761380285237254100,6.291254150390625,0.5278939604759216,-1.452523112297058,-1.1416884660720825
1761380285247309300,6.301309326171875,0.8302005529403687,-1.893907070159912,-0.8016703128814697
1761380285257364000,6.311364013671875,1.1238051652908325,-1.8149616718292236,-0.9066073298454285
1761380285267419100,6.321419189453125,1.258048176765442,-1.3506078720092773,-1.4642237424850464
1761380285277474000,6.33147412109375,1.2133116722106934,-0.8020918965339661,-2.3860557079315186
1761380285287529200,6.341529296875,1.001455307006836,-0.38962578773498535,-3.254880666732788
1761380285297584000,6.351584228515625,0.6459918022155762,-0.5260626673698425,-3.5001726150512695
1761380285307639000,6.36163916015625,0.043850820511579514,-0.8625794649124146,-2.9290807247161865
1761380285317694200,6.371694091796875,-0.5442540645599365,-0.8154277205467224,-1.6529829502105713
1761380285327749000,6.3817490234375,-0.8845634460449219,-0.5980013608932495,-0.2023010402917862
1761380285337804000,6.391803955078125,-1.1811714172363281,-0.6384462118148804,0.9974596500396729
1761380285347859200,6.401859130859375,-1.1216068267822266,-0.5208156704902649,2.08815598487854
1761380285357914000,6.4119140625,-0.6660668849945068,-0.23934635519981384,3.202302932739258
1761380285367969000,6.421968994140625,-0.30185240507125854,-0.32971781492233276,3.8740293979644775
1761380285378024200,6.432024169921875,0.3351207673549652,-0.45613765716552734,3.837780237197876
1761380285388079000,6.4420791015625,0.725490391254425,-0.6064611077308655,3.11673641204834
1761380285398134000,6.452134033203125,1.0206916332244873,-0.6951252222061157,2.1509482860565186
1761380285408189200,6.462189208984375,1.1207252740859985,-0.31183621287345886,1.2578539848327637
1761380285418244000,6.472244140625,0.7356643676757812,0.5845860838890076,0.5568761229515076
1761380285428299300,6.48229931640625,0.21897092461585999,1.4776537418365479,0.11598047614097595
1761380285438354000,6.49235400390625,-0.0869918018579483,2.0042812824249268,0.010920527391135693
1761380285448409000,6.5024091796875,-0.269233763217926,2.1131932735443115,0.25712257623672485
1761380285458464300,6.51246435546875,-0.4074966013431549,1.8304556608200073,0.7018179297447205
1761380285468519200,6.522519287109375,-0.4119824469089508,1.4317584037780762,1.21576988697052
1761380285478574000,6.532573974609375,-0.3259236216545105,1.0981009006500244,1.5794044733047485
1761380285488629000,6.54262890625,-0.26854902505874634,0.9531087875366211,1.6931051015853882
1761380285498684200,6.55268408203125,-0.3236038088798523,0.7131927013397217,1.7914772033691406
1761380285508739000,6.562739013671875,-0.41169798374176025,0.19975923001766205,2.0625433921813965
1761380285518794000,6.5727939453125,-0.34399503469467163,-0.39182060956954956,2.3358240127563477
1761380285528849200,6.58284912109375,-0.27317652106285095,-0.8851626515388489,2.409210205078125
1761380285538904000,6.592904052734375,-0.32693469524383545,-1.157456874847412,2.1112821102142334
1761380285548959000,6.602958984375,-0.4957934617996216,-1.1078076362609863,1.5100529193878174
1761380285559014100,6.61301416015625,-0.6665535569190979,-0.9300679564476013,0.6707825064659119
1761380285569069000,6.623069091796875,-0.7193901538848877,-0.648779034614563,-0.28254392743110657
1761380285579124200,6.633124267578125,-0.6381911635398865,-0.13876235485076904,-1.1938894987106323
1761380285589179100,6.64317919921875,-0.5004562139511108,0.4515344798564911,-1.799403190612793
1761380285599234000,6.653234130859375,-0.41962575912475586,1.0112011432647705,-2.037472724914551
1761380285609289200,6.663289306640625,-0.40433281660079956,1.421071171760559,-1.8718817234039307
1761380285619344000,6.67334375,-0.3880827724933624,1.4798915386199951,-1.3494517803192139
1761380285629399000,6.68339892578125,-0.3559000492095947,1.2938475608825684,-0.5875658392906189
1761380285639454200,6.6934541015625,-0.31823429465293884,0.9811673164367676,0.08612016588449478
1761380285649509000,6.703509033203125,-0.2729501724243164,0.8521952033042908,0.40399879217147827
1761380285659564000,6.71356396484375,-0.21266306936740875,0.9395840167999268,0.24174228310585022
1761380285669619200,6.723619140625,-0.11281289905309677,1.0231531858444214,-0.16268189251422882
1761380285679674000,6.733674072265625,-0.03831290081143379,0.92352694272995,-0.6416890025138855
1761380285689729300,6.743729248046875,0.009309745393693447,0.7140240669250488,-0.9802321791648865
1761380285699784000,6.753783935546875,0.03955073654651642,0.4495607316493988,-1.0958495140075684
1761380285709839000,6.763839111328125,0.1027400940656662,0.12291232496500015,-0.9907053112983704
1761380285719894300,6.773894287109375,0.14580805599689484,-0.02945324406027794,-0.7667397260665894
1761380285729949000,6.783948974609375,0.16872136294841766,0.005132694728672504,-0.6454812288284302
1761380285740004000,6.794004150390625,0.20000967383384705,0.10785267502069473,-0.749428927898407
1761380285750059000,6.80405908203125,0.24289348721504211,0.22524961829185486,-1.0502172708511353
1761380285760114200,6.8141142578125,0.28623420000076294,0.2305438369512558,-1.40166175365448
1761380285770169000,6.824169189453125,0.2886771261692047,0.020238541066646576,-1.5431691408157349
1761380285780224000,6.83422412109375,0.2610801160335541,-0.48066025972366333,-1.2013369798660278
1761380285790279200,6.844279052734375,0.2199622392654419,-1.0883361101150513,-0.47123366594314575
1761380285800334300,6.854334228515625,0.18627318739891052,-1.374975562095642,0.27998438477516174
1761380285810389000,6.864388916015625,0.1381368339061737,-0.9376145601272583,0.44576242566108704
1761380285820444200,6.874444091796875,0.03808879852294922,-0.44410401582717896,-0.5087444186210632
1761380285830499000,6.8844990234375,-0.07233784347772598,-0.23851652443408966,-2.026175022125244
1761380285840554000,6.894553955078125,-0.15459755063056946,-0.19648051261901855,-3.209581136703491
1761380285850609200,6.904609130859375,-0.12395788729190826,0.32438424229621887,-3.4148056507110596
1761380285860664000,6.9146640625,-0.09175688028335571,0.8453227877616882,-2.550222635269165
1761380285870719200,6.92471923828125,-0.021429723128676414,0.8336355090141296,-1.079286813735962
1761380285880774100,6.934774169921875,0.21629342436790466,0.8479617238044739,0.33115658164024353
1761380285890829000,6.9448291015625,0.2827209532260895,0.318729043006897,0.8718677759170532
1761380285900884200,6.95488427734375,0.13908986747264862,-0.5216795206069946,0.21626253426074982
1761380285910939100,6.964939208984375,0.018305130302906036,-0.7234182357788086,-1.2954497337341309
1761380285920994000,6.974994140625,-0.2972148656845093,-0.8935557007789612,-3.0288374423980713
1761380285931049200,6.98504931640625,-0.6480631232261658,-0.48826542496681213,-3.7833073139190674
1761380285941103000,6.99510302734375,-0.8842147588729858,0.2441796362400055,-2.8811540603637695
1761380285951158000,7.005157958984375,-1.063787817955017,0.8881903290748596,-0.7776281237602234
1761380285961213200,7.015213134765625,-1.1011857986450195,1.036824345588684,1.471016526222229
1761380285971267600,7.025267578125,-0.9773581624031067,0.7856903076171875,2.912705659866333
1761380285981322800,7.03532275390625,-0.9039145708084106,0.40566134452819824,3.509857177734375
1761380285991377700,7.045377685546875,-0.7248241901397705,0.1171102225780487,3.5174410343170166
1761380286001432600,7.0554326171875,-0.54217928647995,-0.15908049046993256,3.354628801345825
1761380286011487700,7.06548779296875,-0.313138872385025,-0.1944485902786255,3.1195151805877686
1761380286021542700,7.075542724609375,0.04995124787092209,-0.2570275068283081,2.8010220527648926
1761380286031597600,7.08559765625,0.5136017799377441,-0.3223143517971039,2.396496295928955
1761380286041652700,7.09565283203125,0.8463549017906189,-0.3263879716396332,1.9697011709213257
1761380286051707600,7.105707763671875,0.9215596318244934,-0.4097800552845001,1.6992113590240479
1761380286061762600,7.115762451171875,0.8082910776138306,-0.52631676197052,1.656887412071228
1761380286071817700,7.125817626953125,0.5585640668869019,-0.36705997586250305,1.7845332622528076
1761380286081872600,7.13587255859375,0.07796797156333923,-0.21580521762371063,2.0348634719848633
1761380286091927800,7.145927734375,-0.3601694405078888,0.09995114803314209,2.2393157482147217
1761380286101982700,7.155982666015625,-0.5300231575965881,0.25654301047325134,2.216261863708496
1761380286112037600,7.16603759765625,-0.4425865709781647,0.3191976249217987,1.9379024505615234
1761380286122092800,7.1760927734375,-0.2992280125617981,0.3045988380908966,1.494447112083435
1761380286132147500,7.1861474609375,-0.1680915802717209,0.15505513548851013,1.078352928161621
1761380286142202600,7.19620263671875,-0.03133895993232727,-0.023102473467588425,0.8116587400436401
1761380286152257800,7.2062578125,0.0700254812836647,-0.17652185261249542,0.737254798412323
1761380286162312700,7.216312744140625,0.15515446662902832,-0.289768785238266,0.838607668876648
1761380286172367600,7.22636767578125,0.20086362957954407,-0.2877969741821289,1.0795098543167114
1761380286182422500,7.236422607421875,0.04628410190343857,-0.40757089853286743,1.4307184219360352
1761380286192477700,7.246477783203125,-0.28525522351264954,-0.5199810862541199,1.7922334671020508
1761380286202532900,7.256532958984375,-0.5689722895622253,-0.6269767880439758,1.9809882640838623
1761380286212587500,7.26658740234375,-0.7271509766578674,-0.7092458009719849,1.9005573987960815
1761380286222642700,7.276642578125,-0.7475319504737854,-0.6546188592910767,1.602277159690857
1761380286232697600,7.286697509765625,-0.5770435929298401,-0.5043545365333557,1.173035740852356
1761380286242752500,7.29675244140625,-0.29318535327911377,-0.3197248876094818,0.653107225894928
1761380286252807700,7.3068076171875,-0.00835973396897316,-0.11195065081119537,0.0609285905957222
1761380286262862600,7.316862548828125,0.21735218167304993,0.03106103092432022,-0.5413981676101685
1761380286272917800,7.326917724609375,0.3481213450431824,0.0851341187953949,-0.9986019730567932
1761380286282972700,7.33697265625,0.39534667134284973,0.10332344472408295,-1.1963670253753662
1761380286293027600,7.347027587890625,0.38067957758903503,0.11576014012098312,-1.2054787874221802
1761380286303082800,7.357082763671875,0.3274708688259125,0.15430288016796112,-1.120042085647583
1761380286313137700,7.3671376953125,0.26109132170677185,0.12001653760671616,-1.0078657865524292
1761380286323192600,7.377192626953125,0.2580122947692871,0.15377868711948395,-0.9140133857727051
1761380286333247700,7.387247802734375,0.2833016812801361,0.26201778650283813,-0.8351289629936218
1761380286343302700,7.397302734375,0.29333624243736267,0.34975284337997437,-0.7821372151374817
1761380286353357600,7.407357666015625,0.29138362407684326,0.31368353962898254,-0.7674890160560608
1761380286363412700,7.417412841796875,0.31507888436317444,0.08559058606624603,-0.8078541159629822
1761380286373467600,7.427467529296875,0.3624756932258606,-0.23761224746704102,-0.9357423186302185
1761380286383522800,7.437522705078125,0.35577481985092163,-0.49941855669021606,-1.114112377166748
1761380286393577500,7.447577392578125,0.293809175491333,-0.566214919090271,-1.3398406505584717
1761380286403632600,7.457632568359375,0.23745867609977722,-0.4366146922111511,-1.60857093334198
1761380286413687800,7.467687744140625,0.2278667688369751,-0.09897592663764954,-1.721138834953308
1761380286423742700,7.47774267578125,0.20201830565929413,0.08528219163417816,-1.5837026834487915
1761380286433797600,7.487797607421875,0.1942373514175415,0.01641976833343506,-1.2821851968765259
1761380286443852500,7.4978525390625,0.20222797989845276,-0.20890243351459503,-1.0551810264587402
1761380286453907700,7.50790771484375,0.31716522574424744,-0.4117349088191986,-1.1476584672927856
1761380286463962600,7.517962646484375,0.483320951461792,-0.3678678572177887,-1.4639718532562256
1761380286474017500,7.528017578125,0.5274316668510437,-0.08617199212312698,-1.4710420370101929
1761380286484072700,7.53807275390625,0.3496474623680115,-0.19247545301914215,-1.4490773677825928
1761380286494127900,7.5481279296875,0.17185668647289276,-0.329870343208313,-1.2979134321212769
1761380286504182500,7.5581826171875,0.08578749001026154,-0.3955824375152588,-1.0294408798217773
1761380286514237700,7.56823779296875,0.023699352517724037,-0.5721052885055542,-0.99720299243927
1761380286524292600,7.578292724609375,0.03151965141296387,-0.5074363350868225,-1.2795977592468262
1761380286534347500,7.588347412109375,0.13532088696956635,-0.3590242266654968,-1.887046456336975
1761380286544402700,7.598402587890625,0.3696286678314209,-0.32141032814979553,-2.5494701862335205
