time,seconds_elapsed,z,y,x
1761379445010292700,0.070292724609375,-0.04920696094632149,-0.009409747086465359,-0.08865956217050552
1761379445020374800,0.080374755859375,-0.07666841149330139,0.00833649281412363,-0.06278908252716064
1761379445030457900,0.090457763671875,-0.08756846189498901,0.024480042979121208,0.006072806194424629
1761379445040539600,0.10053955078125,-0.10028186440467834,0.04340206831693649,0.08314921706914902
1761379445050621700,0.11062158203125,-0.10546410828828812,0.04685458913445473,0.16282673180103302
1761379445060704800,0.120704833984375,-0.10244568437337875,0.014736868441104889,0.23675395548343658
1761379445070786800,0.130786865234375,-0.10165871679782867,-0.014815697446465492,0.28205645084381104
1761379445080868600,0.14086865234375,-0.09847916662693024,-0.04922214150428772,0.29975929856300354
1761379445090952000,0.150951904296875,-0.09404314309358597,-0.07550594210624695,0.27668219804763794
1761379445101034000,0.161033935546875,-0.08782439678907394,-0.053343914449214935,0.19220566749572754
1761379445111116000,0.171115966796875,-0.07847057282924652,-0.0009153284481726587,0.04668334871530533
1761379445121198800,0.18119873046875,-0.061831675469875336,0.04609665647149086,-0.08066049218177795
1761379445131281000,0.191281005859375,-0.0421953909099102,0.09095680713653564,-0.12456803023815155
1761379445141363000,0.201363037109375,-0.014828747138381004,0.13549365103244781,-0.06547967344522476
1761379445151445800,0.21144580078125,0.026970097795128822,0.13339880108833313,0.04831346869468689
1761379445161527800,0.22152783203125,0.06706558912992477,0.11424481868743896,0.125543013215065
1761379445171609900,0.23160986328125,0.08952642232179642,0.0874456912279129,0.13218386471271515
1761379445181692000,0.24169189453125,0.1014893427491188,0.07602445781230927,0.11272521317005157
1761379445191774700,0.251774658203125,0.0892675593495369,0.05131405219435692,0.08519132435321808
1761379445201856800,0.261856689453125,0.06992609053850174,0.04083850979804993,0.04934224858880043
1761379445211938800,0.271938720703125,0.04506095126271248,0.05958210304379463,0.02322729118168354
1761379445222022000,0.28202197265625,0.02642202004790306,0.06272915750741959,0.015209845267236233
1761379445232104000,0.29210400390625,0.02629445493221283,0.06910290569067001,0.02022271417081356
1761379445242185700,0.302185791015625,0.03356275334954262,0.05570187792181969,0.014850052073597908
1761379445252268800,0.312268798828125,0.016339825466275215,0.054549794644117355,0.019233882427215576
1761379445262350800,0.322350830078125,-0.014426875859498978,0.07685190439224243,0.005589175969362259
1761379445272433000,0.332432861328125,-0.03888348489999771,0.07597225904464722,0.007865113206207752
1761379445282515700,0.342515625,-0.0549311600625515,0.08762385696172714,0.024144483730196953
1761379445292597800,0.35259765625,-0.05744651332497597,0.08737751841545105,0.04243374243378639
1761379445302679800,0.3626796875,-0.06022392585873604,0.09359599649906158,0.06061514467000961
1761379445312761900,0.372761962890625,-0.05718046426773071,0.08722784370183945,0.07884075492620468
1761379445322844700,0.3828447265625,-0.05431969836354256,0.048660214990377426,0.1071363091468811
1761379445332926700,0.3929267578125,-0.05211353302001953,0.008248608559370041,0.10998348891735077
1761379445343008800,0.4030087890625,-0.05113615468144417,-0.015143000520765781,0.09192220121622086
1761379445353091800,0.413091796875,-0.062062572687864304,0.0021608888637274504,0.07752808183431625
1761379445363173600,0.423173583984375,-0.07758480310440063,0.016050072386860847,0.09694811701774597
1761379445373255700,0.433255615234375,-0.08620652556419373,0.027655329555273056,0.1533735692501068
1761379445383339000,0.443339111328125,-0.07976007461547852,0.055921588093042374,0.19423311948776245
1761379445393421000,0.453421142578125,-0.08356945961713791,0.00267807487398386,0.20441758632659912
1761379445403502800,0.4635029296875,-0.09985975176095963,0.04850761592388153,0.23637151718139648
1761379445413586000,0.4735859375,-0.09888023883104324,0.029833795502781868,0.24392105638980865
1761379445423668000,0.48366796875,-0.06519631296396255,0.009366070851683617,0.2099524289369583
1761379445433750000,0.49375,-0.04392777755856514,0.005643238313496113,0.14793966710567474
1761379445443832800,0.503832763671875,-0.029917685315012932,0.023431556299328804,0.07148882746696472
1761379445453915000,0.513914794921875,-0.02436313033103943,0.04826127365231514,0.01967197097837925
1761379445463997000,0.523996826171875,-0.005636313930153847,0.06386259943246841,0.010716560296714306
1761379445474079000,0.534078857421875,0.020023776218295097,0.05048021674156189,0.022436067461967468
1761379445484161800,0.544161865234375,0.039867520332336426,0.0447634756565094,0.02666090615093708
1761379445494243800,0.554243896484375,0.05273644998669624,0.04030268266797066,0.021528994664549828
1761379445504326000,0.564325927734375,0.06382105499505997,0.040712542831897736,0.023510918021202087
1761379445514408700,0.57440869140625,0.06619313359260559,0.03389884531497955,0.047087084501981735
1761379445524490800,0.58449072265625,0.06421547383069992,0.04229659214615822,0.0801001638174057
1761379445534572800,0.59457275390625,0.05052708834409714,0.08266798406839371,0.16258172690868378
1761379445544656000,0.60465576171875,0.0344272144138813,0.07725830376148224,0.284789115190506
1761379445554738000,0.614738037109375,0.029569875448942184,0.047682832926511765,0.3385674059391022
1761379445564819700,0.62481982421875,0.03262265771627426,0.030970431864261627,0.3338450789451599
1761379445574902800,0.63490283203125,0.0358584001660347,-0.0020218719728291035,0.2677915096282959
1761379445584984800,0.64498486328125,0.03458061441779137,0.006838465109467506,0.15510569512844086
1761379445595067000,0.65506689453125,0.02961195446550846,0.025719478726387024,0.06687303632497787
1761379445605149700,0.665149658203125,0.025951439514756203,0.03213157132267952,0.027527764439582825
1761379445615231700,0.675231689453125,0.030418891459703445,0.025408154353499413,0.019030949100852013
1761379445625313800,0.685313720703125,0.03506956994533539,0.004791559185832739,0.02255590818822384
1761379445635395800,0.695395751953125,0.0486982986330986,-0.018033862113952637,0.019037339836359024
1761379445645478700,0.705478759765625,0.06292490661144257,-0.05119740590453148,0.005824599415063858
1761379445655560700,0.715560791015625,0.0705450028181076,-0.08641637861728668,-0.015569105744361877
1761379445665642800,0.725642822265625,0.06294940412044525,-0.09486046433448792,-0.03684403374791145
1761379445675725800,0.735725830078125,0.03919427469372749,-0.10050903260707855,-0.04086780548095703
1761379445685807900,0.745807861328125,0.016598418354988098,-0.09365831315517426,-0.034892737865448
1761379445695889700,0.7558896484375,0.007185741327702999,-0.060979198664426804,-0.0252813883125782
1761379445705973000,0.765972900390625,0.007456851191818714,-0.02051539532840252,-0.008644620887935162
1761379445716055000,0.776054931640625,0.025055285543203354,-0.012079565785825253,0.012054531835019588
1761379445726136800,0.78613671875,0.04111627861857414,-0.014778945595026016,0.022765500470995903
1761379445736220000,0.796219970703125,0.03627651557326317,-0.004338821861892939,0.020858943462371826
1761379445746302000,0.806302001953125,0.03334863483905792,0.006096241995692253,0.013013270683586597
1761379445756384000,0.816384033203125,0.03928055986762047,0.026215890422463417,0.006340986583381891
1761379445766466800,0.826466796875,0.05646061152219772,0.04361831769347191,0.006416886579245329
1761379445776548900,0.836548828125,0.07269630581140518,0.0507875457406044,0.026683276519179344
1761379445786631000,0.846630859375,0.08418252319097519,0.03725309669971466,0.06929891556501389
1761379445796713000,0.856712890625,0.08539053052663803,0.024270186200737953,0.0869748443365097
1761379445806795800,0.866795654296875,0.06199279800057411,0.01884585991501808,0.0819699689745903
1761379445816877800,0.8768779296875,0.0421258807182312,0.02592320926487446,0.054539941251277924
1761379445826960000,0.8869599609375,0.042402852326631546,0.022304240614175797,0.032637838274240494
1761379445837042700,0.897042724609375,0.05463075637817383,0.0012290488230064511,0.02840421162545681
1761379445847124700,0.907124755859375,0.055270712822675705,-0.026822026818990707,0.02159317582845688
1761379445857206800,0.917206787109375,0.04187687486410141,-0.028734441846609116,0.0027387947775423527
1761379445867289900,0.927289794921875,0.02172926440834999,-0.03014165721833706,-0.012194614857435226
1761379445877372000,0.937371826171875,0.007503722794353962,-0.032406941056251526,-0.0091157341375947
1761379445887453700,0.94745361328125,0.006250705569982529,-0.025557557120919228,-0.0037883466575294733
1761379445897536800,0.957536865234375,-0.0006380933918990195,-0.0031582426745444536,-0.006983341183513403
1761379445907618800,0.967618896484375,-0.018135594204068184,0.05092469975352287,-0.008518386632204056
1761379445917700900,0.977700927734375,-0.03994155675172806,0.09023934602737427,-0.000026897927455138415
1761379445927783700,0.98778369140625,-0.04741252213716507,0.10969746857881546,0.03039199486374855
1761379445937865700,0.99786572265625,-0.04037325456738472,0.1107022762298584,0.04988846182823181
1761379445947947800,1.00794775390625,-0.0214147437363863,0.10712458938360214,0.058389805257320404
1761379445958030800,1.01803076171875,-0.0021875204984098673,0.10128454118967056,0.045709963887929916
1761379445968113000,1.02811279296875,0.00788508728146553,0.08840709179639816,0.0311624463647604
1761379445978194700,1.038194580078125,0.025041703134775162,0.10178335011005402,0.056470997631549835
1761379445988278000,1.048278076171875,0.030110763385891914,0.06389402598142624,0.05609043315052986
1761379445998359000,1.058359130859375,0.031615715473890305,0.04099403694272041,0.002665291540324688
1761379446008441000,1.068441162109375,0.019899671897292137,0.04196156561374664,-0.017308415845036507
1761379446018524000,1.07852392578125,0.004825914278626442,0.044319529086351395,-0.02111380733549595
1761379446028606000,1.08860595703125,-0.012314456515014172,0.028149345889687538,-0.020590495318174362
1761379446038688000,1.09868798828125,-0.015752332285046577,0.02954164706170559,-0.012676913291215897
1761379446048770000,1.10877001953125,-0.0059806606732308865,0.022121546790003777,0.03832022473216057
1761379446058852900,1.118852783203125,-0.004418716765940189,-0.027215110138058662,-0.023967916145920753
1761379446068935000,1.128934814453125,-0.00887844618409872,-0.052563607692718506,-0.04392484575510025
1761379446079017000,1.139016845703125,-0.030309969559311867,-0.03870425373315811,-0.02280944213271141
1761379446089099800,1.149099853515625,-0.04930070415139198,-0.019664248451590538,0.00019254654762335122
1761379446099181800,1.159181884765625,-0.06233847513794899,-0.004553206264972687,0.02949530817568302
1761379446109264000,1.169263916015625,-0.0553777702152729,0.08885636925697327,0.1449987292289734
1761379446119347000,1.179346923828125,-0.04607508331537247,0.06593108177185059,0.19932375848293304
1761379446129428700,1.1894287109375,-0.01842135190963745,-0.016147011891007423,0.11140508949756622
1761379446139510800,1.1995107421875,0.002439455594867468,-0.046840209513902664,0.010805776342749596
1761379446149594000,1.209593994140625,0.022819295525550842,-0.04592381417751312,-0.013910489156842232
1761379446159676000,1.219676025390625,0.041126929223537445,-0.04061666876077652,-0.01594993844628334
1761379446169758000,1.229758056640625,0.05381769314408302,-0.04634938761591911,-0.009068329818546772
1761379446179841000,1.239841064453125,0.06632842123508453,-0.032696161419153214,0.0010636665392667055
1761379446189923000,1.249923095703125,0.06663575023412704,-0.018314559012651443,-0.0011640676530078053
1761379446200005000,1.260005126953125,0.06108758971095085,-0.011080880649387836,-0.0056863813661038876
1761379446210088000,1.270087890625,0.061172012239694595,-0.013399961404502392,-0.003409911412745714
1761379446220170000,1.280169921875,0.060081180185079575,-0.015205850824713707,0.006696784868836403
1761379446230252000,1.290251953125,0.0547037236392498,-0.026451580226421356,0.01824185438454151
1761379446240335000,1.300335205078125,0.04948792606592178,-0.02798023633658886,0.021628329530358315
1761379446250417000,1.3104169921875,0.044318728148937225,-0.033303894102573395,0.016264190897345543
1761379446260499000,1.3204990234375,0.03760649636387825,-0.02804281935095787,0.01452967431396246
1761379446270582000,1.33058203125,0.027831098064780235,-0.007440605666488409,0.0041609229519963264
1761379446280664000,1.3406640625,0.015468438155949116,0.01028512790799141,0.0017097494564950466
1761379446290745900,1.350745849609375,0.014430604875087738,0.016145680099725723,0.008863799273967743
1761379446300829000,1.360828857421875,0.013589045964181423,0.0023451796732842922,0.025120267644524574
1761379446310911000,1.370910888671875,0.022297048941254616,-0.01678936555981636,0.037090644240379333
1761379446320993000,1.380992919921875,0.02202940173447132,-0.025045964866876602,0.03880172595381737
1761379446331075800,1.391075927734375,0.01715102419257164,-0.02466779574751854,0.033853303641080856
1761379446341158000,1.401157958984375,0.015987489372491837,-0.03368658944964409,0.027577565982937813
1761379446351240000,1.411239990234375,0.018698053434491158,-0.0354597233235836,0.018880480900406837
1761379446361322800,1.42132275390625,0.016292953863739967,-0.02858424000442028,0.008287224918603897
1761379446371404800,1.43140478515625,0.00729519734159112,-0.014903315342962742,0.003899666713550687
1761379446381486800,1.44148681640625,0.007123156916350126,-0.002432531211525202,0.016686301678419113
1761379446391570000,1.45156982421875,0.007764179725199938,0.00529489666223526,0.021758558228611946
1761379446401652000,1.46165185546875,0.005860552191734314,0.004859203472733498,0.022339660674333572
1761379446411733800,1.471733642578125,0.007790278643369675,0.004597681108862162,0.021045897156000137
1761379446421817000,1.481817138671875,0.009276056662201881,-0.006824616342782974,0.01649615168571472
1761379446431899100,1.491899169921875,0.017170464619994164,-0.009996973909437656,0.01233443059027195
1761379446441981000,1.50198095703125,0.017251957207918167,-0.003051982494071126,0.015058045275509357
1761379446452062700,1.512062744140625,0.008706938475370407,0.0035031221341341734,0.022974824532866478
1761379446462146000,1.52214599609375,-0.0009467537747696042,0.006613694131374359,0.030254574492573738
1761379446472228000,1.53222802734375,-0.007725297473371029,0.00307621737010777,0.034234669059515
1761379446482310100,1.54231005859375,-0.015089470893144608,0.00606348505243659,0.027476897463202477
1761379446492393000,1.55239306640625,-0.024227840825915337,-0.0054970309138298035,0.01727619208395481
1761379446502475000,1.56247509765625,-0.030854318290948868,-0.024108532816171646,0.0035111114848405123
1761379446512557000,1.57255712890625,-0.029745912179350853,-0.04658667743206024,-0.010852115228772163
1761379446522640000,1.582639892578125,-0.02201981469988823,-0.06379895657300949,-0.019991284236311913
1761379446532722000,1.592721923828125,-0.011080081574618816,-0.08049537241458893,-0.0168538149446249
1761379446542804000,1.602803955078125,-0.006500510033220053,-0.07115167379379272,-0.014195181429386139
1761379446552887000,1.612886962890625,-0.0060299295000731945,-0.035240545868873596,-0.007845672778785229
1761379446562969000,1.622968994140625,0.004022172186523676,-0.006042712368071079,0.007284278050065041
1761379446573051000,1.63305078125,0.023261379450559616,0.0051995557732880116,0.024896562099456787
1761379446583134000,1.643134033203125,0.034015756100416183,0.01050110999494791,0.029582658782601357
1761379446593216000,1.653216064453125,0.04248673841357231,0.009665144607424736,0.02864336222410202
1761379446603298000,1.663298095703125,0.03924780339002609,0.00812344066798687,0.016887636855244637
1761379446613380900,1.673380859375,0.02359560690820217,0.00015472965606022626,0.01811029389500618
1761379446623463000,1.683462890625,0.01733930967748165,-0.003005110891535878,0.01678483933210373
1761379446633545000,1.693544921875,0.01534939557313919,-0.004150004126131535,0.012340555898845196
1761379446643627800,1.703627685546875,0.012761867605149746,-0.016025304794311523,0.012808472849428654
1761379446653709800,1.713709716796875,0.015967514365911484,-0.024464862421154976,0.016570987179875374
1761379446663791900,1.7237919921875,0.019236544147133827,-0.024040887132287025,0.017016267403960228
1761379446673875000,1.733875,0.01787380501627922,-0.022829415276646614,0.025079520419239998
1761379446683956700,1.743956787109375,0.014756575226783752,-0.034260500222444534,0.031633295118808746
1761379446694038800,1.754038818359375,0.02075507864356041,-0.03584454953670502,0.02237880788743496
1761379446704122000,1.7641220703125,0.028197016566991806,-0.014593057334423065,0.016950488090515137
1761379446714204000,1.774203857421875,0.03183889016509056,0.0007856325246393681,0.023548202589154243
1761379446724286000,1.784285888671875,0.032586973160505295,-0.003355316584929824,0.05463315173983574
1761379446734369000,1.794369140625,0.03292173147201538,0.0019510318525135517,0.06108305975794792
1761379446744451000,1.804451171875,0.03277658671140671,0.027126159518957138,0.04591023549437523
1761379446754533000,1.814533203125,0.0237045306712389,0.04218180850148201,0.030071349814534187
1761379446764616000,1.824615966796875,0.01689988747239113,0.04255891218781471,0.02804894559085369
1761379446774698000,1.834697998046875,0.027789553627371788,0.03428340330719948,0.025069933384656906
1761379446784780000,1.844780029296875,0.02748808264732361,0.03177523985505104,0.018217885866761208
1761379446794863000,1.854863037109375,0.015153652988374233,0.024353276938199997,0.02159770391881466
1761379446804945000,1.86494482421875,-0.0015190670965239406,0.004220045171678066,0.028557874262332916
1761379446815027000,1.87502685546875,-0.009375658817589283,-0.012476110830903053,0.02473597228527069
1761379446825110000,1.885110107421875,-0.014344317838549614,-0.021518342196941376,0.0028826056513935328
1761379446835192000,1.895192138671875,-0.02377164177596569,-0.016438893973827362,-0.018820559605956078
1761379446845273900,1.90527392578125,-0.036254145205020905,-0.021411815658211708,-0.02449335902929306
1761379446855357000,1.91535693359375,-0.03610846772789955,-0.023020630702376366,-0.020168650895357132
1761379446865439000,1.92543896484375,-0.03723365440964699,-0.026198048144578934,-0.02047012187540531
1761379446875521000,1.93552099609375,-0.04349341616034508,-0.018009627237915993,-0.025415876880288124
1761379446885603800,1.945603759765625,-0.04440980777144432,-0.0009155947482213378,-0.009228119626641273
1761379446895686000,1.955685791015625,-0.036081306636333466,-0.005375590641051531,0.021207550540566444
1761379446905768000,1.965767822265625,-0.020621389150619507,-0.019786754623055458,0.040223851799964905
1761379446915850800,1.975850830078125,0.0034610440488904715,-0.026808178052306175,0.0338788703083992
1761379446925932800,1.985932861328125,0.017416806891560555,-0.03219122439622879,0.011984224431216717
1761379446936014800,1.996014892578125,0.03470604866743088,-0.040103744715452194,-0.005253351293504238
1761379446946098000,2.006097900390625,0.04060202091932297,-0.05145253986120224,-0.015268168412148952
1761379446956180000,2.016179931640625,0.038422223180532455,-0.0366554819047451,-0.021506091579794884
1761379446966261800,2.02626171875,0.026266224682331085,-0.009852897375822067,-0.009856625460088253
1761379446976345000,2.036344970703125,0.01733424887061119,-0.006215285509824753,0.023739418014883995
1761379446986427100,2.04642724609375,0.011350126005709171,-0.01095544546842575,0.05409492552280426
1761379446996509200,2.05650927734375,0.009076319634914398,-0.00418435875326395,0.04687483236193657
1761379447006592000,2.066592041015625,0.00546294217929244,-0.00009187905379803851,0.03014352172613144
1761379447016674000,2.076674072265625,-0.00013795174891129136,-0.00833862368017435,0.02267441898584366
1761379447026756000,2.086756103515625,-0.00020746025256812572,-0.02299346588551998,0.011267301626503468
1761379447036839000,2.0968388671875,0.005623531062155962,-0.03605227544903755,0.008705341257154942
1761379447046921000,2.1069208984375,0.006429137196391821,-0.03597744181752205,-0.004769987892359495
1761379447057003000,2.1170029296875,0.010161557234823704,-0.016952086240053177,-0.0181070975959301
1761379447067086000,2.127086181640625,0.006835535634309053,-0.0075758942402899265,-0.01636512391269207
1761379447077167900,2.13716796875,0.014452176168560982,-0.010834005661308765,-0.009873669594526291
1761379447087250000,2.14725,0.02057505026459694,-0.007300523575395346,-0.008043012581765652
1761379447097333200,2.157333251953125,0.018605375662446022,-0.0032690302468836308,-0.017643975093960762
1761379447107415000,2.1674150390625,0.017907893285155296,0.003573429537937045,-0.026395121589303017
1761379447117497000,2.1774970703125,0.016408801078796387,0.01625220663845539,-0.024321051314473152
1761379447127580200,2.187580078125,0.011314173229038715,0.02226083166897297,-0.012228436768054962
1761379447137662200,2.197662109375,0.007802529260516167,0.02292555570602417,0.0049678608775138855
1761379447147744300,2.207744140625,0.0067750816233456135,0.023000391200184822,0.009402023628354073
1761379447157827000,2.2178271484375,0.01678164303302765,0.00236328924074769,0.02219478413462639
1761379447167909000,2.2279091796875,0.027594875544309616,-0.022167086601257324,0.02526753954589367
1761379447177991200,2.2379912109375,0.027689417824149132,-0.029683060944080353,0.01128061767667532
1761379447188074000,2.248073974609375,0.02672508731484413,-0.032344356179237366,-0.01011042483150959
1761379447198156000,2.258156005859375,0.03277978301048279,-0.02966308780014515,-0.01872175559401512
1761379447208238000,2.268238037109375,0.041134919971227646,-0.031093204393982887,-0.019652796909213066
1761379447218321200,2.278321044921875,0.046353649348020554,-0.014223943464457989,-0.012374377809464931
1761379447228403200,2.2884033203125,0.04917819797992706,-0.006364422384649515,0.002834135899320245
1761379447238485000,2.298485107421875,0.05179954692721367,0.005772401578724384,0.017549166455864906
1761379447248568000,2.308568115234375,0.055737562477588654,0.013111008331179619,0.024342890828847885
1761379447258650000,2.318650146484375,0.05464859679341316,0.00965608935803175,0.019701533019542694
1761379447268732200,2.328732177734375,0.052623797208070755,0.0028157602064311504,0.015050321817398071
1761379447278815000,2.33881494140625,0.05185573920607567,-0.006351106334477663,0.010778611525893211
1761379447288897000,2.34889697265625,0.04541542008519173,-0.010047574527561665,0.006470682565122843
1761379447298979000,2.35897900390625,0.043890759348869324,-0.017308682203292847,0.0039113848470151424
1761379447309062000,2.369061767578125,0.039137549698352814,-0.025740783661603928,0.0034432008396834135
1761379447319144000,2.37914404296875,0.040767669677734375,-0.0362730510532856,0.003778493031859398
1761379447329226000,2.38922607421875,0.03945792838931084,-0.038602519780397415,-0.0038714371621608734
1761379447339309000,2.39930908203125,0.030376814305782318,-0.03816869109869003,-0.007810784969478846
1761379447349391000,2.40939111328125,0.022368688136339188,-0.03623097389936447,-0.009753560647368431
1761379447359474200,2.41947412109375,0.018308432772755623,-0.03604934737086296,-0.0031135017052292824
1761379447369556200,2.42955615234375,0.01588122919201851,-0.03534014895558357,-0.0018809906905516982
1761379447379638300,2.43963818359375,0.010792460292577744,-0.021204087883234024,-0.0017928400775417686
1761379447389721000,2.44972119140625,0.008596417494118214,-0.006416886579245329,0.0011669971281662583
1761379447399803100,2.45980322265625,0.00538411270827055,-0.005287706386297941,0.008051801472902298
1761379447409885200,2.46988525390625,0.006136189214885235,-0.015137141570448875,0.00583871454000473
1761379447419968300,2.47996826171875,0.010485664010047913,-0.01332805585116148,0.008724248968064785
1761379447430050000,2.490050048828125,0.02430587261915207,-0.01637178286910057,0.0065535069443285465
1761379447440132000,2.500132080078125,0.036487702280282974,-0.021570272743701935,0.01113414391875267
1761379447450215200,2.510215087890625,0.04938432574272156,-0.01378398947417736,0.008379902690649033
1761379447460297200,2.520297119140625,0.055200137197971344,0.00007137271313695237,0.005399559158831835
1761379447470379000,2.53037890625,0.05572371557354927,-0.002344913315027952,0.002939597237855196
1761379447480462000,2.540462158203125,0.056415606290102005,-0.0008149272762238979,0.0006862966110929847
1761379447490544000,2.550544189453125,0.05323658883571625,0.002581934677436948,-0.004239219706505537
1761379447500626200,2.560626220703125,0.044317129999399185,0.00897005945444107,-0.006192914675921202
1761379447510709000,2.570708984375,0.03248976543545723,0.005332979839295149,-0.0029968551825731993
1761379447520791000,2.580791015625,0.02388136461377144,0.006779342889785767,-0.005380916874855757
1761379447530873000,2.590873046875,0.019767845049500465,0.010028932243585587,-0.0023403859231621027
1761379447540956000,2.600955810546875,0.020323913544416428,0.006728742737323046,0.0071095749735832214
1761379447551038000,2.611037841796875,0.02251383103430271,0.0010327738709747791,0.005988650489598513
1761379447561120000,2.6211201171875,0.028850557282567024,0.007653126027435064,0.004387291613966227
1761379447571203000,2.631203125,0.035163313150405884,0.0006703176186420023,0.0049377670511603355
1761379447581285000,2.64128515625,0.039271239191293716,-0.01420530118048191,0.008440889418125153
1761379447591367000,2.651366943359375,0.042626556009054184,-0.022960443049669266,0.004585164599120617
1761379447601450000,2.661449951171875,0.04433204606175423,-0.022848591208457947,-0.009215869009494781
1761379447611532000,2.671531982421875,0.04061347246170044,-0.02135535515844822,-0.0093905720859766
1761379447621614000,2.681614013671875,0.0348900742828846,-0.011956261470913887,-0.009847038425505161
1761379447631697200,2.691697265625,0.03369325026869774,-0.013817278668284416,-0.0024983114562928677
1761379447641779200,2.701779296875,0.03495638445019722,-0.00806005671620369,0.0019148128340020776
1761379447651861200,2.711861328125,0.03603896126151085,-0.004092479590326548,0.0003249056462664157
1761379447661944000,2.721944091796875,0.03411083295941353,-0.0008412926108576357,0.00504029868170619
1761379447672026000,2.732026123046875,0.03870318830013275,-0.007188670802861452,0.002433063928037882
1761379447682108200,2.742108154296875,0.03620833903551102,-0.014970427379012108,0.0036887445021420717
1761379447692191200,2.752191162109375,0.03266926482319832,-0.017179785296320915,0.0004543352697510272
1761379447702273000,2.76227294921875,0.02743242308497429,-0.015224226750433445,-0.005225654691457748
1761379447712355000,2.77235498046875,0.022298647090792656,-0.017978467047214508,-0.007517304737120867
1761379447722438100,2.782438232421875,0.027222033590078354,-0.008809470571577549,-0.010772219859063625
1761379447732520200,2.792520263671875,0.02472478710114956,0.002989398315548897,-0.006819556467235088
1761379447742602000,2.80260205078125,0.021631525829434395,0.005003813188523054,0.002115082461386919
1761379447752685000,2.81268505859375,0.024026239290833473,-0.00148125016130507,0.017593640834093094
1761379447762767000,2.82276708984375,0.025950906798243523,0.0013672668719664216,0.018080200999975204
1761379447772849200,2.83284912109375,0.021646173670887947,0.0033302828669548035,0.017110276967287064
1761379447782932000,2.842931884765625,0.01894439570605755,0.0079721724614501,0.011081946082413197
1761379447793014000,2.853013916015625,0.014230601489543915,0.009224656969308853,0.00803049560636282
1761379447803097000,2.86309716796875,0.010087255388498306,0.005559082608669996,0.010972489602863789
1761379447813179100,2.87317919921875,0.012966398149728775,-0.008451808243989944,0.013396498747169971
1761379447823261000,2.883260986328125,0.01101696491241455,-0.023931432515382767,0.008461927995085716
1761379447833344000,2.893343994140625,0.01007899921387434,-0.021099692210555077,-0.000990429543890059
1761379447843426000,2.903426025390625,0.011117632500827312,-0.021558821201324463,-0.002466353354975581
1761379447853508000,2.913508056640625,0.015455921180546284,-0.027411650866270065,0.0035595810040831566
1761379447863591200,2.923591064453125,0.01878354139626026,-0.026684608310461044,0.003335076617076993
1761379447873673000,2.9336728515625,0.0216581579297781,-0.020252807065844536,0.0026961842086166143
1761379447883755000,2.943755126953125,0.020497551187872887,-0.012311261147260666,-0.0007699198904447258
1761379447893838000,2.953838134765625,0.021620074287056923,-0.014033793471753597,0.0009805759182199836
1761379447903920000,2.963920166015625,0.024529844522476196,-0.018031198531389236,0.001642637769691646
1761379447914002200,2.974002197265625,0.022939937189221382,-0.024526648223400116,0.002948385663330555
1761379447924085200,2.984085205078125,0.022529544308781624,-0.01979527622461319,-0.002406165935099125
1761379447934167000,2.9941669921875,0.015325427055358887,-0.013626329600811005,-0.0009137305896729231
1761379447944249000,3.0042490234375,0.01275760680437088,-0.018698852509260178,0.010233729146420956
1761379447954332200,3.014332275390625,0.013462278991937637,-0.02894110418856144,0.01725941337645054
1761379447964414200,3.024414306640625,0.012352540157735348,-0.03008226864039898,0.010878213681280613
1761379447974496000,3.03449609375,0.006623814348131418,-0.02394421398639679,0.0012037487467750907
1761379447984579000,3.0445791015625,0.004680505488067865,-0.026933081448078156,-0.0014021543320268393
1761379447994661000,3.0546611328125,0.005051217507570982,-0.028321653604507446,0.002966228872537613
1761379448004743400,3.064743408203125,0.009923204779624939,-0.02574451081454754,0.0032751555554568768
1761379448014826200,3.074826171875,0.011668107472360134,-0.027605794370174408,0.005852030124515295
1761379448024908300,3.084908203125,0.015528093092143536,-0.023091737180948257,0.003978496417403221
1761379448034990300,3.094990234375,0.019000323489308357,-0.01483540516346693,0.008103200234472752
1761379448045073200,3.1050732421875,0.026155970990657806,-0.015532886609435081,0.008268049918115139
1761379448055155200,3.1151552734375,0.0261080339550972,-0.021672803908586502,0.012783972546458244
1761379448065237200,3.1252373046875,0.029151227325201035,-0.02521294541656971,0.008836634457111359
1761379448075320300,3.1353203125,0.024472586810588837,-0.025967152789235115,0.006586529780179262
1761379448085402400,3.14540234375,0.01757925935089588,-0.02587900124490261,0.0012159993639215827
1761379448095484200,3.155484130859375,0.009877664037048817,-0.025066737085580826,-0.0016202671686187387
1761379448105567200,3.165567138671875,0.006725813262164593,-0.02111114375293255,-0.0013305152533575892
1761379448115649300,3.175649169921875,0.006146309431642294,-0.018749186769127846,0.0002402171230642125
1761379448125731300,3.1857314453125,0.01296560000628233,-0.023504527285695076,0.0019481023773550987
1761379448135814100,3.195814208984375,0.01613209769129753,-0.028071049600839615,0.000972852751147002
1761379448145896200,3.205896240234375,0.01841469295322895,-0.022657908499240875,-0.00039521310827694833
1761379448155979300,3.215979248046875,0.014937670901417732,-0.020424848422408104,0.0008471515611745417
1761379448166061000,3.22606103515625,0.008844624273478985,-0.013991449028253555,0.0003885551996063441
1761379448176143000,3.23614306640625,0.0024085629265755415,-0.006710100453346968,0.001121723442338407
1761379448186226200,3.24622607421875,0.0026991136837750673,-0.0017222663154825568,0.0008146609761752188
1761379448196308200,3.25630810546875,0.0019124159589409828,0.003022687742486596,-0.002630404196679592
1761379448206390000,3.26639013671875,0.004091946873813868,0.0052267201244831085,0.005465871654450893
1761379448216473300,3.276473388671875,0.005941512528806925,-0.0006295712664723396,0.006433132104575634
1761379448226555400,3.286555419921875,0.010430004447698593,-0.006667490117251873,0.011744273826479912
1761379448236637400,3.296637451171875,0.012954680249094963,-0.010789263993501663,0.006195311434566975
1761379448246720300,3.30672021484375,0.008268049918115139,-0.017849037423729897,-0.0008263788768090308
1761379448256802300,3.31680224609375,0.005818740464746952,-0.016997093334794044,-0.005282113794237375
1761379448266884400,3.32688427734375,0.003171292133629322,-0.015251656994223595,-0.005378786474466324
1761379448276967200,3.33696728515625,-0.002502572489902377,-0.023503994569182396,0.0010764497565105557
1761379448287049200,3.34704931640625,-0.0006910903030075133,-0.0315704420208931,-0.0022985744290053844
1761379448297131300,3.35713134765625,0.002046372974291444,-0.03459233045578003,-0.0034442662727087736
1761379448307214300,3.36721435546875,0.0043835630640387535,-0.041610293090343475,0.0022280006669461727
1761379448317296400,3.37729638671875,0.005148689262568951,-0.04669133946299553,0.00245117349550128
1761379448327378200,3.387378173828125,0.002630936913192272,-0.04247688502073288,0.00008175904804375023
1761379448337461200,3.397461181640625,0.010994328185915947,-0.01834864728152752,-0.006628874223679304
1761379448347543300,3.407543212890625,0.01973215863108635,-0.02209225296974182,0.003413107246160507
1761379448357625300,3.417625244140625,0.028920864686369896,-0.016887903213500977,0.006925283931195736
1761379448367708200,3.427708251953125,0.03910239413380623,-0.01004917174577713,0.007376423571258783
1761379448377790200,3.437790283203125,0.04042678326368332,-0.008400408551096916,0.015261776745319366
1761379448387872300,3.447872314453125,0.03940839320421219,-0.003704190719872713,0.00845526996999979
1761379448397955000,3.457955078125,0.03995354101061821,0.004025101661682129,0.004061587154865265
1761379448408037000,3.468037109375,0.03676467388868332,0.0021374530624598265,0.0038155107758939266
1761379448418119200,3.478119140625,0.038954589515924454,-0.004319380968809128,0.0065140919759869576
1761379448428202200,3.4882021484375,0.03849546238780022,-0.009831857867538929,-0.0006852313526906073
1761379448438284000,3.498283935546875,0.035703402012586594,-0.00836818479001522,-0.004978513345122337
1761379448448366000,3.508365966796875,0.03050437942147255,-0.014985340647399426,0.003136138431727886
1761379448458449200,3.51844921875,0.02786092646420002,-0.007731156423687935,0.007501325570046902
1761379448468531200,3.52853125,0.027393007650971413,-0.00035712990211322904,0.012651080265641212
1761379448478613200,3.53861328125,0.029325397685170174,0.008892827667295933,0.017105484381318092
1761379448488696300,3.5486962890625,0.03791409358382225,0.0060445768758654594,0.01852281764149666
1761379448498778400,3.5587783203125,0.04388809576630592,-0.004667456261813641,0.020722322165966034
1761379448508861200,3.568861083984375,0.05295749008655548,-0.0062613580375909805,0.014578410424292088
1761379448518943200,3.578943115234375,0.05483022704720497,-0.025843048468232155,0.011319233104586601
1761379448529025300,3.589025390625,0.05465312674641609,-0.022940203547477722,0.004799815360456705
1761379448539108400,3.5991083984375,0.049916427582502365,-0.017290573567152023,-0.0005789712304249406
1761379448549190400,3.6091904296875,0.04409688711166382,-0.010684335604310036,0.0028573055751621723
1761379448559272200,3.619272216796875,0.04114184528589249,-0.004626443609595299,0.005371329374611378
1761379448569355300,3.629355224609375,0.03910372778773308,0.005366535857319832,0.008464591577649117
1761379448579437300,3.639437255859375,0.034565698355436325,0.011728827841579914,0.01047474518418312
1761379448589519400,3.649519287109375,0.03315342590212822,0.011033742688596249,0.014162690378725529
1761379448599602200,3.659602294921875,0.03351561725139618,-0.005496498197317123,0.013131780549883842
1761379448609684200,3.669684326171875,0.03320349380373955,-0.01372326910495758,0.005349758081138134
1761379448619766300,3.679766357421875,0.031451933085918427,-0.02070474624633789,-0.006238454952836037
1761379448629849000,3.68984912109375,0.03351321816444397,-0.026932815089821815,-0.003237072378396988
1761379448639931100,3.69993115234375,0.03770982846617699,-0.02924550324678421,0.0021025657188147306
1761379448650013200,3.71001318359375,0.030014891177415848,-0.018395518884062767,0.0021947110071778297
1761379448660096300,3.72009619140625,0.02094176784157753,-0.0010420948965474963,-0.0008841694798320532
1761379448670178000,3.730177978515625,0.013077186420559883,0.002120675053447485,0.0017366473330184817
1761379448680260000,3.740260009765625,0.0160005372017622,0.00007882956560933962,0.012028699740767479
1761379448690343200,3.75034326171875,0.011412710882723331,-0.003501524217426777,0.010155698284506798
1761379448700425200,3.76042529296875,0.006557235028594732,-0.01125105656683445,0.010864898562431335
1761379448710507300,3.77050732421875,0.0068118334747850895,-0.02167227305471897,0.0032402679789811373
1761379448720590300,3.78059033203125,0.008331432938575745,-0.03857482224702835,-0.0002258360618725419
1761379448730672400,3.79067236328125,0.002150768879801035,-0.051425639539957047,-0.002284725895151496
1761379448740754200,3.800754150390625,0.0086603332310915,-0.04263933748006821,-0.008258196525275707
1761379448750837200,3.810837158203125,0.013943245634436607,-0.03568369522690773,-0.010957576334476471
1761379448760919300,3.820919189453125,0.014207964763045311,-0.023983363062143326,-0.008677111007273197
1761379448771001300,3.83100146484375,0.017057813704013824,-0.013220996595919132,-0.005246693734079599
1761379448781084400,3.84108447265625,0.01865491084754467,-0.008904012851417065,-0.003888215171173215
1761379448791166200,3.851166259765625,0.015604792162775993,-0.005675462540239096,0.0011171960504725575
1761379448801248300,3.861248291015625,0.015504390932619572,-0.00956634059548378,0.0003784351865760982
1761379448811331300,3.871331298828125,0.014504374004900455,-0.011373828165233135,0.004217382054775953
1761379448821413400,3.881413330078125,0.013490774668753147,-0.017368869855999947,0.003882356220856309
1761379448831496200,3.89149609375,0.01642025262117386,-0.006028331350535154,-0.000945954816415906
1761379448841578200,3.901578125,0.015561648644506931,-0.00018988338706549257,-0.00768881244584918
1761379448851660300,3.911660400390625,0.02047012187540531,0.007247526664286852,-0.002966495230793953
1761379448861743000,3.9217431640625,0.02436259761452675,0.004037085920572281,0.008984706364572048
1761379448871825200,3.9318251953125,0.025123195722699165,0.008405202999711037,0.005653092171996832
1761379448881907200,3.9419072265625,0.021151358261704445,0.012878247536718845,-0.00032437301706522703
1761379448891990300,3.951990234375,0.015263907611370087,0.015120629221200943,-0.0011504855938255787
1761379448902072000,3.962072021484375,0.012744823470711708,0.011656655929982662,0.00044474788592197
1761379448912154000,3.972154052734375,0.015033544041216373,0.005907690152525902,0.00037523938226513565
1761379448922237200,3.9822373046875,0.010249974206089973,-0.008609467186033726,0.0029089709278196096
1761379448932319200,3.9923193359375,0.0046730488538742065,-0.01587510295212269,-0.0010242518037557602
1761379448942401300,4.0024013671875,-0.004538558889180422,-0.023421170189976692,-0.00501153664663434
1761379448952484000,4.012484130859375,-0.012654541991651058,-0.023322632536292076,-0.009974603541195393
1761379448962566100,4.022566162109375,-0.01429105456918478,-0.027396470308303833,-0.013828996568918228
1761379448972648200,4.032648193359375,-0.014914234168827534,-0.037890125066041946,-0.013859090395271778
1761379448982731300,4.042731201171875,-0.009640643373131752,-0.04469849541783333,-0.008711200207471848
1761379448992813300,4.052813232421875,-0.006523945834487677,-0.041267279535532,-0.01630973070859909
1761379449002895600,4.0628955078125,-0.0108872689306736,-0.04381512477993965,-0.016565926373004913
1761379449012978400,4.072978515625,-0.005901298485696316,-0.03729384392499924,-0.014488661661744118
1761379449023060500,4.083060546875,0.010819624178111553,-0.028653748333454132,-0.008611864410340786
1761379449033142500,4.093142578125,0.01690042018890381,-0.029414881020784378,-0.005605155136436224
1761379449043225600,4.1032255859375,0.023003851994872093,-0.03465331718325615,-0.00123783724848181
1761379449053307600,4.1133076171875,0.02058037556707859,-0.021567609161138535,-0.008388424292206764
1761379449063389400,4.123389404296875,0.012554939836263657,-0.013807425275444984,-0.01618855632841587
1761379449073472500,4.133472412109375,0.007409446872770786,0.001067927572876215,-0.021571338176727295
1761379449083554600,4.143554443359375,0.007168963085860014,0.004148405976593494,-0.017184313386678696
1761379449093636600,4.15363671875,0.014334464445710182,0.003436010330915451,-0.014373612590134144
1761379449103719700,4.1637197265625,0.015354721806943417,-0.002412024885416031,-0.011286476626992226
1761379449113801700,4.1738017578125,0.017314808443188667,-0.01483673695474863,-0.0015752597246319056
1761379449123883800,4.1838837890625,0.012467854656279087,-0.017486581578850746,-0.0062371231615543365
1761379449133966600,4.193966552734375,0.006098372396081686,-0.01507242675870657,-0.0072983927093446255
1761379449144048600,4.204048583984375,0.0033212280832231045,-0.010885138064622879,-0.014729677699506283
1761379449154130700,4.214130615234375,0.0026085663121193647,-0.00041012681322172284,-0.024177242070436478
1761379449164213800,4.2242138671875,0.0037910097744315863,-0.007577492389827967,-0.018864501267671585
1761379449174295600,4.234295654296875,0.005416070576757193,-0.011689413338899612,-0.010719222947955132
1761379449184377600,4.244377685546875,0.0016226640436798334,-0.01607191003859043,-0.010308030992746353
1761379449194460700,4.254460693359375,-0.0049276468344032764,-0.011996475048363209,-0.014108361676335335
1761379449204542700,4.264542724609375,-0.008263256400823593,-0.005909820552915335,-0.013430854305624962
1761379449214624800,4.274624755859375,-0.007646201644092798,-0.004887166898697615,-0.003896737238392234
1761379449224707600,4.28470751953125,-0.009743707254529,-0.00944836251437664,0.008896555751562119
1761379449234789600,4.29478955078125,-0.012149340473115444,-0.0076177059672772884,0.006669354159384966
1761379449244871700,4.30487158203125,-0.013077186420559883,-0.010399910621345043,0.005081577692180872
1761379449254954500,4.31495458984375,-0.011639345437288284,-0.007385744713246822,0.006043245084583759
1761379449265036500,4.32503662109375,-0.0020008329302072525,-0.008510930463671684,0.014841796830296516
1761379449275118600,4.33511865234375,0.0041526672430336475,-0.0034493261482566595,0.015155516564846039
1761379449285201700,4.34520166015625,0.0024314660113304853,0.003210174385458231,0.012900086119771004
1761379449295283500,4.355283447265625,-0.001686846255324781,0.004993959795683622,0.012208995409309864
1761379449305365500,4.365365478515625,-0.0018610169645398855,0.008259261026978493,0.010027067735791206
1761379449315448600,4.375448486328125,-0.0054914383217692375,0.008640626445412636,0.00705711031332612
1761379449325530600,4.385530517578125,-0.010599647648632526,0.0037140443455427885,0.0029137644451111555
1761379449335612400,4.3956123046875,-0.01992284134030342,0.0034386736806482077,0.003534547286108136
1761379449345695700,4.40569580078125,-0.02895042486488819,0.004532434046268463,0.0013883059145882726
1761379449355777500,4.415777587890625,-0.0347241573035717,0.000862864195369184,0.0052293832413852215
1761379449365860600,4.425860595703125,-0.035652268677949905,-0.009178584441542625,0.006908239796757698
1761379449375942700,4.435942626953125,-0.0349033884704113,-0.006430202629417181,0.005730589851737022
1761379449386024700,4.446024658203125,-0.030170684680342674,-0.00746031291782856,0.002145442645996809
1761379449396107800,4.456107666015625,-0.02851979248225689,-0.0008889631717465818,-0.003709783311933279
1761379449406189600,4.466189453125,-0.0178823284804821,0.006858438719063997,0.001913481275551021
1761379449416271600,4.476271728515625,-0.002828809665516019,0.01091736275702715,0.006381999235600233
1761379449426354700,4.486354736328125,0.009490440599620342,0.0014407701091840863,0.004919923841953278
1761379449436436700,4.496436767578125,0.025487516075372696,-0.005714877508580685,0.0034826158080250025
1761379449446518800,4.506518798828125,0.027398867532610893,-0.00558145297691226,-0.00666349520906806
1761379449456601600,4.5166015625,0.02659326046705246,-0.007466171868145466,-0.011827364563941956
1761379449466683600,4.52668359375,0.022272814065217972,-0.0012532835826277733,-0.015410647727549076
1761379449476765700,4.536765625,0.013243100605905056,0.00971654336899519,-0.010312558151781559
1761379449486848500,4.5468486328125,0.005234443116933107,0.018452243879437447,0.0006290386663749814
1761379449496930600,4.5569306640625,-0.0011720572365447879,0.015244199894368649,0.015031680464744568
1761379449507012600,4.5670126953125,-0.007355650886893272,0.020237626507878304,0.013434049673378468
1761379449517095700,4.577095703125,-0.014328605495393276,0.01955878734588623,0.018427209928631783
1761379449527177500,4.587177490234375,-0.013768276199698448,0.001175519311800599,0.02466380037367344
1761379449537259500,4.597259521484375,-0.006426740437746048,-0.011172759346663952,0.01997557282447815
1761379449547342600,4.607342529296875,-0.004314321093261242,-0.019350528717041016,0.005667739547789097
1761379449557424600,4.617424560546875,-0.004116448108106852,-0.023260848596692085,-0.002665557898581028
1761379449567506400,4.62750634765625,0.0035198999103158712,-0.02383609116077423,-0.008071774616837502
1761379449577589500,4.637589599609375,0.008072840049862862,-0.025305889546871185,-0.0005179848521947861
1761379449587671600,4.647671630859375,0.009811884723603725,-0.028028437867760658,0.00714792450889945
1761379449597753600,4.657753662109375,0.013638846576213837,-0.02941860817372799,0.008563927374780178
1761379449607836700,4.667836669921875,0.014030065387487411,-0.019760655239224434,0.006042978726327419
1761379449617918700,4.677918701171875,0.017665280029177666,-0.010394850745797157,0.0049561429768800735
1761379449628000800,4.688000732421875,0.008895490318536758,-0.0005829659639857709,0.0059902481734752655
1761379449638083600,4.69808349609375,0.003629089565947652,0.0041734399273991585,0.006313289515674114
1761379449648165600,4.70816552734375,0.006372145377099514,-0.001630120910704136,0.00640703272074461
1761379449658247700,4.71824755859375,0.0154929393902421,-0.012476909905672073,0.006593720521777868
1761379449668330800,4.728330810546875,0.025916019454598427,-0.023029152303934097,0.01164600346237421
1761379449678412800,4.738412841796875,0.03728718310594559,-0.04543432593345642,0.004144411068409681
1761379449688494600,4.74849462890625,0.038609445095062256,-0.05518495664000511,-0.009052351117134094
1761379449698577700,4.75857763671875,0.03201865404844284,-0.05125919356942177,-0.016444487497210503
1761379449708659700,4.76865966796875,0.02117506042122841,-0.04271310940384865,-0.01599920727312565
1761379449718741800,4.77874169921875,0.013234312646090984,-0.03392307832837105,-0.009278186596930027
1761379449728824600,4.788824462890625,0.012960805557668209,-0.023299729451537132,-0.001332645770162344
1761379449738906600,4.79890673828125,0.009166333824396133,-0.010247311554849148,0.005633917171508074
1761379449748988700,4.80898876953125,0.005147357936948538,-0.007170561235398054,0.008388158865272999
1761379449759071500,4.819071533203125,-0.004135356284677982,-0.007682154420763254,0.004863731097429991
1761379449769153500,4.829153564453125,-0.006505303550511599,-0.006626211106777191,0.010417487472295761
1761379449779235600,4.839235595703125,-0.008507467806339264,-0.0067750816233456135,0.008566323667764664
1761379449789318700,4.849318603515625,0.0020453077740967274,-0.019898340106010437,0.014092116616666317
1761379449799400400,4.859400390625,0.011235610581934452,-0.012794092297554016,0.015972042456269264
1761379449809482500,4.869482421875,0.0147445909678936,-0.01101696491241455,0.01625273935496807
1761379449819565600,4.879565673828125,0.022598786279559135,-0.004005394410341978,0.00589703768491745
1761379449829647600,4.889647705078125,0.029506759718060493,-0.018072742968797684,-0.0019017633749172091
1761379449839729700,4.899729736328125,0.03328045830130577,-0.034685276448726654,0.001416269107721746
1761379449849812500,4.9098125,0.03291427344083786,-0.04385187476873398,-0.004069310147315264
1761379449859894500,4.91989453125,0.025663018226623535,-0.04957740753889084,-0.008776181377470493
1761379449869976600,4.9299765625,0.01330035924911499,-0.036868803203105927,-0.0002793656021822244
1761379449880059600,4.9400595703125,0.004384362138807774,-0.028738969936966896,-0.000708134553860873
1761379449890141700,4.9501416015625,0.0001227717293659225,-0.022280272096395493,0.0002282329078298062
1761379449900223700,4.9602236328125,0.0016080166678875685,-0.010700048878788948,0.000428502622526139
1761379449910306800,4.970306884765625,-0.00039254993316717446,-0.004367318004369736,0.007074687164276838
1761379449920388600,4.980388671875,0.0030831415206193924,-0.01395522989332676,0.004911135416477919
1761379449930470700,4.990470703125,0.006191583350300789,-0.02527765929698944,0.003279150230810046
1761379449940553700,5.0005537109375,0.011830294504761696,-0.03531458228826523,-0.0008892294717952609
1761379449950635800,5.0106357421875,0.012034558691084385,-0.046191729605197906,-0.0032812808640301228
1761379449960717600,5.020717529296875,0.021978534758090973,-0.056050751358270645,-0.002671416848897934
1761379449970800600,5.030800537109375,0.02797197923064232,-0.05541984736919403,-0.005124454386532307
1761379449980882700,5.040882568359375,0.028077973052859306,-0.04354960843920708,-0.01423672679811716
1761379449990964700,5.05096484375,0.020845893770456314,-0.038489602506160736,-0.013526993803679943
1761379450001047600,5.061047607421875,0.014963236637413502,-0.039264846593141556,-0.00555295730009675
1761379450011129600,5.071129638671875,0.017045563086867332,-0.03780330345034599,0.00054142065346241
1761379450021211600,5.081211669921875,0.013352290727198124,-0.03681394085288048,0.007985754869878292
1761379450031294500,5.09129443359375,0.008944226428866386,-0.030674822628498077,0.008167115971446037
1761379450041376500,5.10137646484375,0.00669278996065259,-0.019277824088931084,0.008738630451261997
1761379450051458600,5.11145849609375,0.006641124840825796,-0.011698734015226364,0.011945076286792755
1761379450061542000,5.1215419921875,0.010041182860732079,-0.008334895595908165,0.008383630774915218
1761379450071623700,5.131623779296875,0.013590111397206783,-0.020853882655501366,0.013552560470998287
1761379450081705700,5.141705810546875,0.011199924163520336,-0.025709889829158783,0.0057351174764335155
1761379450091788800,5.151788818359375,0.009242500178515911,-0.035232555121183395,-0.0008471515611745417
1761379450101870800,5.161870849609375,0.011925901286303997,-0.03268417716026306,-0.003924167715013027
1761379450111953000,5.171952880859375,0.012176505289971828,-0.012984241358935833,-0.0025156219489872456
1761379450122035700,5.18203564453125,0.004073305055499077,-0.002121474128216505,0.009739979170262814
1761379450132117800,5.19211767578125,-0.008100270293653011,0.00236195744946599,0.02292209304869175
1761379450142199800,5.20219970703125,-0.012792494148015976,-0.009016931056976318,0.036201946437358856
1761379450152282600,5.21228271484375,-0.008934905752539635,-0.029591714963316917,0.04006326198577881
1761379450162364700,5.22236474609375,-0.01068007480353117,-0.03772500902414322,0.027045466005802155
1761379450172446700,5.23244677734375,-0.01133920717984438,-0.038716502487659454,0.0035393410362303257
1761379450182529800,5.24252978515625,-0.008471781387925148,-0.031018901616334915,-0.010192450135946274
1761379450192611600,5.252611572265625,0.004838164895772934,-0.026160497218370438,-0.01119193434715271
1761379450202693600,5.262693603515625,0.023870712146162987,-0.032517462968826294,0.00036485306918621063
1761379450212776700,5.272776611328125,0.032887909561395645,-0.033428531140089035,0.015183746814727783
1761379450222858800,5.282858642578125,0.038301315158605576,-0.030236732214689255,0.023986559361219406
1761379450232940800,5.29294091796875,0.039916522800922394,-0.024862471967935562,0.013527526520192623
1761379450243022600,5.303022705078125,0.03155126795172691,-0.02412317879498005,0.0025451830588281155
1761379450253105700,5.313105712890625,0.024389496073126793,-0.027337348088622093,-0.0022652847692370415
1761379450263187700,5.323187744140625,0.01684449426829815,-0.029264144599437714,-0.008217183873057365
1761379450273269800,5.333269775390625,0.013263607397675514,-0.0333867184817791,-0.004107926040887833
1761379450283352600,5.3433525390625,0.005989449098706245,-0.03537316992878914,0.0005171858938410878
1761379450293434600,5.3534345703125,0.0003051982494071126,-0.03683844208717346,0.006668555550277233
1761379450303516700,5.3635166015625,-0.004307663068175316,-0.037210751324892044,0.000811997801065445
1761379450313599500,5.373599609375,-0.013193566352128983,-0.02611948549747467,0.00140987744089216
1761379450323681500,5.383681640625,-0.018378207460045815,-0.026935476809740067,0.0016972325975075364
1761379450333763600,5.393763671875,-0.014393586665391922,-0.02425367385149002,0.0016996293561533093
1761379450343847000,5.403846923828125,-0.022487198933959007,-0.0362837053835392,0.010065151378512383
1761379450353928700,5.4139287109375,-0.027644410729408264,-0.02034308761358261,-0.005935653578490019
1761379450364010800,5.4240107421875,-0.02720765210688114,-0.014333399012684822,-0.016627978533506393
1761379450374093800,5.43409375,-0.014110492542386055,-0.021939121186733246,-0.011637214571237564
1761379450384175900,5.44417578125,-0.00031185615807771683,-0.021259482949972153,-0.0013630058383569121
1761379450394257700,5.454257568359375,0.0041010016575455666,-0.020050672814249992,0.004941761493682861
1761379450404340700,5.4643408203125,0.007319165393710136,-0.018015218898653984,0.006115416996181011
1761379450414422800,5.4744228515625,0.01667138747870922,-0.013485182076692581,0.004225105047225952
1761379450424504800,5.4845048828125,0.017544372007250786,-0.008441953919827938,0.001014664419926703
1761379450434587600,5.494587646484375,0.022599851712584496,-0.004008057527244091,-0.0033193640410900116
1761379450444669700,5.504669677734375,0.02045600675046444,0.011722702533006668,-0.01872282102704048
1761379450454751700,5.514751708984375,0.01805463433265686,0.018193118274211884,-0.015468970872461796
1761379450464834800,5.524834716796875,0.015686817467212677,0.006331665441393852,-0.006056028418242931
1761379450474916600,5.53491650390625,0.020772390067577362,0.0026141589041799307,0.0015430354978889227
1761379450484998700,5.54499853515625,0.01799098402261734,0.00130894361063838,0.007236607372760773
1761379450495081700,5.555081787109375,0.01768738403916359,-0.003995007835328579,0.016416257247328758
1761379450505163800,5.565163818359375,0.019877834245562553,-0.012642824091017246,0.015683621168136597
1761379450515245600,5.57524560546875,0.025599369779229164,-0.028122181072831154,0.013509150594472885
1761379450525328600,5.58532861328125,0.023901604115962982,-0.04032531753182411,0.001966211711987853
1761379450535410700,5.59541064453125,0.011955995112657547,-0.04764901101589203,-0.007113303057849407
1761379450545492700,5.60549267578125,-0.0005560680292546749,-0.05276654288172722,-0.015230085700750351
1761379450555575600,5.615575439453125,-0.0055122110061347485,-0.057250771671533585,-0.028430841863155365
1761379450565657600,5.62565771484375,-0.014386662282049656,-0.057733871042728424,-0.04075009375810623
1761379450575739600,5.63573974609375,-0.02474209852516651,-0.05265575274825096,-0.05793600529432297
1761379450585822700,5.64582275390625,-0.045165881514549255,-0.030835943296551704,-0.07515121251344681
1761379450595904500,5.655904541015625,-0.05607738345861435,-0.013177321292459965,-0.07474880665540695
1761379450605986600,5.665986572265625,-0.05661587417125702,-0.016888968646526337,-0.05359851196408272
1761379450616070000,5.67606982421875,-0.04615844041109085,-0.02935975231230259,-0.01990766078233719
1761379450626151700,5.686151611328125,-0.019455723464488983,-0.04228700324892998,-0.002210423583164811
1761379450636233700,5.696233642578125,-0.009459281340241432,-0.044503550976514816,0.009236907586455345
1761379450646316800,5.70631689453125,0.0003145193331874907,-0.037689320743083954,0.008321845903992653
1761379450656398800,5.71639892578125,-0.00005912217602599412,-0.031202394515275955,-0.005294364411383867
1761379450666481000,5.72648095703125,0.00088976213010028,-0.024289093911647797,-0.010616159066557884
1761379450676563700,5.736563720703125,0.003165965899825096,-0.01961471326649189,-0.016561133787035942
1761379450686645800,5.746645751953125,0.007405718322843313,-0.013367736712098122,-0.01309183333069086
1761379450696727800,5.756727783203125,0.010529073886573315,-0.00782356783747673,-0.009325590915977955
1761379450706809900,5.766809814453125,0.012048407457768917,-0.009209743700921535,-0.002832271857187152
1761379450716892700,5.776892578125,0.01332539226859808,-0.015354455448687077,0.0025923210196197033
1761379450726974700,5.786974609375,0.012358132749795914,-0.008874451741576195,0.003440005239099264
1761379450737056800,5.797056884765625,0.012794092297554016,-0.005241899751126766,-0.002041046740487218
1761379450747139600,5.8071396484375,0.013303820975124836,-0.008651278913021088,-0.002275404753163457
1761379450757221600,5.8172216796875,0.0131522873416543,-0.009403621777892113,-0.006103964988142252
1761379450767303700,5.8273037109375,0.011922439560294151,-0.006140983197838068,-0.012595952488481998
1761379450777386800,5.83738671875,0.010906710289418697,-0.0003866909828502685,-0.020018182694911957
1761379450787468500,5.847468505859375,0.010417753830552101,0.006932741031050682,-0.024921594187617302
1761379450797550600,5.857550537109375,0.012806076556444168,0.017314275726675987,-0.024931449443101883
1761379450807633700,5.867633544921875,0.01299303025007248,0.03531724587082863,-0.027055319398641586
1761379450817715700,5.8777158203125,0.013020993210375309,0.047620516270399094,-0.027652932330965996
1761379450827797800,5.8877978515625,0.011743474751710892,0.05001096799969673,-0.032590966671705246
1761379450837880600,5.897880615234375,0.014639662578701973,0.06198454275727272,-0.054731156677007675
1761379450847962600,5.907962646484375,0.016026636585593224,0.06017252802848816,-0.07193384319543839
1761379450858044700,5.918044677734375,0.020355604588985443,0.057559967041015625,-0.07704125344753265
1761379450868127500,5.92812744140625,0.027183949947357178,0.05549308657646179,-0.07546759396791458
1761379450878209500,5.93820947265625,0.033315081149339676,0.052088502794504166,-0.07650409638881683
1761379450888291600,5.94829150390625,0.0480964221060276,0.040938377380371094,-0.07783940434455872
1761379450898375000,5.958375,0.05510586127638817,0.027756264433264732,-0.08782891929149628
1761379450908456700,5.968456787109375,0.06847386807203293,0.02093697339296341,-0.09454301744699478
1761379450918538800,5.978538818359375,0.06131262704730034,0.032656479626894,-0.08595352619886398
1761379450928621800,5.988621826171875,0.04560929536819458,0.047082025557756424,-0.05567790940403938
1761379450938704000,5.998703857421875,0.04884663596749306,0.031377628445625305,-0.00962972454726696
1761379450948785700,6.00878564453125,0.06483732163906097,0.008460063487291336,0.024752218276262283
1761379450958868700,6.01886865234375,0.08670932799577713,-0.005088767968118191,0.024292290210723877
1761379450968950800,6.02895068359375,0.0972762182354927,-0.013214604929089546,0.010581804439425468
1761379450979032800,6.03903271484375,0.10139879584312439,-0.03683684393763542,0.006307164207100868
1761379450989115000,6.049114990234375,0.09853509813547134,-0.048055943101644516,-0.004289020784199238
1761379450999197400,6.059197509765625,0.08881402760744095,-0.04628733545541763,-0.0040948763489723206
1761379451009279500,6.069279541015625,0.0794394314289093,-0.039743419736623764,0.005855225957930088
1761379451019361500,6.079361572265625,0.07243958115577698,-0.046538472175598145,0.009927199222147465
1761379451029444600,6.089444580078125,0.08141390234231949,-0.04018363729119301,0.007514108903706074
1761379451039526400,6.0995263671875,0.08765927702188492,-0.02196601964533329,0.003709516953676939
1761379451049608400,6.1096083984375,0.08982948958873749,0.006918626371771097,0.010517888702452183
1761379451059691800,6.11969189453125,0.09135468304157257,0.016230635344982147,0.031326498836278915
1761379451069773600,6.129773681640625,0.0798221305012703,0.014640461653470993,0.04910016804933548
1761379451079855600,6.139855712890625,0.06841767579317093,0.0015875103417783976,0.03700222447514534
1761379451089938700,6.149938720703125,0.06617848575115204,-0.007111172657459974,-0.003355582943186164
1761379451100020700,6.160020751953125,0.06391692906618118,-0.0028280108235776424,-0.04247848317027092
1761379451110102500,6.1701025390625,0.06691697984933853,-0.0065018413588404655,-0.05510266497731209
1761379451120185600,6.180185546875,0.06822033226490021,-0.021156150847673416,-0.059003133326768875
1761379451130267600,6.190267578125,0.06782165914773941,-0.018683405593037605,-0.06787891685962677
1761379451140349700,6.200349609375,0.06644480675458908,-0.015481487847864628,-0.07941333204507828
1761379451150432500,6.2104326171875,0.06716571748256683,-0.0076059880666434765,-0.0971614345908165
1761379451160514600,6.2205146484375,0.0720672681927681,0.003186472225934267,-0.10696560144424438
1761379451170596600,6.2305966796875,0.07816777378320694,0.0000500674286740832,-0.10261452198028564
1761379451180679700,6.2406796875,0.08408238738775253,-0.025970080867409706,-0.07009945809841156
1761379451190761500,6.250761474609375,0.08850216865539551,-0.04593073949217796,-0.03515665605664253
1761379451200843500,6.260843505859375,0.0775160938501358,-0.05360037833452225,-0.01883201114833355
1761379451210926600,6.270926513671875,0.06440082937479019,-0.06558620184659958,-0.013405820354819298
1761379451221008600,6.281008544921875,0.06467220187187195,-0.06923499703407288,-0.02322888933122158
1761379451231090400,6.29109033203125,0.06736785173416138,-0.057618822902441025,-0.022593459114432335
1761379451241172500,6.30117236328125,0.0714036077260971,-0.051681037992239,-0.006711165886372328
1761379451251255600,6.311255615234375,0.06572681665420532,-0.05325416848063469,0.026256371289491653
1761379451261337600,6.321337646484375,0.06124125421047211,-0.05192657932639122,0.03796016424894333
1761379451271419600,6.331419677734375,0.06031207740306854,-0.04285905137658119,0.022248581051826477
1761379451281502500,6.34150244140625,0.0571487732231617,-0.03880758211016655,0.01372220367193222
1761379451291584500,6.35158447265625,0.047270841896533966,-0.02996588870882988,0.0038253646343946457
1761379451301666600,6.36166650390625,0.03816815838217735,-0.033676471561193466,0.0049649314023554325
1761379451311749400,6.371749267578125,0.03296167775988579,-0.031804800033569336,0.002496979897841811
1761379451321831400,6.38183154296875,0.034994203597307205,-0.021675201132893562,-0.0030948594212532043
1761379451331913500,6.39191357421875,0.03458993509411812,-0.03019864857196808,-0.003945473115891218
1761379451341996500,6.40199658203125,0.03683098405599594,-0.017896175384521484,-0.008068312890827656
1761379451352078600,6.41207861328125,0.03512416407465935,-0.019465044140815735,-0.01420423574745655
1761379451362160600,6.42216064453125,0.03627278655767441,-0.02309972606599331,-0.020679179579019547
1761379451372243700,6.43224365234375,0.03660941123962402,-0.030969899147748947,-0.028658542782068253
1761379451382325800,6.44232568359375,0.02737037092447281,-0.04602528363466263,-0.03652099147439003
1761379451392407600,6.452407470703125,0.022310631349682808,-0.04214399307966232,-0.04170030727982521
1761379451402490600,6.46249072265625,0.017132913693785667,-0.0353689081966877,-0.030431941151618958
1761379451412572700,6.47257275390625,0.015811985358595848,-0.059541091322898865,0.002326537622138858
1761379451422654700,6.48265478515625,0.003721767570823431,-0.05711868032813072,0.026680612936615944
1761379451432737500,6.492737548828125,-0.006368150934576988,-0.041743986308574677,0.02202088013291359
1761379451442819600,6.502819580078125,-0.004512992687523365,-0.03332866355776787,0.025906698778271675
1761379451452901600,6.512901611328125,-0.007714911364018917,-0.035288482904434204,0.043298471719026566
1761379451462983700,6.522983642578125,-0.011125088669359684,-0.042750660330057144,0.056049685925245285
1761379451473066500,6.53306640625,-0.01805330254137516,-0.05417002737522125,0.05543076992034912
1761379451483148500,6.5431484375,-0.022763902321457863,-0.06470496207475662,0.03940892592072487
1761379451493230600,6.553230712890625,-0.03298031911253929,-0.06687117367982864,0.01954813487827778
1761379451503313700,6.563313720703125,-0.03527196869254112,-0.04962880536913872,0.004477838985621929
1761379451513395500,6.5733955078125,-0.017426660284399986,-0.02557273767888546,0.001457548001781106
1761379451523477500,6.5834775390625,-0.007714378647506237,-0.013764281757175922,0.004476241301745176
1761379451533560600,6.593560546875,0.0018764632986858487,0.011902998201549053,0.0076360818929970264
1761379451543642600,6.603642578125,0.008475510403513908,0.03111211210489273,0.02666303515434265
1761379451553724400,6.613724365234375,0.0137240681797266,0.02834349125623703,0.04520849138498306
1761379451563807500,6.623807373046875,0.010093380697071552,0.016628244891762733,0.041002560406923294
1761379451573889500,6.6338896484375,0.017193367704749107,0.009978065267205238,0.016399214044213295
1761379451583971600,6.6439716796875,0.02875388413667679,-0.0018343853298574686,-0.0026405241806060076
1761379451594054400,6.654054443359375,0.040227845311164856,-0.014335529878735542,-0.013044429011642933
1761379451604136400,6.664136474609375,0.04086913540959358,-0.014961372129619122,-0.023447535932064056
1761379451614218500,6.674218505859375,0.03346821293234825,-0.019107647240161896,-0.027105920016765594
1761379451624300500,6.684300537109375,0.017621338367462158,-0.01798219606280327,-0.028606344014406204
1761379451634383600,6.694383544921875,0.005652825813740492,-0.006600910797715187,-0.02509043924510479
1761379451644465700,6.704465576171875,0.001537709147669375,0.002751844236627221,-0.015384282916784286
1761379451654547700,6.714547607421875,-0.0012298477813601494,0.011639345437288284,0.0054914383217692375
1761379451664630500,6.724630615234375,-0.01119086891412735,0.019165173172950745,0.02154896780848503
1761379451674712600,6.734712646484375,-0.024895763024687767,0.036008868366479874,0.024989506229758263
1761379451684794600,6.744794677734375,-0.027575435116887093,0.0284713227301836,0.029389847069978714
1761379451694877700,6.754877685546875,-0.02702229656279087,0.024297082796692848,0.023864053189754486
1761379451704959700,6.764959716796875,-0.0224432572722435,0.025650767609477043,0.0185270793735981
1761379451715041500,6.77504150390625,-0.016834108158946037,0.015024756081402302,0.010566890239715576
1761379451725124600,6.78512451171875,-0.006256564520299435,0.005732720717787743,0.002011219272390008
1761379451735206700,6.79520654296875,0.0067961206659674644,0.00008309062832267955,-0.003772634081542492
1761379451745288700,6.805288818359375,0.01350622158497572,-0.021794511005282402,-0.007930360734462738
1761379451755370500,6.81537060546875,0.011420966126024723,-0.05058727785944939,-0.010390589013695717
1761379451765453600,6.82545361328125,0.0062488410621881485,-0.0650210753083229,-0.02095108851790428
1761379451775535600,6.83553564453125,0.004795554094016552,-0.057673417031764984,-0.024346617981791496
1761379451785617700,6.84561767578125,0.0027593011036515236,-0.052993178367614746,-0.01655447483062744
1761379451795700500,6.855700439453125,0.01936597377061844,-0.03285728394985199,-0.002382730133831501
1761379451805782500,6.865782470703125,0.03556758165359497,-0.03127749636769295,0.016826383769512177
1761379451815864600,6.875864501953125,0.03014991246163845,-0.020773189142346382,0.024948492646217346
1761379451825947600,6.88594775390625,0.026284335181117058,-0.011997540481388569,0.019583022221922874
1761379451836029400,6.896029541015625,0.018919361755251884,-0.01702345907688141,-0.0014788532862439752
1761379451846111500,6.906111572265625,0.010104832239449024,-0.03560752794146538,-0.017606424167752266
1761379451856194600,6.916194580078125,0.008153533563017845,-0.06256644427776337,-0.028837241232395172
1761379451866276600,6.926276611328125,0.010808971710503101,-0.07183131575584412,-0.029579464346170425
1761379451876358400,6.9363583984375,0.02641003578901291,-0.0689242035150528,-0.02107173018157482
1761379451886441500,6.94644140625,0.03839452564716339,-0.0928708165884018,0.0010950918076559901
1761379451896523500,6.9565234375,0.04886927083134651,-0.092817023396492,0.0036429380998015404
1761379451906605600,6.96660546875,0.05017475411295891,-0.06886854767799377,-0.007722101639956236
1761379451916687600,6.9766875,0.047519050538539886,-0.06186256930232048,-0.009740245528519154
1761379451926770700,6.986770751953125,0.04586735740303993,-0.07816723734140396,-0.0012237224727869034
1761379451936852700,6.996852783203125,0.03244049847126007,-0.10251172631978989,0.021217936649918556
1761379451946934500,7.0069345703125,0.035949211567640305,-0.08192096650600433,0.056769538670778275
1761379451957017600,7.017017578125,0.02708115242421627,0.003727892879396677,0.01883254386484623
1761379451967099600,7.027099609375,0.027214843779802322,0.06701339036226273,0.0036360137164592743
1761379451977181700,7.037181640625,0.02382969856262207,0.07195967435836792,0.02979118563234806
1761379451987264500,7.047264404296875,0.025618543848395348,0.06897240877151489,0.04580610245466232
1761379451997346600,7.0573466796875,0.03184740990400314,0.06722883880138397,0.027769844979047775
1761379452007428000,7.067427978515625,0.044372525066137314,0.05844173952937126,-0.0027241474017500877
1761379452017511200,7.07751123046875,0.05775038152933121,0.055145010352134705,-0.03098161891102791
1761379452027593200,7.08759326171875,0.07661328464746475,0.025135446339845657,-0.041062481701374054
1761379452037675300,7.09767529296875,0.09931060671806335,-0.007173490710556507,-0.05367254838347435
1761379452047757000,7.107757080078125,0.128418430685997,-0.02160409465432167,-0.06583813577890396
1761379452057840400,7.11784033203125,0.1298980712890625,-0.03658144548535347,-0.0775483176112175
