time,seconds_elapsed,z,y,x
1761501968412710700,0.064710693359375,-0.2571258544921875,-1.0897064208984375,-0.1595916748046875
1761501968422766600,0.0747666015625,-0.24420166015625,-1.0807342529296875,-0.154083251953125
1761501968432823600,0.084823486328125,-0.23968505859375,-1.0715484619140625,-0.1411895751953125
1761501968442879700,0.094879638671875,-0.2354736328125,-1.061370849609375,-0.1304779052734375
1761501968452935700,0.104935791015625,-0.2231597900390625,-1.052093505859375,-0.12481689453125
1761501968462991600,0.11499169921875,-0.2091522216796875,-1.030670166015625,-0.11480712890625
1761501968473047800,0.1250478515625,-0.196136474609375,-1.0062713623046875,-0.10699462890625
1761501968483103500,0.135103515625,-0.1886444091796875,-0.98681640625,-0.0950775146484375
1761501968493160700,0.14516064453125,-0.1844635009765625,-0.96923828125,-0.083221435546875
1761501968503216600,0.155216552734375,-0.181671142578125,-0.9490203857421875,-0.0762481689453125
1761501968513272600,0.1652724609375,-0.1833953857421875,-0.9268035888671875,-0.0737762451171875
1761501968523328500,0.17532861328125,-0.18658447265625,-0.91888427734375,-0.07489013671875
1761501968533384400,0.185384521484375,-0.1878662109375,-0.9189300537109375,-0.075042724609375
1761501968543441400,0.19544140625,-0.1885833740234375,-0.921142578125,-0.07293701171875
1761501968553497600,0.20549755859375,-0.18719482421875,-0.9239044189453125,-0.072723388671875
1761501968563553500,0.215553466796875,-0.18505859375,-0.9285125732421875,-0.0751953125
1761501968573609500,0.225609375,-0.177886962890625,-0.9257049560546875,-0.0785064697265625
1761501968583665700,0.235665771484375,-0.182769775390625,-0.90924072265625,-0.0806427001953125
1761501968593722600,0.24572265625,-0.189788818359375,-0.893341064453125,-0.0810699462890625
1761501968603778600,0.255778564453125,-0.1839141845703125,-0.8833770751953125,-0.0791778564453125
1761501968613834500,0.26583447265625,-0.1705780029296875,-0.872406005859375,-0.0776519775390625
1761501968623890700,0.275890625,-0.1650848388671875,-0.8662872314453125,-0.0703277587890625
1761501968633946600,0.285946533203125,-0.1674652099609375,-0.8716278076171875,-0.0658416748046875
1761501968644003600,0.296003662109375,-0.178009033203125,-0.89080810546875,-0.070770263671875
1761501968654059800,0.306059814453125,-0.1894073486328125,-0.9084320068359375,-0.07904052734375
1761501968664115700,0.31611572265625,-0.1897430419921875,-0.924285888671875,-0.094207763671875
1761501968674171600,0.326171630859375,-0.1592559814453125,-0.9405670166015625,-0.1043701171875
1761501968684227600,0.3362275390625,-0.13690185546875,-0.9512786865234375,-0.0962677001953125
1761501968694284800,0.346284912109375,-0.175994873046875,-0.9816741943359375,-0.0865478515625
1761501968704340700,0.3563408203125,-0.2160186767578125,-1.0258941650390625,-0.069061279296875
1761501968714396700,0.366396728515625,-0.2326812744140625,-1.046295166015625,-0.05072021484375
1761501968724452600,0.37645263671875,-0.2581634521484375,-1.042694091796875,-0.038665771484375
1761501968734508500,0.386508544921875,-0.29443359375,-1.013427734375,-0.0362548828125
1761501968744565800,0.396565673828125,-0.3275299072265625,-0.9637908935546875,-0.042083740234375
1761501968754621700,0.40662158203125,-0.34295654296875,-0.91326904296875,-0.0428619384765625
1761501968764677600,0.416677734375,-0.3183135986328125,-0.8839569091796875,-0.0308380126953125
1761501968774733600,0.426733642578125,-0.2518310546875,-0.885101318359375,-0.0190277099609375
1761501968784789500,0.43678955078125,-0.1905364990234375,-0.908416748046875,-0.0046234130859375
1761501968794846500,0.446846435546875,-0.1724090576171875,-0.9455413818359375,0.012908935546875
1761501968804902700,0.456902587890625,-0.18341064453125,-0.981201171875,0.025390625
1761501968814958600,0.46695849609375,-0.1958465576171875,-1.0181732177734375,0.031219482421875
1761501968825014500,0.4770146484375,-0.2182159423828125,-1.0509185791015625,0.02325439453125
1761501968835070700,0.48707080078125,-0.2464141845703125,-1.0566253662109375,0.005859375
1761501968845127700,0.497127685546875,-0.244781494140625,-1.053314208984375,-0.015167236328125
1761501968855183600,0.50718359375,-0.2334136962890625,-1.0423583984375,-0.0304718017578125
1761501968865239600,0.517239501953125,-0.2100067138671875,-1.0244293212890625,-0.0415802001953125
1761501968875295700,0.527295654296875,-0.1835174560546875,-1.0151214599609375,-0.0456085205078125
1761501968885351700,0.5373515625,-0.157012939453125,-1.025482177734375,-0.034881591796875
1761501968895408600,0.54740869140625,-0.1627655029296875,-1.0382843017578125,-0.00665283203125
1761501968905464600,0.557464599609375,-0.2091217041015625,-1.04541015625,0.0216217041015625
1761501968915520800,0.567520751953125,-0.24334716796875,-1.056060791015625,0.031341552734375
1761501968925576700,0.57757666015625,-0.251617431640625,-1.0629730224609375,0.0308074951171875
1761501968935632600,0.587632568359375,-0.276641845703125,-1.0589141845703125,0.036224365234375
1761501968945689600,0.597689697265625,-0.2983551025390625,-1.06500244140625,0.0481414794921875
1761501968955745800,0.607745849609375,-0.3073577880859375,-1.08685302734375,0.062164306640625
1761501968965801700,0.6178017578125,-0.3052978515625,-1.089324951171875,0.06927490234375
1761501968975857700,0.627857666015625,-0.288330078125,-1.06024169921875,0.063720703125
1761501968985913600,0.63791357421875,-0.2369232177734375,-1.0264892578125,0.04718017578125
1761501968995968800,0.64796875,-0.1867218017578125,-0.9973602294921875,0.0243682861328125
1761501969006025700,0.658025634765625,-0.16070556640625,-0.9669342041015625,-0.0053863525390625
1761501969016082000,0.66808203125,-0.140869140625,-0.9490203857421875,-0.0361785888671875
1761501969026137900,0.678137939453125,-0.1377105712890625,-0.9456634521484375,-0.0589141845703125
1761501969036193800,0.68819384765625,-0.1485443115234375,-0.942169189453125,-0.07525634765625
1761501969046250000,0.69825,-0.1697540283203125,-0.938079833984375,-0.07635498046875
1761501969056307000,0.708306884765625,-0.1960601806640625,-0.9315032958984375,-0.0579833984375
1761501969066363000,0.71836279296875,-0.2083740234375,-0.9166412353515625,-0.03033447265625
1761501969076418600,0.72841845703125,-0.1990966796875,-0.9037628173828125,-0.0094451904296875
1761501969086474800,0.738474853515625,-0.1710662841796875,-0.892913818359375,-0.0005035400390625
1761501969096530700,0.74853076171875,-0.15673828125,-0.88934326171875,0.0031280517578125
1761501969106587600,0.758587646484375,-0.1622161865234375,-0.88238525390625,0.005889892578125
1761501969116643600,0.7686435546875,-0.15643310546875,-0.8771820068359375,0.0035858154296875
1761501969126699800,0.77869970703125,-0.1608123779296875,-0.865966796875,-0.0015869140625
1761501969136755700,0.788755615234375,-0.1286468505859375,-0.8541717529296875,-0.0225677490234375
1761501969146811600,0.798811767578125,-0.1220550537109375,-0.8578643798828125,-0.000244140625
1761501969156868600,0.80886865234375,-0.1492919921875,-0.866790771484375,0.035980224609375
1761501969166924800,0.8189248046875,-0.159820556640625,-0.8609466552734375,0.0492095947265625
1761501969176980700,0.828980712890625,-0.14739990234375,-0.8440399169921875,0.0570526123046875
1761501969187036700,0.83903662109375,-0.130340576171875,-0.8484039306640625,0.034912109375
1761501969197092900,0.8490927734375,-0.1375885009765625,-0.8527679443359375,0.0087432861328125
1761501969207149800,0.85914990234375,-0.168365478515625,-0.8582305908203125,-0.0087432861328125
1761501969217205800,0.869205810546875,-0.19873046875,-0.8562469482421875,-0.0266265869140625
1761501969227261700,0.87926171875,-0.2189788818359375,-0.845123291015625,-0.0365447998046875
1761501969237318000,0.88931787109375,-0.24310302734375,-0.8214874267578125,-0.03802490234375
1761501969247373800,0.899373779296875,-0.2540435791015625,-0.79986572265625,-0.0334625244140625
1761501969257430800,0.9094306640625,-0.260498046875,-0.7737274169921875,-0.035675048828125
1761501969267486700,0.91948681640625,-0.252838134765625,-0.7397918701171875,-0.05303955078125
1761501969277543000,0.92954296875,-0.192840576171875,-0.71905517578125,-0.08221435546875
1761501969287598800,0.939598876953125,-0.096710205078125,-0.73626708984375,-0.104949951171875
1761501969297654800,0.94965478515625,-0.0492095947265625,-0.8021392822265625,-0.1112213134765625
1761501969307711700,0.959711669921875,-0.05377197265625,-0.897674560546875,-0.094879150390625
1761501969317768000,0.969767822265625,-0.108642578125,-0.9975128173828125,-0.079986572265625
1761501969327823600,0.97982373046875,-0.179534912109375,-1.09228515625,-0.09320068359375
1761501969337879600,0.989879638671875,-0.2584075927734375,-1.189666748046875,-0.1285247802734375
1761501969347935700,0.999935791015625,-0.36126708984375,-1.294281005859375,-0.1579132080078125
1761501969357992700,1.00999267578125,-0.4637451171875,-1.40789794921875,-0.157501220703125
1761501969368048600,1.020048583984375,-0.5290069580078125,-1.488250732421875,-0.13018798828125
1761501969378104600,1.0301044921875,-0.5841064453125,-1.502655029296875,-0.1002197265625
1761501969388160800,1.040160888671875,-0.5834808349609375,-1.4945831298828125,-0.0795745849609375
1761501969398216700,1.050216796875,-0.505828857421875,-1.483734130859375,-0.0709991455078125
1761501969408273700,1.060273681640625,-0.4120941162109375,-1.4544219970703125,-0.058929443359375
1761501969418329600,1.07032958984375,-0.3398895263671875,-1.3996124267578125,-0.054443359375
1761501969428385800,1.0803857421875,-0.3024444580078125,-1.319793701171875,-0.05718994140625
1761501969438441700,1.090441650390625,-0.2962188720703125,-1.2264862060546875,-0.07244873046875
1761501969448497700,1.10049755859375,-0.2979888916015625,-1.141510009765625,-0.0978546142578125
1761501969458553900,1.110553955078125,-0.3397064208984375,-1.08941650390625,-0.1085968017578125
1761501969468610800,1.12061083984375,-0.3979034423828125,-1.0494537353515625,-0.108673095703125
1761501969478666800,1.130666748046875,-0.432708740234375,-0.997314453125,-0.111419677734375
1761501969488722700,1.14072265625,-0.41522216796875,-0.9408721923828125,-0.1205596923828125
1761501969498779000,1.15077880859375,-0.359893798828125,-0.87310791015625,-0.1410980224609375
1761501969508834800,1.160834716796875,-0.3042449951171875,-0.7896270751953125,-0.149261474609375
1761501969518891800,1.170891845703125,-0.286285400390625,-0.685943603515625,-0.1392669677734375
1761501969528947700,1.18094775390625,-0.208160400390625,-0.5727081298828125,-0.112884521484375
1761501969539004000,1.19100390625,0.076019287109375,-0.55242919921875,-0.1117706298828125
1761501969549059800,1.201059814453125,0.0890960693359375,-0.53021240234375,-0.0689239501953125
1761501969559115800,1.21111572265625,-0.011474609375,-0.5121917724609375,-0.0955963134765625
1761501969569172700,1.2211728515625,-0.0330963134765625,-0.49102783203125,-0.1253509521484375
1761501969579228700,1.231228759765625,0.016754150390625,-0.451385498046875,-0.1568450927734375
1761501969589284600,1.24128466796875,0.0743560791015625,-0.383514404296875,-0.1654510498046875
1761501969599340800,1.2513408203125,0.163818359375,-0.348846435546875,-0.1101226806640625
1761501969609396700,1.261396728515625,0.1844329833984375,-0.334014892578125,0.0261383056640625
1761501969619453700,1.27145361328125,0.0573577880859375,-0.3554534912109375,0.1787567138671875
1761501969629509600,1.281509521484375,-0.0914459228515625,-0.43212890625,0.258026123046875
1761501969639565800,1.29156591796875,-0.19110107421875,-0.4689483642578125,0.22015380859375
1761501969649621800,1.301621826171875,-0.25762939453125,-0.45001220703125,0.079498291015625
1761501969659677700,1.311677734375,-0.2882537841796875,-0.413543701171875,-0.1200408935546875
1761501969669734700,1.321734619140625,-0.3455352783203125,-0.306915283203125,-0.22308349609375
1761501969679790800,1.331790771484375,-0.313232421875,-0.19317626953125,-0.1944122314453125
1761501969689846800,1.3418466796875,-0.107269287109375,-0.2337646484375,-0.0989837646484375
1761501969699902700,1.35190283203125,0.100189208984375,-0.3575439453125,0.0371246337890625
1761501969709959000,1.361958984375,0.31256103515625,-0.5856475830078125,0.1046142578125
1761501969720016000,1.372015869140625,0.4541168212890625,-0.93621826171875,0.052032470703125
1761501969730071800,1.38207177734375,0.32147216796875,-1.2988739013671875,0.0099639892578125
1761501969740127700,1.392127685546875,-0.1050262451171875,-1.71209716796875,0.0351409912109375
1761501969750184000,1.402183837890625,-0.422943115234375,-2.1043701171875,0.0150299072265625
1761501969760239900,1.412239990234375,-0.7952728271484375,-2.2311248779296875,-0.032928466796875
1761501969770296800,1.422296875,-1.181732177734375,-2.292694091796875,0.044525146484375
1761501969780352800,1.432352783203125,-1.285125732421875,-2.3293609619140625,0.2192840576171875
1761501969790409000,1.442408935546875,-0.9829864501953125,-2.25634765625,0.2329559326171875
1761501969800465000,1.45246484375,-0.5832366943359375,-2.215576171875,0.1434173583984375
1761501969810520600,1.4625205078125,-0.4721221923828125,-2.2065582275390625,0.0544891357421875
1761501969820577800,1.472577880859375,-0.521820068359375,-2.1846771240234375,-0.0219268798828125
1761501969830633700,1.4826337890625,-0.632171630859375,-2.1633453369140625,-0.0754241943359375
1761501969840689700,1.492689697265625,-0.769287109375,-2.2072601318359375,-0.1014862060546875
1761501969850745600,1.50274560546875,-0.863067626953125,-2.2296142578125,-0.1272430419921875
1761501969860801800,1.5128017578125,-0.915374755859375,-2.17999267578125,-0.152862548828125
1761501969870857700,1.522857666015625,-0.907073974609375,-2.0980224609375,-0.184112548828125
1761501969880914700,1.532914794921875,-0.7848663330078125,-1.9964752197265625,-0.245391845703125
1761501969890970600,1.542970703125,-0.6147308349609375,-1.8121337890625,-0.261688232421875
1761501969901026800,1.55302685546875,-0.4507904052734375,-1.5577850341796875,-0.1904144287109375
1761501969911082800,1.563082763671875,-0.377471923828125,-1.27239990234375,-0.0615692138671875
1761501969921138700,1.573138671875,-0.3837738037109375,-0.97235107421875,0.0457000732421875
1761501969931195600,1.583195556640625,-0.1895904541015625,-0.6820831298828125,0.10736083984375
1761501969941251800,1.593251953125,-0.007843017578125,-0.4467620849609375,0.1044464111328125
1761501969951307800,1.603307861328125,0.274261474609375,-0.250244140625,0.0637054443359375
1761501969961363700,1.61336376953125,0.4008331298828125,-0.0601348876953125,0.00811767578125
1761501969971420000,1.623419921875,0.341156005859375,0.054656982421875,-0.03936767578125
1761501969981476900,1.633476806640625,0.1625213623046875,0.12298583984375,-0.111358642578125
1761501969991532800,1.64353271484375,-0.01690673828125,0.1622314453125,-0.1410064697265625
1761501970001588200,1.653588134765625,-0.0972747802734375,0.178375244140625,-0.1285247802734375
1761501970011644200,1.66364404296875,-0.069580078125,0.1722259521484375,-0.1009979248046875
1761501970021700000,1.6737001953125,-0.0396270751953125,0.1525115966796875,-0.0751953125
1761501970031757000,1.683757080078125,0.0145263671875,0.1455535888671875,-0.054412841796875
1761501970041813200,1.693813232421875,0.02239990234375,0.1616973876953125,-0.032318115234375
1761501970051869200,1.703869140625,0.019683837890625,0.1516571044921875,-0.0145416259765625
1761501970061925000,1.713925048828125,0.0203704833984375,0.1106109619140625,-0.0258941650390625
1761501970071981300,1.723981201171875,0.067413330078125,0.0489501953125,-0.0465240478515625
1761501970082038300,1.734038330078125,0.126739501953125,0.0190277099609375,-0.0744476318359375
1761501970092094200,1.74409423828125,0.165374755859375,0.0211029052734375,-0.1128692626953125
1761501970102150100,1.754150146484375,0.241241455078125,0.0172882080078125,-0.1488800048828125
1761501970112206300,1.764206298828125,0.3603057861328125,-0.04888916015625,-0.2104644775390625
1761501970122262300,1.77426220703125,0.197723388671875,-0.033416748046875,-0.1705169677734375
1761501970132319200,1.7843193359375,0.03277587890625,-0.031646728515625,-0.1131134033203125
1761501970142375200,1.794375244140625,-0.1346893310546875,-0.09515380859375,-0.10418701171875
1761501970152431000,1.80443115234375,-0.266082763671875,-0.204925537109375,-0.1475677490234375
1761501970162487000,1.814487060546875,-0.33880615234375,-0.2733154296875,-0.1722564697265625
1761501970172543000,1.82454296875,-0.375396728515625,-0.287261962890625,-0.16363525390625
1761501970182600000,1.834599853515625,-0.3002777099609375,-0.343536376953125,-0.099334716796875
1761501970192656100,1.84465625,-0.217559814453125,-0.4506683349609375,0.0241851806640625
1761501970202712000,1.854712158203125,-0.1479644775390625,-0.699981689453125,0.1759490966796875
1761501970212768000,1.86476806640625,-0.0684814453125,-1.15802001953125,0.3145751953125
1761501970222824200,1.87482421875,-0.0426788330078125,-1.609588623046875,0.3162841796875
1761501970232880000,1.884880126953125,0.124176025390625,-2.0138702392578125,0.27789306640625
1761501970242937000,1.89493701171875,0.0949249267578125,-2.505828857421875,0.2009124755859375
1761501970252993000,1.904992919921875,-0.1883392333984375,-2.871734619140625,-0.0044403076171875
1761501970263049200,1.91504931640625,-0.8342132568359375,-2.8383026123046875,-0.1471099853515625
1761501970273105200,1.925105224609375,-1.221893310546875,-2.894195556640625,-0.138641357421875
1761501970283161000,1.9351611328125,-1.26519775390625,-3.168182373046875,0.0389251708984375
1761501970293218000,1.945218017578125,-1.1513214111328125,-3.3790283203125,0.2317352294921875
1761501970303274200,1.955274169921875,-0.8481292724609375,-3.20074462890625,0.2150726318359375
1761501970313330200,1.965330078125,-0.575836181640625,-2.988372802734375,0.176483154296875
1761501970323386000,1.97538623046875,-0.4663543701171875,-2.8260955810546875,0.1136322021484375
1761501970333442300,1.9854423828125,-0.5006256103515625,-2.757568359375,0.0176544189453125
1761501970343499300,1.995499267578125,-0.47613525390625,-2.6183013916015625,-0.13055419921875
1761501970353555200,2.00555517578125,-0.464263916015625,-2.270294189453125,-0.288330078125
1761501970363611100,2.015611083984375,-0.438323974609375,-1.8546295166015625,-0.422149658203125
1761501970373667300,2.025667236328125,-0.344024658203125,-1.4763641357421875,-0.47509765625
1761501970383723000,2.035722900390625,-0.12261962890625,-1.1996002197265625,-0.468902587890625
1761501970393779000,2.045779052734375,-0.11285400390625,-0.9703826904296875,-0.381744384765625
1761501970403836000,2.0558359375,-0.166748046875,-0.8038177490234375,-0.2490692138671875
1761501970413892000,2.06589208984375,-0.1926116943359375,-0.6728668212890625,-0.1316070556640625
1761501970423948000,2.075947998046875,-0.21795654296875,-0.5328521728515625,-0.058685302734375
1761501970434004000,2.08600390625,-0.178955078125,-0.3553009033203125,-0.0335845947265625
1761501970444060200,2.09606005859375,-0.087646484375,-0.135986328125,0.03057861328125
1761501970454117000,2.1061171875,-0.0201263427734375,0.018310546875,0.1499786376953125
1761501970464173000,2.116173095703125,0.106842041015625,0.097320556640625,0.18896484375
1761501970474229000,2.12622900390625,0.2242584228515625,0.1142425537109375,0.1804351806640625
1761501970484285200,2.13628515625,0.2514495849609375,0.1436767578125,0.1580047607421875
1761501970494341000,2.146341064453125,0.2694091796875,0.1743011474609375,0.103515625
1761501970504398000,2.156398193359375,0.31256103515625,0.1850433349609375,0.0112762451171875
1761501970514454000,2.1664541015625,0.3544464111328125,0.2115325927734375,-0.0847930908203125
1761501970524510200,2.17651025390625,0.3499755859375,0.239715576171875,-0.13909912109375
1761501970534566100,2.186566162109375,0.27105712890625,0.24847412109375,-0.150726318359375
1761501970544622000,2.1966220703125,0.1761322021484375,0.2290191650390625,-0.13079833984375
1761501970554679000,2.206678955078125,0.1051025390625,0.2058258056640625,-0.1292572021484375
1761501970564735200,2.2167353515625,0.0441436767578125,0.1461639404296875,-0.1298065185546875
1761501970574791200,2.226791259765625,-0.029144287109375,0.0912322998046875,-0.1269683837890625
1761501970584847000,2.23684716796875,-0.06536865234375,0.0562591552734375,-0.1196136474609375
1761501970594903300,2.2469033203125,-0.082061767578125,0.051300048828125,-0.1072540283203125
1761501970604959000,2.256958984375,-0.10577392578125,0.05145263671875,-0.06915283203125
1761501970615016200,2.26701611328125,-0.169219970703125,0.037078857421875,-0.0521087646484375
1761501970625072000,2.277072021484375,-0.203369140625,0.00750732421875,-0.060516357421875
1761501970635128000,2.287128173828125,-0.201873779296875,-0.039276123046875,-0.0801849365234375
1761501970645184000,2.29718408203125,-0.1688690185546875,-0.0926971435546875,-0.1055145263671875
1761501970655240000,2.307239990234375,-0.1597137451171875,-0.1583404541015625,-0.113983154296875
1761501970665297200,2.317297119140625,-0.143463134765625,-0.2058563232421875,-0.0937957763671875
1761501970675353000,2.32735302734375,-0.1513671875,-0.237884521484375,-0.025604248046875
1761501970685409000,2.337408935546875,-0.2195892333984375,-0.2636260986328125,0.0772247314453125
1761501970695465000,2.34746484375,-0.2665557861328125,-0.308135986328125,0.1434478759765625
1761501970705521200,2.357521240234375,-0.22528076171875,-0.42108154296875,0.1506500244140625
1761501970715578000,2.367578125,-0.09515380859375,-0.629302978515625,0.1322479248046875
1761501970725634000,2.377634033203125,0.1206817626953125,-0.881439208984375,0.1054534912109375
1761501970735690200,2.387690185546875,0.2240447998046875,-1.3030853271484375,0.0735626220703125
1761501970745746200,2.39774609375,0.044219970703125,-1.9372711181640625,0.0295257568359375
1761501970755802000,2.407802001953125,-0.3443450927734375,-2.6524658203125,0.0302734375
1761501970765859000,2.417859130859375,-0.914337158203125,-3.1391448974609375,-0.0233306884765625
1761501970775915300,2.427915283203125,-1.3188629150390625,-3.26513671875,-0.0475311279296875
1761501970785971200,2.43797119140625,-1.0518035888671875,-3.3164825439453125,-0.0354156494140625
1761501970796027100,2.448027099609375,-0.7210540771484375,-3.30474853515625,0.0355377197265625
1761501970806083300,2.458083251953125,-0.727935791015625,-3.2791595458984375,0.161651611328125
1761501970816139300,2.46813916015625,-0.85650634765625,-3.185150146484375,0.199462890625
1761501970826196200,2.4781962890625,-0.8426361083984375,-3.030914306640625,0.1893768310546875
1761501970836252200,2.488252197265625,-0.7647552490234375,-2.8439483642578125,0.114227294921875
1761501970846308400,2.498308349609375,-0.637481689453125,-2.677581787109375,-0.02532958984375
1761501970856364000,2.508364013671875,-0.55010986328125,-2.63232421875,-0.199310302734375
1761501970866420000,2.518419921875,-0.590911865234375,-2.5855560302734375,-0.3089599609375
1761501970876477200,2.528477294921875,-0.6574859619140625,-2.3759307861328125,-0.338043212890625
1761501970886533000,2.538533203125,-0.5954742431640625,-2.085906982421875,-0.3263702392578125
1761501970896589000,2.548589111328125,-0.451934814453125,-1.797027587890625,-0.3135223388671875
1761501970906645000,2.55864501953125,-0.342071533203125,-1.4635162353515625,-0.2598724365234375
1761501970916701200,2.568701171875,-0.1618194580078125,-1.0980072021484375,-0.230377197265625
1761501970926758100,2.578758056640625,-0.017486572265625,-0.75006103515625,-0.2121429443359375
1761501970936814000,2.58881396484375,-0.001495361328125,-0.4882354736328125,-0.12890625
1761501970946870000,2.5988701171875,0.0163726806640625,-0.3289642333984375,-0.0693359375
1761501970956926200,2.60892626953125,0.019012451171875,-0.203582763671875,-0.073516845703125
1761501970966982100,2.618982177734375,-0.0326385498046875,-0.08453369140625,-0.0726470947265625
1761501970977038000,2.6290380859375,-0.1060028076171875,0.0405120849609375,-0.057861328125
1761501970987095000,2.639094970703125,-0.127960205078125,0.1563568115234375,-0.0897979736328125
1761501970997152500,2.649152587890625,-0.0906982421875,0.2853546142578125,-0.1286163330078125
1761501971007208700,2.659208740234375,-0.03704833984375,0.417694091796875,-0.1411895751953125
1761501971017264600,2.6692646484375,0.0615234375,0.489837646484375,-0.09222412109375
1761501971027320600,2.679320556640625,0.129241943359375,0.5165863037109375,-0.022613525390625
1761501971037377500,2.68937744140625,0.1393585205078125,0.5465850830078125,0.025360107421875
1761501971047433700,2.699433837890625,0.1493988037109375,0.53387451171875,0.054473876953125
1761501971057489700,2.70948974609375,0.143707275390625,0.4767608642578125,0.05999755859375
1761501971067545600,2.719545654296875,0.07269287109375,0.3711090087890625,0.06658935546875
1761501971077601800,2.729601806640625,0.0213470458984375,0.2407073974609375,0.0706787109375
1761501971087658800,2.73965869140625,0.016876220703125,0.1446533203125,0.0480804443359375
1761501971097714700,2.749714599609375,-0.011962890625,0.0782928466796875,0.020263671875
1761501971107770600,2.7597705078125,-0.0683135986328125,0.031890869140625,0.00579833984375
1761501971117826800,2.769826904296875,-0.1261749267578125,0.0412445068359375,-0.0079803466796875
1761501971127882500,2.779882568359375,-0.153350830078125,0.0717315673828125,-0.0215606689453125
1761501971137938400,2.7899384765625,-0.149078369140625,0.077606201171875,-0.0537261962890625
1761501971147995400,2.799995361328125,-0.1370849609375,0.044097900390625,-0.082672119140625
1761501971158051600,2.810051513671875,-0.0979766845703125,-0.0050506591796875,-0.108612060546875
1761501971168107500,2.820107421875,-0.10357666015625,-0.088409423828125,-0.1238861083984375
1761501971178163500,2.83016357421875,-0.1536102294921875,-0.1885528564453125,-0.08392333984375
1761501971188219600,2.8402197265625,-0.1824493408203125,-0.277557373046875,-0.0127716064453125
1761501971198276600,2.850276611328125,-0.1649627685546875,-0.33441162109375,0.0638885498046875
1761501971208332500,2.86033251953125,-0.097930908203125,-0.3992767333984375,0.0864715576171875
1761501971218388500,2.870388427734375,-0.0045013427734375,-0.5161895751953125,0.056396484375
1761501971228444700,2.880444580078125,0.0375823974609375,-0.7220458984375,0.0155487060546875
1761501971238500600,2.89050048828125,0.011383056640625,-1.041778564453125,-0.01214599609375
1761501971248557600,2.9005576171875,-0.027984619140625,-1.4450225830078125,-0.0426483154296875
1761501971258613500,2.910613525390625,-0.0613861083984375,-1.8461761474609375,-0.1183929443359375
1761501971268669700,2.920669677734375,-0.116363525390625,-2.258270263671875,-0.193206787109375
1761501971278725600,2.9307255859375,-0.2176361083984375,-2.6661834716796875,-0.190643310546875
1761501971288781600,2.940781494140625,-0.5175018310546875,-3.043365478515625,-0.1289215087890625
1761501971298837800,2.950837646484375,-0.8453521728515625,-3.4120025634765625,-0.0271453857421875
1761501971308894700,2.960894775390625,-0.9402313232421875,-3.7418212890625,-0.0182342529296875
1761501971318950700,2.97095068359375,-0.95062255859375,-3.8744354248046875,-0.0177001953125
1761501971329006600,2.981006591796875,-1.03289794921875,-3.77227783203125,0.03814697265625
1761501971339062800,2.991062744140625,-1.1042327880859375,-3.5122528076171875,0.0910491943359375
1761501971349118500,3.001118408203125,-0.9507598876953125,-3.1817779541015625,0.097381591796875
1761501971359175700,3.01117578125,-0.682464599609375,-2.90240478515625,0.040008544921875
1761501971369231600,3.021231689453125,-0.5324859619140625,-2.73907470703125,-0.07769775390625
1761501971379287600,3.03128759765625,-0.493408203125,-2.612945556640625,-0.24462890625
1761501971389343500,3.041343505859375,-0.5073089599609375,-2.426055908203125,-0.3811492919921875
1761501971399399400,3.0513994140625,-0.501617431640625,-2.1379241943359375,-0.4152984619140625
1761501971409455600,3.06145556640625,-0.4626617431640625,-1.804962158203125,-0.3238372802734375
1761501971419512600,3.0715126953125,-0.3233795166015625,-1.46832275390625,-0.207916259765625
1761501971429568500,3.081568603515625,-0.143341064453125,-1.101806640625,-0.136474609375
1761501971439624400,3.09162451171875,0.0201568603515625,-0.76336669921875,-0.0883331298828125
1761501971449680600,3.1016806640625,0.1634063720703125,-0.4598846435546875,-0.0461883544921875
1761501971459736600,3.111736572265625,0.2220916748046875,-0.2056121826171875,-0.0157012939453125
1761501971469793500,3.12179345703125,0.1599273681640625,-0.0653228759765625,-0.04779052734375
1761501971479849500,3.131849365234375,0.0069427490234375,0.0199432373046875,-0.092315673828125
1761501971489905700,3.14190576171875,-0.1632537841796875,0.0962371826171875,-0.1492156982421875
1761501971499961600,3.151961669921875,-0.1953125,0.2051239013671875,-0.194183349609375
1761501971510017500,3.162017578125,-0.0531463623046875,0.342254638671875,-0.2150421142578125
1761501971520073700,3.17207373046875,0.07952880859375,0.4753265380859375,-0.1771392822265625
1761501971530130700,3.182130615234375,0.175811767578125,0.54888916015625,-0.099151611328125
1761501971540186600,3.1921865234375,0.2249755859375,0.55841064453125,-0.0256805419921875
1761501971550242600,3.20224267578125,0.20782470703125,0.5540008544921875,0.0384368896484375
1761501971560298800,3.212298828125,0.1779022216796875,0.503082275390625,0.0841064453125
1761501971570354700,3.222354736328125,0.1342315673828125,0.38623046875,0.090728759765625
1761501971580411600,3.23241162109375,0.029052734375,0.2367706298828125,0.06866455078125
1761501971590467600,3.242467529296875,-0.0837860107421875,0.142913818359375,0.0589447021484375
1761501971600523500,3.2525234375,-0.144866943359375,0.0930023193359375,0.0619049072265625
1761501971610579500,3.262579345703125,-0.177520751953125,0.0692901611328125,0.051116943359375
1761501971620635400,3.272635498046875,-0.1448211669921875,0.0873260498046875,0.02471923828125
1761501971630692600,3.282692626953125,-0.0809783935546875,0.119476318359375,-0.0022125244140625
1761501971640748500,3.29274853515625,-0.0601348876953125,0.14666748046875,-0.013519287109375
1761501971650804500,3.302804443359375,-0.077362060546875,0.16619873046875,-0.003509521484375
1761501971660860400,3.3128603515625,-0.144622802734375,0.1594085693359375,0.0285797119140625
1761501971670916600,3.32291650390625,-0.2537689208984375,0.112030029296875,0.098724365234375
1761501971680972500,3.33297265625,-0.3573150634765625,0.000640869140625,0.1641693115234375
1761501971691029500,3.343029541015625,-0.4322967529296875,-0.1680145263671875,0.1995849609375
1761501971701085400,3.35308544921875,-0.4765777587890625,-0.3536376953125,0.164215087890625
1761501971711141600,3.3631416015625,-0.4352569580078125,-0.5096435546875,0.0863800048828125
1761501971721197600,3.373197509765625,-0.3062286376953125,-0.5738372802734375,-0.0346527099609375
1761501971731253500,3.38325341796875,-0.2173309326171875,-0.608978271484375,-0.169525146484375
1761501971741310700,3.393310791015625,-0.2024078369140625,-0.6937713623046875,-0.2364349365234375
1761501971751366700,3.40336669921875,-0.1862640380859375,-0.7915802001953125,-0.232666015625
1761501971761422600,3.413422607421875,-0.2259979248046875,-0.9732666015625,-0.2017059326171875
1761501971771478500,3.423478515625,-0.2167510986328125,-1.291473388671875,-0.0759429931640625
1761501971781534700,3.43353466796875,-0.2845306396484375,-1.8096771240234375,0.0681304931640625
1761501971791590700,3.443590576171875,-0.2755279541015625,-2.4760589599609375,0.22857666015625
1761501971801647600,3.453647705078125,-0.6657257080078125,-3.1194915771484375,0.395233154296875
1761501971811703800,3.463703857421875,-1.358642578125,-3.3994140625,0.4305419921875
1761501971821759700,3.473759765625,-1.453704833984375,-3.4408416748046875,0.311676025390625
1761501971831815400,3.4838154296875,-1.4135589599609375,-3.46099853515625,0.19647216796875
1761501971841871600,3.49387158203125,-1.373382568359375,-3.3525390625,0.1554107666015625
1761501971851928600,3.503928466796875,-1.188629150390625,-3.0980682373046875,0.122528076171875
1761501971861984500,3.513984619140625,-0.8473358154296875,-2.8480987548828125,0.092254638671875
1761501971872040400,3.52404052734375,-0.6872100830078125,-2.7108612060546875,0.100921630859375
1761501971882096600,3.5340966796875,-0.8416595458984375,-2.7512054443359375,0.09735107421875
1761501971892152600,3.544152587890625,-1.106048583984375,-2.8829345703125,-0.028900146484375
1761501971902208500,3.55420849609375,-1.288299560546875,-2.86572265625,-0.2014007568359375
1761501971912265500,3.564265380859375,-1.236968994140625,-2.62286376953125,-0.33026123046875
1761501971922321700,3.57432177734375,-0.9427642822265625,-2.1796722412109375,-0.3092803955078125
1761501971932377600,3.584377685546875,-0.6684112548828125,-1.6685943603515625,-0.1360015869140625
1761501971942433500,3.59443359375,-0.434326171875,-1.149658203125,0.0247650146484375
1761501971952489700,3.60448974609375,-0.207122802734375,-0.7239227294921875,0.120086669921875
1761501971962546700,3.614546630859375,-0.03778076171875,-0.3733673095703125,0.1283721923828125
1761501971972602600,3.6246025390625,0.0093231201171875,-0.0762176513671875,0.097869873046875
1761501971982658600,3.634658447265625,-0.068359375,0.15142822265625,0.0431365966796875
1761501971992714800,3.64471484375,-0.186248779296875,0.2913665771484375,-0.016021728515625
1761501972002770000,3.65477001953125,-0.2319488525390625,0.3904876708984375,-0.0282745361328125
1761501972012825900,3.664825927734375,-0.158477783203125,0.4713592529296875,-0.0216827392578125
1761501972022882800,3.6748828125,-0.017059326171875,0.58038330078125,-0.031524658203125
1761501972032939000,3.68493896484375,0.2219390869140625,0.712066650390625,-0.074127197265625
1761501972042995000,3.694994873046875,0.3822784423828125,0.697265625,-0.09161376953125
1761501972053051000,3.70505078125,0.434112548828125,0.568756103515625,-0.0772552490234375
1761501972063106800,3.71510693359375,0.373992919921875,0.4288787841796875,-0.0354461669921875
1761501972073164000,3.7251640625,0.2403717041015625,0.3117523193359375,-0.0176544189453125
1761501972083219700,3.7352197265625,0.1135711669921875,0.19781494140625,-0.049774169921875
1761501972093276000,3.74527587890625,0.0216217041015625,0.117919921875,-0.05364990234375
1761501972103331800,3.755331787109375,-0.016632080078125,0.113433837890625,-0.042022705078125
1761501972113387800,3.7653876953125,-0.0418243408203125,0.1695404052734375,-0.0013885498046875
1761501972123444700,3.77544482421875,-0.0552825927734375,0.194305419921875,0.048126220703125
1761501972133501000,3.7855009765625,-0.0566864013671875,0.210418701171875,0.0966949462890625
1761501972143556900,3.795556884765625,-0.07257080078125,0.2030029296875,0.1109466552734375
1761501972153612800,3.80561279296875,-0.1008758544921875,0.1629791259765625,0.0986785888671875
1761501972163669000,3.8156689453125,-0.1721649169921875,0.087188720703125,0.0695953369140625
1761501972173725000,3.825724853515625,-0.2702789306640625,-0.0212249755859375,0.0596466064453125
1761501972183782000,3.835781982421875,-0.351348876953125,-0.1250457763671875,0.060577392578125
1761501972193837800,3.845837890625,-0.3779449462890625,-0.200836181640625,0.050933837890625
1761501972203894000,3.85589404296875,-0.29571533203125,-0.2491302490234375,0.0414886474609375
1761501972213950000,3.865949951171875,-0.18353271484375,-0.290802001953125,0.0307159423828125
1761501972224006000,3.876005859375,-0.1014556884765625,-0.3580322265625,0.020233154296875
1761501972234062800,3.886062744140625,-0.08575439453125,-0.454833984375,-0.009796142578125
1761501972244119000,3.896119140625,-0.14215087890625,-0.6048431396484375,-0.095550537109375
1761501972254175000,3.906175048828125,-0.250732421875,-0.76123046875,-0.1569061279296875
1761501972264231000,3.91623095703125,-0.269927978515625,-0.9306640625,-0.1712646484375
1761501972274287000,3.926287109375,-0.15472412109375,-1.1822052001953125,-0.1191864013671875
1761501972284342800,3.9363427734375,-0.145263671875,-1.5450439453125,-0.0150604248046875
1761501972294400000,3.94639990234375,-0.2472991943359375,-2.00775146484375,0.0022430419921875
1761501972304455700,3.95645556640625,-0.4092254638671875,-2.492279052734375,0.01104736328125
1761501972314512000,3.966511962890625,-0.58929443359375,-2.8136444091796875,-0.02813720703125
1761501972324567800,3.97656787109375,-0.7870330810546875,-2.999237060546875,-0.0839996337890625
1761501972334623700,3.986623779296875,-0.8545074462890625,-3.2179107666015625,-0.0828399658203125
1761501972344680700,3.9966806640625,-0.912811279296875,-3.4032135009765625,-0.0268096923828125
1761501972354737000,4.00673681640625,-0.98919677734375,-3.478515625,0.0835418701171875
1761501972364792800,4.016792724609375,-1.09539794921875,-3.4226837158203125,0.1788177490234375
1761501972374848800,4.026848876953125,-1.0722198486328125,-3.2815399169921875,0.154449462890625
1761501972384905000,4.036905029296875,-0.986297607421875,-3.0867156982421875,0.0562896728515625
1761501972394961000,4.0469609375,-0.8543701171875,-2.90869140625,-0.0733642578125
1761501972405017900,4.057017822265625,-0.7032318115234375,-2.7535247802734375,-0.1841278076171875
1761501972415073800,4.06707373046875,-0.5332183837890625,-2.54571533203125,-0.2794036865234375
1761501972425130000,4.0771298828125,-0.3855743408203125,-2.3073272705078125,-0.33856201171875
1761501972435186000,4.08718603515625,-0.2692108154296875,-2.037841796875,-0.3283538818359375
1761501972445241900,4.097241943359375,-0.119598388671875,-1.7512969970703125,-0.225738525390625
1761501972455298800,4.107298828125,-0.063385009765625,-1.415863037109375,-0.0828094482421875
1761501972465355000,4.11735498046875,-0.0971221923828125,-1.1096038818359375,0.081329345703125
1761501972475411000,4.127410888671875,-0.07843017578125,-0.8350677490234375,0.180389404296875
1761501972485467000,4.137466796875,-0.025146484375,-0.5298309326171875,0.1787872314453125
1761501972495523000,4.147523193359375,-0.0032958984375,-0.24078369140625,0.1345977783203125
1761501972505579000,4.1575791015625,0.0078125,-0.0201263427734375,0.0772705078125
1761501972515636000,4.167635986328125,-0.019500732421875,0.0889129638671875,0.0265045166015625
1761501972525692000,4.17769189453125,-0.0894927978515625,0.13873291015625,0.0189361572265625
1761501972535747800,4.187747802734375,-0.17254638671875,0.1942901611328125,0.0148773193359375
1761501972545803800,4.1978037109375,-0.199859619140625,0.291961669921875,0.0163726806640625
1761501972555859700,4.207859619140625,-0.1466217041015625,0.3995361328125,0.052520751953125
1761501972565916700,4.217916748046875,-0.0331573486328125,0.473358154296875,0.097747802734375
1761501972575972900,4.227972900390625,0.0920562744140625,0.4912261962890625,0.1240386962890625
1761501972586028800,4.23802880859375,0.1968841552734375,0.464630126953125,0.1071624755859375
1761501972596084700,4.248084716796875,0.2191925048828125,0.4261016845703125,0.060516357421875
1761501972606141000,4.258140869140625,0.1749114990234375,0.34930419921875,-0.00048828125
1761501972616198000,4.268197998046875,0.12042236328125,0.2177734375,-0.045166015625
1761501972626253800,4.27825390625,0.0514984130859375,0.0835723876953125,-0.075164794921875
1761501972636309800,4.288309814453125,-0.0413665771484375,-0.010284423828125,-0.085205078125
1761501972646366000,4.298365966796875,-0.0788726806640625,-0.0717620849609375,-0.0825958251953125
1761501972656422000,4.308421875,-0.0164031982421875,-0.091766357421875,-0.088409423828125
1761501972666478800,4.318478759765625,0.0440826416015625,-0.0775909423828125,-0.1016998291015625
1761501972676534800,4.32853466796875,0.0565185546875,-0.030975341796875,-0.0998077392578125
1761501972686591000,4.338591064453125,0.021820068359375,0.01007080078125,-0.08843994140625
1761501972696647000,4.34864697265625,-0.0483245849609375,0.00506591796875,-0.0601043701171875
1761501972706702800,4.358702880859375,-0.1401519775390625,-0.0395050048828125,-0.0538330078125
1761501972716759800,4.368759765625,-0.2071075439453125,-0.1298980712890625,-0.036895751953125
1761501972726816000,4.37881591796875,-0.2429046630859375,-0.1926422119140625,0.0065155029296875
1761501972736872000,4.388871826171875,-0.2008514404296875,-0.2306671142578125,0.020172119140625
1761501972746927900,4.398927978515625,-0.14532470703125,-0.2526092529296875,0.0007476806640625
1761501972756983800,4.40898388671875,-0.1431884765625,-0.296234130859375,-0.016204833984375
1761501972767039700,4.419039794921875,-0.143707275390625,-0.3688812255859375,-0.034942626953125
1761501972777097000,4.429096923828125,-0.1269378662109375,-0.4476165771484375,-0.0511627197265625
1761501972787152600,4.439152587890625,-0.1345672607421875,-0.5525665283203125,-0.02593994140625
1761501972797208800,4.449208740234375,-0.0911102294921875,-0.662994384765625,0.0181732177734375
1761501972807264800,4.4592646484375,0.0811767578125,-0.81829833984375,0.0490264892578125
1761501972817320700,4.46932080078125,0.300750732421875,-1.1255950927734375,0.0793304443359375
1761501972827378000,4.4793779296875,0.281036376953125,-1.8385467529296875,0.09759521484375
1761501972837433900,4.489433837890625,-0.0522613525390625,-2.7784881591796875,0.058990478515625
1761501972847489800,4.49948974609375,-0.5346832275390625,-3.4107208251953125,-0.2357025146484375
1761501972857545700,4.509545654296875,-0.997314453125,-3.7197265625,-0.5588531494140625
1761501972867602000,4.519601806640625,-0.9804840087890625,-3.8272247314453125,-0.661346435546875
1761501972877657900,4.529657958984375,-0.6038665771484375,-3.7076263427734375,-0.6100006103515625
1761501972887714800,4.53971484375,-0.4283294677734375,-3.3816070556640625,-0.558319091796875
1761501972897771000,4.54977099609375,-0.4237823486328125,-3.1068572998046875,-0.5165863037109375
1761501972907827000,4.559826904296875,-0.4622039794921875,-2.9841766357421875,-0.4201507568359375
1761501972917883000,4.5698828125,-0.6273345947265625,-2.93292236328125,-0.2882232666015625
1761501972927938800,4.579938720703125,-0.81158447265625,-2.93084716796875,-0.1610260009765625
1761501972937996000,4.58999609375,-0.85174560546875,-2.8984375,-0.1094207763671875
1761501972948052000,4.600052001953125,-0.8177490234375,-2.7915191650390625,-0.1602935791015625
1761501972958108000,4.61010791015625,-0.5853424072265625,-2.4860992431640625,-0.255218505859375
1761501972968163800,4.620163818359375,-0.2467498779296875,-2.0587158203125,-0.3407745361328125
1761501972978220000,4.630219970703125,-0.018585205078125,-1.6591796875,-0.345306396484375
1761501972988277000,4.640277099609375,0.17010498046875,-1.2940216064453125,-0.3295440673828125
1761501972998333000,4.6503330078125,0.2642059326171875,-0.964630126953125,-0.3092041015625
1761501973008389000,4.66038916015625,0.2556610107421875,-0.6822967529296875,-0.2552642822265625
1761501973018445000,4.670445068359375,0.191864013671875,-0.4167938232421875,-0.167816162109375
1761501973028501000,4.6805009765625,0.061126708984375,-0.1750335693359375,-0.04827880859375
1761501973038557000,4.690556884765625,-0.0889892578125,-0.0190277099609375,0.0801544189453125
1761501973048614100,4.7006142578125,-0.1646575927734375,0.109954833984375,0.160003662109375
1761501973058670000,4.710670166015625,-0.15142822265625,0.2646484375,0.1786651611328125
1761501973068726000,4.72072607421875,-0.122467041015625,0.3713836669921875,0.16192626953125
1761501973078782200,4.7307822265625,-0.07757568359375,0.432098388671875,0.1363677978515625
1761501973088838100,4.740838134765625,-0.02032470703125,0.5101165771484375,0.109588623046875
1761501973098895000,4.75089501953125,0.0424652099609375,0.6006622314453125,0.08526611328125
1761501973108951000,4.760950927734375,0.0465240478515625,0.6399078369140625,0.086944580078125
1761501973119007200,4.77100732421875,0.02984619140625,0.6284637451171875,0.0972137451171875
1761501973129063000,4.78106298828125,0.0036468505859375,0.5828399658203125,0.0748138427734375
1761501973139118800,4.791118896484375,-0.02484130859375,0.5043487548828125,0.01348876953125
1761501973149175800,4.80117578125,-0.0714111328125,0.4073638916015625,-0.031890869140625
1761501973159232000,4.81123193359375,-0.1456146240234375,0.3018341064453125,-0.025115966796875
1761501973169288000,4.821287841796875,-0.1838836669921875,0.232757568359375,0.0116729736328125
1761501973179344000,4.83134375,-0.1854248046875,0.2055816650390625,0.03814697265625
1761501973189400000,4.841400146484375,-0.17901611328125,0.20458984375,0.0649871826171875
1761501973199457000,4.85145703125,-0.0867156982421875,0.2196807861328125,0.0158233642578125
1761501973209513000,4.861512939453125,0.0565948486328125,0.2252960205078125,-0.109344482421875
1761501973219569000,4.87156884765625,0.117462158203125,0.1959075927734375,-0.242828369140625
1761501973229625000,4.881625,0.0763092041015625,0.14910888671875,-0.290191650390625
1761501973239681000,4.891680908203125,-0.029632568359375,0.0310516357421875,-0.2100067138671875
1761501973249738000,4.901738037109375,-0.1573638916015625,-0.0933990478515625,-0.0628204345703125
1761501973259790800,4.911790771484375,-0.268829345703125,-0.18304443359375,0.0426177978515625
1761501973269847000,4.921846923828125,-0.204620361328125,-0.31146240234375,0.025146484375
1761501973279903000,4.931903076171875,-0.0750579833984375,-0.4581146240234375,-0.00616455078125
1761501973289959000,4.941958984375,0.002960205078125,-0.5780181884765625,-0.029632568359375
1761501973300014800,4.952014892578125,0.0236968994140625,-0.62860107421875,-0.0150604248046875
1761501973310072000,4.962072021484375,0.0070037841796875,-0.7054443359375,0.0971527099609375
1761501973320128000,4.9721279296875,-0.010650634765625,-0.9534912109375,0.1927947998046875
1761501973330184000,4.982183837890625,-0.019866943359375,-1.34576416015625,0.2283935546875
1761501973340240100,4.992240234375,-0.0617523193359375,-1.9121856689453125,0.19561767578125
1761501973350296000,5.002296142578125,-0.0564422607421875,-2.5337982177734375,0.11651611328125
1761501973360353000,5.01235302734375,-0.132476806640625,-3.0759124755859375,-0.093536376953125
1761501973370409000,5.022408935546875,-0.5537872314453125,-3.311004638671875,-0.4620208740234375
1761501973380465200,5.032465087890625,-0.7960052490234375,-3.416259765625,-0.564483642578125
1761501973390521000,5.04252099609375,-0.7494659423828125,-3.471954345703125,-0.49310302734375
1761501973400577000,5.052576904296875,-0.7353973388671875,-3.4858245849609375,-0.4197998046875
1761501973410634000,5.062634033203125,-0.890777587890625,-3.4256439208984375,-0.2368316650390625
1761501973420690200,5.072690185546875,-1.021575927734375,-3.26763916015625,-0.0097503662109375
1761501973430746000,5.08274609375,-1.0286102294921875,-3.114288330078125,0.1110687255859375
1761501973440802000,5.092802001953125,-0.844024658203125,-2.95556640625,0.0418243408203125
1761501973450858200,5.102858154296875,-0.5792388916015625,-2.776214599609375,-0.1328582763671875
1761501973460914000,5.112913818359375,-0.45489501953125,-2.633941650390625,-0.2833404541015625
1761501973470971100,5.12297119140625,-0.41717529296875,-2.5164337158203125,-0.3888092041015625
1761501973481026800,5.13302685546875,-0.3443756103515625,-2.3333892822265625,-0.4294586181640625
1761501973491083000,5.1430830078125,-0.243072509765625,-2.0555419921875,-0.35968017578125
1761501973501139000,5.153138916015625,-0.0905609130859375,-1.7255401611328125,-0.188140869140625
1761501973511195000,5.16319482421875,-0.0424652099609375,-1.3558502197265625,-0.029296875
1761501973521251800,5.173251953125,-0.0514373779296875,-0.9920501708984375,0.023284912109375
1761501973531308000,5.18330810546875,-0.004730224609375,-0.64996337890625,-0.008941650390625
1761501973541364000,5.193364013671875,0.098236083984375,-0.3612060546875,-0.082611083984375
1761501973551420000,5.203419921875,0.1803436279296875,-0.11102294921875,-0.1346435546875
1761501973561476000,5.21347607421875,0.140472412109375,0.0642852783203125,-0.109893798828125
1761501973571533000,5.223532958984375,0.071258544921875,0.17327880859375,-0.068634033203125
1761501973581589000,5.233589111328125,0.0060882568359375,0.2350921630859375,-0.036163330078125
1761501973591645000,5.24364501953125,0.0134124755859375,0.30511474609375,-0.0228271484375
1761501973601701000,5.253701171875,0.0691986083984375,0.3927001953125,-0.0370025634765625
1761501973611757000,5.263757080078125,0.0712432861328125,0.5108642578125,-0.0173187255859375
1761501973621814000,5.27381396484375,0.091094970703125,0.5883941650390625,0.024505615234375
1761501973631870000,5.283869873046875,0.1259765625,0.6046600341796875,0.0578460693359375
1761501973641926100,5.293926025390625,0.110687255859375,0.591217041015625,0.0933837890625
1761501973651982000,5.303982177734375,0.1153106689453125,0.529815673828125,0.1065216064453125
1761501973662038000,5.3140380859375,0.0962677001953125,0.439453125,0.0926055908203125
1761501973672097000,5.324096923828125,0.0251007080078125,0.312408447265625,0.061614990234375
1761501973682153000,5.334153076171875,-0.079010009765625,0.1942596435546875,0.0256195068359375
1761501973692209000,5.344208984375,-0.135528564453125,0.1367340087890625,-0.031982421875
1761501973702265000,5.35426513671875,-0.13702392578125,0.1155853271484375,-0.0928802490234375
1761501973712321000,5.364321044921875,-0.143829345703125,0.0686798095703125,-0.1356201171875
1761501973722378000,5.3743779296875,-0.189727783203125,0.00836181640625,-0.15673828125
1761501973732434000,5.384433837890625,-0.2339935302734375,-0.041473388671875,-0.160552978515625
1761501973742490000,5.394489990234375,-0.2318267822265625,-0.102447509765625,-0.1768035888671875
1761501973752546000,5.404546142578125,-0.22979736328125,-0.19635009765625,-0.1591644287109375
1761501973762602000,5.41460205078125,-0.2337493896484375,-0.2866973876953125,-0.12982177734375
1761501973772659000,5.424658935546875,-0.1939697265625,-0.359283447265625,-0.1397857666015625
1761501973782715100,5.434715087890625,-0.13690185546875,-0.44403076171875,-0.1619873046875
1761501973792771000,5.44477099609375,-0.12164306640625,-0.549285888671875,-0.1761932373046875
1761501973802827000,5.454826904296875,-0.1129913330078125,-0.66790771484375,-0.15228271484375
1761501973812883000,5.464883056640625,-0.135040283203125,-0.781097412109375,-0.098846435546875
1761501973822940200,5.474940185546875,-0.08935546875,-0.865966796875,-0.0556488037109375
1761501973832995800,5.484995849609375,0.0219268798828125,-0.9754791259765625,-0.0261993408203125
1761501973843052000,5.495052001953125,0.1282806396484375,-1.127197265625,-0.0617218017578125
1761501973853108000,5.50510791015625,0.1263885498046875,-1.392578125,-0.12603759765625
1761501973863164000,5.515163818359375,-0.000244140625,-1.848663330078125,-0.133056640625
1761501973873219800,5.5252197265625,-0.2586212158203125,-2.3936309814453125,-0.166748046875
1761501973883277000,5.535277099609375,-0.6015167236328125,-2.7430267333984375,-0.3524017333984375
1761501973893333000,5.5453330078125,-0.731719970703125,-2.9522857666015625,-0.498016357421875
1761501973903389000,5.555388916015625,-0.6796112060546875,-3.0981597900390625,-0.4936981201171875
1761501973913445000,5.565445068359375,-0.579498291015625,-3.18536376953125,-0.3744354248046875
1761501973923501000,5.5755009765625,-0.6182403564453125,-3.206756591796875,-0.2351226806640625
1761501973933558000,5.58555810546875,-0.838165283203125,-3.1305389404296875,-0.09454345703125
1761501973943614000,5.595614013671875,-0.9097137451171875,-2.9888916015625,-0.0178680419921875
1761501973953670100,5.605670166015625,-0.8523101806640625,-2.8266754150390625,-0.006317138671875
1761501973963726000,5.61572607421875,-0.703765869140625,-2.7158660888671875,-0.096099853515625
1761501973973782000,5.625781982421875,-0.5860595703125,-2.7042694091796875,-0.2276763916015625
1761501973983839000,5.6358388671875,-0.541259765625,-2.6408538818359375,-0.2964324951171875
1761501973993895200,5.645895263671875,-0.493560791015625,-2.39349365234375,-0.29925537109375
1761501974003950600,5.65595068359375,-0.377716064453125,-2.0635833740234375,-0.2598419189453125
1761501974014006500,5.666006591796875,-0.3171539306640625,-1.7746429443359375,-0.1790771484375
1761501974024062700,5.676062744140625,-0.2965240478515625,-1.493377685546875,-0.0555572509765625
1761501974034119700,5.68611962890625,-0.2491455078125,-1.1864013671875,0.0538787841796875
1761501974044175600,5.696175537109375,-0.213104248046875,-0.869964599609375,0.1168060302734375
1761501974054231600,5.7062314453125,-0.225067138671875,-0.5635833740234375,0.1613006591796875
1761501974064287700,5.716287841796875,-0.30120849609375,-0.32080078125,0.17803955078125
1761501974074343700,5.72634375,-0.2450714111328125,-0.1396942138671875,0.1156768798828125
1761501974084400600,5.736400634765625,-0.14642333984375,0.0548095703125,0.01165771484375
1761501974094456600,5.74645654296875,-0.0599822998046875,0.2331085205078125,-0.0959014892578125
1761501974104512800,5.7565126953125,0.0889129638671875,0.3892669677734375,-0.2024993896484375
1761501974114568400,5.766568359375,0.28570556640625,0.4970855712890625,-0.285125732421875
1761501974124624400,5.776624267578125,0.3771209716796875,0.580047607421875,-0.2981109619140625
1761501974134681600,5.786681640625,0.35498046875,0.6185760498046875,-0.2505645751953125
1761501974144737500,5.796737548828125,0.29998779296875,0.58343505859375,-0.16168212890625
1761501974154793500,5.80679345703125,0.2317962646484375,0.5321197509765625,-0.060028076171875
1761501974164849400,5.816849365234375,0.13885498046875,0.4710235595703125,0.04119873046875
1761501974174905600,5.826905517578125,0.05780029296875,0.383819580078125,0.1086273193359375
1761501974184962600,5.836962646484375,-0.0088043212890625,0.310394287109375,0.1379547119140625
1761501974195018500,5.8470185546875,-0.077362060546875,0.2727203369140625,0.1347503662109375
1761501974205074400,5.857074462890625,-0.09710693359375,0.250518798828125,0.0860748291015625
1761501974215130600,5.867130615234375,-0.116058349609375,0.22186279296875,0.0264892578125
1761501974225186600,5.8771865234375,-0.179229736328125,0.1890869140625,-0.01177978515625
1761501974235243500,5.887243408203125,-0.2119598388671875,0.1385345458984375,-0.0420989990234375
1761501974245299500,5.897299560546875,-0.24774169921875,0.074005126953125,-0.0679168701171875
1761501974255355600,5.907355712890625,-0.3089141845703125,-0.012908935546875,-0.06610107421875
1761501974265411600,5.91741162109375,-0.3639068603515625,-0.102264404296875,-0.02923583984375
1761501974275467500,5.927467529296875,-0.3804931640625,-0.184814453125,0.001251220703125
1761501974285524500,5.9375244140625,-0.3284149169921875,-0.2568359375,-0.0346832275390625
1761501974295580700,5.94758056640625,-0.2358551025390625,-0.3211517333984375,-0.0792388916015625
1761501974305636600,5.95763671875,-0.1504669189453125,-0.41363525390625,-0.10546875
1761501974315692500,5.967692626953125,-0.101470947265625,-0.478546142578125,-0.1244354248046875
1761501974325748700,5.977748779296875,-0.076812744140625,-0.5692596435546875,-0.1004180908203125
1761501974335804700,5.9878046875,-0.0792236328125,-0.745941162109375,-0.050445556640625
1761501974345861600,5.997861572265625,0.015350341796875,-0.932769775390625,-0.0057220458984375
1761501974355917600,6.00791748046875,0.0911865234375,-1.1974945068359375,0.0133209228515625
1761501974365973500,6.017973388671875,0.0731964111328125,-1.6912689208984375,-0.01593017578125
1761501974376029400,6.028029541015625,0.0410614013671875,-2.3706512451171875,-0.0577392578125
1761501974386085600,6.038085693359375,-0.03948974609375,-2.98968505859375,-0.140380859375
1761501974396142600,6.048142578125,-0.286224365234375,-3.18695068359375,-0.285064697265625
1761501974406198500,6.058198486328125,-0.52001953125,-3.22589111328125,-0.3992156982421875
1761501974416254500,6.06825439453125,-0.5437774658203125,-3.2620086669921875,-0.38873291015625
1761501974426310700,6.078310546875,-0.4965972900390625,-3.2547760009765625,-0.2793121337890625
1761501974436366600,6.08836669921875,-0.563262939453125,-3.19244384765625,-0.16680908203125
1761501974446423600,6.098423583984375,-0.6622161865234375,-3.1295928955078125,-0.0634002685546875
1761501974456479500,6.1084794921875,-0.7072906494140625,-3.0438690185546875,-0.014129638671875
1761501974466535700,6.11853564453125,-0.7083740234375,-2.9349517822265625,-0.123748779296875
1761501974476591600,6.128591552734375,-0.6930084228515625,-2.829376220703125,-0.3077545166015625
1761501974486647600,6.1386474609375,-0.7068023681640625,-2.6798858642578125,-0.46575927734375
1761501974496704500,6.14870458984375,-0.740936279296875,-2.42559814453125,-0.559326171875
1761501974506760700,6.1587607421875,-0.7350616455078125,-2.1094970703125,-0.51837158203125
1761501974516816600,6.168816650390625,-0.6052398681640625,-1.821319580078125,-0.38397216796875
1761501974526872600,6.17887255859375,-0.4412841796875,-1.51031494140625,-0.241119384765625
1761501974536928800,6.1889287109375,-0.315399169921875,-1.2503814697265625,-0.13751220703125
1761501974546985700,6.19898583984375,-0.2724151611328125,-1.054901123046875,-0.043212890625
1761501974557041700,6.209041748046875,-0.174346923828125,-0.9016571044921875,0.012481689453125
1761501974567097600,6.21909765625,0.0107879638671875,-0.6705169677734375,-0.0281219482421875
1761501974577153800,6.22915380859375,0.077850341796875,-0.395172119140625,-0.0850830078125
1761501974587209700,6.239209716796875,0.066680908203125,-0.146484375,-0.1503753662109375
1761501974597266700,6.2492666015625,0.0841217041015625,0.0605621337890625,-0.20062255859375
1761501974607322600,6.259322509765625,0.1658935546875,0.2188720703125,-0.1947021484375
1761501974617378600,6.269378662109375,0.228790283203125,0.3064117431640625,-0.1051483154296875
1761501974627434500,6.2794345703125,0.2111358642578125,0.350341796875,0.0462646484375
1761501974637490400,6.289490478515625,0.2170562744140625,0.4012451171875,0.1768341064453125
1761501974647547400,6.29954736328125,0.2189788818359375,0.4424896240234375,0.18682861328125
1761501974657603600,6.309603515625,0.317840576171875,0.4734649658203125,0.1582794189453125
1761501974667659500,6.319659423828125,0.40496826171875,0.504852294921875,0.126190185546875
1761501974677715500,6.329715576171875,0.379425048828125,0.478485107421875,0.1220550537109375
1761501974687771600,6.339771728515625,0.229095458984375,0.3884124755859375,0.0890045166015625
1761501974697828600,6.34982861328125,0.0912933349609375,0.303314208984375,0.01251220703125
1761501974707884500,6.359884521484375,0.02520751953125,0.24737548828125,-0.05950927734375
1761501974717940500,6.3699404296875,0.023162841796875,0.2205657958984375,-0.12347412109375
1761501974727996700,6.37999658203125,0.001922607421875,0.1903533935546875,-0.1805267333984375
1761501974738052600,6.390052490234375,-0.0469207763671875,0.1806182861328125,-0.2093963623046875
1761501974748109600,6.400109619140625,-0.0672760009765625,0.1414337158203125,-0.2408599853515625
1761501974758165500,6.41016552734375,-0.045623779296875,0.081146240234375,-0.270050048828125
1761501974768221700,6.4202216796875,-0.113616943359375,0.04266357421875,-0.263336181640625
1761501974778277600,6.430277587890625,-0.302581787109375,0.00750732421875,-0.1710968017578125
1761501974788333600,6.44033349609375,-0.374176025390625,-0.085418701171875,-0.0676727294921875
1761501974798390500,6.450390625,-0.3086700439453125,-0.1909637451171875,-0.04376220703125
1761501974808446700,6.46044677734375,-0.2303619384765625,-0.3071746826171875,-0.0338134765625
1761501974818502700,6.470502685546875,-0.1975555419921875,-0.4434051513671875,-0.029144287109375
1761501974828558600,6.48055859375,-0.244384765625,-0.5976409912109375,-0.0090179443359375
1761501974838614800,6.49061474609375,-0.2868804931640625,-0.77069091796875,0.0079193115234375
1761501974848670500,6.50067041015625,-0.2301025390625,-0.8957672119140625,0.031951904296875
1761501974858727700,6.510727783203125,-0.0750885009765625,-1.0102386474609375,0.075439453125
1761501974868783400,6.520783447265625,0.1525726318359375,-1.206390380859375,0.1269989013671875
1761501974878839600,6.530839599609375,0.2404937744140625,-1.627593994140625,0.105224609375
1761501974888895500,6.5408955078125,0.0962066650390625,-2.217041015625,0.0250701904296875
1761501974898951400,6.550951416015625,0.0120849609375,-2.68060302734375,-0.1150665283203125
1761501974909008400,6.56100830078125,-0.2535552978515625,-3.023773193359375,-0.30645751953125
1761501974919064600,6.571064697265625,-0.6102142333984375,-3.1998443603515625,-0.3520660400390625
1761501974929120500,6.58112060546875,-0.6464996337890625,-3.3089752197265625,-0.260345458984375
1761501974939176400,6.591176513671875,-0.578826904296875,-3.2855072021484375,-0.184051513671875
1761501974949232600,6.601232666015625,-0.6402435302734375,-3.1437835693359375,-0.1271514892578125
1761501974959289600,6.61128955078125,-0.6435394287109375,-2.8956451416015625,-0.1577301025390625
1761501974969345500,6.621345458984375,-0.452667236328125,-2.67730712890625,-0.2664947509765625
1761501974979401500,6.6314013671875,-0.4003143310546875,-2.5221099853515625,-0.30755615234375
1761501974989457700,6.641457763671875,-0.4266510009765625,-2.4435577392578125,-0.3205413818359375
1761501974999513600,6.651513671875,-0.372833251953125,-2.314910888671875,-0.3692474365234375
1761501975009574700,6.66157470703125,-0.2918701171875,-2.068572998046875,-0.4148712158203125
1761501975019630600,6.671630615234375,-0.2623138427734375,-1.8025665283203125,-0.38360595703125
1761501975029686800,6.681686767578125,-0.17596435546875,-1.4961090087890625,-0.29803466796875
1761501975039742700,6.69174267578125,-0.0666656494140625,-1.2108612060546875,-0.2132110595703125
1761501975049798700,6.701798583984375,-0.0087890625,-0.9659271240234375,-0.1517791748046875
1761501975059855600,6.711855712890625,-0.0112152099609375,-0.754058837890625,-0.0836639404296875
1761501975069911800,6.721911865234375,-0.0498199462890625,-0.63226318359375,-0.0073699951171875
1761501975079967700,6.7319677734375,-0.0265350341796875,-0.5433349609375,-0.01251220703125
1761501975090023700,6.742023681640625,0.052764892578125,-0.4548187255859375,-0.1154937744140625
1761501975100079900,6.752079833984375,0.1227264404296875,-0.3842010498046875,-0.2205657958984375
1761501975110135800,6.7621357421875,0.1453704833984375,-0.3093414306640625,-0.2447967529296875
1761501975120192800,6.77219287109375,0.1209716796875,-0.231719970703125,-0.1736297607421875
1761501975130248700,6.782248779296875,0.126861572265625,-0.10693359375,-0.075408935546875
1761501975140305000,6.792304931640625,0.2740631103515625,0.0712432861328125,-0.0413818359375
1761501975150360800,6.80236083984375,0.3773956298828125,0.194976806640625,-0.053192138671875
1761501975160417800,6.812417724609375,0.36932373046875,0.2845001220703125,-0.059478759765625
1761501975170473700,6.8224736328125,0.32293701171875,0.3674163818359375,-0.0513458251953125
1761501975180529700,6.83252978515625,0.279998779296875,0.405426025390625,-0.0608978271484375
1761501975190585600,6.842585693359375,0.220916748046875,0.4138946533203125,-0.0702362060546875
1761501975200641500,6.8526416015625,0.1206512451171875,0.3945159912109375,-0.0543365478515625
1761501975210697700,6.86269775390625,0.0271453857421875,0.3392791748046875,-0.031036376953125
1761501975220754700,6.872754638671875,-0.0045928955078125,0.27069091796875,-0.0277252197265625
1761501975230810600,6.882810546875,-0.0246734619140625,0.228118896484375,-0.0416412353515625
1761501975240866600,6.892866455078125,-0.0651397705078125,0.179962158203125,-0.0771636962890625
1761501975250922800,6.9029228515625,-0.1186981201171875,0.1097412109375,-0.089324951171875
1761501975260978700,6.912978759765625,-0.1894989013671875,0.0454254150390625,-0.053619384765625
1761501975271035600,6.92303564453125,-0.2389373779296875,-0.0251312255859375,-0.0725250244140625
1761501975281091600,6.933091552734375,-0.262481689453125,-0.1190948486328125,-0.121002197265625
1761501975291147800,6.943147705078125,-0.3024139404296875,-0.241455078125,-0.1441192626953125
1761501975301203700,6.95320361328125,-0.35906982421875,-0.378814697265625,-0.152984619140625
1761501975311259600,6.963259765625,-0.392913818359375,-0.4618072509765625,-0.0800323486328125
1761501975321316600,6.973316650390625,-0.3997955322265625,-0.464813232421875,0.017852783203125
1761501975331372800,6.983372802734375,-0.36138916015625,-0.458465576171875,0.1121368408203125
1761501975341428700,6.9934287109375,-0.2459716796875,-0.501556396484375,0.1818389892578125
1761501975351484700,7.003484619140625,-0.0915374755859375,-0.5472259521484375,0.1668243408203125
1761501975361540900,7.013540771484375,-0.0145721435546875,-0.6621551513671875,0.1239471435546875
1761501975371597800,7.023597900390625,0.0445098876953125,-0.9559326171875,0.0923309326171875
1761501975381653800,7.03365380859375,0.019805908203125,-1.52996826171875,-0.00067138671875
1761501975391709700,7.043709716796875,-0.0860595703125,-2.280181884765625,-0.1230621337890625
1761501975401766000,7.053765869140625,-0.3390350341796875,-2.9399566650390625,-0.20648193359375
1761501975411821600,7.063821533203125,-0.6194305419921875,-3.2326812744140625,-0.19989013671875
1761501975421878800,7.073878662109375,-0.598724365234375,-3.3062896728515625,-0.137939453125
1761501975431934700,7.083934814453125,-0.4544830322265625,-3.177215576171875,-0.0896759033203125
1761501975441990700,7.09399072265625,-0.25152587890625,-2.9201202392578125,-0.13006591796875
1761501975452046600,7.104046630859375,-0.0515289306640625,-2.812713623046875,-0.3003692626953125
1761501975462102500,7.1141025390625,-0.029327392578125,-2.7795257568359375,-0.4153900146484375
1761501975472158700,7.12415869140625,-0.252899169921875,-2.7150726318359375,-0.441802978515625
1761501975482215700,7.134215576171875,-0.370269775390625,-2.7897491455078125,-0.50848388671875
1761501975492271600,7.144271728515625,-0.3861846923828125,-2.94976806640625,-0.5312957763671875
1761501975502327800,7.154327880859375,-0.390045166015625,-3.0378570556640625,-0.4151153564453125
1761501975512383700,7.1643837890625,-0.42852783203125,-2.976470947265625,-0.2980194091796875
1761501975522439700,7.174439697265625,-0.47393798828125,-2.7523651123046875,-0.2119293212890625
1761501975532496600,7.18449658203125,-0.4716033935546875,-2.418731689453125,-0.103118896484375
1761501975542552800,7.194552734375,-0.4166107177734375,-1.9725189208984375,-0.0127410888671875
1761501975552608800,7.20460888671875,-0.365234375,-1.50262451171875,0.029754638671875
1761501975562664700,7.214664794921875,-0.29638671875,-1.0263824462890625,0.022186279296875
1761501975572720600,7.224720703125,-0.192047119140625,-0.60491943359375,-0.0097503662109375
1761501975582777900,7.23477783203125,-0.1011505126953125,-0.30340576171875,-0.025299072265625
1761501975592833800,7.244833740234375,-0.0012054443359375,-0.132904052734375,-0.0459442138671875
1761501975602889700,7.2548896484375,0.0615234375,0.076568603515625,-0.09222412109375
1761501975612946000,7.26494580078125,0.13671875,0.3090057373046875,-0.1403045654296875
1761501975623001900,7.275001953125,0.1344146728515625,0.4828643798828125,-0.125640869140625
1761501975633058800,7.285058837890625,0.1073455810546875,0.569244384765625,-0.0420074462890625
1761501975643114800,7.29511474609375,0.13397216796875,0.5967864990234375,0.0543212890625
1761501975653171000,7.3051708984375,0.166748046875,0.5817108154296875,0.12738037109375
1761501975663226600,7.3152265625,0.131927490234375,0.5748291015625,0.16827392578125
1761501975673282600,7.325282470703125,0.0610504150390625,0.546295166015625,0.1812286376953125
1761501975683339500,7.335339599609375,-0.0344390869140625,0.452789306640625,0.1563720703125
1761501975693395700,7.345395751953125,-0.1451416015625,0.3492584228515625,0.11798095703125
1761501975703451600,7.35545166015625,-0.1767120361328125,0.2547760009765625,0.0702667236328125
1761501975713507600,7.365507568359375,-0.196990966796875,0.2065582275390625,0.039764404296875
1761501975723563800,7.375563720703125,-0.2077789306640625,0.1253662109375,0.01751708984375
1761501975733619700,7.38561962890625,-0.184967041015625,0.0420074462890625,-0.0185394287109375
1761501975743676700,7.3956767578125,-0.173187255859375,-0.0113067626953125,-0.0669708251953125
1761501975753732600,7.405732666015625,-0.1630096435546875,-0.060882568359375,-0.11822509765625
1761501975763788800,7.415788818359375,-0.1511077880859375,-0.0885772705078125,-0.1647491455078125
1761501975773844700,7.4258447265625,-0.1489715576171875,-0.0966644287109375,-0.1805267333984375
1761501975783900700,7.435900634765625,-0.1686248779296875,-0.11212158203125,-0.1657867431640625
1761501975793957600,7.44595751953125,-0.2016448974609375,-0.1338043212890625,-0.1347198486328125
1761501975804013800,7.456013916015625,-0.2743682861328125,-0.159820556640625,-0.04034423828125
1761501975814069800,7.46606982421875,-0.29608154296875,-0.1932220458984375,0.055419921875
1761501975824125700,7.476125732421875,-0.207550048828125,-0.236846923828125,0.07012939453125
1761501975834182000,7.486181884765625,-0.1168975830078125,-0.254730224609375,0.0523681640625
1761501975844238800,7.49623876953125,-0.0766143798828125,-0.2584381103515625,0.0408477783203125
1761501975854294800,7.506294677734375,-0.0968780517578125,-0.267486572265625,0.0379180908203125
1761501975864350700,7.516350830078125,-0.1544342041015625,-0.331939697265625,0.0636749267578125
1761501975874407000,7.526406982421875,-0.1341094970703125,-0.5039825439453125,0.0457305908203125
1761501975884462600,7.536462646484375,-0.0915985107421875,-0.90155029296875,0.0117950439453125
1761501975894519800,7.546519775390625,-0.125518798828125,-1.5903778076171875,0.0472869873046875
1761501975904575700,7.55657568359375,-0.405029296875,-2.5156097412109375,-0.093414306640625
1761501975914631700,7.566631591796875,-0.671173095703125,-3.1413116455078125,-0.4459686279296875
1761501975924687600,7.5766875,-0.9485321044921875,-3.4833831787109375,-0.69305419921875
1761501975934743600,7.58674365234375,-1.1485748291015625,-3.8307952880859375,-0.70404052734375
1761501975944799700,7.5967998046875,-1.1542816162109375,-3.918304443359375,-0.6802825927734375
1761501975954856700,7.606856689453125,-1.144622802734375,-3.72247314453125,-0.6433868408203125
1761501975964912600,7.61691259765625,-0.977203369140625,-3.4470367431640625,-0.6438140869140625
1761501975974968600,7.626968505859375,-0.7353668212890625,-3.109527587890625,-0.6926727294921875
1761501975985024800,7.637024658203125,-0.6007537841796875,-2.7231597900390625,-0.616363525390625
1761501975995080700,7.647080810546875,-0.5966644287109375,-2.5133209228515625,-0.4484100341796875
1761501976005133600,7.657133544921875,-0.564361572265625,-2.4437255859375,-0.2744903564453125
1761501976015189800,7.667189697265625,-0.4831695556640625,-2.354095458984375,-0.2087554931640625
1761501976025245700,7.67724560546875,-0.28436279296875,-2.18731689453125,-0.2271270751953125
1761501976035301600,7.687301513671875,-0.081573486328125,-1.9282073974609375,-0.2691650390625
1761501976045357800,7.69735791015625,0.0250396728515625,-1.645751953125,-0.260986328125
1761501976055414800,7.707414794921875,0.0334625244140625,-1.34588623046875,-0.2278900146484375
1761501976065470700,7.717470703125,-0.01434326171875,-1.0350189208984375,-0.226531982421875
1761501976075526700,7.727526611328125,-0.074615478515625,-0.7404022216796875,-0.2428741455078125
1761501976085582800,7.737582763671875,-0.056365966796875,-0.474578857421875,-0.264862060546875
1761501976095638500,7.747638427734375,-0.0473480224609375,-0.2585296630859375,-0.2443695068359375
1761501976105694500,7.757694580078125,-0.0305023193359375,-0.07958984375,-0.18975830078125
1761501976115751700,7.767751708984375,-0.0555877685546875,0.0553436279296875,-0.133087158203125
1761501976125807600,7.7778076171875,-0.061187744140625,0.1356201171875,-0.0864410400390625
1761501976135863600,7.787863525390625,-0.105865478515625,0.206573486328125,-0.044891357421875
1761501976145919500,7.79791943359375,-0.2102508544921875,0.2943267822265625,0.065155029296875
1761501976155975700,7.8079755859375,-0.1918182373046875,0.3668365478515625,0.124603271484375
1761501976166032600,7.81803271484375,-0.0814971923828125,0.4102630615234375,0.08880615234375
1761501976176088600,7.828088623046875,0.0103759765625,0.431976318359375,0.0652313232421875
1761501976186144500,7.83814453125,0.026123046875,0.4199066162109375,0.070343017578125
1761501976196200700,7.84820068359375,0.0457763671875,0.3869171142578125,0.0830078125
1761501976206256600,7.858256591796875,0.030670166015625,0.3400726318359375,0.1094512939453125
1761501976216313600,7.868313720703125,-0.011749267578125,0.326202392578125,0.143798828125
1761501976226369500,7.87836962890625,-0.075714111328125,0.317169189453125,0.140228271484375
1761501976236425700,7.88842578125,-0.1125030517578125,0.2968902587890625,0.10302734375
1761501976246481700,7.898481689453125,-0.1279449462890625,0.2850799560546875,0.1144866943359375
1761501976256537600,7.90853759765625,-0.142059326171875,0.2614593505859375,0.105133056640625
1761501976266593800,7.91859375,-0.0681610107421875,0.1624603271484375,0.035552978515625
1761501976276650800,7.928650634765625,0.0098724365234375,0.033416748046875,-0.014984130859375
1761501976286706700,7.938706787109375,0.072479248046875,-0.08868408203125,-0.0448760986328125
1761501976296762600,7.9487626953125,0.1307525634765625,-0.218963623046875,-0.071136474609375
1761501976306818800,7.95881884765625,0.0988006591796875,-0.3187713623046875,-0.08135986328125
1761501976316874800,7.968874755859375,-0.0074920654296875,-0.36260986328125,-0.032196044921875
1761501976326931700,7.978931640625,-0.02691650390625,-0.517333984375,0.0017242431640625
1761501976336987600,7.988987548828125,-0.08929443359375,-0.7562255859375,0.078155517578125
1761501976347043600,7.999043701171875,-0.307708740234375,-1.0344390869140625,0.1645355224609375
1761501976357099500,8.009099609375,-0.4593963623046875,-1.4040679931640625,0.1850738525390625
1761501976367155500,8.019155517578126,-0.6072845458984375,-1.7943878173828125,0.1529388427734375
1761501976377212400,8.02921240234375,-0.8867340087890625,-2.1260528564453125,-0.04669189453125
1761501976387268600,8.0392685546875,-1.256988525390625,-2.3799591064453125,-0.298492431640625
1761501976397324500,8.049324462890626,-1.5507049560546875,-2.264312744140625,-0.545318603515625
1761501976407380500,8.05938037109375,-1.76910400390625,-1.987152099609375,-0.6325225830078125
1761501976417436700,8.069436767578125,-1.82061767578125,-1.884979248046875,-0.5407562255859375
1761501976427492600,8.07949267578125,-1.667938232421875,-1.891754150390625,-0.3535919189453125
1761501976437549600,8.089549560546875,-1.54083251953125,-1.8619384765625,-0.1781463623046875
1761501976447605500,8.09960546875,-1.410614013671875,-1.7962799072265625,-0.085052490234375
1761501976457661700,8.10966162109375,-1.2583465576171875,-1.7151336669921875,-0.0788726806640625
1761501976467717600,8.119717529296874,-1.1555633544921875,-1.5897216796875,-0.17584228515625
1761501976477773600,8.129773681640625,-1.0071258544921875,-1.4656524658203125,-0.30560302734375
1761501976487830500,8.13983056640625,-0.922943115234375,-1.350738525390625,-0.3960418701171875
1761501976497886700,8.14988671875,-1.048736572265625,-1.260528564453125,-0.4216461181640625
1761501976507942700,8.159942626953125,-1.056671142578125,-1.16571044921875,-0.4228668212890625
1761501976517998600,8.16999853515625,-0.9315643310546875,-1.083404541015625,-0.45257568359375
1761501976528054800,8.1800546875,-0.7942657470703125,-0.97442626953125,-0.420318603515625
1761501976538111700,8.19011181640625,-0.7392730712890625,-0.8709259033203125,-0.3227081298828125
1761501976548167700,8.200167724609376,-0.6516876220703125,-0.7447357177734375,-0.2366943359375
1761501976558223600,8.2102236328125,-0.551971435546875,-0.6118316650390625,-0.161224365234375
1761501976568279800,8.22027978515625,-0.4535369873046875,-0.474365234375,-0.09771728515625
1761501976578335500,8.23033544921875,-0.3165435791015625,-0.3370819091796875,0.001220703125
1761501976588391400,8.240391357421874,-0.3646697998046875,-0.32196044921875,0.045989990234375
1761501976598448600,8.25044873046875,-0.462646484375,-0.3356781005859375,0.044158935546875
1761501976608504600,8.260504638671875,-0.4877166748046875,-0.243927001953125,0.0609283447265625
1761501976618560500,8.270560546875,-0.5487213134765625,-0.198089599609375,0.0233154296875
1761501976628616400,8.280616455078125,-0.5811309814453125,-0.16790771484375,-0.0337371826171875
1761501976638672600,8.290672607421875,-0.5679168701171875,-0.1783447265625,-0.0747222900390625
1761501976648729600,8.3007294921875,-0.5080108642578125,-0.246856689453125,-0.0758514404296875
1761501976658785500,8.31078564453125,-0.4383087158203125,-0.3270721435546875,-0.03887939453125
1761501976668841700,8.320841796875,-0.44244384765625,-0.3820953369140625,0.02276611328125
1761501976678897700,8.330897705078126,-0.428619384765625,-0.396942138671875,0.07537841796875
1761501976688953600,8.34095361328125,-0.37164306640625,-0.41180419921875,0.095489501953125
1761501976699009500,8.351009521484375,-0.406982421875,-0.4878997802734375,0.0601654052734375
1761501976709066800,8.361066650390624,-0.480255126953125,-0.5462188720703125,0.0211029052734375
1761501976719122700,8.371122802734375,-0.5521697998046875,-0.552581787109375,0.0058441162109375
1761501976729178600,8.3811787109375,-0.59613037109375,-0.5686187744140625,-0.01580810546875
1761501976739234600,8.391234619140626,-0.55841064453125,-0.6190032958984375,-0.0444793701171875
1761501976749290800,8.401290771484375,-0.472564697265625,-0.6962890625,-0.10980224609375
1761501976759347700,8.41134765625,-0.523193359375,-0.722137451171875,-0.197540283203125
1761501976769403600,8.421403564453126,-0.7099151611328125,-0.7101593017578125,-0.2988433837890625
1761501976779459800,8.4314599609375,-0.8525238037109375,-0.6776123046875,-0.3772125244140625
1761501976789515800,8.441515869140625,-1.05682373046875,-0.5992431640625,-0.370758056640625
1761501976799571500,8.451571533203126,-1.2381134033203125,-0.5421142578125,-0.3085174560546875
1761501976809628700,8.461628662109375,-1.2740478515625,-0.4605255126953125,-0.1455230712890625
1761501976819684900,8.471684814453125,-1.3196563720703125,-0.4397735595703125,-0.0370635986328125
1761501976829740500,8.481740478515626,-1.208526611328125,-0.48834228515625,-0.001495361328125
1761501976839796500,8.49179638671875,-0.998138427734375,-0.500701904296875,-0.03045654296875
1761501976849852700,8.501852783203125,-0.88861083984375,-0.4611053466796875,-0.1028594970703125
1761501976859908600,8.51190869140625,-0.8265380859375,-0.438690185546875,-0.1552734375
1761501976869965600,8.521965576171874,-0.7634124755859375,-0.4535980224609375,-0.163726806640625
1761501976880021500,8.532021484375,-0.7505950927734375,-0.480499267578125,-0.1814727783203125
1761501976890077700,8.54207763671875,-0.774078369140625,-0.47113037109375,-0.189483642578125
1761501976900133600,8.552133544921874,-0.75762939453125,-0.4345550537109375,-0.1667327880859375
1761501976910189600,8.562189453125,-0.7642669677734375,-0.392303466796875,-0.1174774169921875
1761501976920246500,8.57224658203125,-0.814910888671875,-0.3498992919921875,-0.0499725341796875
1761501976930302700,8.582302734375,-0.80780029296875,-0.3002777099609375,0.017242431640625
1761501976940358700,8.592358642578125,-0.8699798583984375,-0.2626190185546875,0.0756683349609375
1761501976950414600,8.60241455078125,-0.9454498291015625,-0.2839813232421875,0.099700927734375
1761501976960470800,8.612470703125,-1.0210418701171875,-0.32244873046875,0.0668182373046875
1761501976970526700,8.622526611328125,-1.0204925537109375,-0.3334197998046875,0.026641845703125
1761501976980583700,8.632583740234375,-1.0187530517578125,-0.355712890625,-0.0153045654296875
1761501976990639600,8.6426396484375,-1.0182647705078125,-0.36663818359375,-0.052398681640625
1761501977000695800,8.65269580078125,-0.9772796630859375,-0.3675079345703125,-0.0652923583984375
1761501977010752800,8.662752685546875,-0.978240966796875,-0.3496246337890625,-0.049041748046875
1761501977020808700,8.67280859375,-0.993011474609375,-0.3372802734375,-0.0216522216796875
1761501977030865700,8.68286572265625,-0.968780517578125,-0.3681182861328125,0.01947021484375
1761501977040921600,8.692921630859376,-0.9222564697265625,-0.391815185546875,0.04168701171875
1761501977050977800,8.702977783203124,-0.8926239013671875,-0.396881103515625,0.0225372314453125
1761501977061033700,8.71303369140625,-0.88922119140625,-0.3930206298828125,-0.011688232421875
1761501977071089700,8.723089599609375,-0.883392333984375,-0.3809051513671875,-0.0345916748046875
1761501977081146600,8.733146728515624,-0.87481689453125,-0.37005615234375,-0.0515594482421875
1761501977091202800,8.743202880859375,-0.9089202880859375,-0.3721923828125,-0.0650177001953125
1761501977101258800,8.7532587890625,-0.9519500732421875,-0.3743438720703125,-0.0636138916015625
1761501977111314700,8.763314697265624,-0.9640655517578125,-0.3617706298828125,-0.052001953125
1761501977121371000,8.773370849609375,-0.96044921875,-0.346710205078125,-0.039703369140625
1761501977131426800,8.7834267578125,-0.97918701171875,-0.322723388671875,-0.0225830078125
1761501977141483800,8.79348388671875,-0.9881744384765625,-0.315521240234375,-0.0025482177734375
1761501977151539700,8.803539794921875,-0.9825439453125,-0.3126678466796875,0.0125579833984375
1761501977161596000,8.813595947265625,-0.9954833984375,-0.2905426025390625,0.025634765625
1761501977171651600,8.823651611328126,-0.9998626708984375,-0.2834014892578125,0.044525146484375
1761501977181707500,8.83370751953125,-0.9889068603515625,-0.279510498046875,0.0429229736328125
1761501977191764500,8.843764404296875,-1.001861572265625,-0.26995849609375,0.02899169921875
1761501977201820700,8.853820556640626,-1.009124755859375,-0.2667236328125,0.0263214111328125
1761501977211876600,8.863876708984375,-1.0138702392578125,-0.261505126953125,0.0153656005859375
1761501977221932500,8.8739326171875,-1.010406494140625,-0.2493896484375,0.007049560546875
1761501977231988700,8.88398876953125,-0.9997100830078125,-0.259735107421875,0.0003204345703125
1761501977242045700,8.894045654296875,-0.96575927734375,-0.2688140869140625,0.002899169921875
1761501977252101600,8.9041015625,-0.961944580078125,-0.2680816650390625,0.004974365234375
1761501977262155800,8.91415576171875,-0.972259521484375,-0.2737579345703125,-0.0008392333984375
1761501977272211700,8.924211669921876,-0.9531402587890625,-0.27337646484375,-0.008636474609375
1761501977282268000,8.934267822265625,-0.9567718505859375,-0.2666015625,-0.0164794921875
1761501977292323800,8.94432373046875,-0.96734619140625,-0.2602691650390625,-0.0189208984375
1761501977302380800,8.954380859375,-0.99798583984375,-0.2495574951171875,-0.0131988525390625
1761501977312436700,8.964436767578125,-1.0203094482421875,-0.2337646484375,-0.0013275146484375
1761501977322492700,8.97449267578125,-1.0089874267578125,-0.2173919677734375,0.0003814697265625
1761501977332548600,8.984548583984376,-1.0048065185546875,-0.2290802001953125,-0.0060577392578125
1761501977342604500,8.9946044921875,-1.0189971923828125,-0.235809326171875,-0.0081939697265625
1761501977352660700,9.00466064453125,-0.989410400390625,-0.22906494140625,-0.0139923095703125
1761501977362717700,9.0147177734375,-0.9547271728515625,-0.2229766845703125,-0.017181396484375
1761501977372773600,9.024773681640625,-0.9395599365234375,-0.2215576171875,-0.01849365234375
1761501977382829600,9.03482958984375,-0.930511474609375,-0.22491455078125,-0.0119781494140625
1761501977392885800,9.0448857421875,-0.9217681884765625,-0.2337188720703125,-0.0039825439453125
1761501977402941700,9.054941650390624,-0.9136962890625,-0.2435150146484375,0.0068359375
1761501977412998700,9.06499853515625,-0.9017181396484375,-0.2486419677734375,0.014312744140625
1761501977423054600,9.0750546875,-0.885467529296875,-0.2600250244140625,0.0125274658203125
1761501977433110800,9.08511083984375,-0.86029052734375,-0.2719268798828125,0.00897216796875
1761501977443166700,9.095166748046875,-0.8668212890625,-0.26568603515625,0.0094146728515625
1761501977453222700,9.10522265625,-0.871490478515625,-0.263092041015625,0.0146484375
1761501977463279600,9.115279541015624,-0.8680877685546875,-0.266021728515625,0.0137786865234375
1761501977473335800,9.125335693359375,-0.9041900634765625,-0.2583770751953125,0.0012664794921875
1761501977483391700,9.135391845703126,-0.9528656005859375,-0.245361328125,-0.0086212158203125
1761501977493447700,9.14544775390625,-0.9720306396484375,-0.2364349365234375,-0.0060272216796875
1761501977503504000,9.15550390625,-0.9609832763671875,-0.22784423828125,0.003448486328125
1761501977513559800,9.165559814453125,-0.952056884765625,-0.2290191650390625,0.0077362060546875
1761501977523616800,9.17561669921875,-0.9559783935546875,-0.23046875,0.016510009765625
1761501977533672700,9.185672607421875,-0.9575042724609375,-0.2418975830078125,0.0215606689453125
1761501977543729000,9.19572900390625,-0.96343994140625,-0.2601318359375,0.03271484375
1761501977553784600,9.20578466796875,-0.984161376953125,-0.282867431640625,0.0544281005859375
1761501977563840500,9.215840576171875,-1.012298583984375,-0.286529541015625,0.0688018798828125
1761501977573897700,9.225897705078125,-0.99237060546875,-0.2945098876953125,0.0523834228515625
1761501977583953700,9.23595361328125,-0.948760986328125,-0.3070831298828125,0.0157928466796875
1761501977594009600,9.246009521484375,-0.9235076904296875,-0.3069610595703125,-0.0157012939453125
1761501977604065500,9.2560654296875,-0.9098052978515625,-0.305938720703125,-0.0240631103515625
1761501977614121700,9.266121826171876,-0.89349365234375,-0.31292724609375,-0.020416259765625
1761501977624178700,9.2761787109375,-0.899871826171875,-0.322784423828125,-0.0180206298828125
1761501977634234600,9.286234619140625,-0.9200439453125,-0.3292083740234375,-0.01123046875
1761501977644290600,9.29629052734375,-0.915069580078125,-0.329925537109375,-0.00091552734375
1761501977654346800,9.3063466796875,-0.9098358154296875,-0.328887939453125,0.00091552734375
1761501977664402700,9.316402587890625,-0.906707763671875,-0.33306884765625,0.003936767578125
1761501977674459600,9.326459716796874,-0.909759521484375,-0.3424072265625,0.0078277587890625
1761501977684516600,9.3365166015625,-0.9248809814453125,-0.3454132080078125,0.011199951171875
1761501977694572800,9.34657275390625,-0.9205169677734375,-0.338653564453125,0.0108184814453125
1761501977704628700,9.356628662109374,-0.911041259765625,-0.342498779296875,0.00421142578125
1761501977714684700,9.3666845703125,-0.9188079833984375,-0.3558807373046875,0.001739501953125
1761501977724740900,9.376740966796875,-0.9217071533203125,-0.36993408203125,0.002349853515625
1761501977734797800,9.3867978515625,-0.9261016845703125,-0.365325927734375,0.005828857421875
1761501977744853800,9.396853759765625,-0.9300994873046875,-0.356170654296875,0.006927490234375
1761501977754909700,9.40690966796875,-0.921173095703125,-0.360137939453125,0.0055084228515625
1761501977764966000,9.4169658203125,-0.9015350341796875,-0.3748626708984375,0.0067596435546875
1761501977775021800,9.427021728515625,-0.888763427734375,-0.3840179443359375,0.0030670166015625
1761501977785078800,9.437078857421875,-0.8915252685546875,-0.3818817138671875,0.0033721923828125
1761501977795134700,9.447134765625,-0.9037628173828125,-0.3811492919921875,-0.0002899169921875
1761501977805191000,9.45719091796875,-0.9148712158203125,-0.38568115234375,-0.0091400146484375
1761501977815246800,9.467246826171875,-0.92388916015625,-0.386627197265625,-0.011505126953125
1761501977825302500,9.477302490234376,-0.936676025390625,-0.3759765625,-0.0089111328125
1761501977835358700,9.487358642578124,-0.9593505859375,-0.363037109375,-0.004180908203125
1761501977845415700,9.497415771484375,-0.9673309326171875,-0.3546295166015625,0.0074005126953125
1761501977855471600,9.5074716796875,-0.9537200927734375,-0.35308837890625,0.014434814453125
1761501977865527600,9.517527587890624,-0.94464111328125,-0.34765625,0.011749267578125
1761501977875583700,9.527583740234375,-0.9434051513671875,-0.348724365234375,0.0146942138671875
1761501977885639700,9.5376396484375,-0.9304962158203125,-0.3557281494140625,0.021392822265625
1761501977895696600,9.547696533203125,-0.924591064453125,-0.3626861572265625,0.0351104736328125
1761501977905752600,9.557752685546875,-0.930389404296875,-0.3647918701171875,0.0446929931640625
1761501977915808800,9.567808837890626,-0.9329833984375,-0.366790771484375,0.0503692626953125
1761501977925864700,9.57786474609375,-0.916656494140625,-0.3759765625,0.0448760986328125
1761501977935920600,9.587920654296875,-0.89788818359375,-0.3709564208984375,0.0303497314453125
1761501977945977600,9.5979775390625,-0.898193359375,-0.363128662109375,0.0120849609375
1761501977956033800,9.60803369140625,-0.903900146484375,-0.360931396484375,0.003204345703125
1761501977966089700,9.61808984375,-0.9227752685546875,-0.369293212890625,0.0053863525390625
1761501977976145700,9.628145751953125,-0.947509765625,-0.372528076171875,0.00970458984375
1761501977986201900,9.638201904296874,-0.961181640625,-0.3696136474609375,0.0170440673828125
1761501977996258800,9.6482587890625,-0.952423095703125,-0.367584228515625,0.0279541015625
1761501978006314000,9.65831396484375,-0.9412384033203125,-0.3649444580078125,0.0348358154296875
1761501978016370200,9.6683701171875,-0.929107666015625,-0.3676300048828125,0.03515625
1761501978026426000,9.678426025390625,-0.9110107421875,-0.3797454833984375,0.0325927734375
1761501978036482000,9.68848193359375,-0.895172119140625,-0.390045166015625,0.026947021484375
1761501978046538200,9.698538330078126,-0.8820343017578125,-0.3928070068359375,0.0183258056640625
1761501978056595200,9.70859521484375,-0.874176025390625,-0.39605712890625,0.01409912109375
1761501978066651100,9.718651123046875,-0.8744659423828125,-0.3981781005859375,0.01202392578125
1761501978076707000,9.72870703125,-0.8856964111328125,-0.3950042724609375,0.0148468017578125
1761501978086763300,9.73876318359375,-0.893341064453125,-0.388031005859375,0.0189971923828125
1761501978096819200,9.748819091796875,-0.8928070068359375,-0.3844757080078125,0.0189056396484375
1761501978106876200,9.758876220703126,-0.9092254638671875,-0.374664306640625,0.0221710205078125
1761501978116932000,9.76893212890625,-0.9349365234375,-0.37506103515625,0.0276641845703125
1761501978126988300,9.77898828125,-0.9413604736328125,-0.37261962890625,0.0308074951171875
1761501978137044200,9.789044189453126,-0.928985595703125,-0.3665771484375,0.0293121337890625
1761501978147100200,9.79910009765625,-0.91302490234375,-0.3711395263671875,0.0240325927734375
1761501978157157000,9.8091572265625,-0.9139251708984375,-0.37176513671875,0.02288818359375
1761501978167213300,9.81921337890625,-0.923675537109375,-0.3753509521484375,0.025360107421875
1761501978177269200,9.829269287109375,-0.9180908203125,-0.382171630859375,0.022857666015625
1761501978187325200,9.8393251953125,-0.919921875,-0.37835693359375,0.0136260986328125
1761501978197381000,9.849381103515626,-0.9188232421875,-0.3653564453125,0.0107269287109375
1761501978207437000,9.85943701171875,-0.9373321533203125,-0.3591766357421875,0.018768310546875
1761501978217494000,9.869493896484375,-0.9513092041015625,-0.363922119140625,0.029815673828125
1761501978227550000,9.879550048828126,-0.9488372802734375,-0.3696441650390625,0.04052734375
1761501978237606100,9.889606201171874,-0.95013427734375,-0.3697052001953125,0.0422515869140625
1761501978247662000,9.899662109375,-0.940032958984375,-0.3686065673828125,0.0433807373046875
1761501978257718000,9.909718017578125,-0.9292449951171875,-0.37237548828125,0.0457000732421875
1761501978267775000,9.91977490234375,-0.9364166259765625,-0.37274169921875,0.05010986328125
1761501978277831200,9.9298310546875,-0.9360198974609375,-0.3746490478515625,0.050262451171875
1761501978287887000,9.93988720703125,-0.921844482421875,-0.3804473876953125,0.0416412353515625
1761501978297943000,9.949943115234374,-0.9218902587890625,-0.37908935546875,0.0336456298828125
1761501978307999200,9.959999267578125,-0.9068756103515625,-0.3737640380859375,0.0293121337890625
1761501978318056200,9.97005615234375,-0.861846923828125,-0.357147216796875,0.034637451171875
1761501978328112000,9.980112060546874,-0.94183349609375,-0.3607177734375,0.0528411865234375
1761501978338168000,9.99016796875,-0.95013427734375,-0.37506103515625,0.066314697265625
1761501978348224300,10.000224365234375,-0.958221435546875,-0.38690185546875,0.0662078857421875
1761501978358280200,10.0102802734375,-0.9603424072265625,-0.3769989013671875,0.07122802734375
1761501978368337200,10.020337158203125,-0.942108154296875,-0.3859710693359375,0.06121826171875
1761501978378393000,10.03039306640625,-0.910614013671875,-0.3957366943359375,0.04931640625
1761501978388449300,10.04044921875,-0.8818359375,-0.3828887939453125,0.0428924560546875
