time,seconds_elapsed,z,y,x
1761501968462991600,0.11499169921875,0.32219957151114936,-0.5293430233001709,-0.6560952799044549
1761501968473047800,0.1250478515625,0.44555473302304743,-0.3033481560468674,-0.5784405970115214
1761501968483103500,0.135103515625,0.5118126273065805,-0.12488427077531813,-0.45154743409920484
1761501968493160700,0.14516064453125,0.5481748572811485,0.053117257681488984,-0.34450207727737725
1761501968503216600,0.155216552734375,0.5708814868688583,0.2588748080700636,-0.29234917111601677
1761501968513272600,0.1652724609375,0.5447868222780525,0.45702071441113945,-0.28027305847294626
1761501968523328500,0.17532861328125,0.5072603708297014,0.5035650234431028,-0.3029057460416108
1761501968533384400,0.185384521484375,0.4849428866900503,0.502027730873227,-0.304186396969296
1761501968543441400,0.19544140625,0.4629765540756285,0.4839367783874273,-0.29684326766487207
1761501968553497600,0.20549755859375,0.4584703286975622,0.45193128231763835,-0.3021417393991723
1761501968563553500,0.215553466796875,0.4761731586486101,0.42314474829435345,-0.33612372317370026
1761501968573609500,0.225609375,0.5151790349997579,0.4849357262969017,-0.3607120383221656
1761501968583665700,0.235665771484375,0.4137826073177159,0.6727396868437528,-0.37676165770608927
1761501968593722600,0.24572265625,0.3599858429394662,0.8044640327721834,-0.3626328137842938
1761501968603778600,0.255778564453125,0.4177139554172754,0.9125742788791656,-0.3398202030714601
1761501968613834500,0.26583447265625,0.5323056724980473,1.0167448474496603,-0.3021517128039151
1761501968623890700,0.275890625,0.5372659252539277,1.0619488477885723,-0.21465101440753787
1761501968633946600,0.285946533203125,0.4947670922204852,0.968227192518115,-0.18171934340354054
1761501968644003600,0.296003662109375,0.36026962831690906,0.7737345479875802,-0.23621607274468986
1761501968654059800,0.306059814453125,0.2685767023950815,0.6128530811578035,-0.32010574103705586
1761501968664115700,0.31611572265625,0.3137966309554875,0.4547942705333233,-0.4764067482087761
1761501968674171600,0.326171630859375,0.6567927606493235,0.30844986310005185,-0.5291732927564531
1761501968684227600,0.3362275390625,0.7313802379913628,0.19135785363614558,-0.443784289284423
1761501968694284800,0.346284912109375,0.2596697578400373,-0.17949556640684602,-0.352174730797112
1761501968704340700,0.3563408203125,-0.0386805899195373,-0.5710580124795437,-0.18159597275219858
1761501968714396700,0.366396728515625,-0.18765841459631918,-0.7136386834651232,-0.025342677179723976
1761501968724452600,0.37645263671875,-0.4745400044888258,-0.6192997730791568,0.0703260205052793
1761501968734508500,0.386508544921875,-0.8110117008499801,-0.27164719588160513,0.06823989841360599
1761501968744565800,0.396565673828125,-1.1243138262867927,0.2353407877475023,0.008920169362798333
1761501968754621700,0.40662158203125,-1.2049934830240905,0.7035872450500726,0.03724336019065231
1761501968764677600,0.416677734375,-0.8731032692342996,0.9195470405012368,0.17437358375061301
1761501968774733600,0.426733642578125,-0.19292787943184375,0.8507634271323681,0.290569594222866
1761501968784789500,0.43678955078125,0.30407837001755833,0.5794482396841049,0.4509858546936884
1761501968794846500,0.446846435546875,0.38388533557355403,0.2033294464588165,0.6171626149199902
1761501968804902700,0.456902587890625,0.2856166845232248,-0.14353285714387892,0.735211998173967
1761501968814958600,0.46695849609375,0.17383315673097968,-0.5195248091191053,0.7721440639257431
1761501968825014500,0.4770146484375,-0.054014498782157895,-0.7933078479856253,0.6718051824726164
1761501968835070700,0.48707080078125,-0.26985212915837764,-0.8024684750407933,0.4953932612948119
1761501968845127700,0.497127685546875,-0.18568302287012337,-0.7671411410719156,0.303210099283047
1761501968855183600,0.50718359375,-0.06923764074668287,-0.6299409940809011,0.17333203880842774
1761501968865239600,0.517239501953125,0.1831219402104616,-0.45848786435425276,0.07326547149065882
1761501968875295700,0.527295654296875,0.4422141904234886,-0.4152928657501936,0.05972100332807749
1761501968885351700,0.5373515625,0.6685925040364266,-0.5444137511819601,0.2036161544457078
1761501968895408600,0.54740869140625,0.505216882303357,-0.6554682340472936,0.49695086600035426
1761501968905464600,0.557464599609375,0.031871640557050704,-0.7304957102417945,0.7195275953732431
1761501968915520800,0.567520751953125,-0.17884966971874236,-0.8417308103710412,0.7606611314028501
1761501968925576700,0.57757666015625,-0.27449425587579607,-0.8846037374138832,0.7414677706331014
1761501968935632600,0.587632568359375,-0.521927486346662,-0.8441653440415858,0.7938052761137485
1761501968945689600,0.597689697265625,-0.7014560782402753,-0.9613520460516214,0.8991850743435322
1761501968955745800,0.607745849609375,-0.764911774584651,-1.1525649382591248,1.0176281330902128
1761501968965801700,0.6178017578125,-0.7052412958674132,-1.1027572435170412,1.054383819361776
1761501968975857700,0.627857666015625,-0.5032118260912597,-0.7677601497530937,0.9721667239241302
1761501968985913600,0.63791357421875,0.07636354710385203,-0.45589609429538247,0.8090716726981103
1761501968995968800,0.64796875,0.4784592237591743,-0.16925182029008864,0.5837133497826754
1761501969006025700,0.658025634765625,0.7348050978735089,0.11582944218218326,0.2940776754090562
1761501969016082000,0.66808203125,0.8923995058566331,0.24372516973316669,0.021651421446353195
1761501969026137900,0.678137939453125,0.893655789528042,0.26154841119349004,-0.17796934322025626
1761501969036193800,0.68819384765625,0.7698843023002148,0.304609554284811,-0.31336430395282805
1761501969046250000,0.69825,0.5274626163810491,0.3400982162952423,-0.27727373052649196
1761501969056307000,0.708306884765625,0.301948226121068,0.43254444480240345,-0.07111424827352165
1761501969066363000,0.71836279296875,0.20033961699306962,0.5791185693383216,0.18440569641068577
1761501969076418600,0.72841845703125,0.3428592054411769,0.70642685239017,0.3458556473108008
1761501969086474800,0.738474853515625,0.601841273277998,0.8005179254949092,0.3939993908960372
1761501969096530700,0.74853076171875,0.6540770719498396,0.8422218087583779,0.4216812516130507
1761501969106587600,0.758587646484375,0.6083535777814686,0.9114578420698642,0.41977552758958186
1761501969116643600,0.7686435546875,0.6494914977252483,0.9721861592769622,0.3878800312329083
1761501969126699800,0.77869970703125,0.6298354878798127,1.096813824942708,0.28354992471914736
1761501969136755700,0.788755615234375,0.9939574077107012,1.188462181070447,0.12719989077392965
1761501969146811600,0.798811767578125,0.8996119214534759,1.122107256153226,0.4384955352265387
1761501969156868600,0.80886865234375,0.6501277498021721,1.053439378118515,0.7455589854694903
1761501969166924800,0.8189248046875,0.6050193187922239,1.1589829886078833,0.8491724316138773
1761501969176980700,0.828980712890625,0.7622390482440591,1.2929554057240484,0.907090294510126
1761501969187036700,0.83903662109375,0.8957762888133526,1.2171277190625667,0.6368444898590445
1761501969197092900,0.8490927734375,0.7551667717702686,1.1850246078372002,0.44086182596646245
1761501969207149800,0.85914990234375,0.43838031134903427,1.1314175208121537,0.2859768596051261
1761501969217205800,0.869205810546875,0.19340864868611096,1.1653057618886231,0.1515871669249609
1761501969227261700,0.87926171875,-0.011329641657322644,1.309049631434679,0.10359653154220431
1761501969237318000,0.88931787109375,-0.22106354833096264,1.5429653548151254,0.13598361080810425
1761501969247373800,0.899373779296875,-0.31508272524327036,1.7535452107936143,0.19939945006612686
1761501969257430800,0.9094306640625,-0.37482714597955347,2.0395120239287614,0.16082078615110368
1761501969267486700,0.91948681640625,-0.24104689043462274,2.370312835046649,-0.037353871360421176
1761501969277543000,0.92954296875,0.4664209954410791,2.5114117430418728,-0.31316520118415353
1761501969287598800,0.939598876953125,1.3223207625485955,2.219913014742732,-0.49869394680801776
1761501969297654800,0.94965478515625,1.6154449000924824,1.4892442860215902,-0.4978835437405854
1761501969307711700,0.959711669921875,1.4503151281684636,0.5097872589588165,-0.30169067116342485
1761501969317768000,0.969767822265625,0.8512234458595513,-0.44609775385856626,-0.20663162980936467
1761501969327823600,0.97982373046875,0.18573139205649494,-1.3962866008609534,-0.40555096820835024
1761501969337879600,0.989879638671875,-0.5907112458460032,-2.3644839827626942,-0.7639607574701309
1761501969347935700,0.999935791015625,-1.6178753421097993,-3.434583988302946,-1.0119039102245122
1761501969357992700,1.00999267578125,-2.5186422788172957,-4.525079716140032,-0.9451192886531352
1761501969368048600,1.020048583984375,-3.1375691269308326,-5.138649421134591,-0.6701419254355132
1761501969378104600,1.0301044921875,-3.6354657493487,-5.1675329857915635,-0.4101718694746494
1761501969388160800,1.040160888671875,-3.4716719022035596,-5.0767701803267,-0.2645996519902721
1761501969398216700,1.050216796875,-2.6563158885389564,-4.924889181554317,-0.1867470719050616
1761501969408273700,1.060273681640625,-1.82072168122679,-4.5693771230280396,-0.06087693189755082
1761501969418329600,1.07032958984375,-1.2049227558754383,-3.963266501867771,-0.026520890646241604
1761501969428385800,1.0803857421875,-0.9482551024608313,-3.1319635620087385,-0.03918638401720673
1761501969438441700,1.090441650390625,-0.8785729328170419,-2.217885892829299,-0.20486549691967665
1761501969448497700,1.10049755859375,-0.9507043953090906,-1.460228619417548,-0.3995368590179831
1761501969458553900,1.110553955078125,-1.404256995218247,-1.0258376699656246,-0.4435436123963445
1761501969468610800,1.12061083984375,-1.9279729724168777,-0.6122790806621313,-0.4318875152636319
1761501969478666800,1.130666748046875,-2.1453154543980957,-0.09317629634737967,-0.45711102304309603
1761501969488722700,1.14072265625,-1.8581544630423188,0.48319560463130473,-0.5855049093745649
1761501969498779000,1.15077880859375,-1.3026244206927715,1.1908663196027278,-0.786136860377714
1761501969508834800,1.160834716796875,-0.8296165942072868,2.0561714823067185,-0.8334591680448502
1761501969518891800,1.170891845703125,-0.8738058645457029,3.1643881602734325,-0.6869201878875494
1761501969528947700,1.18094775390625,0.7281342418074608,4.090596996751428,-0.5446487655142321
1761501969539004000,1.19100390625,2.974922988516092,4.206425269889832,-0.44099820222985
1761501969549059800,1.201059814453125,2.60636440141201,4.45257152929008,-0.1697647017156705
1761501969559115800,1.21111572265625,1.6621967143952845,4.623347198146582,-0.5640484625110402
1761501969569172700,1.2211728515625,1.746031766423583,4.84504232237935,-0.8672751476027071
1761501969579228700,1.231228759765625,2.2591332644969224,5.333422636172175,-1.2151103878907858
1761501969589284600,1.24128466796875,2.927828352124989,5.963750583744049,-1.2165636554390191
1761501969599340800,1.2513408203125,3.8126381335049864,6.207717745539545,-0.5275280097674578
1761501969609396700,1.261396728515625,3.6997067508518695,6.313717867624759,0.88578929393664
1761501969619453700,1.27145361328125,2.2867981010138987,5.9126534337133165,2.217511360428482
1761501969629509600,1.281509521484375,1.1023784733325241,5.151556248980761,2.7015467768847943
1761501969639565800,1.29156591796875,0.2246715096950531,4.936853760114312,2.067499516528845
1761501969649621800,1.301621826171875,-0.1198357552140951,5.146561509433388,0.5065349791646003
1761501969659677700,1.311677734375,-0.4823860418140888,5.610621036440134,-1.313075087558478
1761501969669734700,1.321734619140625,-0.9766285256385803,6.807493902981281,-1.9231500823050736
1761501969679790800,1.331790771484375,-0.28434301132559775,7.672007038524747,-1.4183601932421326
1761501969689846800,1.3418466796875,1.772725419820845,6.9769643344581125,-0.3513878182031214
1761501969699902700,1.35190283203125,3.6291464831992983,5.634005419158935,0.9003377515099942
1761501969709959000,1.361958984375,5.63716651353836,3.0534178485602137,1.2217998025268315
1761501969720016000,1.372015869140625,6.568864010560512,-0.505116344538331,0.5035470128623768
1761501969730071800,1.38207177734375,4.468365018488466,-4.122174038276076,0.27724697038372975
1761501969740127700,1.392127685546875,0.35665772143006325,-8.361757481402158,0.46798813515994697
1761501969750184000,1.402183837890625,-2.4110871823750433,-11.705123321688175,0.07727525512129067
1761501969760239900,1.412239990234375,-6.443221614894271,-12.481880432367324,-0.2551848309783265
1761501969770296800,1.422296875,-9.678208329004049,-13.187842589855194,0.9146434133034199
1761501969780352800,1.432352783203125,-9.848916777843236,-13.207999242699145,2.419857641068846
1761501969790409000,1.442408935546875,-6.217534206154943,-12.432507037389279,2.188165731217712
1761501969800465000,1.45246484375,-2.9677862685039638,-12.14572189360857,1.3175871581554413
1761501969810520600,1.4625205078125,-2.4790303993970153,-12.05864216057062,0.5389774418795481
1761501969820577800,1.472577880859375,-3.138831109690666,-11.7741927662611,-0.09907549218749627
1761501969830633700,1.4826337890625,-4.393132082849741,-11.721184814172982,-0.4997304137162864
1761501969840689700,1.492689697265625,-5.59820696054697,-12.20916589951515,-0.6523172226704657
1761501969850745600,1.50274560546875,-6.431685490879416,-12.268291457700728,-0.8915692655775695
1761501969860801800,1.5128017578125,-6.834894535604119,-11.630706670868395,-1.1020629045773296
1761501969870857700,1.522857666015625,-6.5108373535275454,-10.810037937748431,-1.510720204770565
1761501969880914700,1.532914794921875,-5.200332262587547,-9.65384779472947,-2.1595206514917313
1761501969890970600,1.542970703125,-3.565841008980572,-7.592708460882306,-2.1925188118606806
1761501969901026800,1.55302685546875,-2.2299606537654997,-4.982700734531879,-1.4225301724031567
1761501969911082800,1.563082763671875,-1.9285826287478207,-2.118544059589505,-0.2297806694023311
1761501969921138700,1.573138671875,-1.7841794185101985,0.8887982664942741,0.6186147134244442
1761501969931195600,1.583195556640625,0.24221023512557147,3.594024608674645,1.0314908003564924
1761501969941251800,1.593251953125,2.0562031926192343,5.820111343616247,0.8860094394933432
1761501969951307800,1.603307861328125,4.738664599153399,7.718151534584164,0.4045022263403982
1761501969961363700,1.61336376953125,5.442933981248736,9.463237544590234,-0.04978226803988218
1761501969971420000,1.623419921875,4.5651621356815095,10.397229874551295,-0.5594486770980059
1761501969981476900,1.633476806640625,2.784653514638543,10.99872627991438,-1.1876746108893304
1761501969991532800,1.64353271484375,1.258369830033183,11.28968257189989,-1.3275506260260939
1761501970001588200,1.653588134765625,0.8748895681291818,11.402929011851548,-1.135308536901325
1761501970011644200,1.66364404296875,1.2116548406094312,11.275628327584267,-0.8765021178923547
1761501970021700000,1.6737001953125,1.5493402966745198,11.08453409332037,-0.6613195173587649
1761501970031757000,1.683757080078125,2.043820534777641,11.105587402743101,-0.48373986757583914
1761501970041813200,1.693813232421875,1.990062787235528,11.228505341881514,-0.29886019697785376
1761501970051869200,1.703869140625,2.017026635876298,11.061008256304264,-0.20678258258737622
1761501970061925000,1.713925048828125,2.0340467442601917,10.569242976248264,-0.38107122800089416
1761501970071981300,1.723981201171875,2.6605343830168247,10.00159740256071,-0.5652940421253443
1761501970082038300,1.734038330078125,3.157400785604119,9.81444401487708,-0.8298928538653999
1761501970092094200,1.74409423828125,3.5319206192001698,9.870687880146503,-1.1504521838888526
1761501970102150100,1.754150146484375,4.782569207331538,9.615549920517205,-1.4904108455829321
1761501970112206300,1.764206298828125,5.245442739424109,9.095729343321919,-1.8531999093748628
1761501970122262300,1.77426220703125,3.6148856103956697,9.302524420064687,-1.1835624263301492
1761501970132319200,1.7843193359375,2.122598303416371,9.14397461105287,-0.6691041798856109
1761501970142375200,1.794375244140625,0.5166764339506625,8.355231294503808,-0.6682491704914718
1761501970152431000,1.80443115234375,-0.5169533511959016,7.275076343417167,-1.1292010868716984
1761501970162487000,1.814487060546875,-1.2135808402359485,6.803461286464334,-1.3268427700176835
1761501970172543000,1.82454296875,-1.4129400678895414,6.666797730568051,-1.2065081253707408
1761501970182600000,1.834599853515625,-0.5851020276620984,5.988963935455679,-0.509273829543963
1761501970192656100,1.84465625,0.019937164874374864,4.765505844327807,0.6780247876398265
1761501970202712000,1.854712158203125,0.754186090169847,1.7575585380882024,2.1386855148643256
1761501970212768000,1.86476806640625,1.302512630881369,-2.9342560470849275,3.223696381549537
1761501970222824200,1.87482421875,1.8370079223781823,-7.14175975986123,2.9911867255747318
1761501970232880000,1.884880126953125,3.356945452827215,-11.242564262372255,2.6883438887014983
1761501970242937000,1.89493701171875,2.5859306851923463,-16.214277154421804,1.7007207985788584
1761501970252993000,1.904992919921875,-1.1257508733525872,-18.73986179972291,-0.3110871528010815
1761501970263049200,1.91504931640625,-7.4032994032263755,-18.178706757098436,-1.3098366901591418
1761501970273105200,1.925105224609375,-10.024309585106373,-19.335046537721155,-0.8380486877921968
1761501970283161000,1.9351611328125,-10.165955605590343,-22.328310654091833,1.1936561695169656
1761501970293218000,1.945218017578125,-8.629496563929319,-23.35683069500923,2.563517485593259
1761501970303274200,1.955274169921875,-5.63127394836843,-21.199926217365263,2.2456007059678433
1761501970313330200,1.965330078125,-3.3216356545150276,-19.223386490178108,1.9220906363800168
1761501970323386000,1.97538623046875,-2.7437323061853647,-17.856119647574424,1.3597840856328607
1761501970333442300,1.9854423828125,-3.04594648976624,-17.257115643548964,0.3938277241235599
1761501970343499300,1.995499267578125,-2.643808289143443,-15.408728833544254,-0.9666555592872201
1761501970353555200,2.00555517578125,-2.661740543936193,-11.654204450833797,-2.390104161709547
1761501970363611100,2.015611083984375,-2.154260685136914,-7.658536147055029,-3.417196215650439
1761501970373667300,2.025667236328125,-0.9265139569044113,-4.132364008378982,-3.7210891460984943
1761501970383723000,2.035722900390625,0.9729033676356077,-1.60263685644567,-3.4911671685293313
1761501970393779000,2.045779052734375,0.7277566406667232,0.5118891996741295,-2.5126503449261186
1761501970403836000,2.0558359375,0.3166530432999134,2.0115742156893015,-1.3355683666564524
1761501970413892000,2.06589208984375,0.10915332541912794,3.28802447681427,-0.40593240527398883
1761501970423948000,2.075947998046875,-0.055911710705608124,4.733793193724751,0.03684712741468101
1761501970434004000,2.08600390625,0.5487604020841419,6.617130905601382,0.1513907675700262
1761501970444060200,2.09606005859375,1.3645343488998711,8.713920229500532,0.931265681476146
1761501970454117000,2.1061171875,2.1221793473519384,10.02069373269677,1.9235725455008446
1761501970464173000,2.116173095703125,3.4799043084979053,10.610399162501096,2.0648807123325765
1761501970474229000,2.12622900390625,4.426960702693462,10.745583878016472,1.9319187874332069
1761501970484285200,2.13628515625,4.572954689253867,11.076319222682713,1.650782170933485
1761501970494341000,2.146341064453125,4.816308395326137,11.330103429615496,1.0472763985093683
1761501970504398000,2.156398193359375,5.220865932050347,11.439569181984663,0.13195946985855697
1761501970514454000,2.1664541015625,5.547090521293878,11.751157927632331,-0.6760908969677984
1761501970524510200,2.17651025390625,5.265049941691756,11.993104397255182,-1.0343361798502504
1761501970534566100,2.186566162109375,4.352621208763122,12.00713175356388,-0.9849009716823697
1761501970544622000,2.1966220703125,3.4724753275409337,11.800140861988067,-0.7446121330734342
1761501970554679000,2.206678955078125,2.8086761952608823,11.502381904250383,-0.735728057937324
1761501970564735200,2.2167353515625,2.2168793461352587,10.868151104021072,-0.6902381533291191
1761501970574791200,2.226791259765625,1.5451504437692463,10.379762022399902,-0.644517070313543
1761501970584847000,2.23684716796875,1.2790534293606877,10.100491492033004,-0.5693167217701673
1761501970594903300,2.2469033203125,1.1571779850125312,10.10072296270132,-0.39246648224033415
1761501970604959000,2.256958984375,0.8076318491533399,10.065831682062148,-0.030960955452919006
1761501970615016200,2.26701611328125,0.22225451168119906,9.890858561515808,0.030915289680287242
1761501970625072000,2.277072021484375,-0.013548340620100498,9.553116552957892,-0.10145721795856952
1761501970635128000,2.287128173828125,0.12549626519381998,9.070098058459163,-0.33856932622753083
1761501970645184000,2.29718408203125,0.44230420679450033,8.512932377731799,-0.5972695814482868
1761501970655240000,2.307239990234375,0.5094716171383857,7.884369101744889,-0.6392717900712043
1761501970665297200,2.317297119140625,0.7064750754460692,7.475079275801777,-0.3617579306459054
1761501970675353000,2.32735302734375,0.43990898222103714,7.169263852858543,0.4079091487070545
1761501970685409000,2.337408935546875,-0.2690764686107635,6.929740226468444,1.3890186556845903
1761501970695465000,2.34746484375,-0.576430353167653,6.373267204180359,1.8698796798884867
1761501970705521200,2.357521240234375,-0.03984203491434455,5.0297763739615675,1.8274433906972407
1761501970715578000,2.367578125,1.4611945418402552,2.8705858312070367,1.6341919783994554
1761501970725634000,2.377634033203125,3.5190316192716358,0.16426234143972396,1.3866862672142684
1761501970735690200,2.387690185546875,3.939073725375533,-4.580881098338962,1.0543632149651645
1761501970745746200,2.39774609375,1.7000915607646108,-11.160981373184919,0.7529848976865411
1761501970755802000,2.407802001953125,-2.434655835619569,-18.048495153820515,0.7360799401149153
1761501970765859000,2.417859130859375,-8.217818966066837,-21.759706464505193,0.11280176492407917
1761501970775915300,2.427915283203125,-10.628193177866935,-22.61940489324331,0.009368753380514681
1761501970785971200,2.43797119140625,-7.1713131866037845,-22.986267197823523,0.10109715247452258
1761501970796027100,2.448027099609375,-4.765266190353036,-22.752996202087402,0.9919107043139636
1761501970806083300,2.458083251953125,-5.513919488576054,-22.427265533840654,2.0389117199480533
1761501970816139300,2.46813916015625,-6.526863774698972,-21.27074688951969,2.209287283571064
1761501970826196200,2.4781962890625,-6.124198919853567,-19.710368043088913,1.997179633503407
1761501970836252200,2.488252197265625,-5.201490784972906,-17.80541821886301,1.1297642006471753
1761501970846308400,2.498308349609375,-3.8784412697583437,-16.46298654230833,-0.32632297158408907
1761501970856364000,2.508364013671875,-3.230494078865647,-16.229470047378538,-1.877313775411993
1761501970866420000,2.518419921875,-3.7815333856672044,-15.465509289908407,-2.655393512997031
1761501970876477200,2.528477294921875,-4.16411173029542,-13.08301677224636,-2.711869725717604
1761501970886533000,2.538533203125,-3.1874098471596835,-10.247003072726725,-2.539655256229639
1761501970896589000,2.548589111328125,-1.8492133239567279,-7.343269005155563,-2.307492221735418
1761501970906645000,2.55864501953125,-0.7035077500730752,-3.966804612866044,-1.7196701214596628
1761501970916701200,2.568701171875,1.1656985605984926,-0.3519622570902109,-1.5654769002221525
1761501970926758100,2.578758056640625,2.1875860316336153,2.9029233357101676,-1.2002620705880225
1761501970936814000,2.58881396484375,2.242197911787033,5.203825365400314,-0.3566217733338475
1761501970946870000,2.5988701171875,2.4304034388720988,6.612046734204888,0.08321860063038766
1761501970956926200,2.60892626953125,2.3284125524282455,7.8254831975340835,-0.008798661874979734
1761501970966982100,2.618982177734375,1.7073299875855446,8.991888445097208,0.12725589527748524
1761501970977038000,2.6290380859375,1.0420768571048975,10.211141485750675,0.19451573314517737
1761501970987095000,2.639094970703125,0.999537838191539,11.347344487273693,-0.13471110665425656
1761501970997152500,2.649152587890625,1.3613222549855708,12.671382429003716,-0.45487661505453286
1761501971007208700,2.659208740234375,1.9305590433873234,13.886678256464004,-0.40551074579581614
1761501971017264600,2.6692646484375,2.860236871150136,14.423072951841354,0.19938735776953398
1761501971027320600,2.679320556640625,3.309467662337422,14.710360784447193,0.8482214144993573
1761501971037377500,2.68937744140625,3.3162031080722807,14.94198109036684,1.2660153763502835
1761501971047433700,2.699433837890625,3.4581235615834593,14.69738322945237,1.465965701764822
1761501971057489700,2.70948974609375,3.243334855738282,14.031817379760742,1.4697865752272308
1761501971067545600,2.719545654296875,2.548870536081493,12.876037571108341,1.54421111709252
1761501971077601800,2.729601806640625,2.2439947320759295,11.630503257250785,1.4978157150119542
1761501971087658800,2.73965869140625,2.276531704673916,10.777988602536917,1.249592210946232
1761501971097714700,2.749714599609375,1.955934161531925,10.137267271244525,1.0168616056971251
1761501971107770600,2.7597705078125,1.4549334356188772,9.77854151136875,0.926100772993639
1761501971117826800,2.769826904296875,0.9943889309957623,9.963736750721932,0.8241839016340673
1761501971127882500,2.779882568359375,0.9046779726713895,10.206160190206765,0.697692195662111
1761501971137938400,2.7899384765625,1.0109373302146791,10.151803161597252,0.37338213480301197
1761501971147995400,2.799995361328125,1.2669286918029188,9.739324184224008,0.13968516873978076
1761501971158051600,2.810051513671875,1.6337480340242385,9.212506295487284,-0.1451873463526368
1761501971168107500,2.820107421875,1.4986895752370357,8.275566806158423,-0.16334698016047478
1761501971178163500,2.83016357421875,1.0388798146292566,7.309435709136724,0.290810819100216
1761501971188219600,2.8402197265625,0.9307327436432242,6.4800102535873645,1.0455825271382928
1761501971198276600,2.850276611328125,1.2597510552585125,5.958429680982232,1.6827137249842286
1761501971208332500,2.86033251953125,2.0719255162775516,5.209713254395127,1.7462002548582851
1761501971218388500,2.870388427734375,2.932848226113617,3.8763095184266563,1.3719773583821953
1761501971228444700,2.880444580078125,3.1651886630013584,1.5896493645787237,1.0231677201040088
1761501971238500600,2.89050048828125,2.8371801129505037,-1.8223826001763344,0.797077794978395
1761501971248557600,2.9005576171875,2.472677815499902,-5.828205218222737,0.4540390682518482
1761501971258613500,2.910613525390625,2.1378347432538867,-9.776001179236173,-0.390869787633419
1761501971268669700,2.920669677734375,1.5889371246561408,-13.840973320865631,-0.9798556709915399
1761501971278725600,2.9307255859375,0.3328545287773013,-17.797959719550608,-0.8956169335331767
1761501971288781600,2.940781494140625,-3.01310395835042,-21.445238364028928,-0.19639511715099214
1761501971298837800,2.950837646484375,-5.706649215087294,-25.062386074137684,0.5538919197537004
1761501971308894700,2.960894775390625,-6.200414144527912,-27.934403983974455,0.4137059618849307
1761501971318950700,2.97095068359375,-6.455141769790649,-28.62006218910217,0.5123469533789903
1761501971329006600,2.981006591796875,-7.432578689202666,-27.14139482667446,1.0937545835025608
1761501971339062800,2.991062744140625,-7.812201691156625,-24.297637381160257,1.5102271605566142
1761501971349118500,3.001118408203125,-5.784005426490307,-21.069451579236983,1.4303880462966858
1761501971359175700,3.01117578125,-3.373070073676109,-18.590371495479346,0.7532900181129575
1761501971369231600,3.021231689453125,-2.2266800246596334,-17.189841850221157,-0.5177143986962736
1761501971379287600,3.03128759765625,-2.0007327959403396,-15.886061099100113,-2.122570830887556
1761501971389343500,3.041343505859375,-2.174143781736493,-13.815896162754296,-3.2650168184533714
1761501971399399400,3.0513994140625,-2.051510212497413,-10.778232932686805,-3.2717791521951556
1761501971409455600,3.06145556640625,-1.5911840268000959,-7.4965511028975245,-2.2370994196042417
1761501971419512600,3.0715126953125,-0.04637918159812689,-4.091854303336143,-1.2384446478575468
1761501971429568500,3.081568603515625,1.5578326690793036,-0.4810299510300159,-0.6463333990205079
1761501971439624400,3.09162451171875,3.102828945200145,2.7256922071039673,-0.21225440159458667
1761501971449680600,3.1016806640625,4.330760674610734,5.676596022129059,0.23551570592299104
1761501971459736600,3.111736572265625,4.61443557741642,7.882227413541078,0.43787389619685707
1761501971469793500,3.12179345703125,3.7313627028316256,9.06750862648785,0.1062164682496339
1761501971479849500,3.131849365234375,2.1165160608932374,9.821019886136055,-0.28122677900120613
1761501971489905700,3.14190576171875,0.5834580598473549,10.636807861477136,-0.7788250760596245
1761501971499961600,3.151961669921875,0.7458651288092136,11.80304359769225,-1.1272502450648694
1761501971510017500,3.162017578125,2.1455742514647542,13.191361411631107,-1.2095712392684073
1761501971520073700,3.17207373046875,3.267152953699231,14.437996964728832,-0.696567210220173
1761501971530130700,3.182130615234375,4.039609152314067,14.9672324360013,0.048279096935316915
1761501971540186600,3.1921865234375,4.306881786373258,15.033037910342216,0.7058988829933106
1761501971550242600,3.20224267578125,4.056420294122398,14.91566357680559,1.252802112903446
1761501971560298800,3.212298828125,3.772282157719135,14.259236142337322,1.5689464760288596
1761501971570354700,3.222354736328125,3.339586029486358,12.942902199113368,1.5034351623289286
1761501971580411600,3.23241162109375,2.2382998814351853,11.550023945391178,1.2616963441073894
1761501971590467600,3.242467529296875,1.3864523123279213,10.740521918451785,1.2208224819272755
1761501971600523500,3.2525234375,0.9287573519170284,10.295345371091365,1.2538982375770806
1761501971610579500,3.262579345703125,0.7978910841226577,10.137690465092659,1.1178297980297356
1761501971620635400,3.272635498046875,1.3157730944707988,10.377250916361808,0.866307836940512
1761501971630692600,3.282692626953125,1.9394412918925283,10.661782143735884,0.6401986225925386
1761501971640748500,3.29274853515625,2.092972980481386,10.900804834866523,0.5747147083561868
1761501971650804500,3.302804443359375,1.9440332958579063,11.01345623153448,0.6968930811736732
1761501971660860400,3.3128603515625,1.2680056733846663,10.834221946412324,1.0569518432188778
1761501971670916600,3.32291650390625,0.271790988266468,10.189510668700933,1.7193290529370306
1761501971680972500,3.33297265625,-0.5678045636415481,8.914532818216085,2.2504978303596377
1761501971691029500,3.343029541015625,-1.1594953220441937,7.142454171866178,2.4071895904146134
1761501971701085400,3.35308544921875,-1.4068667393252252,5.330649079805612,1.8931481811426578
1761501971711141600,3.3631416015625,-0.6384566012308002,3.9627416012108325,1.070990086247772
1761501971721197600,3.373197509765625,0.6319216465041041,3.5137019486814736,-0.18919947002585977
1761501971731253500,3.38325341796875,1.293264033281803,3.0630963620096443,-1.3930463037654757
1761501971741310700,3.393310791015625,1.4127183879628777,2.1675971365720033,-1.7960544190905987
1761501971751366700,3.40336669921875,1.41695704844594,1.1259294447898864,-1.7380740854173897
1761501971761422600,3.413422607421875,1.0631401033997534,-0.9506757537364959,-1.3358255562879144
1761501971771478500,3.423478515625,1.1337693446353077,-4.5449657353490585,-0.11201234984574839
1761501971781534700,3.43353466796875,0.418567065115273,-10.02618005515337,1.0867610713534057
1761501971791590700,3.443590576171875,0.5444485302343964,-16.853905429780482,2.505824298298359
1761501971801647600,3.453647705078125,-5.041898188909888,-22.493945452928543,3.882446413746476
1761501971811703800,3.463703857421875,-10.44985204219222,-24.419617747187612,3.6680753487914797
1761501971821759700,3.473759765625,-10.498955388057231,-24.66602879500389,2.3717738475099206
1761501971831815400,3.4838154296875,-10.262257925003766,-24.7561994797945,1.4577198514670133
1761501971841871600,3.49387158203125,-9.684185065326094,-23.162755399107933,1.1802622157409786
1761501971851928600,3.503928466796875,-7.443458979657292,-20.539019007134435,0.919169000969082
1761501971861984500,3.513984619140625,-4.272541417615115,-18.25868688726425,0.6925855201728641
1761501971872040400,3.52404052734375,-3.418076797877252,-17.306190932363272,0.9782475051425397
1761501971882096600,3.5340966796875,-5.456396104890108,-18.155241710358858,0.6923658860728145
1761501971892152600,3.544152587890625,-7.877396924644708,-19.26351742503643,-0.6944006067708134
1761501971902208500,3.55420849609375,-9.230106834107637,-18.60134530943632,-2.3362222032658755
1761501971912265500,3.564265380859375,-8.044746710705757,-15.59044499861002,-3.3232290611863133
1761501971922321700,3.57432177734375,-5.121189752289652,-10.959355223512649,-2.6690964596569535
1761501971932377600,3.584377685546875,-2.775788947920501,-5.779762966614961,-0.8954375583782792
1761501971942433500,3.59443359375,-0.6075935531944036,-0.8247767529606819,0.521264492393285
1761501971952489700,3.60448974609375,1.38916829328835,3.174085378423333,1.2658397275224327
1761501971962546700,3.614546630859375,2.6877374472409485,6.5140832035809755,1.2232010476268826
1761501971972602600,3.6246025390625,2.7020757691949604,9.308310602250694,0.9554477904438972
1761501971982658600,3.634658447265625,1.5842887143284081,11.375350100052357,0.40248613727763294
1761501971992714800,3.64471484375,0.41688758759573097,12.601189533358811,-0.02018922167299315
1761501972002770000,3.65477001953125,0.0013939385764300822,13.61076054365635,-0.018611432695947585
1761501972012825900,3.664825927734375,0.8846499146431684,14.364185878586769,0.08499262456558644
1761501972022882800,3.6748828125,2.2441142668023706,15.708614281916617,-0.08686788038555532
1761501972032939000,3.68493896484375,4.500609291750193,16.72084486681223,-0.4982595009135082
1761501972042995000,3.694994873046875,5.663617882612347,16.251637455523014,-0.5629298702772706
1761501972053051000,3.70505078125,5.901502509623765,14.861160417723655,-0.3682489731656387
1761501972063106800,3.71510693359375,5.037227274489402,13.569811278152464,0.09044895374272018
1761501972073164000,3.7251640625,3.7447476695835586,12.420859854215383,0.11124649830609559
1761501972083219700,3.7352197265625,2.581330497920513,11.335800179952383,-0.14290800324380398
1761501972093276000,3.74527587890625,1.8467625698037444,10.71024368456602,-0.07096873885560781
1761501972103331800,3.755331787109375,1.5535133445754645,10.855600250005722,0.09854754105694591
1761501972113387800,3.7653876953125,1.3477040639996527,11.396205841076373,0.5875241402424871
1761501972123444700,3.77544482421875,1.3067904543310402,11.551806737154722,1.0606081007041037
1761501972133501000,3.7855009765625,1.3216998541712761,11.698197906339168,1.5109300481289625
1761501972143556900,3.795556884765625,1.224702538231015,11.499921067094801,1.5450056284710765
1761501972153612800,3.80561279296875,0.9678431616365909,11.028742647993564,1.396490599000454
1761501972163669000,3.8156689453125,0.2704468801811337,10.149974777126312,1.1113561450362204
1761501972173725000,3.825724853515625,-0.5700273542575538,9.03662775053382,1.0748331715419888
1761501972183782000,3.835781982421875,-1.2204060100808738,8.0693018907696,1.0600004171345383
1761501972193837800,3.845837890625,-1.1492879624150694,7.3688698948800555,0.9528029750235378
1761501972203894000,3.85589404296875,-0.13291823188811538,6.942276467436551,0.8607515179876237
1761501972213950000,3.865949951171875,0.9713125913128257,6.465902233257889,0.7672928245022892
1761501972224006000,3.876005859375,1.6881950790047644,5.7426791443675755,0.6819371387779712
1761501972234062800,3.886062744140625,1.6753262450814246,4.656885895133018,0.2772558660762384
1761501972244119000,3.896119140625,0.9687953477948903,3.0972645890712736,-0.5890896359935403
1761501972254175000,3.906175048828125,-0.0922232334062457,1.6145347995102404,-1.0318998926140368
1761501972264231000,3.91623095703125,0.14123773194402456,-0.19632102900147436,-1.09173725233078
1761501972274287000,3.926287109375,1.1558557964980603,-2.9128227984338997,-0.37221455232836304
1761501972284342800,3.9363427734375,0.9333078548282384,-6.7425318937271825,0.46013621608316896
1761501972294400000,3.94639990234375,-0.24924451767653225,-11.452214728546142,0.4529792570006102
1761501972304455700,3.95645556640625,-1.7894558976083992,-16.002731668281555,0.4419784454388544
1761501972314512000,3.966511962890625,-3.7718373365610836,-18.603592211580274,-0.20003146435935049
1761501972324567800,3.97656787109375,-5.441354018580913,-20.45424462842941,-0.7289536684315652
1761501972334623700,3.986623779296875,-6.084758305346965,-22.573108421492574,-0.6932043827235699
1761501972344680700,3.9966806640625,-6.729896868559718,-24.162222364020344,-0.07670534627884626
1761501972354737000,4.00673681640625,-7.764576016628742,-24.541284809482097,1.0375332953911274
1761501972364792800,4.016792724609375,-8.62996067430973,-23.717719185876845,1.7160501773968337
1761501972374848800,4.026848876953125,-8.250076391071081,-22.155794863569735,1.259642480317503
1761501972384905000,4.036905029296875,-7.335341134765744,-20.19918733282089,0.22409970115646718
1761501972394961000,4.0469609375,-6.04172346574068,-18.55015522042513,-0.9672004798188805
1761501972405017900,4.057017822265625,-4.545431307034194,-16.94020774870515,-1.9689513178847728
1761501972415073800,4.06707373046875,-2.9151801752150055,-14.775427423119543,-2.793310576085746
1761501972425130000,4.0771298828125,-1.6221683631286024,-12.37748599191308,-3.2609675430625673
1761501972435186000,4.08718603515625,-0.48867608186900613,-9.66289502453804,-2.8788223291546107
1761501972445241900,4.097241943359375,0.8656916778035462,-6.746586722075938,-1.823126550411433
1761501972455298800,4.107298828125,1.0293296037346125,-3.4107056845873593,-0.30584216481968757
1761501972465355000,4.11735498046875,0.677860683119297,-0.5532973148614168,1.1949393411953002
1761501972475411000,4.127410888671875,0.9825335118986666,2.208937447220087,1.9571321391448377
1761501972485467000,4.137466796875,1.3993366360813377,5.232779657205939,1.8121143041402101
1761501972495523000,4.147523193359375,1.5428899514913559,7.94581988800764,1.4320219311088322
1761501972505579000,4.1575791015625,1.590111721393466,9.849411283361912,0.8949120001342147
1761501972515636000,4.167635986328125,1.1942356499053537,10.704020864528417,0.567432661589235
1761501972525692000,4.17769189453125,0.4679297925688326,11.140856284523009,0.5801153252907097
1761501972535747800,4.187747802734375,-0.3025495530150831,11.789514254033564,0.5540467449892312
1761501972545803800,4.1978037109375,-0.38804362429678435,12.8145295017004,0.6681788086690008
1761501972555859700,4.207859619140625,0.22912746619060634,13.834358871161937,1.0876208299878984
1761501972565916700,4.217916748046875,1.3494133521355687,14.439717797172069,1.5238352685399352
1761501972575972900,4.227972900390625,2.496675946202874,14.487185650789737,1.7024176656246184
1761501972586028800,4.23802880859375,3.335678792914748,14.183180492138861,1.456472774015367
1761501972596084700,4.248084716796875,3.3331074811220165,13.755914864522218,0.9951263053596019
1761501972606141000,4.258140869140625,2.863112134325504,12.846237476128339,0.4562702613700181
1761501972616198000,4.268197998046875,2.3743783309198916,11.478469113743305,0.12763934163711965
1761501972626253800,4.27825390625,1.6577520099461078,10.22994906207323,-0.054007484519481654
1761501972636309800,4.288309814453125,0.8115672889061272,9.393544415161013,-0.03228248638026416
1761501972646366000,4.298365966796875,0.7663112661190331,8.863467816889285,0.056830506050959226
1761501972656422000,4.308421875,1.4329415301717816,8.781405619752407,0.013131503447517751
1761501972666478800,4.318478759765625,1.9739872662253677,8.961392769068478,-0.03707797702848911
1761501972676534800,4.32853466796875,1.9579415558315811,9.484619355314969,0.03868292800709605
1761501972686591000,4.338591064453125,1.569608593199402,9.761364751118421,0.2054437351990491
1761501972696647000,4.34864697265625,0.8084504720598459,9.62025824433863,0.48542716307565564
1761501972706702800,4.358702880859375,-0.010776830080151557,9.04352569335401,0.48551221101060504
1761501972716759800,4.368759765625,-0.6084643446795642,8.159017817530035,0.747635207221657
1761501972726816000,4.37881591796875,-0.7662561749309301,7.632662285608053,1.1463821579709648
1761501972736872000,4.388871826171875,-0.18807517870366572,7.291251233148574,1.1544180187799036
1761501972746927900,4.398927978515625,0.23722353275418281,7.078619120815396,0.9829228034771978
1761501972756983800,4.40898388671875,0.23316242079511285,6.530702329948544,0.81718271763511
1761501972767039700,4.419039794921875,0.31250293788313865,5.816345853602886,0.6539326950430869
1761501972777097000,4.429096923828125,0.40888182966411113,4.975995683935285,0.566919012978673
1761501972787152600,4.439152587890625,0.35127135221660133,3.932392640176415,0.9174437846116721
1761501972797208800,4.449208740234375,0.9800066237695515,2.7960376629620787,1.3051976321816443
1761501972807264800,4.4592646484375,2.9551345844626424,1.0771867489308118,1.5777151811569927
1761501972817320700,4.46932080078125,4.845656654885411,-2.724779768434167,1.835940000885725
1761501972827378000,4.4793779296875,3.8798680876910683,-10.758202536571025,1.9814723612837493
1761501972837433900,4.489433837890625,0.3775954416491091,-19.636697242200373,1.1293631455656141
1761501972847489800,4.49948974609375,-4.554043944817781,-24.885268927299975,-2.180522084596753
1761501972857545700,4.509545654296875,-8.20261555171609,-27.39746217610836,-4.855079732269048
1761501972867602000,4.519601806640625,-6.779044053566455,-27.944866925799847,-5.347151301795244
1761501972877657900,4.529657958984375,-3.296929667803645,-26.10644972114563,-4.7411634302318095
1761501972887714800,4.53971484375,-2.315007127410173,-22.782084349405764,-4.3493981550633904
1761501972897771000,4.54977099609375,-2.4032769470155237,-20.44882494146824,-3.8821936080291866
1761501972907827000,4.559826904296875,-3.0306968981862066,-19.5027026132524,-2.833102780508995
1761501972917883000,4.5698828125,-4.889394674324989,-19.13296563001871,-1.5520529166340826
1761501972927938800,4.579938720703125,-6.347169470849633,-19.13188426452279,-0.3870039059855044
1761501972937996000,4.58999609375,-6.473802046597004,-18.67898384491205,-0.16116510607674717
1761501972948052000,4.600052001953125,-5.843828903812169,-17.279257332730293,-0.7383570182014256
1761501972958108000,4.61010791015625,-3.1014462586700913,-13.757295505225658,-1.6986708803117274
1761501972968163800,4.620163818359375,-0.049362727453559636,-9.593286066260934,-2.296088345798105
1761501972978220000,4.630219970703125,1.880665423927456,-5.726445802447199,-2.190398750966787
1761501972988277000,4.640277099609375,3.5442081461042165,-2.2374591928273437,-2.0217321832187474
1761501972998333000,4.6503330078125,4.031982310697436,0.9127975662410259,-1.7406223085954784
1761501973008389000,4.66038916015625,3.756815708518028,3.588964987197518,-1.1148399685639887
1761501973018445000,4.670445068359375,2.844997800964117,6.21578356309533,-0.178703977637738
1761501973028501000,4.6805009765625,1.3745258738212287,8.412540743178129,1.0253236560288816
1761501973038557000,4.690556884765625,-0.1399791101850569,9.797276606976986,2.172828899745643
1761501973048614100,4.7006142578125,-0.7258568714600055,11.157121190625428,2.7390137532308696
1761501973058670000,4.710670166015625,-0.6624609424788505,12.644568071836233,2.748171749937534
1761501973068726000,4.72072607421875,-0.44634500661790366,13.54680683466196,2.493479780510068
1761501973078782200,4.7307822265625,-0.14302604013290254,14.144454747903346,2.1906626625999808
1761501973088838100,4.740838134765625,0.3879682575056329,15.005637862241267,1.8760043002486229
1761501973098895000,4.75089501953125,0.7953320472896098,15.806940216112135,1.6415791660413146
1761501973108951000,4.760950927734375,0.6823667623668909,16.06109500992298,1.6769973931640385
1761501973119007200,4.77100732421875,0.4683692068994045,15.852044263207912,1.702440754239261
1761501973129063000,4.78106298828125,0.21344404977057127,15.325282488572597,1.330885323406756
1761501973139118800,4.791118896484375,-0.058860166981350624,14.499908354240654,0.7014854504652321
1761501973149175800,4.80117578125,-0.5780565295973792,13.506453781485558,0.35729243913702663
1761501973159232000,4.81123193359375,-1.2387959455132485,12.519070053076744,0.549191560043022
1761501973169288000,4.821287841796875,-1.4472832131266593,11.958936754715442,0.9137219145443289
1761501973179344000,4.83134375,-1.4222113157123326,11.764651030933857,1.1969184592485427
1761501973189400000,4.841400146484375,-1.1711655938327312,11.79877541885376,1.386695181173086
1761501973199457000,4.85145703125,0.03914020678792149,11.954695463883876,0.7083615467797965
1761501973209513000,4.861512939453125,1.3951976365804672,11.910279983574151,-0.5532346248887479
1761501973219569000,4.87156884765625,1.839561698514223,11.567533883118628,-1.6921695355936883
1761501973229625000,4.881625,1.3206336862444876,10.962679984021186,-1.755094632192701
1761501973239681000,4.891680908203125,0.40377844211049374,9.666195819649099,-0.6970126159001141
1761501973249738000,4.901738037109375,-0.8018301771372556,8.542649470603466,0.8277055729541927
1761501973259790800,4.911790771484375,-0.6927940483570099,8.528574768021702,0.8369860269967466
1761501973269847000,4.921846923828125,-1.3726688477776945,7.5957508973181245,1.527757994941622
1761501973279903000,4.931903076171875,-0.35538477888479825,6.250379075658321,1.1718314373303205
1761501973289959000,4.941958984375,0.876301919145137,4.836007367530465,0.8663225961182266
1761501973300014800,4.952014892578125,1.5025708005845546,3.793541803368926,0.5906182338003069
1761501973310072000,4.962072021484375,1.6595440079294144,3.4210084674149748,0.9589415508437901
1761501973320128000,4.9721279296875,1.4802631071865557,2.2878332892805338,2.113292130410671
1761501973330184000,4.982183837890625,1.4629501533359288,-0.5432336014866829,2.919282349836826
1761501973340240100,4.992240234375,1.3414831436581909,-4.789262567490339,3.1202544195145365
1761501973350296000,5.002296142578125,1.1083585706554353,-10.714758531641959,2.6914374708026645
1761501973360353000,5.01235302734375,1.3419893396146594,-16.703437804937362,1.8217926714591681
1761501973370409000,5.022408935546875,-0.3091336075805127,-21.495570374906062,-0.8346175442997366
1761501973380465200,5.032465087890625,-4.525974619153142,-23.14599131131172,-4.122685494929552
1761501973390521000,5.04252099609375,-6.062056059673428,-24.108231246113775,-4.4488346808493135
1761501973400577000,5.052576904296875,-5.383292290234565,-24.518465074908733,-3.848497382393479
1761501973410634000,5.062634033203125,-5.752600818923115,-24.498895282042024,-3.032880379705131
1761501973420690200,5.072690185546875,-7.451436534407734,-23.640856895470616,-1.0809095688462256
1761501973430746000,5.08274609375,-8.500480892437697,-21.9884953463912,0.9666646193765103
1761501973440802000,5.092802001953125,-8.181231987425685,-20.545392633819578,1.7056147081002593
1761501973450858200,5.102858154296875,-5.945668983608484,-18.883685748767853,0.6455898141115903
1761501973460914000,5.112913818359375,-3.517970712041855,-17.200696421712635,-1.0494161139518021
1761501973470971100,5.12297119140625,-2.6505653621882197,-15.912366922223567,-2.377898321739584
1761501973481026800,5.13302685546875,-2.20967321414873,-14.700110608589648,-3.2638623877212405
1761501973491083000,5.1430830078125,-1.4566240190543234,-12.641648969519137,-3.417857309907675
1761501973501139000,5.153138916015625,-0.3361712521098554,-9.757054486703872,-2.431304187104106
1761501973511195000,5.16319482421875,1.0243617521941661,-6.405759022462368,-0.6362031232155859
1761501973521251800,5.173251953125,1.1107236923515795,-2.7310148634314535,0.7241733022872359
1761501973531308000,5.18330810546875,1.061133293621987,0.7922709061533212,1.0048761304795741
1761501973541364000,5.193364013671875,1.5804945827424526,4.048436601892114,0.6040514236081391
1761501973551420000,5.203419921875,2.6230297050088645,6.786383310413361,-0.11672091112919152
1761501973561476000,5.21347607421875,3.110813221952319,9.087961047407985,-0.4221529607780278
1761501973571533000,5.223532958984375,2.5090870994865893,10.626362455308437,-0.04774667055904865
1761501973581589000,5.233589111328125,1.7882981058754026,11.56102464735508,0.3222110427532345
1761501973591645000,5.24364501953125,1.1982457623295486,12.149516609716414,0.614008023346588
1761501973601701000,5.253701171875,1.4063542597584426,12.883282135409116,0.6454307510923594
1761501973611757000,5.263757080078125,1.834800183200836,13.827445146250724,0.5181645536165684
1761501973621814000,5.27381396484375,1.7106196767807005,14.989402182233333,0.8117888957675546
1761501973631870000,5.283869873046875,2.0493841602541507,15.555686988961696,1.1775716614827514
1761501973641926100,5.293926025390625,2.249823584359884,15.651085637533663,1.521915844784677
1761501973651982000,5.303982177734375,2.181227017995715,15.387763202404974,1.8374262939207255
1761501973662038000,5.3140380859375,2.2967741361051797,14.700676425778864,1.9159901275478302
1761501973672097000,5.324096923828125,1.2646750676572323,12.419831095689535,1.4278728486053645
1761501973682153000,5.334153076171875,0.39844241484478116,11.366376520001888,1.0788116467189044
1761501973692209000,5.344208984375,0.11012567758262157,10.92720067436099,0.5080819894108921
1761501973702265000,5.35426513671875,0.24936814405620097,10.678880578052997,-0.0008694763109087944
1761501973712321000,5.364321044921875,0.17392624184191227,10.122151535177231,-0.341925577852875
1761501973722378000,5.3743779296875,-0.23505729463100433,9.538099601089954,-0.44569048823192714
1761501973732434000,5.384433837890625,-0.46342707432210445,9.03162775028944,-0.49526583552286024
1761501973742490000,5.394489990234375,-0.3149059073716402,8.341488600355387,-0.6014803310111164
1761501973752546000,5.404546142578125,-0.2608697812795639,7.359335173815488,-0.33885924908481535
1761501973762602000,5.41460205078125,-0.17898235618770122,6.526510723477601,-0.11614617998115717
1761501973772659000,5.424658935546875,0.4043004932232201,5.783725440505147,-0.2849761215973645
1761501973782715100,5.434715087890625,0.8943032936513423,4.900618663650751,-0.4905553197443485
1761501973792771000,5.44477099609375,1.0584791258513926,3.8146769458562133,-0.5752205389864743
1761501973802827000,5.454826904296875,1.059669358549267,2.6416806294649837,-0.2380538460984826
1761501973812883000,5.464883056640625,0.8936234946936369,1.6071201393395662,0.27039091221019623
1761501973822940200,5.474940185546875,1.5119593911767004,0.7767886748611926,0.6664959701485932
1761501973832995800,5.484995849609375,2.6242460950613022,-0.36967794652283187,0.8639107126709074
1761501973843052000,5.495052001953125,3.472039858733117,-2.0558540869206188,0.3671821841843426
1761501973853108000,5.50510791015625,3.181230574002862,-5.092699570864439,-0.15810228444002566
1761501973863164000,5.515163818359375,1.7069290055692194,-9.997262588226794,-0.12744747232683
1761501973873219800,5.5252197265625,-1.157473899219185,-15.103101042127609,-0.8227305610205977
1761501973883277000,5.535277099609375,-4.23244467728734,-17.98117226065397,-2.7362469188660383
1761501973893333000,5.5453330078125,-5.009577051019669,-19.883283646583557,-3.83340794981122
1761501973903389000,5.555388916015625,-4.342679075941443,-21.1512168392539,-3.402520332305133
1761501973913445000,5.565445068359375,-3.5742590009748936,-21.800810043787955,-2.1633964700117705
1761501973923501000,5.5755009765625,-4.650995668050647,-21.832762348365783,-0.781650874070078
1761501973933558000,5.58555810546875,-6.716773183092474,-20.807655915284155,0.41991891811564563
1761501973943614000,5.595614013671875,-7.020702353897691,-19.34990274606943,0.9857894449546932
1761501973953670100,5.605670166015625,-6.21031945247054,-17.783477605211733,0.8097024448823184
1761501973963726000,5.61572607421875,-4.640799560467898,-16.96430291004181,-0.2925617544207722
1761501973973782000,5.625781982421875,-3.6592189653798934,-16.932769123136996,-1.5416107253357767
1761501973983839000,5.6358388671875,-3.21665026243031,-15.907133113223313,-2.024290781660378
1761501973993895200,5.645895263671875,-2.5312761349409816,-13.125768703258037,-1.9643457237854598
1761501974003950600,5.65595068359375,-1.3778336831949651,-9.933996276974677,-1.5286824163101613
1761501974014006500,5.666006591796875,-1.0136721620060503,-7.1961144503831855,-0.6426522262897342
1761501974024062700,5.676062744140625,-0.8004629804372787,-4.327005705991387,0.5093699103295802
1761501974034119700,5.68611962890625,-0.40581776591837404,-1.284770930224657,1.4505898534566164
1761501974044175600,5.696175537109375,-0.20948723843619227,1.8588631958335637,1.9455720497325062
1761501974054231600,5.7062314453125,-0.6354974591642618,4.769151507353782,2.3516692171141504
1761501974064287700,5.716287841796875,-1.3122738541781902,6.959446797946095,2.3508725137785076
1761501974074343700,5.72634375,-0.5708303412035107,8.756311510506272,1.5964014691874384
1761501974084400600,5.736400634765625,0.23644728768467901,10.660122101569176,0.5891857898443937
1761501974094456600,5.74645654296875,1.049454838526994,12.374395040160417,-0.43425365987308323
1761501974104512800,5.7565126953125,2.6628315540432927,13.819250149357318,-1.4423483870729803
1761501974114568400,5.766568359375,4.390657217168807,14.785510425716637,-2.105995105270296
1761501974124624400,5.776624267578125,4.890659579694271,15.556435176980495,-2.073176100860536
1761501974134681600,5.786681640625,4.548869172528386,15.739114634120464,-1.5183089063338935
1761501974144737500,5.796737548828125,3.921158129456639,15.302105026602744,-0.6210930862367153
1761501974154793500,5.80679345703125,3.22774741050601,14.8113907169044,0.34313130038082595
1761501974164849400,5.816849365234375,2.264095270818472,14.133786054372786,1.2459415794841944
1761501974174905600,5.826905517578125,1.5539211947239935,13.279020990383625,1.7678195276007056
1761501974184962600,5.836962646484375,0.891930865431577,12.640540716016291,1.9538767906107006
1761501974195018500,5.8470185546875,0.32784320342130957,12.3371995742321,1.799084580566734
1761501974205074400,5.857074462890625,0.2589321642804891,12.107613404488562,1.2466877216763794
1761501974215130600,5.867130615234375,-0.017505699943751094,11.809034947061537,0.708702103845775
1761501974225186600,5.8771865234375,-0.5636589882694184,11.454759736853838,0.4015934627542272
1761501974235243500,5.887243408203125,-0.7673040765486657,10.892831956291198,0.1395125155866146
1761501974245299500,5.897299560546875,-1.138351119467616,10.227012424099446,-0.011936375378817319
1761501974255355600,5.907355712890625,-1.6817070321597158,9.292290610820054,0.14472725456021726
1761501974265411600,5.91741162109375,-2.1005803867451847,8.459262746864557,0.617404095525667
1761501974275467500,5.927467529296875,-2.0625503696888683,7.61636873793304,0.8229575747095048
1761501974285524500,5.9375244140625,-1.369480573130399,6.9693912688553326,0.4237728901300579
1761501974295580700,5.94758056640625,-0.4131219514518976,6.264235751575232,0.08388707447648049
1761501974305636600,5.95763671875,0.31194588852226734,5.358695609116554,-0.1482973681319505
1761501974315692500,5.967692626953125,0.7643383586108684,4.784641921952367,-0.25181582946926356
1761501974325748700,5.977748779296875,0.8455934771485626,3.6624773826539516,0.09948182623237371
1761501974335804700,5.9878046875,0.997896500725299,1.838942689833045,0.5679607771165669
1761501974345861600,5.997861572265625,2.0972904052890837,-0.02592354580760002,0.9750275201827288
1761501974355917600,6.00791748046875,2.5857629274100065,-3.11991247420907,1.0288520493507385
1761501974365973500,6.017973388671875,2.4431952620364723,-8.523082015824317,0.6636943567313254
1761501974376029400,6.028029541015625,2.116125600270927,-15.41140360571146,0.2039706669718027
1761501974386085600,6.038085693359375,1.0887686117835342,-20.6206229391098,-0.7382437670852988
1761501974396142600,6.048142578125,-1.6080495291441679,-21.788277894473076,-2.2305343620002267
1761501974406198500,6.058198486328125,-3.4142268444508312,-22.16462815836668,-3.0681767340138553
1761501974416254500,6.06825439453125,-3.3225261736139653,-22.443620456314086,-2.7195357303008434
1761501974426310700,6.078310546875,-3.139067841055989,-22.183251025772094,-1.5936749668329953
1761501974436366600,6.08836669921875,-4.0687376316428185,-21.532589315223692,-0.6043346244636922
1761501974446423600,6.098423583984375,-4.966729258418083,-20.881586243891714,0.3890612038414925
1761501974456479500,6.1084794921875,-5.275657260423898,-19.966729991555212,0.5312063329540193
1761501974466535700,6.11853564453125,-5.150352718409896,-18.90713442889452,-0.8016856541000306
1761501974476591600,6.128591552734375,-4.968458858689665,-17.861242397415637,-2.5161121758177876
1761501974486647600,6.1386474609375,-5.108827698844671,-16.197489685750007,-3.8782641596257683
1761501974496704500,6.14870458984375,-5.358036268424987,-13.463839797639846,-4.455399446192383
1761501974506760700,6.1587607421875,-4.9820700354129075,-10.443191999781131,-3.679289401245117
1761501974516816600,6.168816650390625,-3.5047324602842327,-7.570831560117006,-2.2908286717042325
1761501974526872600,6.17887255859375,-1.8909914415001867,-4.578201065474748,-0.9650150986038147
1761501974536928800,6.1889287109375,-0.873360897257179,-2.200469478604197,-0.0732586398910731
1761501974546985700,6.19898583984375,-0.4578307156197726,-0.43478433268368244,0.8202022115867584
1761501974557041700,6.209041748046875,0.8257271855533123,1.1404571518361568,1.1411354894891381
1761501974567097600,6.21909765625,2.5495406904280182,3.629232115656137,0.6393686745744198
1761501974577153800,6.22915380859375,2.8327903535589574,6.2693742835074655,0.1371620069377124
1761501974587209700,6.239209716796875,2.775133698882162,8.63277690077424,-0.47103638028204436
1761501974597266700,6.2492666015625,3.0655075148046014,10.513126536750793,-0.8252521153874695
1761501974607322600,6.259322509765625,3.9473850421249863,11.964507248324155,-0.5733821445781737
1761501974617378600,6.269378662109375,4.239605070436,12.638476184701918,0.4342503719374537
1761501974627434500,6.2794345703125,4.031925027552247,13.112132976615428,1.9783876931414006
1761501974637490400,6.289490478515625,3.9054204620987174,13.629455891776084,2.8911054721444844
1761501974647547400,6.29954736328125,4.0053976706326,14.020670547324418,2.804895799939334
1761501974657603600,6.309603515625,4.963343707633018,14.35607037667036,2.4617063396304846
1761501974667659500,6.319659423828125,5.4908606845498085,14.621726223182677,2.2342650729611515
1761501974677715500,6.329715576171875,4.790884615734219,14.140295290136336,2.1958295438438653
1761501974687771600,6.339771728515625,3.1624224131584167,13.26330553485751,1.7842074755609034
1761501974697828600,6.34982861328125,1.9101403786063194,12.448162871682642,1.0704265340808778
1761501974707884500,6.359884521484375,1.4666308876752852,12.012511693036556,0.4596863534238189
1761501974717940500,6.3699404296875,1.438645879293233,11.729518927276134,-0.10858370883762836
1761501974727996700,6.37999658203125,1.1474790132969617,11.474419546091555,-0.5631031079523265
1761501974738052600,6.390052490234375,0.6535371198542416,11.361550707280635,-0.8111796047627925
1761501974748109600,6.400109619140625,0.5723825390815734,10.887103641772269,-1.1565887869477272
1761501974758165500,6.41016552734375,0.7128484829355031,10.327325732719897,-1.4221242219507693
1761501974768221700,6.4202216796875,-0.42762393953502176,10.02780151887536,-1.2529551115080713
1761501974778277600,6.430277587890625,-2.2066291702777145,9.576511457070708,-0.23183957469351588
1761501974788333600,6.44033349609375,-2.5061679971694946,8.581353587529062,0.5199773751921951
1761501974798390500,6.450390625,-1.6948275027565658,7.555407196491957,0.6107872346691787
1761501974808446700,6.46044677734375,-1.0139810818247497,6.357527198734879,0.6618509938869624
1761501974818502700,6.470502685546875,-0.8286375200420617,4.992113875043392,0.6980644630406051
1761501974828558600,6.48055859375,-1.4267035125650465,3.4096740034520625,0.9106420687075704
1761501974838614800,6.49061474609375,-1.6936996677704155,1.7711007412284612,1.0638863917224108
1761501974848670500,6.50067041015625,-0.9581722469717263,0.678753832566738,1.356127608951926
1761501974858727700,6.510727783203125,0.6979606373399496,-0.5660919145047665,1.879842270976305
1761501974868783400,6.520783447265625,2.853833433848619,-2.8845255092322826,2.2986431448474525
1761501974878839600,6.530839599609375,3.0846687268704174,-7.687338463169336,1.9597984357446432
1761501974888895500,6.5408955078125,1.6833686817616222,-13.347223004472255,1.143042272958532
1761501974898951400,6.550951416015625,0.9587469050545245,-17.60036092569828,-0.45612529994137585
1761501974909008400,6.56100830078125,-2.32825049373433,-20.52901900664568,-2.137621685025096
1761501974919064600,6.571064697265625,-5.222804791158437,-22.039056489849088,-2.178016239255667
1761501974929120500,6.58112060546875,-5.029750654998422,-22.840976098835466,-1.2401090739384293
1761501974939176400,6.591176513671875,-4.700331653627753,-22.280190474045277,-0.5977453822664917
1761501974949232600,6.601232666015625,-5.514477122458815,-20.588142226743695,-0.10343728585988282
1761501974959289600,6.61128955078125,-4.966157596009969,-18.106989428365228,-0.674667366970703
1761501974969345500,6.621345458984375,-3.1528157959014176,-16.115441517138482,-1.5923761591941117
1761501974979401500,6.6314013671875,-2.9836633443325757,-14.824833551323414,-1.769437191930413
1761501974989457700,6.641457763671875,-3.012111440181732,-14.106940133023262,-1.8841770853102207
1761501974999513600,6.651513671875,-2.1892412514947353,-12.550912467539309,-2.3400139967642724
1761501975009574700,6.66157470703125,-1.3819002019815145,-10.050416670787333,-2.5481936597332355
1761501975019630600,6.671630615234375,-1.012897085980326,-7.394295428037643,-1.9845568832956253
1761501975029686800,6.681686767578125,0.13305647131502626,-4.386892311677337,-1.0098992193385958
1761501975039742700,6.69174267578125,1.1604174053251743,-1.7398814271003007,-0.18999591763317583
1761501975049798700,6.701798583984375,1.6830843118622898,0.5908212820917368,0.4149351383537054
1761501975059855600,6.711855712890625,1.5850306187368928,2.471853055113554,1.1447513418987392
1761501975069911800,6.721911865234375,1.331540426314622,3.4898581317573782,1.7541202342025934
1761501975079967700,6.7319677734375,1.8199279005005955,4.359652422574162,1.4014796394594013
1761501975090023700,6.742023681640625,2.67011060513556,5.188171284672618,0.2539515263237059
1761501975100079900,6.752079833984375,3.345112099431455,5.8542924301594494,-0.652238312215358
1761501975110135800,6.7621357421875,3.4765342475429177,6.596987696760893,-0.6570221854910254
1761501975120192800,6.77219287109375,3.194246122920513,7.398537303391098,0.16132643411830067
1761501975130248700,6.782248779296875,3.606687106370926,8.83108413515687,1.0195124124668538
1761501975140305000,6.792304931640625,5.146609440228342,10.518117184644938,1.1567736419953405
1761501975150360800,6.80236083984375,5.82329406530559,11.591041015434264,1.0300479811370373
1761501975160417800,6.812417724609375,5.551964849331974,12.480374703979491,0.9701382868364453
1761501975170473700,6.8224736328125,5.080329918634892,13.215864569246769,1.045668597986549
1761501975180529700,6.83252978515625,4.629712641525268,13.498076413762568,0.8521253631353378
1761501975190585600,6.842585693359375,3.9574069621846077,13.52851246855855,0.8025576146289706
1761501975200641500,6.8526416015625,2.9216335891380902,13.25827163234353,0.957291810875386
1761501975210697700,6.86269775390625,2.169347925762087,12.643068188667296,1.108907436709851
1761501975220754700,6.872754638671875,1.9641513702571392,12.024257075887919,1.0580527171328664
1761501975230810600,6.882810546875,1.7351738339312373,11.642352684998512,0.8233782843396067
1761501975240866600,6.892866455078125,1.320527741651982,11.096874519455433,0.4415168558090925
1761501975250922800,6.9029228515625,0.7617752301245927,10.416968009722233,0.43805531717836854
1761501975260978700,6.912978759765625,0.07878039898723363,9.781853996917604,0.7356063312537968
1761501975271035600,6.92303564453125,-0.3257784529112279,9.057042177531123,0.34899785432666536
1761501975281091600,6.933091552734375,-0.4938203128896653,8.054487183475494,-0.04835844578184187
1761501975291147800,6.943147705078125,-1.0100437423758208,6.792996006551385,-0.3089929570008069
1761501975301203700,6.95320361328125,-1.4881401241719723,5.510379039490223,-0.2374078763451427
1761501975311259600,6.963259765625,-1.8371265803217887,4.922520114335417,0.5917164773657918
1761501975321316600,6.973316650390625,-1.8461837470024822,5.021759071722626,1.5141495946973562
1761501975331372800,6.983372802734375,-1.4480103583574295,4.988337279114127,2.3990552376672625
1761501975341428700,6.9934287109375,-0.16644260808825492,4.546582522895932,2.9023060805946588
1761501975351484700,7.003484619140625,1.0607675290495158,4.066675438416004,2.555598383031785
1761501975361540900,7.013540771484375,1.6829472414791582,2.595090143203735,2.1630232527852056
1761501975371597800,7.023597900390625,2.1506110765881834,-0.8910019140183925,1.7333242605417967
1761501975381653800,7.03365380859375,1.7129199165470896,-7.1621817856431,0.6630112698379904
1761501975391709700,7.043709716796875,0.4514426220178604,-14.598686708378791,-0.5283997511006892
1761501975401766000,7.053765869140625,-2.33144870525375,-20.304144083333014,-1.1366168430209158
1761501975411821600,7.063821533203125,-4.575082056671381,-22.40901676044464,-0.8571515937995166
1761501975421878800,7.073878662109375,-3.8433378076732154,-22.72845797315836,-0.22633958903774617
1761501975431934700,7.083934814453125,-2.4473798542447387,-20.897045678830146,0.14436426646672187
1761501975441990700,7.09399072265625,-0.34979441153183577,-18.55768503140807,-0.6216459708791225
1761501975452046600,7.104046630859375,1.2890081294029951,-17.89260199679732,-2.3410911244764923
1761501975462102500,7.1141025390625,0.8934254879035055,-17.44580749284625,-3.1725346418499947
1761501975472158700,7.12415869140625,-1.3801676791004835,-17.022704830127953,-3.4426045054122802
1761501975482215700,7.134215576171875,-1.9948982445679604,-18.13856413180232,-4.184169014418125
1761501975492271600,7.144271728515625,-2.035632698277384,-19.644527497434616,-4.00582787874341
1761501975502327800,7.154327880859375,-2.0807208171516653,-20.229372043204307,-2.7438328439503907
1761501975512383700,7.1643837890625,-2.5183842124029994,-19.16299135044813,-1.6717080545842646
1761501975522439700,7.174439697265625,-2.831934905773401,-16.728822421562672,-0.7857916271366179
1761501975532496600,7.18449658203125,-2.7262369815051555,-13.10726274023056,0.3347163040611893
1761501975542552800,7.194552734375,-2.124317236163467,-8.627842366981506,1.1206507006693631
1761501975552608800,7.20460888671875,-1.7584177852660416,-3.972130776324868,1.452094558931142
1761501975562664700,7.214664794921875,-0.9704938222758471,0.6408177774041891,1.2792267401009798
1761501975572720600,7.224720703125,-0.12199877846688031,4.561720470795035,1.005977515850216
1761501975582777900,7.23477783203125,0.7025726611800491,7.143323355916142,0.8732642319496721
1761501975592833800,7.244833740234375,1.4540702429182826,8.781112189763784,0.6360249171044677
1761501975602889700,7.2548896484375,2.0165669094100593,10.999846223855018,0.15369250517375765
1761501975612946000,7.26494580078125,2.5454315015435216,13.196965807509422,-0.20396825581900774
1761501975623001900,7.275001953125,2.2900936354279517,14.697131885039806,0.14524214527979493
1761501975633058800,7.285058837890625,2.057562059882283,15.374909566050768,1.0368613874789328
1761501975643114800,7.29511474609375,2.4033523503392935,15.528057808279991,1.9368474760070442
1761501975653171000,7.3051708984375,2.570653621083498,15.358350060915946,2.5639257741332053
1761501975663226600,7.3152265625,2.077837955191731,15.312654477667808,2.9036341143280264
1761501975673282600,7.325282470703125,1.393073484033346,14.842887094408272,2.94198196516186
1761501975683339500,7.335339599609375,0.3771253399193287,13.877476712876557,2.6780446130052207
1761501975693395700,7.345395751953125,-0.4666923597283661,12.81287296666503,2.3065134398311375
1761501975703451600,7.35545166015625,-0.6400321069192141,12.01826806460619,1.8930315690256654
1761501975713507600,7.365507568359375,-0.7728589341968297,11.509202105659245,1.6818423489771783
1761501975723563800,7.375563720703125,-0.7141559853374958,10.622378354108333,1.4809443674489855
1761501975733619700,7.38561962890625,-0.41114027611538767,9.865790755754709,1.1135200450718403
1761501975743676700,7.3956767578125,-0.2138445568628609,9.367710885724424,0.6739544694609939
1761501975753732600,7.405732666015625,-0.058302551364898675,8.866533049678802,0.18731135472431779
1761501975763788800,7.415788818359375,0.14923486817777157,8.67417975526452,-0.1822586013793945
1761501975773844700,7.4258447265625,0.1655513583369553,8.556339557781815,-0.233367295717448
1761501975783900700,7.435900634765625,0.025261867028474806,8.398404081276059,-0.07473083133548497
1761501975793957600,7.44595751953125,-0.3325900326222181,8.140479705798626,0.3334082171373069
1761501975804013800,7.456013916015625,-0.9717132810682058,7.894315910741686,1.3471334245048463
1761501975814069800,7.46606982421875,-0.844187555873394,7.492595058748125,2.080257583554089
1761501975824125700,7.476125732421875,0.20711831734776495,7.115778346386551,2.0556850139640273
1761501975834182000,7.486181884765625,1.0231357175305484,6.972575744110346,1.8949559612169862
1761501975844238800,7.49623876953125,1.343458681514859,6.944824982875585,1.7834448206253348
1761501975854294800,7.506294677734375,0.9566539513632655,6.770306035837531,1.836376054215431
1761501975864350700,7.516350830078125,0.5857431020446121,5.915713405805826,2.065576147250831
1761501975874407000,7.526406982421875,0.9002198242187499,3.8244460601985453,1.727111085115373
1761501975884462600,7.536462646484375,1.4284259524434804,-0.7957733613163233,1.6088845186635852
1761501975894519800,7.546519775390625,0.5726546340212225,-8.37753197363913,1.7738235903210937
1761501975904575700,7.55657568359375,-2.1707018245890737,-17.30615469200611,-0.21573870004639029
1761501975914631700,7.566631591796875,-4.5397503387883305,-22.361282364845273,-3.705979839771986
1761501975924687600,7.5766875,-7.24515700597167,-25.785977411818504,-5.496231271672248
1761501975934743600,7.58674365234375,-8.604911573249101,-28.812236619818208,-5.3327726478308435
1761501975944799700,7.5967998046875,-8.554830906784535,-28.823884972035884,-5.226690108159184
1761501975954856700,7.606856689453125,-8.228859415519237,-26.54740602046251,-4.794922492948174
1761501975964912600,7.61691259765625,-6.185678347688913,-23.75504909183979,-5.135534503984451
1761501975974968600,7.626968505859375,-3.9320015950322147,-20.278058040440083,-5.366396100491285
1761501975985024800,7.637024658203125,-2.9483289961010217,-16.620162140357493,-4.349237411543727
1761501975995080700,7.647080810546875,-2.9489371911272406,-15.20326588218808,-2.6032392551288006
1761501976005133600,7.657133544921875,-2.4993887122929093,-14.469309802359342,-1.1240218576028942
1761501976015189800,7.667189697265625,-1.4321023028686641,-13.533802391660213,-0.7412183259166777
1761501976025245700,7.67724560546875,0.6207482183218002,-11.56562834175825,-1.0356767808042466
1761501976035301600,7.687301513671875,2.3945009353637694,-8.942910186916588,-1.3382818633988498
1761501976045357800,7.69735791015625,3.044442807205021,-6.0916843052178615,-1.0943800219245254
1761501976055414800,7.707414794921875,2.895044857420027,-3.1046061840057373,-0.7788119973823427
1761501976065470700,7.717470703125,2.1148715085566043,-0.015161328774690628,-0.7955540194772184
1761501976075526700,7.727526611328125,1.6522260861314833,2.819588634419441,-0.9553678570754826
1761501976085582800,7.737582763671875,1.6206687722206115,5.372091097262501,-1.0930310915336012
1761501976095638500,7.747638427734375,1.6110636162683367,7.404898070594668,-0.7525815775826573
1761501976105694500,7.757694580078125,1.5102981799662112,9.11639102307856,-0.20728388317301868
1761501976115751700,7.767751708984375,1.1174603071302174,10.317556033855675,0.3260658915504813
1761501976125807600,7.7778076171875,0.9651469082899391,11.059292100036144,0.722254389988631
1761501976135863600,7.787863525390625,0.14190861694291232,11.815344276338815,1.2132723588086665
1761501976145919500,7.79791943359375,-0.77529682886824,12.697870622956753,2.35390311364606
1761501976155975700,7.8079755859375,-0.3558253622591495,13.337370303499698,2.5891689364612103
1761501976166032600,7.81803271484375,0.7708943561255931,13.723166441130637,2.1989016447655856
1761501976176088600,7.828088623046875,1.437419990760088,13.855156159996985,2.029354640921205
1761501976186144500,7.83814453125,1.560978565889597,13.681799826997517,2.124299846637249
1761501976196200700,7.84820068359375,1.7353256634920835,13.29527069891691,2.243366517174989
1761501976206256600,7.858256591796875,1.5265031725749372,12.886983328014612,2.5690821339830756
1761501976216313600,7.868313720703125,1.100346090722084,12.79882924374342,2.8448458252727984
1761501976226369500,7.87836962890625,0.533014989811182,12.673372141516207,2.7050603379637
1761501976236425700,7.88842578125,0.36320801985636353,12.44024376912117,2.3639159736163915
1761501976246481700,7.898481689453125,0.2498043435163796,12.366004812955856,2.5781682344973085
1761501976256537600,7.90853759765625,0.3735487966068089,11.956542553055286,2.2371904588885605
1761501976266593800,7.91859375,1.328974375218898,10.83309148107767,1.5183816793091593
1761501976276650800,7.928650634765625,2.1144462688818573,9.558595276629925,1.0331485775008797
1761501976286706700,7.938706787109375,2.9671602455601094,8.335987664851546,0.7115662611052394
1761501976296762600,7.9487626953125,3.4912896258652206,7.034836677712201,0.3906925313703716
1761501976306818800,7.95881884765625,3.171795221659541,6.195135327342152,0.3682866382949054
1761501976316874800,7.968874755859375,2.3962054011940954,5.592301535895467,0.8310846209332347
1761501976326931700,7.978931640625,2.561369075387716,3.7239439510077235,1.117930408859998
1761501976336987600,7.988987548828125,1.8091349960684775,1.1652730286628008,1.999862004455179
1761501976347043600,7.999043701171875,-0.12269202142804861,-1.7873890282064675,2.6588188112705944
1761501976357099500,8.009099609375,-0.9626634209111332,-5.786715854492783,2.8439737186133858
1761501976367155500,8.019155517578126,-2.403924305008352,-9.626813072809576,2.2607670031785965
1761501976377212400,8.02921240234375,-4.927613638082146,-13.016940079748629,0.09321246363930404
1761501976387268600,8.0392685546875,-8.412980303639173,-15.03731894866228,-2.3131328579708934
1761501976397324500,8.049324462890626,-10.62452939466238,-13.174240765482187,-4.474679900723696
1761501976407380500,8.05938037109375,-12.51167234404087,-10.88512561969757,-4.826700610002875
1761501976417436700,8.069436767578125,-12.137344525885581,-10.37355439993143,-3.6301401704117655
1761501976427492600,8.07949267578125,-10.516289969217777,-10.52542253922224,-1.7309221678361295
1761501976437549600,8.089549560546875,-9.206111041492223,-10.152876343786716,-0.1938875182442367
1761501976447605500,8.09960546875,-7.711602551332116,-9.600538229346276,0.5614962572775781
1761501976457661700,8.10966162109375,-6.218037479501962,-8.7764015278548,0.3992622067950666
1761501976467717600,8.119717529296874,-5.025094938147068,-7.652222141602635,-0.6251227801442146
1761501976477773600,8.129773681640625,-3.3524978257685896,-6.581164104685187,-1.7786897350527344
1761501976487830500,8.13983056640625,-2.9424264940589664,-5.681026113530993,-2.433391368641704
1761501976497886700,8.14988671875,-4.000626802968979,-4.93780769983828,-2.5203680796965955
1761501976507942700,8.159942626953125,-3.5577813289046287,-4.184575257131457,-2.5439330796793103
1761501976517998600,8.16999853515625,-1.9773709173142908,-3.425958783298731,-2.823509607255459
1761501976528054800,8.1800546875,-0.7863117054879665,-2.4660183576107024,-2.303550059980899
1761501976538111700,8.19011181640625,-0.12241291222572326,-1.511868790283799,-1.4254440140232443
1761501976548167700,8.200167724609376,0.940386414912343,-0.33415187511146066,-0.7091666526176035
1761501976558223600,8.2102236328125,2.0086141968399285,0.870357185396552,-0.1114564877949655
1761501976568279800,8.22027978515625,3.1854853088378903,2.1123235776394607,0.41232364068105815
1761501976578335500,8.23033544921875,4.519689255273342,3.15719386485517,1.2270597688816487
1761501976588391400,8.240391357421874,3.6688463331639762,2.858539419582486,1.2728361622810362
1761501976598448600,8.25044873046875,3.1159879942417144,2.9353339054495096,1.1653647985994815
1761501976608504600,8.260504638671875,2.8319658854335543,3.7441999725729227,1.1524437960974871
1761501976618560500,8.270560546875,2.3008640357673165,4.0635447391748425,0.5721031741509214
1761501976628616400,8.280616455078125,2.0971920594811437,4.300550245264172,-0.032677111721038814
1761501976638672600,8.290672607421875,2.344670444267988,4.045487104436755,-0.41442119748219847
1761501976648729600,8.3007294921875,3.0183915433645248,3.303537103244662,-0.3617921617090702
1761501976658785500,8.31078564453125,3.5550218010634183,2.5775135699808596,0.05593744793506339
1761501976668841700,8.320841796875,3.418503206595778,2.0999697075009345,0.6641385933674872
1761501976678897700,8.330897705078126,3.779630766916275,2.0295231293559075,1.1436452072877437
1761501976688953600,8.34095361328125,4.216128333258629,1.6885662504047154,1.235503772100061
1761501976699009500,8.351009521484375,3.7035564120173454,0.8354436929255723,0.8507372697778046
1761501976709066800,8.361066650390624,3.0498043342381713,0.3586410042017698,0.6240694716989994
1761501976719122700,8.371122802734375,2.380458381485939,0.2685726107418537,0.5632216197654605
1761501976729178600,8.3811787109375,2.1681547704547643,-0.03899462430477142,0.44306795770861207
1761501976739234600,8.391234619140626,2.7962328932732343,-0.691566552388668,0.19356836929246782
1761501976749290800,8.401290771484375,3.4956600960344075,-1.4734066654205322,-0.5074784705597907
1761501976759347700,8.41134765625,2.6069717196553945,-1.6248820060014724,-1.3858359339952468
1761501976769403600,8.421403564453126,0.7886252431273459,-1.5548340717852114,-2.4546017683222887
1761501976779459800,8.4314599609375,-0.5166057068020105,-1.1327397093266247,-3.078617756268382
1761501976789515800,8.441515869140625,-2.768556950840354,-0.4494447261989116,-3.0031714701399204
1761501976799571500,8.451571533203126,-3.9634500417411327,0.09149462687075137,-2.1527761456675827
1761501976809628700,8.461628662109375,-4.317559832254052,0.794945678320527,-0.5914745218360796
1761501976819684900,8.471684814453125,-4.484734846270084,0.6729489456802606,0.2571461211139336
1761501976829740500,8.481740478515626,-2.91172214371562,0.12330080097615718,0.48432859071660783
1761501976839796500,8.49179638671875,-0.9541846386402845,0.1043161145210266,0.09353935750611125
1761501976849852700,8.501852783203125,-0.06581131955981254,0.4327063573658466,-0.6151050248030573
1761501976859908600,8.51190869140625,0.5977613104879855,0.4833291678830981,-0.9748573512475937
1761501976869965600,8.521965576171874,1.1981465397387743,0.17554887460768223,-1.0371356013104318
1761501976880021500,8.532021484375,1.2109808868706227,-0.11697656639069318,-1.2011627457547933
1761501976890077700,8.54207763671875,1.087729185733199,-0.034005145454406735,-1.1813036876179277
1761501976900133600,8.552133544921874,1.3698960220634937,0.2272343459203839,-0.8633996213436126
1761501976910189600,8.562189453125,1.1777788744926452,0.502238743275404,-0.313482815765962
1761501976920246500,8.57224658203125,0.8773708635509013,0.7710460395559668,0.3758409261319786
1761501976930302700,8.582302734375,0.9826245511829852,1.124865030428767,0.9537139523886143
1761501976940358700,8.592358642578125,0.2831996865093708,1.2295169527754186,1.415464033409208
1761501976950414600,8.60241455078125,-0.4030746046900749,0.813323338793218,1.4215030213125048
1761501976960470800,8.612470703125,-1.0038386041253804,0.44848289542943237,0.9728523681007325
1761501976970526700,8.622526611328125,-0.8568874629706144,0.33431086506545543,0.5492321843143553
1761501976980583700,8.632583740234375,-0.955332639631629,0.1339551737204194,0.08832133059687912
1761501976990639600,8.6426396484375,-0.8177402784526348,0.125246382085979,-0.2616321439541876
1761501977000695800,8.65269580078125,-0.5029126970142126,0.20947247925847767,-0.33981117951478806
1761501977010752800,8.662752685546875,-0.6324222895026207,0.4913341951623559,-0.16344503370746968
1761501977020808700,8.67280859375,-0.7216080549091101,0.5482829938307404,0.11560407246109097
1761501977030865700,8.68286572265625,-0.41407413761019707,0.2383449379995465,0.5096324337232858
1761501977040921600,8.692921630859376,0.04876490769088268,0.06106792442500591,0.6179936589166521
1761501977050977800,8.702977783203124,0.25971710411310195,0.0005769231051206588,0.36065826230831444
1761501977061033700,8.71303369140625,0.310626038095355,0.00038198505491018295,0.04068670557755977
1761501977071089700,8.723089599609375,0.42565000911355017,0.05392039075791835,-0.15543927577584982
1761501977081146600,8.733146728515624,0.4849029930710792,0.035030981370806694,-0.3225403843054548
1761501977091202800,8.743202880859375,0.0893763195425272,-0.1067646767169237,-0.4420471632935106
1761501977101258800,8.7532587890625,-0.21318273195326326,-0.19799860682487486,-0.40790538584738967
1761501977111314700,8.763314697265624,-0.2235854680240154,-0.17374737814366817,-0.320794088627398
1761501977121371000,8.773370849609375,-0.18551321926116943,-0.1098085744574666,-0.22594260734310373
1761501977131426800,8.7834267578125,-0.36877427568137644,0.020047347250580785,-0.0922238909933716
1761501977141483800,8.79348388671875,-0.34513679498434063,-0.05942454113215208,0.05859240115694701
1761501977151539700,8.803539794921875,-0.3119733610510826,-0.05268295791745185,0.1314080099882558
1761501977161596000,8.813595947265625,-0.41337212682068347,0.07190583704262972,0.24496716915089636
1761501977171651600,8.823651611328126,-0.3919377091258764,0.03813070095181465,0.3644744230629876
1761501977181707500,8.83370751953125,-0.2872422398984432,0.04313946902453899,0.2790917397338897
1761501977191764500,8.843764404296875,-0.43284430453181266,0.09306377588361502,0.16686276972908526
1761501977201820700,8.853820556640626,-0.49409810691773887,0.07149900980740785,0.14902352698203175
1761501977211876600,8.863876708984375,-0.4922913497567177,0.14634060804098845,0.054584882548637685
1761501977221932500,8.8739326171875,-0.46318917391300196,0.19069412903040647,-0.008842574081942438
1761501977231988700,8.88398876953125,-0.28117548720538615,0.05335018965452909,-0.03764521898981184
1761501977242045700,8.894045654296875,0.03952244757115841,-0.030370296083390712,0.013232443071343004
1761501977252101600,8.9041015625,-0.02878653402328491,-0.04662117366045713,0.023358188831619917
1761501977262155800,8.91415576171875,-0.02031856540739536,-0.0777560243755579,0.03347427171440795
1761501977272211700,8.924211669921876,-0.009285130217671394,-0.1817521131619811,-0.024516090162470937
1761501977282268000,8.934267822265625,0.15088321990668774,-0.18880933819711207,-0.10667288851393386
1761501977292323800,8.94432373046875,0.10756138005256652,-0.1769780306279659,-0.16387441983437165
1761501977302380800,8.954380859375,-0.03472001572549343,-0.15272139511927962,-0.16132895486894994
1761501977312436700,8.964436767578125,-0.3423626540958881,-0.08470511286109686,-0.058605114508047694
1761501977322492700,8.97449267578125,-0.46583939616084097,0.05006722246110439,0.061975084131490436
1761501977332548600,8.984548583984376,-0.3198158912450075,0.1161456685245037,0.06529487620396539
1761501977342604500,8.9946044921875,-0.34931203484237194,-0.032052696212381125,0.030356157960183917
1761501977352660700,9.00466064453125,-0.41891982407569883,-0.058620677403360605,0.006808867164095863
1761501977362717700,9.0147177734375,-0.05666647459566593,0.04191211918666959,-0.04371534181688912
1761501977372773600,9.024773681640625,0.2119265944123268,0.13529402110874653,-0.0744170892111957
1761501977382829600,9.03482958984375,0.33020459879040714,0.18728154410794376,-0.07690733512435108
1761501977392885800,9.0448857421875,0.39308512559533115,0.20138269630521535,0.0036091304078698155
1761501977402941700,9.054941650390624,0.47304012131989,0.15458090538084507,0.08763141210395842
1761501977412998700,9.06499853515625,0.5414128158003092,0.11346709696501493,0.20285872367452829
1761501977423054600,9.0750546875,0.6567471679419279,0.09454875374436378,0.26179082338092846
1761501977433110800,9.08511083984375,0.8476052553623914,-0.033303719186782835,0.22520459365844725
1761501977443166700,9.095166748046875,1.0490765067338943,-0.09521744678616523,0.19708216783339155
1761501977453222700,9.10522265625,0.9211772720515727,-0.020528116504848003,0.19901936470735818
1761501977463279600,9.115279541015624,0.9531231468886137,-0.02486643797010183,0.24528403481403363
1761501977473335800,9.125335693359375,0.8877262533485889,-0.029245091445744036,0.18936138258930293
1761501977483391700,9.135391845703126,0.47578269802629947,0.09101824153065681,0.05928838406447321
1761501977493447700,9.14544775390625,0.012500585132837295,0.23558453337550161,-0.02251002930337563
1761501977503504000,9.15550390625,-0.08105038974583148,0.3786415897011757,0.031793497286923225
1761501977513559800,9.165559814453125,0.026229250755906104,0.5068988440409302,0.10095460219867528
1761501977523616800,9.17561669921875,0.051802083429694175,0.5655851340264082,0.1346272094967775
1761501977533672700,9.185672607421875,-0.014684358912706374,0.6206383282065391,0.211339917098172
1761501977543729000,9.19572900390625,-0.046044542816281314,0.5718623145997523,0.2523500276775099
1761501977553784600,9.20578466796875,-0.16926584881544113,0.4380167387336492,0.40449590619746595
1761501977563840500,9.215840576171875,-0.4282008626401424,0.3128638801500201,0.6473018787264824
1761501977573897700,9.225897705078125,-0.6526046613097191,0.35111060869693755,0.7538951443992554
1761501977583953700,9.23595361328125,-0.35403847884237766,0.28173136752247807,0.5483137177625671
1761501977594009600,9.246009521484375,0.027924364235997198,0.22655016304850578,0.1959564517390914
1761501977604065500,9.2560654296875,0.21651742933392523,0.2828007503196597,-0.055371429816447194
1761501977614121700,9.266121826171876,0.34612463697791096,0.30922815399616954,-0.09210601850105449
1761501977624178700,9.2761787109375,0.47209261133670805,0.2553165310665965,-0.06225899737309664
1761501977634234600,9.286234619140625,0.3234048556476831,0.18954057508111,-0.04406484024114907
1761501977644290600,9.29629052734375,0.17238602666258812,0.1562242886736989,0.03462708587818779
1761501977654346800,9.3063466796875,0.2360778698503971,0.18335311861783266,0.10828306365692987
1761501977664402700,9.316402587890625,0.2723585590213537,0.19771511370837688,0.10795996004925108
1761501977674459600,9.326459716796874,0.28960546189844605,0.16408756939470767,0.12914796523493713
1761501977684516600,9.3365166015625,0.2196650797098875,0.0863040724903345,0.15891940950918942
1761501977694572800,9.34657275390625,0.07593056251406669,0.11277853017896414,0.16740958995688707
1761501977704628700,9.356628662109374,0.17049276026189325,0.18899960007220507,0.13158840805646033
1761501977714684700,9.3666845703125,0.20638708046376705,0.13976795165240763,0.05626304489392787
1761501977724740900,9.376740966796875,0.1187339314520359,0.01296703360080719,0.034076310994476076
1761501977734797800,9.3867978515625,0.08831190518140793,-0.066133098860085,0.0525435129141435
1761501977744853800,9.396853759765625,0.02934825955927372,0.036737200766801835,0.08569569480102508
1761501977754909700,9.40690966796875,0.0017921441137790678,0.12039777301102876,0.08592975928522646
1761501977764966000,9.4169658203125,0.1236176118403673,0.07080430554151534,0.08256583581008016
1761501977775021800,9.427021728515625,0.3016343378663063,-0.06503244414180517,0.07630830978527664
1761501977785078800,9.437078857421875,0.39887189230322834,-0.1156143381267786,0.03979688059836626
1761501977795134700,9.447134765625,0.3245867589086294,-0.08439823886901139,0.040364524418488146
1761501977805191000,9.45719091796875,0.217351542070508,-0.09715981302559375,-0.016026932628080248
1761501977815246800,9.467246826171875,0.10819383273720741,-0.15600187809467314,-0.10184059125296771
1761501977825302500,9.477302490234376,0.029849779340624806,-0.1453486743941903,-0.11010116419587283
1761501977835358700,9.487358642578124,-0.12123100896477698,-0.03587853811085224,-0.09766666656918824
1761501977845415700,9.497415771484375,-0.3401712815314531,0.07881050186455249,-0.04456815012078732
1761501977855471600,9.5074716796875,-0.34102468349039555,0.1394280521735549,0.05146309726629406
1761501977865527600,9.517527587890624,-0.20475860247910022,0.15901888782829046,0.057261481346748765
1761501977875583700,9.527583740234375,-0.14079963278770447,0.2090264890566468,0.0017127222020179031
1761501977885639700,9.5376396484375,-0.11842355032861232,0.18309271411597727,0.011353314793854952
1761501977895696600,9.547696533203125,0.014757424148917198,0.12235182968825101,0.06170925453584641
1761501977905752600,9.557752685546875,0.02903320226073265,0.060142626273632045,0.17630133694279937
1761501977915808800,9.567808837890626,-0.02723229031860828,0.06035100832730531,0.24747644855808465
1761501977925864700,9.57786474609375,-0.03150456081032753,0.011860241402685642,0.2804217827612534
1761501977935920600,9.587920654296875,0.1849737055569887,-0.0591357873186469,0.20006330253602936
1761501977945977600,9.5979775390625,0.31033786880373954,0.017855390164256094,0.042742085471097375
1761501977956033800,9.60803369140625,0.2914700867265463,0.08359335222691297,-0.12993132503181695
1761501977966089700,9.61808984375,0.20558803904056547,0.08581745801717043,-0.194544374717772
1761501977976145700,9.628145751953125,-0.009177578189969062,0.0036409868508577347,-0.17264325282666831
1761501977986201900,9.638201904296874,-0.2470879241645336,0.012355915965139866,-0.13524079308416695
1761501977996258800,9.6482587890625,-0.33370471586585043,0.055791737587749954,-0.0633523821003735
1761501978006314000,9.65831396484375,-0.23056758199632166,0.1038347607448697,0.0366671129389666
1761501978016370200,9.6683701171875,-0.13797697658240796,0.15062076957821846,0.07863499916717409
1761501978026426000,9.678426025390625,-0.014376315876841544,0.12414689641147851,0.07562018139064311
1761501978036482000,9.68848193359375,0.1584486867249012,0.01624474009722471,0.048745728066377336
1761501978046538200,9.698538330078126,0.29935236440896984,-0.05322276388257741,-0.015520042551867662
1761501978056595200,9.70859521484375,0.4178402121454477,-0.07732230913341046,-0.08509959207139908
1761501978066651100,9.718651123046875,0.48712885242700577,-0.12128390819579363,-0.11466467271912842
1761501978076707000,9.72870703125,0.45949967174530026,-0.14927520018815993,-0.11899079228993505
1761501978086763300,9.73876318359375,0.34906536660492415,-0.11776304059326648,-0.08195555842462926
1761501978096819200,9.748819091796875,0.30736206786334513,-0.07322393390387297,-0.05051701205521822
1761501978106876200,9.758876220703126,0.30313422103524207,-0.03463701361715794,-0.060117857158556574
1761501978116932000,9.76893212890625,0.08823124116063118,0.03733516665995121,-0.02278586883638054
1761501978126988300,9.77898828125,-0.12636603376567362,0.0141167881578207,0.022907832981925457
1761501978137044200,9.789044189453126,-0.13280045072734356,0.05143237333446741,0.04103469703132286
1761501978147100200,9.79910009765625,0.022371406283974646,0.07747165447622537,-0.0013693886570632456
1761501978157157000,9.8091572265625,0.15477321308255196,0.01875526161342859,-0.05702442118786275
1761501978167213300,9.81921337890625,0.10042261421382427,0.010454466257989407,-0.06306622210275381
1761501978177269200,9.829269287109375,0.0486509259223938,-0.05053483997285366,-0.05417421938851475
1761501978187325200,9.8393251953125,0.09149404234886169,-0.10724252336174249,-0.10756631195601075
1761501978197381000,9.849381103515626,0.08063888633549213,-0.03407002738416195,-0.20870945899672805
1761501978207437000,9.85943701171875,0.060333180409669875,0.10292845955491066,-0.21778204244226215
1761501978217494000,9.869493896484375,-0.1680856991201639,0.1482420577481389,-0.1386247729666531
1761501978227550000,9.879550048828126,-0.24672727415859697,0.11171119320839643,-0.035030396848917005
1761501978237606100,9.889606201171874,-0.24169220260083674,0.08817775740772485,0.037203978028334674
1761501978247662000,9.899662109375,-0.24814883139431476,0.11787643783986568,0.03505202415883541
1761501978257718000,9.909718017578125,-0.12689853320717812,0.12734306210428475,0.04135539861936122
1761501978267775000,9.91977490234375,-0.07331891871094703,0.10138356820046901,0.06731350428368896
1761501978277831200,9.9298310546875,-0.14888941574096679,0.11497750152796506,0.10614508351385593
1761501978287887000,9.93988720703125,-0.11048398950099944,0.08558832543641329,0.08459061963595449
1761501978297943000,9.949943115234374,0.016260814449191092,0.04921382050216198,-0.016370594966597853
1761501978307999200,9.959999267578125,-0.017020108383893964,0.08605652747005224,-0.08734251215998083
1761501978318056200,9.97005615234375,0.2992155862867832,0.18627748163193464,-0.13841171473786235
1761501978328112000,9.980112060546874,0.40377077026069164,0.3548287524372339,-0.05425685617066919
1761501978338168000,9.99016796875,-0.3172100926607847,0.3075000150293112,0.13428506326191125
1761501978348224300,10.000224365234375,-0.3260644302457571,0.15637129592895507,0.22090002833232283
1761501978358280200,10.0102802734375,-0.4305564858555794,0.11794015072584152,0.24102193865645674
1761501978368337200,10.020337158203125,-0.3997194490432739,0.2033630564674735,0.28642595507949586
1761501978378393000,10.03039306640625,-0.17878069613575934,0.07777589811980724,0.1685460101082921
1761501978388449300,10.04044921875,0.13856851273477078,0.02611965290158987,0.07557926485836505
