time,seconds_elapsed,z,y,x
1761501968462991600,0.11499169921875,0.0809234157204628,0.3206416666507721,-0.03997667506337166
1761501968473047800,0.1250478515625,0.09070920199155807,0.37816566228866577,-0.026429705321788788
1761501968483103500,0.135103515625,0.099727101624012,0.396120548248291,-0.020027514547109604
1761501968493160700,0.14516064453125,0.09479332715272903,0.3987874388694763,-0.009633995592594147
1761501968503216600,0.155216552734375,0.06886611133813858,0.3948635458946228,0.01977948099374771
1761501968513272600,0.1652724609375,0.03526953607797623,0.39700260758399963,0.07057075947523117
1761501968523328500,0.17532861328125,0.012933358550071716,0.4066013991832733,0.13241639733314514
1761501968533384400,0.185384521484375,0.011313358321785927,0.40901583433151245,0.1862308830022812
1761501968543441400,0.19544140625,0.023795202374458313,0.4100501537322998,0.2179664969444275
1761501968553497600,0.20549755859375,0.05771908164024353,0.4168470799922943,0.22208213806152344
1761501968563553500,0.215553466796875,0.11077439039945602,0.4449830651283264,0.20729833841323853
1761501968573609500,0.225609375,0.1581091433763504,0.4968039095401764,0.2102893441915512
1761501968583665700,0.235665771484375,0.19683536887168884,0.5377305150032043,0.22743825614452362
1761501968593722600,0.24572265625,0.22442172467708588,0.57300865650177,0.2461690604686737
1761501968603778600,0.255778564453125,0.2489556521177292,0.6180090308189392,0.24119429290294647
1761501968613834500,0.26583447265625,0.2533959448337555,0.6493635177612305,0.21297942101955414
1761501968623890700,0.275890625,0.25211215019226074,0.6377769112586975,0.16622066497802734
1761501968633946600,0.285946533203125,0.2467631995677948,0.629379391670227,0.11480274796485901
1761501968644003600,0.296003662109375,0.23016424477100372,0.6211108565330505,0.07775308191776276
1761501968654059800,0.306059814453125,0.2030434012413025,0.6117684841156006,0.07726598531007767
1761501968664115700,0.31611572265625,0.14971193671226501,0.5983720421791077,0.11225523054599762
1761501968674171600,0.326171630859375,0.08556491136550903,0.6598803997039795,0.13095061480998993
1761501968684227600,0.3362275390625,0.026760749518871307,0.7451522946357727,0.08705472946166992
1761501968694284800,0.346284912109375,0.015542717650532722,0.7976652979850769,-0.015207724645733833
1761501968704340700,0.3563408203125,0.04723291099071503,0.8281367421150208,-0.08936399221420288
1761501968714396700,0.366396728515625,0.10634630173444748,0.8439719080924988,-0.10679943859577179
1761501968724452600,0.37645263671875,0.1691904366016388,0.8527792692184448,-0.0719284787774086
1761501968734508500,0.386508544921875,0.2063194215297699,0.8532869219779968,0.02019425667822361
1761501968744565800,0.396565673828125,0.22065337002277374,0.8224897980690002,0.13790790736675262
1761501968754621700,0.40662158203125,0.2189079374074936,0.7403731346130371,0.23929870128631592
1761501968764677600,0.416677734375,0.20351387560367584,0.6467706561088562,0.2732456624507904
1761501968774733600,0.426733642578125,0.1804218590259552,0.6081604361534119,0.2058756798505783
1761501968784789500,0.43678955078125,0.1641165316104889,0.607941746711731,0.05596156790852547
1761501968794846500,0.446846435546875,0.17827336490154266,0.5965591669082642,-0.11357500404119492
1761501968804902700,0.456902587890625,0.20510320365428925,0.5768676400184631,-0.22911711037158966
1761501968814958600,0.46695849609375,0.22212132811546326,0.5575869083404541,-0.2454659789800644
1761501968825014500,0.4770146484375,0.22261494398117065,0.5291730761528015,-0.1817425787448883
1761501968835070700,0.48707080078125,0.20598085224628448,0.5158144235610962,-0.07996214926242828
1761501968845127700,0.497127685546875,0.17603051662445068,0.5296241044998169,0.01386825367808342
1761501968855183600,0.50718359375,0.15009957551956177,0.5508532524108887,0.06770884990692139
1761501968865239600,0.517239501953125,0.1158645823597908,0.5730253458023071,0.07668229192495346
1761501968875295700,0.527295654296875,0.08293033391237259,0.5987181663513184,0.02828972600400448
1761501968885351700,0.5373515625,0.049881335347890854,0.620224118232727,-0.052218496799468994
1761501968895408600,0.54740869140625,0.0162072591483593,0.608723521232605,-0.12339413911104202
1761501968905464600,0.557464599609375,-0.015217890962958336,0.5575383305549622,-0.17478932440280914
1761501968915520800,0.567520751953125,-0.043353121727705,0.5399348139762878,-0.17191044986248016
1761501968925576700,0.57757666015625,-0.08417300134897232,0.5234661102294922,-0.12323140352964401
1761501968935632600,0.587632568359375,-0.11253193765878677,0.4870713949203491,-0.05888863280415535
1761501968945689600,0.597689697265625,-0.0965641513466835,0.39512842893600464,0.0017662281170487404
1761501968955745800,0.607745849609375,-0.033569205552339554,0.25188764929771423,0.049430422484874725
1761501968965801700,0.6178017578125,0.04892917722463608,0.07715611159801483,0.06657745689153671
1761501968975857700,0.627857666015625,0.09223909676074982,-0.10659294575452805,0.04259462282061577
1761501968985913600,0.63791357421875,0.10979782044887543,-0.23283539712429047,0.005316790658980608
1761501968995968800,0.64796875,0.09445427358150482,-0.32129204273223877,-0.03867436945438385
1761501969006025700,0.658025634765625,0.0595412440598011,-0.33829131722450256,-0.07452751696109772
1761501969016082000,0.66808203125,0.013902119360864162,-0.3147422969341278,-0.08452475816011429
1761501969026137900,0.678137939453125,-0.026636455208063126,-0.2635326087474823,-0.0766478180885315
1761501969036193800,0.68819384765625,-0.07164733856916428,-0.20669730007648468,-0.04780711233615875
1761501969046250000,0.69825,-0.11806459724903107,-0.17211070656776428,0.0016687624156475067
1761501969056307000,0.708306884765625,-0.16107624769210815,-0.16927896440029144,0.07429663091897964
1761501969066363000,0.71836279296875,-0.18554125726222992,-0.18931658565998077,0.14116273820400238
1761501969076418600,0.72841845703125,-0.1977052390575409,-0.20295463502407074,0.17807893455028534
1761501969086474800,0.738474853515625,-0.1909068524837494,-0.20039799809455872,0.1681825965642929
1761501969096530700,0.74853076171875,-0.17513161897659302,-0.21367545425891876,0.11264664679765701
1761501969106587600,0.758587646484375,-0.15201659500598907,-0.20844411849975586,0.07474635541439056
1761501969116643600,0.7686435546875,-0.13320456445217133,-0.21256056427955627,0.06680294871330261
1761501969126699800,0.77869970703125,-0.11283323168754578,-0.18612875044345856,0.0676589086651802
1761501969136755700,0.788755615234375,-0.0959210991859436,-0.13329777121543884,0.0658293142914772
1761501969146811600,0.798811767578125,-0.05716472119092941,-0.15732820332050323,0.03797058388590813
1761501969156868600,0.80886865234375,-0.006764933001250029,-0.22657571732997894,0.012817293405532837
1761501969166924800,0.8189248046875,0.03850777447223663,-0.30449622869491577,0.001014098059386015
1761501969176980700,0.828980712890625,0.06790108233690262,-0.37679094076156616,-0.013194132596254349
1761501969187036700,0.83903662109375,0.09468410909175873,-0.38523319363594055,-0.05791650712490082
1761501969197092900,0.8490927734375,0.13167594373226166,-0.414745032787323,-0.11231449991464615
1761501969207149800,0.85914990234375,0.16286776959896088,-0.47420787811279297,-0.1464698314666748
1761501969217205800,0.869205810546875,0.16838371753692627,-0.5145907402038574,-0.1335974484682083
1761501969227261700,0.87926171875,0.1502208262681961,-0.5558891892433167,-0.08768395334482193
1761501969237318000,0.88931787109375,0.10760865360498428,-0.5683959126472473,-0.022276459261775017
1761501969247373800,0.899373779296875,0.06591460108757019,-0.5501745939254761,0.07128356397151947
1761501969257430800,0.9094306640625,0.028952324762940407,-0.5469566583633423,0.1873079091310501
1761501969267486700,0.91948681640625,-0.0049161664210259914,-0.5737661719322205,0.2906678318977356
1761501969277543000,0.92954296875,-0.03429749235510826,-0.5531471967697144,0.32361939549446106
1761501969287598800,0.939598876953125,-0.058004770427942276,-0.4852583408355713,0.2591216266155243
1761501969297654800,0.94965478515625,-0.05410776659846306,-0.43084409832954407,0.10059244930744171
1761501969307711700,0.959711669921875,-0.030660275369882584,-0.40313825011253357,-0.12311868369579315
1761501969317768000,0.969767822265625,-0.027074594050645828,-0.39555463194847107,-0.34555068612098694
1761501969327823600,0.97982373046875,-0.055428385734558105,-0.3382578492164612,-0.46408990025520325
1761501969337879600,0.989879638671875,-0.1330009400844574,-0.2602192461490631,-0.4306805431842804
1761501969347935700,0.999935791015625,-0.2272997498512268,-0.228566512465477,-0.2678477168083191
1761501969357992700,1.00999267578125,-0.28280773758888245,-0.20957525074481964,-0.026112305000424385
1761501969368048600,1.020048583984375,-0.3089054822921753,-0.26797160506248474,0.24977731704711914
1761501969378104600,1.0301044921875,-0.29372066259384155,-0.3797554075717926,0.45290514826774597
1761501969388160800,1.040160888671875,-0.21710267663002014,-0.47781482338905334,0.5287326574325562
1761501969398216700,1.050216796875,-0.09820771217346191,-0.5185710191726685,0.47989317774772644
1761501969408273700,1.060273681640625,0.02619119919836521,-0.535643458366394,0.33309677243232727
1761501969418329600,1.07032958984375,0.14355351030826569,-0.5126966238021851,0.1273002028465271
1761501969428385800,1.0803857421875,0.2280484139919281,-0.48078739643096924,-0.09259358048439026
1761501969438441700,1.090441650390625,0.26018425822257996,-0.393500417470932,-0.2719801068305969
1761501969448497700,1.10049755859375,0.21537625789642334,-0.29305461049079895,-0.3668820858001709
1761501969458553900,1.110553955078125,0.1459423154592514,-0.20917755365371704,-0.3368125855922699
1761501969468610800,1.12061083984375,0.06295764446258545,-0.17090056836605072,-0.20819391310214996
1761501969478666800,1.130666748046875,-0.019199009984731674,-0.17562393844127655,-0.02838820591568947
1761501969488722700,1.14072265625,-0.09017271548509598,-0.171540305018425,0.1426026076078415
1761501969498779000,1.15077880859375,-0.14971354603767395,-0.18834005296230316,0.2628968060016632
1761501969508834800,1.160834716796875,-0.21094141900539398,-0.27024391293525696,0.303649365901947
1761501969518891800,1.170891845703125,-0.29756873846054077,-0.439473956823349,0.2761554419994354
1761501969528947700,1.18094775390625,-0.3944321274757385,-0.3219502866268158,0.2663015127182007
1761501969539004000,1.19100390625,-0.4130795896053314,-0.07507390528917313,0.20094433426856995
1761501969549059800,1.201059814453125,-0.38218316435813904,0.07950965315103531,0.08218193054199219
1761501969559115800,1.21111572265625,-0.3638494312763214,0.15098837018013,-0.0471654050052166
1761501969569172700,1.2211728515625,-0.3458269238471985,0.31949126720428467,-0.12474989145994186
1761501969579228700,1.231228759765625,-0.3564201891422272,0.5031800866127014,-0.16013158857822418
1761501969589284600,1.24128466796875,-0.3973175585269928,0.6680984497070312,-0.24891570210456848
1761501969599340800,1.2513408203125,-0.4330531656742096,0.8001691699028015,-0.39866524934768677
1761501969609396700,1.261396728515625,-0.44252875447273254,0.7101758122444153,-0.59543776512146
1761501969619453700,1.27145361328125,-0.3165295422077179,0.34675368666648865,-0.8392946124076843
1761501969629509600,1.281509521484375,-0.06908145546913147,-0.06257981806993484,-1.0530946254730225
1761501969639565800,1.29156591796875,0.22158925235271454,-0.35923492908477783,-1.1194449663162231
1761501969649621800,1.301621826171875,0.4369848072528839,-0.2668954133987427,-0.8426159024238586
1761501969659677700,1.311677734375,0.4482102692127228,-0.01572071760892868,-0.21550144255161285
1761501969669734700,1.321734619140625,0.29193827509880066,0.10113506764173508,0.5232916474342346
1761501969679790800,1.331790771484375,0.05982086807489395,0.17877286672592163,1.1522493362426758
1761501969689846800,1.3418466796875,-0.150813490152359,0.21970394253730774,1.4322190284729004
1761501969699902700,1.35190283203125,-0.3212829828262329,0.168240487575531,1.1001486778259277
1761501969709959000,1.361958984375,-0.4122106432914734,0.21423065662384033,0.2417413890361786
1761501969720016000,1.372015869140625,-0.39240923523902893,0.42017877101898193,-0.7885895371437073
1761501969730071800,1.38207177734375,-0.309628427028656,0.4801170229911804,-1.4086247682571411
1761501969740127700,1.392127685546875,-0.2348998486995697,0.32105544209480286,-1.2452396154403687
1761501969750184000,1.402183837890625,-0.20692215859889984,0.3267984092235565,-0.6616433262825012
1761501969760239900,1.412239990234375,-0.20371730625629425,0.18186597526073456,-0.0974675863981247
1761501969770296800,1.422296875,-0.0431450791656971,-0.15845990180969238,0.5084167122840881
1761501969780352800,1.432352783203125,0.21239402890205383,-0.4247152805328369,0.9412823915481567
1761501969790409000,1.442408935546875,0.43232303857803345,-0.32270050048828125,0.9163716435432434
1761501969800465000,1.45246484375,0.599209189414978,-0.047387149184942245,0.5613840222358704
1761501969810520600,1.4625205078125,0.7126989364624023,0.1823384165763855,0.22891613841056824
1761501969820577800,1.472577880859375,0.741567075252533,0.36682596802711487,0.014539126306772232
1761501969830633700,1.4826337890625,0.7262063026428223,0.39195045828819275,-0.08108846098184586
1761501969840689700,1.492689697265625,0.647855281829834,0.3491111397743225,-0.09449880570173264
1761501969850745600,1.50274560546875,0.4089270830154419,0.3373221457004547,-0.052626557648181915
1761501969860801800,1.5128017578125,0.03124234825372696,0.3447566032409668,0.1501031070947647
1761501969870857700,1.522857666015625,-0.31390583515167236,0.5325332880020142,0.5038589239120483
1761501969880914700,1.532914794921875,-0.5883472561836243,0.9235564470291138,0.8736585378646851
1761501969890970600,1.542970703125,-0.783512532711029,1.4278829097747803,1.113718867301941
1761501969901026800,1.55302685546875,-0.8313705921173096,1.8099464178085327,1.1715443134307861
1761501969911082800,1.563082763671875,-0.6676724553108215,1.7179657220840454,1.1354533433914185
1761501969921138700,1.573138671875,-0.4113040268421173,1.3821823596954346,1.0703984498977661
1761501969931195600,1.583195556640625,-0.10687854140996933,0.9555281400680542,0.847815990447998
1761501969941251800,1.593251953125,0.1410098373889923,0.6666995286941528,0.4990620017051697
1761501969951307800,1.603307861328125,0.33575525879859924,0.6134175062179565,0.03819430619478226
1761501969961363700,1.61336376953125,0.46006202697753906,0.6497169137001038,-0.46806570887565613
1761501969971420000,1.623419921875,0.49570441246032715,0.7644386291503906,-0.8207502365112305
1761501969981476900,1.633476806640625,0.41199594736099243,0.8257474899291992,-0.9070377349853516
1761501969991532800,1.64353271484375,0.27253466844558716,0.7353413701057434,-0.6887650489807129
1761501970001588200,1.653588134765625,0.08929293602705002,0.5843901634216309,-0.3411082923412323
1761501970011644200,1.66364404296875,-0.13125601410865784,0.30569618940353394,-0.08624357730150223
1761501970021700000,1.6737001953125,-0.2895258069038391,-0.07195097208023071,0.051732394844293594
1761501970031757000,1.683757080078125,-0.437049001455307,-0.4877718389034271,0.10568550229072571
1761501970041813200,1.693813232421875,-0.5073248147964478,-0.8883733153343201,0.07157387584447861
1761501970051869200,1.703869140625,-0.41769886016845703,-1.1367390155792236,0.0159147921949625
1761501970061925000,1.713925048828125,-0.1806897670030594,-1.2488676309585571,-0.030084656551480293
1761501970071981300,1.723981201171875,0.09271925687789917,-1.1639350652694702,-0.07394560426473618
1761501970082038300,1.734038330078125,0.3580777049064636,-1.0006057024002075,-0.18962080776691437
1761501970092094200,1.74409423828125,0.6034490466117859,-0.8046273589134216,-0.4325830638408661
1761501970102150100,1.754150146484375,0.8203842639923096,-0.3508431017398834,-0.7242242097854614
1761501970112206300,1.764206298828125,0.9108342528343201,-0.11749384552240372,-1.0231131315231323
1761501970122262300,1.77426220703125,0.855768620967865,-0.020049579441547394,-1.068857192993164
1761501970132319200,1.7843193359375,0.5972402095794678,-0.03493737801909447,-0.8765918016433716
1761501970142375200,1.794375244140625,0.22419124841690063,-0.026934843510389328,-0.5223549008369446
1761501970152431000,1.80443115234375,-0.20407092571258545,0.09045437723398209,0.018055055290460587
1761501970162487000,1.814487060546875,-0.590247392654419,0.2030818611383438,0.5213424563407898
1761501970172543000,1.82454296875,-0.8969652056694031,0.23223944008350372,0.8504347205162048
1761501970182600000,1.834599853515625,-1.0473525524139404,0.25289759039878845,0.9152736663818359
1761501970192656100,1.84465625,-0.9804004430770874,0.1431184858083725,0.7503928542137146
1761501970202712000,1.854712158203125,-0.6122546195983887,-0.0071815308183431625,0.5219748616218567
1761501970212768000,1.86476806640625,-0.05205541476607323,-0.31334564089775085,0.23193253576755524
1761501970222824200,1.87482421875,0.35147368907928467,-0.3984254002571106,-0.1797277182340622
1761501970232880000,1.884880126953125,0.5817394852638245,-0.3642241656780243,-0.5991794466972351
1761501970242937000,1.89493701171875,0.8165687322616577,-0.233750581741333,-0.8260117769241333
1761501970252993000,1.904992919921875,0.7392968535423279,0.07084275782108307,-0.9317682385444641
1761501970263049200,1.91504931640625,0.17426727712154388,0.1801822930574417,-0.6634901762008667
1761501970273105200,1.925105224609375,-0.42673739790916443,0.20069259405136108,0.19293969869613647
1761501970283161000,1.9351611328125,-0.28453630208969116,0.09597550332546234,1.1593304872512817
1761501970293218000,1.945218017578125,0.23421435058116913,-0.00919340830296278,1.3637810945510864
1761501970303274200,1.955274169921875,0.6738441586494446,-0.03563540056347847,0.8413311839103699
1761501970313330200,1.965330078125,0.9577299356460571,-0.12920434772968292,0.23264288902282715
1761501970323386000,1.97538623046875,1.1529148817062378,-0.3259515166282654,-0.174966961145401
1761501970333442300,1.9854423828125,1.3158973455429077,-0.4081248641014099,-0.34759435057640076
1761501970343499300,1.995499267578125,1.380876898765564,-0.1927555650472641,-0.27655133605003357
1761501970353555200,2.00555517578125,1.2670100927352905,0.20856338739395142,-0.05403412878513336
1761501970363611100,2.015611083984375,0.9957853555679321,0.6931276917457581,0.1874043196439743
1761501970373667300,2.025667236328125,0.517110288143158,1.0091434717178345,0.11552399396896362
1761501970383723000,2.035722900390625,-0.09287641942501068,1.3353468179702759,-0.2035410851240158
1761501970393779000,2.045779052734375,-0.6861180663108826,1.5184959173202515,-0.40681135654449463
1761501970403836000,2.0558359375,-1.0715360641479492,1.491174578666687,-0.34763139486312866
1761501970413892000,2.06589208984375,-1.1778781414031982,1.345766544342041,-0.1396992951631546
1761501970423948000,2.075947998046875,-1.0402772426605225,1.1053688526153564,0.0668213814496994
1761501970434004000,2.08600390625,-0.7941980361938477,0.8353314399719238,0.1419694423675537
1761501970444060200,2.09606005859375,-0.643399178981781,0.5016141533851624,0.04022577777504921
1761501970454117000,2.1061171875,-0.5412779450416565,0.23044800758361816,-0.10189245641231537
1761501970464173000,2.116173095703125,-0.36581137776374817,0.03580448031425476,-0.13145247101783752
1761501970474229000,2.12622900390625,-0.12503333389759064,-0.15732386708259583,-0.07386351376771927
1761501970484285200,2.13628515625,0.09778748452663422,-0.3518880307674408,0.06793063879013062
1761501970494341000,2.146341064453125,0.27305611968040466,-0.5627739429473877,0.22532856464385986
1761501970504398000,2.156398193359375,0.4157373607158661,-0.663630485534668,0.34672102332115173
1761501970514454000,2.1664541015625,0.5184082388877869,-0.6057788133621216,0.39229828119277954
1761501970524510200,2.17651025390625,0.5498982667922974,-0.4598327577114105,0.34590601921081543
1761501970534566100,2.186566162109375,0.4956791400909424,-0.3908839821815491,0.1851123720407486
1761501970544622000,2.1966220703125,0.41050007939338684,-0.340117484331131,-0.0034263734705746174
1761501970554679000,2.206678955078125,0.2895347476005554,-0.2793501019477844,-0.13070060312747955
1761501970564735200,2.2167353515625,0.1635776162147522,-0.20497575402259827,-0.16523727774620056
1761501970574791200,2.226791259765625,0.04885874688625336,-0.12712247669696808,-0.14245827496051788
1761501970584847000,2.23684716796875,-0.04871175065636635,-0.07390452921390533,-0.09050851315259933
1761501970594903300,2.2469033203125,-0.12680934369564056,-0.06131710484623909,-0.06454507261514664
1761501970604959000,2.256958984375,-0.1823951005935669,-0.14012350142002106,-0.0898943766951561
1761501970615016200,2.26701611328125,-0.24431192874908447,-0.20762938261032104,-0.15240038931369781
1761501970625072000,2.277072021484375,-0.26415514945983887,-0.20466448366641998,-0.18844999372959137
1761501970635128000,2.287128173828125,-0.2552623450756073,-0.11646656692028046,-0.18767149746418
1761501970645184000,2.29718408203125,-0.24218648672103882,0.07321308553218842,-0.13862831890583038
1761501970655240000,2.307239990234375,-0.20919668674468994,0.2525981366634369,-0.06358957290649414
1761501970665297200,2.317297119140625,-0.13460926711559296,0.3242283761501312,-0.020816542208194733
1761501970675353000,2.32735302734375,-0.08064363151788712,0.19783900678157806,0.05301671847701073
1761501970685409000,2.337408935546875,-0.1337374597787857,-0.040087539702653885,0.25256630778312683
1761501970695465000,2.34746484375,-0.2004663348197937,-0.3177461326122284,0.49850156903266907
1761501970705521200,2.357521240234375,-0.15336354076862335,-0.6604254841804504,0.6405177712440491
1761501970715578000,2.367578125,-0.02611316740512848,-0.8723487854003906,0.4648091793060303
1761501970725634000,2.377634033203125,0.14307904243469238,-0.9578357338905334,-0.14793917536735535
1761501970735690200,2.387690185546875,0.23567987978458405,-0.8707143068313599,-1.0545654296875
1761501970745746200,2.39774609375,0.14618143439292908,-0.5594613552093506,-1.4925537109375
1761501970755802000,2.407802001953125,-0.0784849151968956,-0.33438318967819214,-0.9417343735694885
1761501970765859000,2.417859130859375,-0.4161481559276581,-0.3725883364677429,-0.00132348807528615
1761501970775915300,2.427915283203125,-0.6546611785888672,-0.2741752564907074,0.7162135243415833
1761501970785971200,2.43797119140625,-0.6940336227416992,-0.017349084839224815,0.8869820833206177
1761501970796027100,2.448027099609375,-0.5613924860954285,0.10676172375679016,0.6352407932281494
1761501970806083300,2.458083251953125,-0.3422513008117676,0.06944204866886139,0.2587246298789978
1761501970816139300,2.46813916015625,-0.08493626862764359,0.017135048285126686,-0.023884309455752373
1761501970826196200,2.4781962890625,0.23262625932693481,-0.06495103240013123,-0.2566531002521515
1761501970836252200,2.488252197265625,0.5013713240623474,-0.036614131182432175,-0.43576687574386597
1761501970846308400,2.498308349609375,0.7428361773490906,0.13129498064517975,-0.6817479133605957
1761501970856364000,2.508364013671875,0.9421294927597046,0.3729311525821686,-0.8596454858779907
1761501970866420000,2.518419921875,0.9778509736061096,0.5351901054382324,-0.7117231488227844
1761501970876477200,2.528477294921875,0.8302635550498962,0.5768749117851257,-0.34257274866104126
1761501970886533000,2.538533203125,0.6123418807983398,0.6590976119041443,-0.045520029962062836
1761501970896589000,2.548589111328125,0.42511045932769775,0.7379747033119202,0.12078768759965897
1761501970906645000,2.55864501953125,0.3280230760574341,0.7667813301086426,0.21704578399658203
1761501970916701200,2.568701171875,0.2645145356655121,0.8333027362823486,0.2888800799846649
1761501970926758100,2.578758056640625,0.21866339445114136,0.8241544961929321,0.27671822905540466
1761501970936814000,2.58881396484375,0.25737667083740234,0.7193117141723633,0.19333133101463318
1761501970946870000,2.5988701171875,0.3573315143585205,0.6656074523925781,0.138838529586792
1761501970956926200,2.60892626953125,0.43187373876571655,0.6715922951698303,0.09839209169149399
1761501970966982100,2.618982177734375,0.4594859182834625,0.6258447766304016,0.06807786226272583
1761501970977038000,2.6290380859375,0.48323652148246765,0.5164608955383301,0.14170481264591217
1761501970987095000,2.639094970703125,0.5137829780578613,0.4647705554962158,0.3681371510028839
1761501970997152500,2.649152587890625,0.46659043431282043,0.4267387390136719,0.6108267903327942
1761501971007208700,2.659208740234375,0.3119734227657318,0.3813305199146271,0.6882187724113464
1761501971017264600,2.6692646484375,0.1624179184436798,0.3093920052051544,0.6015892028808594
1761501971027320600,2.679320556640625,0.01158900186419487,0.18078956007957458,0.4232533276081085
1761501971037377500,2.68937744140625,-0.14555342495441437,0.011488480493426323,0.1690775454044342
1761501971047433700,2.699433837890625,-0.27512606978416443,-0.14736534655094147,-0.11639894545078278
1761501971057489700,2.70948974609375,-0.33892884850502014,-0.32283785939216614,-0.37318482995033264
1761501971067545600,2.719545654296875,-0.29307985305786133,-0.5107697248458862,-0.5723256468772888
1761501971077601800,2.729601806640625,-0.16476020216941833,-0.5936206579208374,-0.7118176221847534
1761501971087658800,2.73965869140625,-0.010977566242218018,-0.5816929340362549,-0.751443088054657
1761501971097714700,2.749714599609375,0.1339210867881775,-0.5465636253356934,-0.7623510956764221
1761501971107770600,2.7597705078125,0.23272036015987396,-0.5435212254524231,-0.7795143723487854
1761501971117826800,2.769826904296875,0.22271965444087982,-0.6036396622657776,-0.7793998718261719
1761501971127882500,2.779882568359375,0.13552802801132202,-0.6558336615562439,-0.731204092502594
1761501971137938400,2.7899384765625,0.007331133354455233,-0.6568433046340942,-0.6293991804122925
1761501971147995400,2.799995361328125,-0.11564432084560394,-0.6057841181755066,-0.5359494090080261
1761501971158051600,2.810051513671875,-0.20359767973423004,-0.488311767578125,-0.530301034450531
1761501971168107500,2.820107421875,-0.2543434202671051,-0.3930763304233551,-0.5974934101104736
1761501971178163500,2.83016357421875,-0.2670564353466034,-0.38867273926734924,-0.6266881227493286
1761501971188219600,2.8402197265625,-0.29769182205200195,-0.4293400049209595,-0.5858258605003357
1761501971198276600,2.850276611328125,-0.2986706793308258,-0.4858003854751587,-0.46656331419944763
1761501971208332500,2.86033251953125,-0.21727780997753143,-0.5046986937522888,-0.30657392740249634
1761501971218388500,2.870388427734375,-0.05995190143585205,-0.47529271245002747,-0.17707407474517822
1761501971228444700,2.880444580078125,0.1271546185016632,-0.40731579065322876,-0.09123373031616211
1761501971238500600,2.89050048828125,0.2586820125579834,-0.25582587718963623,-0.035727255046367645
1761501971248557600,2.9005576171875,0.18139469623565674,-0.111564040184021,-0.14276476204395294
1761501971258613500,2.910613525390625,-0.12908773124217987,0.07135139405727386,-0.4525083005428314
1761501971268669700,2.920669677734375,-0.543106198310852,0.26576292514801025,-0.6239926815032959
1761501971278725600,2.9307255859375,-0.8682966232299805,0.3926291763782501,-0.5112419128417969
1761501971288781600,2.940781494140625,-0.9582765698432922,0.29739880561828613,-0.3301416337490082
1761501971298837800,2.950837646484375,-0.8074671030044556,0.15300212800502777,-0.06336238235235214
1761501971308894700,2.960894775390625,-0.5596583485603333,0.18340051174163818,0.2029276192188263
1761501971318950700,2.97095068359375,-0.3240292966365814,0.28135064244270325,0.37183108925819397
1761501971329006600,2.981006591796875,-0.14259347319602966,0.2400851994752884,0.49886998534202576
1761501971339062800,2.991062744140625,0.029539193958044052,-0.00823851116001606,0.6193077564239502
1761501971349118500,3.001118408203125,0.15844550728797913,-0.25809070467948914,0.4721476137638092
1761501971359175700,3.01117578125,0.28177955746650696,-0.3575909435749054,0.10485571622848511
1761501971369231600,3.021231689453125,0.37851276993751526,-0.15734121203422546,-0.1459357589483261
1761501971379287600,3.03128759765625,0.3858863115310669,0.28427812457084656,-0.09303957968950272
1761501971389343500,3.041343505859375,0.2474362850189209,0.7760563492774963,0.24729400873184204
1761501971399399400,3.0513994140625,0.025539584457874298,1.1453357934951782,0.6448931097984314
1761501971409455600,3.06145556640625,-0.08898912370204926,1.2984448671340942,0.9005933403968811
1761501971419512600,3.0715126953125,-0.03399835526943207,1.2857083082199097,0.9663481116294861
1761501971429568500,3.081568603515625,0.14900662004947662,1.1566745042800903,0.8256301879882812
1761501971439624400,3.09162451171875,0.3693583309650421,1.047363519668579,0.540716290473938
1761501971449680600,3.1016806640625,0.5802401900291443,0.8910045623779297,0.25126445293426514
1761501971459736600,3.111736572265625,0.7668249607086182,0.7224348187446594,0.0018444005399942398
1761501971469793500,3.12179345703125,0.8948508501052856,0.6796157360076904,-0.07747732102870941
1761501971479849500,3.131849365234375,0.899895966053009,0.6914604902267456,0.15724250674247742
1761501971489905700,3.14190576171875,0.7262285947799683,0.6057157516479492,0.5534023642539978
1761501971499961600,3.151961669921875,0.43118321895599365,0.5220690965652466,0.8703323602676392
1761501971510017500,3.162017578125,0.13567008078098297,0.5150561928749084,1.0168805122375488
1761501971520073700,3.17207373046875,-0.10894955694675446,0.5118104815483093,0.9519753456115723
1761501971530130700,3.182130615234375,-0.2841182053089142,0.44943341612815857,0.7010844945907593
1761501971540186600,3.1921865234375,-0.4156169593334198,0.3214581608772278,0.307186096906662
1761501971550242600,3.20224267578125,-0.49769556522369385,0.18291200697422028,-0.12526358664035797
1761501971560298800,3.212298828125,-0.4707522988319397,0.028827805072069168,-0.5700040459632874
1761501971570354700,3.222354736328125,-0.3031230866909027,-0.06833550333976746,-0.9176616072654724
1761501971580411600,3.23241162109375,-0.0983855202794075,-0.1590275764465332,-1.0431156158447266
1761501971590467600,3.242467529296875,0.03718429058790207,-0.20364433526992798,-0.9565977454185486
1761501971600523500,3.2525234375,0.1373097151517868,-0.21119631826877594,-0.7465735673904419
1761501971610579500,3.262579345703125,0.20946645736694336,-0.15999731421470642,-0.57098388671875
1761501971620635400,3.272635498046875,0.20401065051555634,-0.0012377866078168154,-0.5085017681121826
1761501971630692600,3.282692626953125,0.1197570189833641,0.23320533335208893,-0.6191164255142212
1761501971640748500,3.29274853515625,-0.03972410410642624,0.3960523009300232,-0.9205483794212341
1761501971650804500,3.302804443359375,-0.2430010437965393,0.4359064996242523,-1.212631106376648
1761501971660860400,3.3128603515625,-0.47248974442481995,0.3453046381473541,-1.280753254890442
1761501971670916600,3.32291650390625,-0.6594407558441162,0.07970917969942093,-1.1308929920196533
1761501971680972500,3.33297265625,-0.7315024733543396,-0.32669639587402344,-0.9576974511146545
1761501971691029500,3.343029541015625,-0.5980246067047119,-0.792297899723053,-0.8260602951049805
1761501971701085400,3.35308544921875,-0.35565170645713806,-1.115443468093872,-0.6747238636016846
1761501971711141600,3.3631416015625,-0.1354503631591797,-1.1198574304580688,-0.42568662762641907
1761501971721197600,3.373197509765625,0.014655562117695808,-0.8833112716674805,-0.12497929483652115
1761501971731253500,3.38325341796875,0.07810750603675842,-0.5520004630088806,0.07994215935468674
1761501971741310700,3.393310791015625,-0.053099095821380615,-0.1275494545698166,0.17373454570770264
1761501971751366700,3.40336669921875,-0.4954930245876312,0.2754656672477722,0.24011197686195374
1761501971761422600,3.413422607421875,-1.2058303356170654,0.6353116631507874,0.13449431955814362
1761501971771478500,3.423478515625,-1.789716362953186,0.7920791506767273,-0.2369852215051651
1761501971781534700,3.43353466796875,-1.9758367538452148,0.7851298451423645,-0.708755612373352
1761501971791590700,3.443590576171875,-1.6441779136657715,0.710461437702179,-0.8371908068656921
1761501971801647600,3.453647705078125,-0.8924763798713684,0.34717169404029846,-0.8742433190345764
1761501971811703800,3.463703857421875,-0.15989430248737335,0.4483020305633545,-0.6212722659111023
1761501971821759700,3.473759765625,0.37781864404678345,0.5969523787498474,0.03415251150727272
1761501971831815400,3.4838154296875,0.6957061290740967,0.5264249444007874,0.5307329297065735
1761501971841871600,3.49387158203125,0.7509633302688599,0.3570600748062134,0.736068844795227
1761501971851928600,3.503928466796875,0.6925583481788635,0.2754189968109131,0.6970272064208984
1761501971861984500,3.513984619140625,0.6331810355186462,0.11406780034303665,0.2685193419456482
1761501971872040400,3.52404052734375,0.5472145080566406,-0.10387970507144928,-0.4595497250556946
1761501971882096600,3.5340966796875,0.4811594486236572,-0.2851606607437134,-0.866856575012207
1761501971892152600,3.544152587890625,0.34495848417282104,-0.30181393027305603,-0.5843505859375
1761501971902208500,3.55420849609375,0.15777884423732758,-0.17607459425926208,0.24299176037311554
1761501971912265500,3.564265380859375,-0.05225321277976036,0.11715620756149292,1.106518268585205
1761501971922321700,3.57432177734375,-0.19102920591831207,0.30750033259391785,1.5823500156402588
1761501971932377600,3.584377685546875,-0.18525733053684235,0.22129644453525543,1.6421908140182495
1761501971942433500,3.59443359375,-0.022020427510142326,0.020441191270947456,1.50355863571167
1761501971952489700,3.60448974609375,0.25913774967193604,-0.16186629235744476,1.359421968460083
1761501971962546700,3.614546630859375,0.46895983815193176,-0.31382134556770325,1.2326908111572266
1761501971972602600,3.6246025390625,0.5059157609939575,-0.4889766573905945,1.2197167873382568
1761501971982658600,3.634658447265625,0.40948861837387085,-0.7588707804679871,1.3589280843734741
1761501971992714800,3.64471484375,0.251298725605011,-1.0072073936462402,1.6216249465942383
1761501972002770000,3.65477001953125,0.08786744624376297,-1.2663006782531738,1.8301302194595337
1761501972012825900,3.664825927734375,0.035359758883714676,-1.4161791801452637,1.8034101724624634
1761501972022882800,3.6748828125,-0.09291937202215195,-1.353611707687378,1.4926884174346924
1761501972032939000,3.68493896484375,-0.19966712594032288,-1.1416981220245361,1.0584725141525269
1761501972042995000,3.694994873046875,-0.16641822457313538,-0.8054636120796204,0.5602365732192993
1761501972053051000,3.70505078125,-0.021579809486865997,-0.453269362449646,0.09553281962871552
1761501972063106800,3.71510693359375,0.16357548534870148,-0.24490131437778473,-0.23862257599830627
1761501972073164000,3.7251640625,0.31265950202941895,-0.12460793554782867,-0.3603346347808838
1761501972083219700,3.7352197265625,0.3794483244419098,-0.02969803288578987,-0.29025858640670776
1761501972093276000,3.74527587890625,0.3459433615207672,0.06037939712405205,-0.19789482653141022
1761501972103331800,3.755331787109375,0.222304567694664,0.11700843274593353,-0.20401670038700104
1761501972113387800,3.7653876953125,0.11025739461183548,0.11657007783651352,-0.3041190803050995
1761501972123444700,3.77544482421875,0.050164844840765,0.036683157086372375,-0.48763567209243774
1761501972133501000,3.7855009765625,0.011879241093993187,-0.12260369956493378,-0.7331697940826416
1761501972143556900,3.795556884765625,-0.024175463244318962,-0.28441163897514343,-0.9744778871536255
1761501972153612800,3.80561279296875,-0.07038556784391403,-0.4332956373691559,-1.1297037601470947
1761501972163669000,3.8156689453125,-0.13108104467391968,-0.5745348930358887,-1.1440740823745728
1761501972173725000,3.825724853515625,-0.20466658473014832,-0.7069520354270935,-1.0092494487762451
1761501972183782000,3.835781982421875,-0.2609095573425293,-0.8573651909828186,-0.7962117195129395
1761501972193837800,3.845837890625,-0.24180752038955688,-0.9311768412590027,-0.6078686714172363
1761501972203894000,3.85589404296875,-0.15535587072372437,-0.9288156628608704,-0.4929899275302887
1761501972213950000,3.865949951171875,-0.03935202583670616,-0.8626518249511719,-0.4642413556575775
1761501972224006000,3.876005859375,0.055718034505844116,-0.7770863175392151,-0.40767282247543335
1761501972234062800,3.886062744140625,0.0871606394648552,-0.6311602592468262,-0.24242344498634338
1761501972244119000,3.896119140625,0.027099484577775,-0.45649248361587524,0.03237617388367653
1761501972254175000,3.906175048828125,-0.0846552699804306,-0.23810555040836334,0.37274786829948425
1761501972264231000,3.91623095703125,-0.23381128907203674,-0.000009558862075209618,0.47822827100753784
1761501972274287000,3.926287109375,-0.3367970585823059,0.17799612879753113,0.13501708209514618
1761501972284342800,3.9363427734375,-0.465719074010849,0.1839604377746582,-0.3782791793346405
1761501972294400000,3.94639990234375,-0.6642444133758545,0.05132649838924408,-0.5526092052459717
1761501972304455700,3.95645556640625,-0.9353957772254944,-0.06121204420924187,-0.03441658616065979
1761501972314512000,3.966511962890625,-1.1644192934036255,-0.07058237493038177,0.476516455411911
1761501972324567800,3.97656787109375,-1.1751680374145508,0.05069755017757416,0.714323103427887
1761501972334623700,3.986623779296875,-0.9272514581680298,0.14554363489151,0.9182570576667786
1761501972344680700,3.9966806640625,-0.5995099544525146,0.1296379566192627,1.02218759059906
1761501972354737000,4.00673681640625,-0.2785196304321289,-0.10944706201553345,0.9686516523361206
1761501972364792800,4.016792724609375,0.021553104743361473,-0.393024742603302,0.782533586025238
1761501972374848800,4.026848876953125,0.26407814025878906,-0.671715497970581,0.6296135187149048
1761501972384905000,4.036905029296875,0.39575931429862976,-0.8567823171615601,0.5662262439727783
1761501972394961000,4.0469609375,0.40451204776763916,-0.884215235710144,0.49952980875968933
1761501972405017900,4.057017822265625,0.2967849671840668,-0.7438178062438965,0.41964367032051086
1761501972415073800,4.06707373046875,0.14763356745243073,-0.42061978578567505,0.4195443391799927
1761501972425130000,4.0771298828125,-0.01704002544283867,-0.005787337198853493,0.47792133688926697
1761501972435186000,4.08718603515625,-0.11539909243583679,0.4189966917037964,0.5450074076652527
1761501972445241900,4.097241943359375,-0.13661649823188782,0.8092235326766968,0.5290138125419617
1761501972455298800,4.107298828125,-0.013243954628705978,0.9626890420913696,0.5124439001083374
1761501972465355000,4.11735498046875,0.2833224833011627,0.8583762049674988,0.5130066871643066
1761501972475411000,4.127410888671875,0.5834497809410095,0.6869008541107178,0.4860301911830902
1761501972485467000,4.137466796875,0.7601838707923889,0.5070760250091553,0.4166963994503021
1761501972495523000,4.147523193359375,0.7908664345741272,0.3503980040550232,0.23947234451770782
1761501972505579000,4.1575791015625,0.6859708428382874,0.236441969871521,0.0024864128790795803
1761501972515636000,4.167635986328125,0.5138182640075684,0.17745563387870789,-0.1482817828655243
1761501972525692000,4.17769189453125,0.3962230086326599,0.20223794877529144,-0.057996392250061035
1761501972535747800,4.187747802734375,0.31340616941452026,0.2859506607055664,0.2420254945755005
1761501972545803800,4.1978037109375,0.2359304130077362,0.33540475368499756,0.5703578591346741
1761501972555859700,4.207859619140625,0.15686729550361633,0.2830408811569214,0.7672168612480164
1761501972565916700,4.217916748046875,0.12077399343252182,0.10610820353031158,0.7717127799987793
1761501972575972900,4.227972900390625,0.15470851957798004,-0.11340684443712234,0.5370939373970032
1761501972586028800,4.23802880859375,0.25095877051353455,-0.2764365077018738,0.1792316436767578
1761501972596084700,4.248084716796875,0.39541396498680115,-0.3406653106212616,-0.17210455238819122
1761501972606141000,4.258140869140625,0.5616660714149475,-0.2586140036582947,-0.41783764958381653
1761501972616198000,4.268197998046875,0.6979517340660095,-0.05887133255600929,-0.48786866664886475
1761501972626253800,4.27825390625,0.7651770710945129,0.13786479830741882,-0.40792399644851685
1761501972636309800,4.288309814453125,0.7457501292228699,0.24199731647968292,-0.2616450786590576
1761501972646366000,4.298365966796875,0.6694493889808655,0.32206881046295166,-0.11789162456989288
1761501972656422000,4.308421875,0.5956846475601196,0.3810708820819855,-0.02442452311515808
1761501972666478800,4.318478759765625,0.4762834310531616,0.45979824662208557,-0.05373789742588997
1761501972676534800,4.32853466796875,0.3356432318687439,0.4981845021247864,-0.16340447962284088
1761501972686591000,4.338591064453125,0.19801227748394012,0.5349603891372681,-0.24288608133792877
1761501972696647000,4.34864697265625,0.07628051936626434,0.5554862022399902,-0.23739702999591827
1761501972706702800,4.358702880859375,-0.011449485085904598,0.5914071798324585,-0.19056783616542816
1761501972716759800,4.368759765625,-0.0180988647043705,0.5372430086135864,-0.14353987574577332
1761501972726816000,4.37881591796875,0.04748272895812988,0.4283056855201721,-0.14289745688438416
1761501972736872000,4.388871826171875,0.1262209564447403,0.36417728662490845,-0.1945609152317047
1761501972746927900,4.398927978515625,0.19061104953289032,0.3117157816886902,-0.24370336532592773
1761501972756983800,4.40898388671875,0.24585433304309845,0.30220481753349304,-0.2239893227815628
1761501972767039700,4.419039794921875,0.23832498490810394,0.373840868473053,-0.05035421624779701
1761501972777097000,4.429096923828125,0.14442245662212372,0.4733371138572693,0.22676047682762146
1761501972787152600,4.439152587890625,-0.0029023168608546257,0.45266976952552795,0.4744281470775604
1761501972797208800,4.449208740234375,-0.13288614153862,0.30445635318756104,0.4929903745651245
1761501972807264800,4.4592646484375,-0.21017390489578247,0.12017285823822021,0.03733159601688385
1761501972817320700,4.46932080078125,-0.20043793320655823,-0.14389528334140778,-0.9802843928337097
1761501972827378000,4.4793779296875,-0.01202426664531231,-0.4668522775173187,-1.8660374879837036
1761501972837433900,4.489433837890625,0.2638610899448395,-0.6289783120155334,-1.7046024799346924
1761501972847489800,4.49948974609375,0.3547671139240265,-0.37927719950675964,-0.8642566800117493
1761501972857545700,4.509545654296875,0.20277252793312073,0.21591372787952423,0.24595226347446442
1761501972867602000,4.519601806640625,0.06745869666337967,0.74579256772995,1.0869364738464355
1761501972877657900,4.529657958984375,-0.04931718856096268,0.9976794123649597,1.163954257965088
1761501972887714800,4.53971484375,-0.15903951227664948,1.090052604675293,0.7972103953361511
1761501972897771000,4.54977099609375,-0.1892077922821045,1.167215347290039,0.34491828083992004
1761501972907827000,4.559826904296875,-0.12095469236373901,1.092010498046875,-0.043944962322711945
1761501972917883000,4.5698828125,0.027104010805487633,0.7626131772994995,-0.28049224615097046
1761501972927938800,4.579938720703125,0.19079771637916565,0.2143208086490631,-0.31059274077415466
1761501972937996000,4.58999609375,0.3239765465259552,-0.36901983618736267,-0.11638093739748001
1761501972948052000,4.600052001953125,0.3966940641403198,-0.7656542062759399,0.29016873240470886
1761501972958108000,4.61010791015625,0.3471856415271759,-0.7910213470458984,0.7132529020309448
1761501972968163800,4.620163818359375,0.2851344048976898,-0.6236289143562317,0.9449450969696045
1761501972978220000,4.630219970703125,0.2428940087556839,-0.394439160823822,0.995492696762085
1761501972988277000,4.640277099609375,0.21232502162456512,-0.08312595635652542,0.9216824769973755
1761501972998333000,4.6503330078125,0.1850087195634842,0.23503336310386658,0.8739610314369202
1761501973008389000,4.66038916015625,0.10328266024589539,0.48402974009513855,0.9197262525558472
1761501973018445000,4.670445068359375,-0.09666560590267181,0.551500141620636,1.0338906049728394
1761501973028501000,4.6805009765625,-0.33293500542640686,0.41929736733436584,1.1809407472610474
1761501973038557000,4.690556884765625,-0.48658421635627747,0.11917642503976822,1.2721673250198364
1761501973048614100,4.7006142578125,-0.5891162753105164,-0.1682664304971695,1.3076517581939697
1761501973058670000,4.710670166015625,-0.6109813451766968,-0.434573769569397,1.312029242515564
1761501973068726000,4.72072607421875,-0.5684030055999756,-0.6110843420028687,1.2619410753250122
1761501973078782200,4.7307822265625,-0.5178998708724976,-0.7242740392684937,1.1363213062286377
1761501973088838100,4.740838134765625,-0.4702383875846863,-0.763833224773407,0.9598349928855896
1761501973098895000,4.75089501953125,-0.4332827627658844,-0.7785637378692627,0.6910317540168762
1761501973108951000,4.760950927734375,-0.397763192653656,-0.7709023952484131,0.32968470454216003
1761501973119007200,4.77100732421875,-0.33781224489212036,-0.7689151763916016,0.005836864002048969
1761501973129063000,4.78106298828125,-0.24269868433475494,-0.7091424465179443,-0.22337371110916138
1761501973139118800,4.791118896484375,-0.13568727672100067,-0.5365105271339417,-0.34452810883522034
1761501973149175800,4.80117578125,-0.02480761706829071,-0.3594912886619568,-0.375713586807251
1761501973159232000,4.81123193359375,0.09212858974933624,-0.2670590877532959,-0.3620281517505646
1761501973169288000,4.821287841796875,0.1673714816570282,-0.25669169425964355,-0.39926081895828247
1761501973179344000,4.83134375,0.2263013869524002,-0.34846290946006775,-0.4950861632823944
1761501973189400000,4.841400146484375,0.3219161331653595,-0.47214406728744507,-0.6017614006996155
1761501973199457000,4.85145703125,0.4541045129299164,-0.39605996012687683,-0.7023425698280334
1761501973209513000,4.861512939453125,0.600051999092102,-0.01184156909584999,-0.8607182502746582
1761501973219569000,4.87156884765625,0.692018449306488,0.5432490706443787,-1.0931285619735718
1761501973229625000,4.881625,0.7067301869392395,1.0332751274108887,-1.2883363962173462
1761501973239681000,4.891680908203125,0.583398163318634,1.2630044221878052,-1.383948564529419
1761501973249738000,4.901738037109375,0.3667067885398865,1.117801308631897,-1.2003226280212402
1761501973259790800,4.911790771484375,0.05357390642166138,0.8810499906539917,-0.80903160572052
1761501973269847000,4.921846923828125,-0.25736069679260254,0.7267632484436035,-0.4415968656539917
1761501973279903000,4.931903076171875,-0.39638248085975647,0.6643301844596863,-0.24573279917240143
1761501973289959000,4.941958984375,-0.41568413376808167,0.6715441942214966,-0.2965831756591797
1761501973300014800,4.952014892578125,-0.39284300804138184,0.5336886048316956,-0.3848448693752289
1761501973310072000,4.962072021484375,-0.28042176365852356,0.15960979461669922,-0.41534948348999023
1761501973320128000,4.9721279296875,-0.09871669113636017,-0.2829985022544861,-0.6416976451873779
1761501973330184000,4.982183837890625,0.05782395228743553,-0.7229025959968567,-1.0152312517166138
1761501973340240100,4.992240234375,0.17290234565734863,-0.9726263880729675,-1.182876467704773
1761501973350296000,5.002296142578125,0.1983763426542282,-0.8569303750991821,-0.9332926273345947
1761501973360353000,5.01235302734375,0.2753443717956543,-0.48536667227745056,-0.44851741194725037
1761501973370409000,5.022408935546875,0.12267423421144485,0.1194167509675026,-0.08820226788520813
1761501973380465200,5.032465087890625,-0.24625825881958008,0.4095197021961212,0.25399792194366455
1761501973390521000,5.04252099609375,-0.6555675864219666,0.5873954892158508,0.3928466737270355
1761501973400577000,5.052576904296875,-0.8958731293678284,0.6724177002906799,0.4249308407306671
1761501973410634000,5.062634033203125,-0.9097090363502502,0.5058748126029968,0.4268472194671631
1761501973420690200,5.072690185546875,-0.6908978819847107,0.04990594461560249,0.37765011191368103
1761501973430746000,5.08274609375,-0.33718591928482056,-0.49444451928138733,0.28795772790908813
1761501973440802000,5.092802001953125,-0.0437774658203125,-0.8572227358818054,0.01737044006586075
1761501973450858200,5.102858154296875,0.12092326581478119,-0.974510133266449,-0.35152468085289
1761501973460914000,5.112913818359375,0.2272004336118698,-0.8665503859519958,-0.4600101411342621
1761501973470971100,5.12297119140625,0.24936357140541077,-0.4869106709957123,-0.26392337679862976
1761501973481026800,5.13302685546875,0.18807969987392426,0.022325405851006508,0.03812381252646446
1761501973491083000,5.1430830078125,0.1437331885099411,0.46315842866897583,0.281230092048645
1761501973501139000,5.153138916015625,0.16640786826610565,0.6194252371788025,0.4240942895412445
1761501973511195000,5.16319482421875,0.22804886102676392,0.4772484004497528,0.56761634349823
1761501973521251800,5.173251953125,0.3279448449611664,0.22516901791095734,0.7759719491004944
1761501973531308000,5.18330810546875,0.39628174901008606,0.07272882759571075,0.8501842617988586
1761501973541364000,5.193364013671875,0.3949531018733978,0.11754956096410751,0.682273805141449
1761501973551420000,5.203419921875,0.3502058982849121,0.22910107672214508,0.44477856159210205
1761501973561476000,5.21347607421875,0.24348184466362,0.34489157795906067,0.3265770971775055
1761501973571533000,5.223532958984375,0.1021246686577797,0.427230566740036,0.3975015878677368
1761501973581589000,5.233589111328125,0.0023450786247849464,0.4239237308502197,0.5581431984901428
1761501973591645000,5.24364501953125,-0.04230419546365738,0.4419915974140167,0.6927897334098816
1761501973601701000,5.253701171875,-0.07529570162296295,0.4264453947544098,0.7066314816474915
1761501973611757000,5.263757080078125,-0.11104828119277954,0.3097296357154846,0.5869415402412415
1761501973621814000,5.27381396484375,-0.10232696682214737,0.14690794050693512,0.34598538279533386
1761501973631870000,5.283869873046875,-0.0662771612405777,-0.043396685272455215,-0.0033714824821799994
1761501973641926100,5.293926025390625,0.00823062565177679,-0.18021231889724731,-0.40724146366119385
1761501973651982000,5.303982177734375,0.09078582376241684,-0.2720104157924652,-0.7447832822799683
1761501973662038000,5.3140380859375,0.17276163399219513,-0.35815462470054626,-0.9703661203384399
1761501973672097000,5.324096923828125,0.2604779899120331,-0.46381857991218567,-1.0863245725631714
1761501973682153000,5.334153076171875,0.3313617706298828,-0.5699410438537598,-1.1129207611083984
1761501973692209000,5.344208984375,0.34840044379234314,-0.6392636299133301,-1.0849884748458862
1761501973702265000,5.35426513671875,0.3139508366584778,-0.7046631574630737,-1.060361385345459
1761501973712321000,5.364321044921875,0.22970910370349884,-0.7701219320297241,-1.0722906589508057
1761501973722378000,5.3743779296875,0.12118474394083023,-0.8149778246879578,-1.0762419700622559
1761501973732434000,5.384433837890625,0.01708475686609745,-0.7685142159461975,-0.994072675704956
1761501973742490000,5.394489990234375,-0.0638633593916893,-0.6725732684135437,-0.8760623931884766
1761501973752546000,5.404546142578125,-0.06772865355014801,-0.6035716533660889,-0.786324679851532
1761501973762602000,5.41460205078125,-0.05591406673192978,-0.5348114967346191,-0.7180854678153992
1761501973772659000,5.424658935546875,-0.06422891467809677,-0.37942248582839966,-0.6100735664367676
1761501973782715100,5.434715087890625,-0.08029469847679138,-0.18881259858608246,-0.4174446761608124
1761501973792771000,5.44477099609375,-0.08490978181362152,0.024015428498387337,-0.18377764523029327
1761501973802827000,5.454826904296875,-0.061820968985557556,0.2150479555130005,0.08739233016967773
1761501973812883000,5.464883056640625,0.011178823187947273,0.34002283215522766,0.411016583442688
1761501973822940200,5.474940185546875,0.12905831634998322,0.3395692706108093,0.58353590965271
1761501973832995800,5.484995849609375,0.2238408327102661,0.24183225631713867,0.37345075607299805
1761501973843052000,5.495052001953125,0.1699560284614563,0.1446457952260971,-0.17519450187683105
1761501973853108000,5.50510791015625,0.020515644922852516,-0.028000397607684135,-0.693246603012085
1761501973863164000,5.515163818359375,-0.05239557847380638,-0.2560601830482483,-0.7319673895835876
1761501973873219800,5.5252197265625,-0.020134638994932175,-0.7474124431610107,-0.15656568109989166
1761501973883277000,5.535277099609375,0.00292567303404212,-0.972136378288269,0.4304269850254059
1761501973893333000,5.5453330078125,-0.10501844435930252,-0.8634670972824097,0.7159661054611206
1761501973903389000,5.555388916015625,-0.22595152258872986,-0.6896308064460754,0.8831897377967834
1761501973913445000,5.565445068359375,-0.3894259035587311,-0.5124484896659851,0.8315813541412354
1761501973923501000,5.5755009765625,-0.5219109654426575,-0.49460822343826294,0.5242264866828918
1761501973933558000,5.58555810546875,-0.627017080783844,-0.614425778388977,0.21803082525730133
1761501973943614000,5.595614013671875,-0.6664347648620605,-0.7487220764160156,0.03699818626046181
1761501973953670100,5.605670166015625,-0.5829750299453735,-0.8189544677734375,-0.22623497247695923
1761501973963726000,5.61572607421875,-0.4355144798755646,-0.7062739729881287,-0.6004780530929565
1761501973973782000,5.625781982421875,-0.2738915681838989,-0.45384931564331055,-0.8150714635848999
1761501973983839000,5.6358388671875,-0.20801962912082672,-0.11079049855470657,-0.6994622945785522
1761501973993895200,5.645895263671875,-0.250256210565567,0.313822478055954,-0.3252289593219757
1761501974003950600,5.65595068359375,-0.3082049787044525,0.8422412872314453,0.12790362536907196
1761501974014006500,5.666006591796875,-0.27210646867752075,1.2773504257202148,0.5374126434326172
1761501974024062700,5.676062744140625,-0.2108180671930313,1.508819341659546,0.8056925535202026
1761501974034119700,5.68611962890625,-0.11588459461927414,1.4765758514404297,0.9553437829017639
1761501974044175600,5.696175537109375,0.0019187391735613346,1.1701000928878784,1.0303337574005127
1761501974054231600,5.7062314453125,0.06673736870288849,0.5655586123466492,0.9882380962371826
1761501974064287700,5.716287841796875,0.14256875216960907,-0.043212536722421646,0.9357975125312805
1761501974074343700,5.72634375,0.23312368988990784,-0.40569671988487244,0.9556239247322083
1761501974084400600,5.736400634765625,0.25127366185188293,-0.5801918506622314,0.9748117327690125
1761501974094456600,5.74645654296875,0.1965520977973938,-0.5594692826271057,0.913618266582489
1761501974104512800,5.7565126953125,0.09350988268852234,-0.2978922724723816,0.7382728457450867
1761501974114568400,5.766568359375,-0.03050515055656433,0.11820323765277863,0.4945557117462158
1761501974124624400,5.776624267578125,-0.15633392333984375,0.5091568827629089,0.3043048083782196
1761501974134681600,5.786681640625,-0.23876670002937317,0.8241133093833923,0.2266736626625061
1761501974144737500,5.796737548828125,-0.28265824913978577,0.9658376574516296,0.19783270359039307
1761501974154793500,5.80679345703125,-0.3068022131919861,0.9112111926078796,0.15725331008434296
1761501974164849400,5.816849365234375,-0.32249993085861206,0.6309505105018616,0.06041863560676575
1761501974174905600,5.826905517578125,-0.29615429043769836,0.24226461350917816,-0.0967988669872284
1761501974184962600,5.836962646484375,-0.22384414076805115,-0.15650327503681183,-0.2345932126045227
1761501974195018500,5.8470185546875,-0.15488162636756897,-0.42510953545570374,-0.3297090530395508
1761501974205074400,5.857074462890625,-0.04965614527463913,-0.5452255606651306,-0.4180122911930084
1761501974215130600,5.867130615234375,0.09662401676177979,-0.6153290271759033,-0.5066068172454834
1761501974225186600,5.8771865234375,0.25729838013648987,-0.5943049788475037,-0.592417299747467
1761501974235243500,5.887243408203125,0.3942519426345825,-0.49424511194229126,-0.63982754945755
1761501974245299500,5.897299560546875,0.47388526797294617,-0.40621402859687805,-0.6830199956893921
1761501974255355600,5.907355712890625,0.519069492816925,-0.39335501194000244,-0.7124488353729248
1761501974265411600,5.91741162109375,0.5097151398658752,-0.44632261991500854,-0.6470810174942017
1761501974275467500,5.927467529296875,0.4787086546421051,-0.48449474573135376,-0.462327241897583
1761501974285524500,5.9375244140625,0.38139331340789795,-0.4236156940460205,-0.26364797353744507
1761501974295580700,5.94758056640625,0.25105857849121094,-0.23668943345546722,-0.08438009768724442
1761501974305636600,5.95763671875,0.15431764721870422,0.002804919146001339,0.043730728328228
1761501974315692500,5.967692626953125,0.05612611398100853,0.19996055960655212,0.11919520050287247
1761501974325748700,5.977748779296875,-0.00169404037296772,0.2666703462600708,0.10912392288446426
1761501974335804700,5.9878046875,-0.043037042021751404,0.2160237729549408,-0.049703821539878845
1761501974345861600,5.997861572265625,-0.12640784680843353,-0.004057447891682386,-0.35450688004493713
1761501974355917600,6.00791748046875,-0.1936543732881546,-0.35169756412506104,-0.6373134255409241
1761501974365973500,6.017973388671875,-0.19223304092884064,-0.6136764883995056,-0.8212153315544128
1761501974376029400,6.028029541015625,-0.046417348086833954,-0.7457969784736633,-0.8091995120048523
1761501974386085600,6.038085693359375,0.06796541810035706,-0.5980783700942993,-0.5449867844581604
1761501974396142600,6.048142578125,-0.0061629158444702625,-0.18609464168548584,-0.1101921945810318
1761501974406198500,6.058198486328125,-0.2559210956096649,0.2746514081954956,0.4451597034931183
1761501974416254500,6.06825439453125,-0.4408077597618103,0.5757962465286255,0.7957134246826172
1761501974426310700,6.078310546875,-0.452372282743454,0.6018166542053223,0.807836651802063
1761501974436366600,6.08836669921875,-0.25516971945762634,0.4529654383659363,0.5605626106262207
1761501974446423600,6.098423583984375,0.04903516545891762,0.13730227947235107,0.1361471712589264
1761501974456479500,6.1084794921875,0.36176878213882446,-0.2398757040500641,-0.34796038269996643
1761501974466535700,6.11853564453125,0.616652250289917,-0.4467468559741974,-0.7293716669082642
1761501974476591600,6.128591552734375,0.770524799823761,-0.358615905046463,-0.8993589878082275
1761501974486647600,6.1386474609375,0.7957177758216858,-0.01766708679497242,-0.7808113098144531
1761501974496704500,6.14870458984375,0.6429715156555176,0.36293840408325195,-0.47979262471199036
1761501974506760700,6.1587607421875,0.3770916759967804,0.7065293192863464,-0.22103483974933624
1761501974516816600,6.168816650390625,0.10026910901069641,0.9681246876716614,-0.08684112876653671
1761501974526872600,6.17887255859375,-0.10614717751741409,1.1161856651306152,-0.056571632623672485
1761501974536928800,6.1889287109375,-0.15035411715507507,0.9418973326683044,-0.06435536593198776
1761501974546985700,6.19898583984375,-0.019314080476760864,0.4757077991962433,-0.10661067813634872
1761501974557041700,6.209041748046875,0.20256397128105164,0.08110495656728745,-0.10952110588550568
1761501974567097600,6.21909765625,0.40463584661483765,-0.10760104656219482,-0.07521826028823853
1761501974577153800,6.22915380859375,0.5068590044975281,-0.15302284061908722,-0.03422614559531212
1761501974587209700,6.239209716796875,0.4152830243110657,-0.028993304818868637,0.01776115410029888
1761501974597266700,6.2492666015625,0.21104004979133606,0.25039583444595337,0.16956238448619843
1761501974607322600,6.259322509765625,-0.0900321826338768,0.638744056224823,0.4483412802219391
1761501974617378600,6.269378662109375,-0.30616456270217896,0.8385944366455078,0.8267346620559692
1761501974627434500,6.2794345703125,-0.4045478403568268,0.7374664545059204,1.1718332767486572
1761501974637490400,6.289490478515625,-0.36298441886901855,0.26921817660331726,1.3647253513336182
1761501974647547400,6.29954736328125,-0.25873470306396484,-0.21591496467590332,1.3301907777786255
1761501974657603600,6.309603515625,-0.11725599318742752,-0.5646735429763794,1.1587189435958862
1761501974667659500,6.319659423828125,-0.0012918384745717049,-0.823983907699585,0.967670738697052
1761501974677715500,6.329715576171875,0.1570165604352951,-1.0510178804397583,0.7019723653793335
1761501974687771600,6.339771728515625,0.366624116897583,-1.2084389925003052,0.3834521472454071
1761501974697828600,6.34982861328125,0.5189663171768188,-1.2202277183532715,0.12057428807020187
1761501974707884500,6.359884521484375,0.5188241004943848,-1.0984952449798584,-0.0072824787348508835
1761501974717940500,6.3699404296875,0.4008483588695526,-0.8755102753639221,-0.04924884811043739
1761501974727996700,6.37999658203125,0.1822880506515503,-0.6173490881919861,-0.015188883058726788
1761501974738052600,6.390052490234375,-0.06803606450557709,-0.37555593252182007,0.13432636857032776
1761501974748109600,6.400109619140625,-0.30726808309555054,-0.10191988199949265,0.27286428213119507
1761501974758165500,6.41016552734375,-0.49205073714256287,0.19161228835582733,0.3685799241065979
1761501974768221700,6.4202216796875,-0.606765627861023,0.23365667462348938,0.38735735416412354
1761501974778277600,6.430277587890625,-0.6681427955627441,-0.0011919594835489988,0.22893975675106049
1761501974788333600,6.44033349609375,-0.6427288055419922,-0.3081934452056885,-0.051431190222501755
1761501974798390500,6.450390625,-0.5286530256271362,-0.46929916739463806,-0.27329355478286743
1761501974808446700,6.46044677734375,-0.3771497905254364,-0.43672871589660645,-0.30575400590896606
1761501974818502700,6.470502685546875,-0.21626558899879456,-0.3151826858520508,-0.11742265522480011
1761501974828558600,6.48055859375,-0.05392514914274216,-0.1892242133617401,0.2802136540412903
1761501974838614800,6.49061474609375,0.07349982112646103,-0.08754941821098328,0.7405535578727722
1761501974848670500,6.50067041015625,0.16942262649536133,-0.13994711637496948,0.9423319697380066
1761501974858727700,6.510727783203125,0.3321460485458374,-0.32788172364234924,0.5996504426002502
1761501974868783400,6.520783447265625,0.5261546969413757,-0.5843460559844971,-0.23268327116966248
1761501974878839600,6.530839599609375,0.5482797026634216,-0.8853933811187744,-1.1425508260726929
1761501974888895500,6.5408955078125,0.3576897978782654,-0.8433226346969604,-1.2883952856063843
1761501974898951400,6.550951416015625,0.022380435839295387,-0.2926045358181,-0.6613485813140869
1761501974909008400,6.56100830078125,-0.31787753105163574,0.15089434385299683,0.06346528977155685
1761501974919064600,6.571064697265625,-0.449586421251297,0.22643688321113586,0.5906733870506287
1761501974929120500,6.58112060546875,-0.30231600999832153,0.022108234465122223,0.8025747537612915
1761501974939176400,6.591176513671875,0.021882839500904083,-0.3558541238307953,0.6340335011482239
1761501974949232600,6.601232666015625,0.336405873298645,-0.7018362879753113,0.26470956206321716
1761501974959289600,6.61128955078125,0.5292028784751892,-0.6083803772926331,-0.07814966142177582
1761501974969345500,6.621345458984375,0.6368576884269714,-0.26916444301605225,-0.4293862581253052
1761501974979401500,6.6314013671875,0.7267566919326782,-0.10291744768619537,-0.883770227432251
1761501974989457700,6.641457763671875,0.8633891344070435,0.06747559458017349,-1.1753226518630981
1761501974999513600,6.651513671875,0.9640113115310669,0.3726317286491394,-1.16525399684906
1761501975009574700,6.66157470703125,1.0163068771362305,0.6850841641426086,-0.9822790622711182
1761501975019630600,6.671630615234375,0.9971058964729309,0.9198389053344727,-0.791946530342102
1761501975029686800,6.681686767578125,0.8684011697769165,1.076848030090332,-0.7152720093727112
1761501975039742700,6.69174267578125,0.6285540461540222,1.1818654537200928,-0.688391923904419
1761501975049798700,6.701798583984375,0.3107236623764038,1.1765457391738892,-0.6177047491073608
1761501975059855600,6.711855712890625,0.024045925587415695,0.9117441773414612,-0.5131447911262512
1761501975069911800,6.721911865234375,-0.1637497991323471,0.47404488921165466,-0.5051515698432922
1761501975079967700,6.7319677734375,-0.21743184328079224,0.26788032054901123,-0.5779926776885986
1761501975090023700,6.742023681640625,-0.18775783479213715,0.29176247119903564,-0.6004418134689331
1761501975100079900,6.752079833984375,-0.15869896113872528,0.46114811301231384,-0.5133320689201355
1761501975110135800,6.7621357421875,-0.1522780805826187,0.5929276943206787,-0.30566170811653137
1761501975120192800,6.77219287109375,-0.08309018611907959,0.5800986886024475,-0.03508942574262619
1761501975130248700,6.782248779296875,-0.022640153765678406,0.5259430408477783,0.18335476517677307
1761501975140305000,6.792304931640625,-0.022194964811205864,0.49135103821754456,0.29831168055534363
1761501975150360800,6.80236083984375,-0.048525370657444,0.4413011968135834,0.31769630312919617
1761501975160417800,6.812417724609375,-0.12017954885959625,0.3765619695186615,0.31777507066726685
1761501975170473700,6.8224736328125,-0.19719843566417694,0.32011282444000244,0.2892363667488098
1761501975180529700,6.83252978515625,-0.27613332867622375,0.30808043479919434,0.1272575855255127
1761501975190585600,6.842585693359375,-0.35340601205825806,0.242677703499794,-0.05043225735425949
1761501975200641500,6.8526416015625,-0.42536279559135437,0.07364331185817719,-0.1436266154050827
1761501975210697700,6.86269775390625,-0.46475332975387573,-0.07896886765956879,-0.18876639008522034
1761501975220754700,6.872754638671875,-0.4523200988769531,-0.19483262300491333,-0.21636712551116943
1761501975230810600,6.882810546875,-0.42450764775276184,-0.2760787606239319,-0.22081327438354492
1761501975240866600,6.892866455078125,-0.37602630257606506,-0.2791755795478821,-0.1570291966199875
1761501975250922800,6.9029228515625,-0.3319230377674103,-0.29408687353134155,-0.09192848950624466
1761501975260978700,6.912978759765625,-0.26947781443595886,-0.28277450799942017,-0.1241195872426033
1761501975271035600,6.92303564453125,-0.18871797621250153,-0.15175683796405792,-0.17444534599781036
1761501975281091600,6.933091552734375,-0.14158515632152557,0.10804522037506104,-0.14591532945632935
1761501975291147800,6.943147705078125,-0.09546293318271637,0.3963017761707306,0.02449687570333481
1761501975301203700,6.95320361328125,-0.07067825645208359,0.65135657787323,0.31381019949913025
1761501975311259600,6.963259765625,-0.0972675234079361,0.7344160676002502,0.6652867794036865
1761501975321316600,6.973316650390625,-0.1199306845664978,0.5850400924682617,0.9478361010551453
1761501975331372800,6.983372802734375,-0.1431201547384262,0.355519562959671,1.090047836303711
1761501975341428700,6.9934287109375,-0.17424722015857697,0.27311059832572937,1.0605823993682861
1761501975351484700,7.003484619140625,-0.22490294277668,0.22948989272117615,0.8409573435783386
1761501975361540900,7.013540771484375,-0.2498772144317627,0.19779664278030396,0.3769935369491577
1761501975371597800,7.023597900390625,-0.23876462876796722,0.15174472332000732,-0.20661556720733643
1761501975381653800,7.03365380859375,-0.15269488096237183,0.17478172481060028,-0.6211265325546265
1761501975391709700,7.043709716796875,0.029218200594186783,0.34588155150413513,-0.5143691897392273
1761501975401766000,7.053765869140625,0.17205378413200378,0.5658552050590515,0.10715185105800629
1761501975411821600,7.063821533203125,0.21909134089946747,0.5474532842636108,0.6832793354988098
1761501975421878800,7.073878662109375,0.21986009180545807,0.28965193033218384,0.9303919076919556
1761501975431934700,7.083934814453125,0.093898706138134,-0.1233886331319809,0.7661723494529724
1761501975441990700,7.09399072265625,-0.05772344022989273,-0.4584020674228668,0.35451239347457886
1761501975452046600,7.104046630859375,-0.11298536509275436,-0.49758249521255493,-0.19230009615421295
1761501975462102500,7.1141025390625,-0.09804179519414902,-0.42145219445228577,-0.5951125621795654
1761501975472158700,7.12415869140625,-0.07401209324598312,-0.2970767319202423,-0.7367287874221802
1761501975482215700,7.134215576171875,0.011869654059410095,0.048109181225299835,-0.6214784383773804
1761501975492271600,7.144271728515625,0.172163188457489,0.4231981039047241,-0.5015789270401001
1761501975502327800,7.154327880859375,0.2982018291950226,0.6725658178329468,-0.44591450691223145
1761501975512383700,7.1643837890625,0.34683459997177124,0.7082058787345886,-0.182928666472435
1761501975522439700,7.174439697265625,0.35336539149284363,0.4843089282512665,0.14990656077861786
1761501975532496600,7.18449658203125,0.2693943381309509,0.029409049078822136,0.32793861627578735
1761501975542552800,7.194552734375,0.17298030853271484,-0.5366445183753967,0.3969602882862091
1761501975552608800,7.20460888671875,0.028348557651042938,-1.0784920454025269,0.5010107755661011
1761501975562664700,7.214664794921875,-0.12010730057954788,-1.3413814306259155,0.7746334075927734
1761501975572720600,7.224720703125,-0.17597855627536774,-1.430188775062561,1.0800988674163818
1761501975582777900,7.23477783203125,-0.09678708761930466,-1.3654544353485107,1.1325079202651978
1761501975592833800,7.244833740234375,0.061169251799583435,-1.1689789295196533,0.9653747081756592
1761501975602889700,7.2548896484375,0.12511587142944336,-0.7811774611473083,0.8284202218055725
1761501975612946000,7.26494580078125,0.058482252061367035,-0.30137568712234497,0.7496899962425232
1761501975623001900,7.275001953125,-0.03794287145137787,0.058892156928777695,0.6653061509132385
1761501975633058800,7.285058837890625,-0.08488135039806366,0.24619492888450623,0.5180996656417847
1761501975643114800,7.29511474609375,-0.07188502699136734,0.37463268637657166,0.3135114014148712
1761501975653171000,7.3051708984375,0.00564811285585165,0.4329921305179596,0.08495358377695084
1761501975663226600,7.3152265625,0.10003739595413208,0.38135987520217896,-0.14729177951812744
1761501975673282600,7.325282470703125,0.2269175797700882,0.2659006416797638,-0.34769225120544434
1761501975683339500,7.335339599609375,0.33783039450645447,0.08610385656356812,-0.5077587366104126
1761501975693395700,7.345395751953125,0.40148553252220154,-0.029064012691378593,-0.5913084745407104
1761501975703451600,7.35545166015625,0.3909298777580261,-0.09349481016397476,-0.6506996750831604
1761501975713507600,7.365507568359375,0.35625550150871277,-0.15702611207962036,-0.7393046617507935
1761501975723563800,7.375563720703125,0.3518432080745697,-0.1857251673936844,-0.8397632837295532
1761501975733619700,7.38561962890625,0.3458103537559509,-0.15142178535461426,-0.8872357606887817
1761501975743676700,7.3956767578125,0.3363485634326935,-0.031903255730867386,-0.8426316380500793
1761501975753732600,7.405732666015625,0.3330366611480713,0.17032654583454132,-0.7563214898109436
1761501975763788800,7.415788818359375,0.2644463777542114,0.39620134234428406,-0.6527808904647827
1761501975773844700,7.4258447265625,0.1221904382109642,0.5639570951461792,-0.6066434979438782
1761501975783900700,7.435900634765625,-0.03330426663160324,0.6532487869262695,-0.6052411794662476
1761501975793957600,7.44595751953125,-0.1752036064863205,0.6287173628807068,-0.596031665802002
1761501975804013800,7.456013916015625,-0.24668185412883759,0.44830530881881714,-0.584176778793335
1761501975814069800,7.46606982421875,-0.16857294738292694,0.270413339138031,-0.5517544150352478
1761501975824125700,7.476125732421875,-0.041054680943489075,0.2655387222766876,-0.5014724135398865
1761501975834182000,7.486181884765625,0.06914824992418289,0.34220021963119507,-0.40583720803260803
1761501975844238800,7.49623876953125,0.1496690809726715,0.4678283929824829,-0.2436860352754593
1761501975854294800,7.506294677734375,0.1569775938987732,0.5524309277534485,-0.08194533735513687
1761501975864350700,7.516350830078125,0.1045105904340744,0.6142947673797607,-0.07153569161891937
1761501975874407000,7.526406982421875,0.043031517416238785,0.5464872121810913,-0.4367024600505829
1761501975884462600,7.536462646484375,0.019992712885141373,0.32995572686195374,-1.1816598176956177
1761501975894519800,7.546519775390625,0.22987882792949677,-0.25405097007751465,-1.7581974267959595
1761501975904575700,7.55657568359375,0.42835041880607605,-0.511604905128479,-1.7517675161361694
1761501975914631700,7.566631591796875,0.22774408757686615,-0.012566614896059036,-1.2900582551956177
1761501975924687600,7.5766875,-0.055656030774116516,0.43665921688079834,-0.4773257076740265
1761501975934743600,7.58674365234375,-0.25530123710632324,0.7370762825012207,0.10162952542304993
1761501975944799700,7.5967998046875,-0.24662457406520844,0.8134943246841431,0.18616345524787903
1761501975954856700,7.606856689453125,-0.048501648008823395,0.7223864793777466,-0.007399088703095913
1761501975964912600,7.61691259765625,0.17340485751628876,0.774341881275177,-0.2075309157371521
1761501975974968600,7.626968505859375,0.18740856647491455,0.9484710693359375,-0.23049454391002655
1761501975985024800,7.637024658203125,0.03009229339659214,0.9794668555259705,-0.15412156283855438
1761501975995080700,7.647080810546875,-0.06088608503341675,0.6845062971115112,-0.2059067338705063
1761501976005133600,7.657133544921875,-0.11192678660154343,0.172152578830719,-0.1658526510000229
1761501976015189800,7.667189697265625,-0.02481771446764469,-0.3020096719264984,0.10981088876724243
1761501976025245700,7.67724560546875,0.08891357481479645,-0.5579003095626831,0.46395713090896606
1761501976035301600,7.687301513671875,0.1688113510608673,-0.6542052626609802,0.7449432611465454
1761501976045357800,7.69735791015625,0.2213619500398636,-0.7251840829849243,0.9287946224212646
1761501976055414800,7.707414794921875,0.24577435851097107,-0.6981455087661743,1.1035795211791992
1761501976065470700,7.717470703125,0.22588741779327393,-0.5755863785743713,1.3764790296554565
1761501976075526700,7.727526611328125,0.2129034399986267,-0.2784721553325653,1.6456000804901123
1761501976085582800,7.737582763671875,0.18020732700824738,0.04431210458278656,1.7981255054473877
1761501976095638500,7.747638427734375,0.10910172760486603,0.3117384910583496,1.7696733474731445
1761501976105694500,7.757694580078125,-0.006073161493986845,0.4564744532108307,1.6492338180541992
1761501976115751700,7.767751708984375,-0.10973671078681946,0.486744225025177,1.4812839031219482
1761501976125807600,7.7778076171875,-0.1642819195985794,0.4432421028614044,1.323612928390503
1761501976135863600,7.787863525390625,-0.1922461837530136,0.16910669207572937,1.1247384548187256
1761501976145919500,7.79791943359375,-0.22630290687084198,-0.21686917543411255,0.7953463196754456
1761501976155975700,7.8079755859375,-0.20075573027133942,-0.504349410533905,0.43099284172058105
1761501976166032600,7.81803271484375,-0.16855944693088531,-0.5290776491165161,0.15022079646587372
1761501976176088600,7.828088623046875,-0.14056695997714996,-0.41179949045181274,-0.019298730418086052
1761501976186144500,7.83814453125,-0.07904594391584396,-0.23250697553157806,-0.14522121846675873
1761501976196200700,7.84820068359375,-0.007545130793005228,-0.0237007737159729,-0.2554582357406616
1761501976206256600,7.858256591796875,0.04527886211872101,0.04856414720416069,-0.3817412555217743
1761501976216313600,7.868313720703125,0.05383080244064331,-0.06964824348688126,-0.5658687949180603
1761501976226369500,7.87836962890625,-0.013557610101997852,-0.2945069968700409,-0.7599104046821594
1761501976236425700,7.88842578125,-0.13144031167030334,-0.49870142340660095,-0.9101851582527161
1761501976246481700,7.898481689453125,-0.34969544410705566,-0.7138496041297913,-0.9966495633125305
1761501976256537600,7.90853759765625,-0.5277426838874817,-0.8568709492683411,-1.0750330686569214
1761501976266593800,7.91859375,-0.6488180160522461,-0.8533234596252441,-1.266250491142273
1761501976276650800,7.928650634765625,-0.7301698327064514,-0.7370131015777588,-1.544947624206543
1761501976286706700,7.938706787109375,-0.7363982200622559,-0.4412743151187897,-1.8039377927780151
1761501976296762600,7.9487626953125,-0.6519661545753479,-0.07441030442714691,-1.9635498523712158
1761501976306818800,7.95881884765625,-0.5376415848731995,0.15557071566581726,-2.1053035259246826
1761501976316874800,7.968874755859375,-0.44193029403686523,0.30201900005340576,-2.2276506423950195
1761501976326931700,7.978931640625,-0.3279028832912445,0.3893015384674072,-2.476224184036255
1761501976336987600,7.988987548828125,-0.12785258889198303,0.163687065243721,-3.0142037868499756
1761501976347043600,7.999043701171875,0.15573562681674957,-0.3074691891670227,-3.7156264781951904
1761501976357099500,8.009099609375,0.5401730537414551,-0.5031529664993286,-4.364789009094238
1761501976367155500,8.019155517578126,0.7863565683364868,-0.5370169878005981,-4.489404201507568
1761501976377212400,8.02921240234375,0.7900242805480957,-0.3567553162574768,-4.005486965179443
1761501976387268600,8.0392685546875,0.6536256670951843,0.025634652003645897,-3.1904332637786865
1761501976397324500,8.049324462890626,0.38261279463768005,0.41640612483024597,-2.3676705360412598
1761501976407380500,8.05938037109375,0.04281656816601753,0.31569674611091614,-1.7695472240447998
1761501976417436700,8.069436767578125,-0.23027542233467102,0.009506210684776306,-1.4447693824768066
1761501976427492600,8.07949267578125,-0.3740229904651642,-0.3600580096244812,-1.3584383726119995
1761501976437549600,8.089549560546875,-0.3458438217639923,-0.7313266396522522,-1.4638055562973022
1761501976447605500,8.09960546875,-0.16738522052764893,-0.9647701978683472,-1.6753050088882446
1761501976457661700,8.10966162109375,0.0923968255519867,-1.0881034135818481,-1.93724524974823
1761501976467717600,8.119717529296874,0.34823232889175415,-1.0037466287612915,-2.1686747074127197
1761501976477773600,8.129773681640625,0.5312197208404541,-0.5354968309402466,-2.2643840312957764
1761501976487830500,8.13983056640625,0.6324194073677063,-0.20351473987102509,-2.251850128173828
1761501976497886700,8.14988671875,0.6016923785209656,0.006316513754427433,-2.035285711288452
1761501976507942700,8.159942626953125,0.3272862136363983,0.12723404169082642,-1.774565577507019
1761501976517998600,8.16999853515625,0.02999833971261978,0.4629414975643158,-1.5760668516159058
1761501976528054800,8.1800546875,-0.1682964414358139,0.7610777616500854,-1.4464242458343506
1761501976538111700,8.19011181640625,-0.27278023958206177,0.9992008209228516,-1.4283843040466309
1761501976548167700,8.200167724609376,-0.3181053698062897,1.195001244544983,-1.5205157995224
1761501976558223600,8.2102236328125,-0.34484750032424927,1.3596512079238892,-1.7000147104263306
1761501976568279800,8.22027978515625,-0.4207826256752014,1.6315313577651978,-1.8546640872955322
1761501976578335500,8.23033544921875,-0.4734106659889221,1.968501329421997,-1.8764647245407104
1761501976588391400,8.240391357421874,-0.35305118560791016,1.7804908752441406,-1.5930802822113037
1761501976598448600,8.25044873046875,-0.1966906189918518,1.5003186464309692,-1.154103398323059
1761501976608504600,8.260504638671875,-0.0902855172753334,1.195300579071045,-0.7169268727302551
1761501976618560500,8.270560546875,-0.05235517770051956,0.9717386364936829,-0.3234272599220276
1761501976628616400,8.280616455078125,-0.0943545550107956,0.7321734428405762,-0.018636148422956467
1761501976638672600,8.290672607421875,-0.1283988058567047,0.5221123099327087,0.13578058779239655
1761501976648729600,8.3007294921875,-0.102027527987957,0.37647682428359985,0.1488708108663559
1761501976658785500,8.31078564453125,-0.042239826172590256,0.15398037433624268,0.030849628150463104
1761501976668841700,8.320841796875,0.049013566225767136,-0.09270147234201431,-0.19680166244506836
1761501976678897700,8.330897705078126,0.16470128297805786,-0.15485779941082,-0.4213543236255646
1761501976688953600,8.34095361328125,0.3208230137825012,-0.20515817403793335,-0.5736610293388367
1761501976699009500,8.351009521484375,0.5183177590370178,-0.3831614553928375,-0.6764060854911804
1761501976709066800,8.361066650390624,0.6188346147537231,-0.6073933839797974,-0.7394489645957947
1761501976719122700,8.371122802734375,0.5832558870315552,-0.8516132831573486,-0.7800573706626892
1761501976729178600,8.3811787109375,0.4361172616481781,-0.9512350559234619,-0.8118594288825989
1761501976739234600,8.391234619140626,0.2669079899787903,-0.6584902405738831,-0.8264034986495972
1761501976749290800,8.401290771484375,0.14900295436382294,-0.06868517398834229,-0.8128209114074707
1761501976759347700,8.41134765625,0.04996826499700546,0.3763865530490875,-0.7060585021972656
1761501976769403600,8.421403564453126,-0.014932280406355858,0.7168074250221252,-0.5826790928840637
1761501976779459800,8.4314599609375,-0.07961753010749817,1.032301664352417,-0.5485102534294128
1761501976789515800,8.441515869140625,-0.16951356828212738,0.7142261862754822,-0.6190321445465088
1761501976799571500,8.451571533203126,-0.30864134430885315,0.4059479534626007,-0.7762398719787598
1761501976809628700,8.461628662109375,-0.3833675682544708,0.054285746067762375,-0.9244241118431091
1761501976819684900,8.471684814453125,-0.33855751156806946,-0.4504043161869049,-0.905223548412323
1761501976829740500,8.481740478515626,-0.2558542490005493,-0.6306193470954895,-0.8440274000167847
1761501976839796500,8.49179638671875,-0.21033044159412384,-0.4720134139060974,-0.8576488494873047
1761501976849852700,8.501852783203125,-0.2522299885749817,-0.3629683256149292,-0.9069148302078247
1761501976859908600,8.51190869140625,-0.3632638156414032,-0.3591077923774719,-0.9667829871177673
1761501976869965600,8.521965576171874,-0.5054032802581787,-0.4477909207344055,-1.048723578453064
1761501976880021500,8.532021484375,-0.6468299031257629,-0.654275119304657,-1.150602102279663
1761501976890077700,8.54207763671875,-0.7649605870246887,-0.7474840879440308,-1.3249952793121338
1761501976900133600,8.552133544921874,-0.8346410989761353,-0.6345615386962891,-1.5564985275268555
1761501976910189600,8.562189453125,-0.8599950075149536,-0.5025301575660706,-1.756825566291809
1761501976920246500,8.57224658203125,-0.765975296497345,-0.09267022460699081,-1.836633563041687
1761501976930302700,8.582302734375,-0.5398278832435608,0.4888230264186859,-1.6704801321029663
1761501976940358700,8.592358642578125,-0.3203679621219635,0.7593674659729004,-1.3083595037460327
1761501976950414600,8.60241455078125,-0.14439110457897186,0.6997409462928772,-0.8362714052200317
1761501976960470800,8.612470703125,-0.03314287215471268,0.5290674567222595,-0.34415680170059204
1761501976970526700,8.622526611328125,0.006426610983908176,0.4545752704143524,0.1070227399468422
1761501976980583700,8.632583740234375,0.004185827448964119,0.36504778265953064,0.47286757826805115
1761501976990639600,8.6426396484375,-0.017970070242881775,0.32108163833618164,0.7061700820922852
1761501977000695800,8.65269580078125,-0.07274756580591202,0.2951030433177948,0.7504669427871704
1761501977010752800,8.662752685546875,-0.1528172791004181,0.18720287084579468,0.6306901574134827
1761501977020808700,8.67280859375,-0.20245620608329773,0.05901135504245758,0.4017408788204193
1761501977030865700,8.68286572265625,-0.18270784616470337,-0.0061315326020121574,0.11539222300052643
1761501977040921600,8.692921630859376,-0.10492810606956482,-0.009087108075618744,-0.21056218445301056
1761501977050977800,8.702977783203124,0.009671416133642197,-0.013356556184589863,-0.5244331955909729
1761501977061033700,8.71303369140625,0.12413940578699112,0.01259435061365366,-0.7771442532539368
1761501977071089700,8.723089599609375,0.22086963057518005,0.10002529621124268,-0.947399377822876
1761501977081146600,8.733146728515624,0.2816416621208191,0.22096610069274902,-1.0619416236877441
1761501977091202800,8.743202880859375,0.27538713812828064,0.28975653648376465,-1.151893138885498
1761501977101258800,8.7532587890625,0.2070792019367218,0.33014070987701416,-1.1873332262039185
1761501977111314700,8.763314697265624,0.11498534679412842,0.38124576210975647,-1.1573748588562012
1761501977121371000,8.773370849609375,0.015665950253605843,0.4286622703075409,-1.084834337234497
1761501977131426800,8.7834267578125,-0.0940815880894661,0.44189125299453735,-0.9954389333724976
1761501977141483800,8.79348388671875,-0.17642679810523987,0.48427814245224,-0.9344748854637146
1761501977151539700,8.803539794921875,-0.2080484926700592,0.461864173412323,-0.8908256888389587
1761501977161596000,8.813595947265625,-0.1867796927690506,0.3516439199447632,-0.8027938008308411
1761501977171651600,8.823651611328126,-0.09142551571130753,0.22398224472999573,-0.6543000936508179
1761501977181707500,8.83370751953125,0.03783074766397476,0.08641691505908966,-0.49236077070236206
1761501977191764500,8.843764404296875,0.14498044550418854,-0.06472285091876984,-0.341223806142807
1761501977201820700,8.853820556640626,0.16374321281909943,-0.1124754548072815,-0.2848484218120575
1761501977211876600,8.863876708984375,0.08124815672636032,-0.15358063578605652,-0.21832528710365295
1761501977221932500,8.8739326171875,-0.04771275073289871,-0.20464222133159637,-0.18608959019184113
1761501977231988700,8.88398876953125,-0.16619160771369934,-0.20132602751255035,-0.19656042754650116
1761501977242045700,8.894045654296875,-0.24119260907173157,-0.18372225761413574,-0.23577813804149628
1761501977252101600,8.9041015625,-0.26342278718948364,-0.19462904334068298,-0.2938796281814575
1761501977262155800,8.91415576171875,-0.2414221614599228,-0.14827299118041992,-0.36090606451034546
1761501977272211700,8.924211669921876,-0.19984568655490875,-0.0933850035071373,-0.43184277415275574
1761501977282268000,8.934267822265625,-0.15935790538787842,-0.07366775721311569,-0.4879925847053528
1761501977292323800,8.94432373046875,-0.13664878904819489,-0.1189037412405014,-0.512162983417511
1761501977302380800,8.954380859375,-0.12630799412727356,-0.20375044643878937,-0.5050267577171326
1761501977312436700,8.964436767578125,-0.1345212757587433,-0.2546553313732147,-0.4566323459148407
1761501977322492700,8.97449267578125,-0.16432151198387146,-0.24538302421569824,-0.3732897937297821
1761501977332548600,8.984548583984376,-0.20697899162769318,-0.22943009436130524,-0.25849035382270813
1761501977342604500,8.9946044921875,-0.24062909185886383,-0.18826481699943542,-0.08024101704359055
1761501977352660700,9.00466064453125,-0.2535458505153656,-0.10544252395629883,0.13969042897224426
1761501977362717700,9.0147177734375,-0.2552316188812256,-0.03993222489953041,0.3525172173976898
1761501977372773600,9.024773681640625,-0.23483198881149292,-0.01261972077190876,0.5106248259544373
1761501977382829600,9.03482958984375,-0.18595951795578003,-0.032689034938812256,0.5911303162574768
1761501977392885800,9.0448857421875,-0.1253359019756317,-0.06572616845369339,0.582012414932251
1761501977402941700,9.054941650390624,-0.08004112541675568,-0.09107280522584915,0.5043019652366638
1761501977412998700,9.06499853515625,-0.050920385867357254,-0.08944855630397797,0.3787269592285156
1761501977423054600,9.0750546875,-0.036065809428691864,-0.042365457862615585,0.24104474484920502
1761501977433110800,9.08511083984375,-0.04601617157459259,0.025350986048579216,0.10456523299217224
1761501977443166700,9.095166748046875,-0.07868170738220215,0.0477798655629158,0.00737609900534153
1761501977453222700,9.10522265625,-0.08655743300914764,0.09450247883796692,-0.018745314329862595
1761501977463279600,9.115279541015624,-0.05650632828474045,0.10112948715686798,0.026371829211711884
1761501977473335800,9.125335693359375,-0.000695887953042984,0.07450757920742035,0.11374343931674957
1761501977483391700,9.135391845703126,0.07122544199228287,0.053814809769392014,0.2436753511428833
1761501977493447700,9.14544775390625,0.14250530302524567,0.08122502267360687,0.42634186148643494
1761501977503504000,9.15550390625,0.2066187858581543,0.15486276149749756,0.616380512714386
1761501977513559800,9.165559814453125,0.2531689703464508,0.21014730632305145,0.7721027731895447
1761501977523616800,9.17561669921875,0.282401978969574,0.21891416609287262,0.8722032308578491
1761501977533672700,9.185672607421875,0.29074910283088684,0.1762801706790924,0.8846514225006104
1761501977543729000,9.19572900390625,0.27037325501441956,0.0640212669968605,0.8263353705406189
1761501977553784600,9.20578466796875,0.2208038717508316,-0.10712344944477081,0.7133423686027527
1761501977563840500,9.215840576171875,0.17523372173309326,-0.24367943406105042,0.5976299047470093
1761501977573897700,9.225897705078125,0.1662040650844574,-0.25752195715904236,0.5092503428459167
1761501977583953700,9.23595361328125,0.18497322499752045,-0.17681406438350677,0.44789406657218933
1761501977594009600,9.246009521484375,0.19737781584262848,-0.06848114728927612,0.410690039396286
1761501977604065500,9.2560654296875,0.20094937086105347,0.04476818069815636,0.38446056842803955
1761501977614121700,9.266121826171876,0.1959003061056137,0.13059648871421814,0.34975627064704895
1761501977624178700,9.2761787109375,0.18208995461463928,0.1488465964794159,0.2955612242221832
1761501977634234600,9.286234619140625,0.16376963257789612,0.14648449420928955,0.24613171815872192
1761501977644290600,9.29629052734375,0.14289125800132751,0.14881102740764618,0.21806600689888
1761501977654346800,9.3063466796875,0.12612441182136536,0.15539054572582245,0.19785776734352112
1761501977664402700,9.316402587890625,0.10990043729543686,0.16186203062534332,0.1890602707862854
1761501977674459600,9.326459716796874,0.0865771546959877,0.18119759857654572,0.18844623863697052
1761501977684516600,9.3365166015625,0.06133784353733063,0.17323368787765503,0.1962634176015854
1761501977694572800,9.34657275390625,0.06121720001101494,0.19039402902126312,0.20213168859481812
1761501977704628700,9.356628662109374,0.08073817193508148,0.18703019618988037,0.21221281588077545
1761501977714684700,9.3666845703125,0.10540277510881424,0.14971184730529785,0.22570866346359253
1761501977724740900,9.376740966796875,0.11713452637195587,0.0828462615609169,0.2434929758310318
1761501977734797800,9.3867978515625,0.11394054442644119,0.022813761606812477,0.24961894750595093
1761501977744853800,9.396853759765625,0.10137815028429031,-0.003119835164397955,0.24289953708648682
1761501977754909700,9.40690966796875,0.09692220389842987,0.03142832964658737,0.22333954274654388
1761501977764966000,9.4169658203125,0.09325316548347473,0.09326133877038956,0.18490399420261383
1761501977775021800,9.427021728515625,0.09554043412208557,0.11458277702331543,0.12714247405529022
1761501977785078800,9.437078857421875,0.1138954684138298,0.09187080711126328,0.04500738903880119
1761501977795134700,9.447134765625,0.15462881326675415,0.08006840944290161,-0.029939910396933556
1761501977805191000,9.45719091796875,0.19009387493133545,0.09872332215309143,-0.08498825132846832
1761501977815246800,9.467246826171875,0.2100074589252472,0.14631447196006775,-0.11297786235809326
1761501977825302500,9.477302490234376,0.2139500081539154,0.18386584520339966,-0.10447651892900467
1761501977835358700,9.487358642578124,0.20723186433315277,0.20283468067646027,-0.0819036141037941
1761501977845415700,9.497415771484375,0.2032690793275833,0.2642415761947632,-0.04876616224646568
1761501977855471600,9.5074716796875,0.20818978548049927,0.35537803173065186,-0.02570202201604843
1761501977865527600,9.517527587890624,0.20819804072380066,0.43291568756103516,0.00702449819073081
1761501977875583700,9.527583740234375,0.19931140542030334,0.46078482270240784,0.04629853740334511
1761501977885639700,9.5376396484375,0.17583324015140533,0.43936529755592346,0.07426466047763824
1761501977895696600,9.547696533203125,0.14999496936798096,0.3516470193862915,0.0678364560008049
1761501977905752600,9.557752685546875,0.13952794671058655,0.22584009170532227,0.035124048590660095
1761501977915808800,9.567808837890626,0.1441546082496643,0.1113075539469719,-0.00505719892680645
1761501977925864700,9.57786474609375,0.14947719871997833,0.06362418830394745,-0.02498083934187889
1761501977935920600,9.587920654296875,0.1659679412841797,0.05273834615945816,-0.017214540392160416
1761501977945977600,9.5979775390625,0.1756778210401535,0.08813735097646713,0.011582484468817711
1761501977956033800,9.60803369140625,0.17992542684078217,0.13969989120960236,0.039008766412734985
1761501977966089700,9.61808984375,0.17528566718101501,0.18876223266124725,0.06509415805339813
1761501977976145700,9.628145751953125,0.1533876359462738,0.18621565401554108,0.09904488176107407
1761501977986201900,9.638201904296874,0.1312602311372757,0.16451914608478546,0.16548995673656464
1761501977996258800,9.6482587890625,0.1286303699016571,0.14399626851081848,0.23326268792152405
1761501978006314000,9.65831396484375,0.12096633017063141,0.10813254863023758,0.2826371490955353
1761501978016370200,9.6683701171875,0.11656897515058517,0.0655723363161087,0.29591044783592224
1761501978026426000,9.678426025390625,0.11128366738557816,0.02482783794403076,0.25789675116539
1761501978036482000,9.68848193359375,0.09935742616653442,-0.004368418827652931,0.1672535240650177
1761501978046538200,9.698538330078126,0.07333115488290787,-0.029344875365495682,0.0488445982336998
1761501978056595200,9.70859521484375,0.04260721057653427,-0.04319228231906891,-0.0672057569026947
1761501978066651100,9.718651123046875,0.030341491103172302,-0.04451214522123337,-0.14529097080230713
1761501978076707000,9.72870703125,0.02904115431010723,-0.027920199558138847,-0.17982898652553558
1761501978086763300,9.73876318359375,0.04210050031542778,0.020191403105854988,-0.16580425202846527
1761501978096819200,9.748819091796875,0.03630038723349571,0.06676186621189117,-0.13245674967765808
1761501978106876200,9.758876220703126,0.02057894878089428,0.07549676299095154,-0.11027208715677261
1761501978116932000,9.76893212890625,0.0025604497641324997,0.06068914011120796,-0.10073821991682053
1761501978126988300,9.77898828125,-0.021344084292650223,0.051735591143369675,-0.10284504294395447
1761501978137044200,9.789044189453126,-0.03665813058614731,0.07549308240413666,-0.11274735629558563
1761501978147100200,9.79910009765625,-0.06083536893129349,0.10331991314888,-0.12548552453517914
1761501978157157000,9.8091572265625,-0.07296381145715714,0.08583076298236847,-0.13410675525665283
1761501978167213300,9.81921337890625,-0.06481853872537613,0.07548997551202774,-0.11683349311351776
1761501978177269200,9.829269287109375,-0.04473947361111641,0.07804355025291443,-0.07543636858463287
1761501978187325200,9.8393251953125,-0.022526312619447708,0.10834073275327682,-0.006995524279773235
1761501978197381000,9.849381103515626,-0.0059797936119139194,0.13486619293689728,0.07486651837825775
1761501978207437000,9.85943701171875,0.014567293226718903,0.13616928458213806,0.1621982306241989
1761501978217494000,9.869493896484375,0.030396291986107826,0.14049255847930908,0.22423984110355377
1761501978227550000,9.879550048828126,0.02140093222260475,0.1354495882987976,0.24051068723201752
1761501978237606100,9.889606201171874,-0.0009542442858219147,0.11956493556499481,0.21253296732902527
1761501978247662000,9.899662109375,-0.014325975440442562,0.10147008299827576,0.16961824893951416
1761501978257718000,9.909718017578125,-0.007609811145812273,0.07521367073059082,0.12814393639564514
1761501978267775000,9.91977490234375,0.0035917104687541723,0.0422501303255558,0.1075742170214653
1761501978277831200,9.9298310546875,0.01174238696694374,0.03911047428846359,0.09415046125650406
1761501978287887000,9.93988720703125,0.019400041550397873,0.05448224022984505,0.09167318791151047
1761501978297943000,9.949943115234374,0.033087413758039474,0.06395196914672852,0.1026121973991394
1761501978307999200,9.959999267578125,0.04691507667303085,0.1589043140411377,0.215277761220932
1761501978318056200,9.97005615234375,0.027017492800951004,0.14583291113376617,0.3130839467048645
1761501978328112000,9.980112060546874,-0.007168440148234367,0.08745348453521729,0.30580607056617737
1761501978338168000,9.99016796875,-0.022854389622807503,-0.006062613800168037,0.23878218233585358
1761501978348224300,10.000224365234375,-0.040689848363399506,-0.10762199759483337,0.15459460020065308
1761501978358280200,10.0102802734375,-0.06172887980937958,-0.17691268026828766,0.06902044266462326
1761501978368337200,10.020337158203125,-0.05932457745075226,-0.18073111772537231,0.03209038823843002
1761501978378393000,10.03039306640625,-0.04712522402405739,-0.13931050896644592,0.050114620476961136
1761501978388449300,10.04044921875,-0.05807693675160408,-0.12923842668533325,0.1130504459142685
