time,seconds_elapsed,z,y,x
1761501968412710700,0.064710693359375,0.041134919971227646,-0.3884899616241455,-0.20684292912483215
1761501968422766600,0.0747666015625,0.043355729430913925,-0.22121387720108032,-0.19051748514175415
1761501968432823600,0.084823486328125,0.03891703858971596,-0.06161089986562729,-0.16105413436889648
1761501968442879700,0.094879638671875,0.05018727108836174,0.09469348192214966,-0.12119992822408676
1761501968452935700,0.104935791015625,0.062059640884399414,0.22652901709079742,-0.0734635666012764
1761501968462991600,0.11499169921875,0.07378793507814407,0.3244127035140991,-0.03389937803149223
1761501968473047800,0.1250478515625,0.08357372134923935,0.3819366991519928,-0.020352410152554512
1761501968483103500,0.135103515625,0.09259198606014252,0.39989015460014343,-0.013950170017778873
1761501968493160700,0.14516064453125,0.08765821158885956,0.40255704522132874,-0.0035566515289247036
1761501968503216600,0.155216552734375,0.06173153966665268,0.3986310064792633,0.025856897234916687
1761501968513272600,0.1652724609375,0.028134964406490326,0.40077006816864014,0.07664817571640015
1761501968523328500,0.17532861328125,0.005797967780381441,0.4103720784187317,0.13849370181560516
1761501968533384400,0.185384521484375,0.004177967086434364,0.4127865135669708,0.1923081874847412
1761501968543441400,0.19544140625,0.01665940321981907,0.4138224720954895,0.22404375672340393
1761501968553497600,0.20549755859375,0.05058328062295914,0.420619398355484,0.22815939784049988
1761501968563553500,0.215553466796875,0.10363904386758804,0.44875356554985046,0.21337565779685974
1761501968573609500,0.225609375,0.15097379684448242,0.5005744099617004,0.21636666357517242
1761501968583665700,0.235665771484375,0.18969988822937012,0.5415015816688538,0.23351554572582245
1761501968593722600,0.24572265625,0.21728624403476715,0.5767797231674194,0.25224635004997253
1761501968603778600,0.255778564453125,0.2418200820684433,0.6217804551124573,0.2472715824842453
1761501968613834500,0.26583447265625,0.2462603747844696,0.6531349420547485,0.21905671060085297
1761501968623890700,0.275890625,0.24497699737548828,0.6415467262268066,0.17229799926280975
1761501968633946600,0.285946533203125,0.23962803184986115,0.6331492066383362,0.12088008224964142
1761501968644003600,0.296003662109375,0.22302936017513275,0.6248795986175537,0.08383045345544815
1761501968654059800,0.306059814453125,0.19590851664543152,0.6155372262001038,0.08334335684776306
1761501968664115700,0.31611572265625,0.14257632195949554,0.6021436452865601,0.11833250522613525
1761501968674171600,0.326171630859375,0.07842929661273956,0.6636520028114319,0.13702788949012756
1761501968684227600,0.3362275390625,0.019625632092356682,0.7489219307899475,0.09313207119703293
1761501968694284800,0.346284912109375,0.008407599292695522,0.8014349341392517,-0.009130381047725677
1761501968704340700,0.3563408203125,0.040097884833812714,0.8319060206413269,-0.08328663557767868
1761501968714396700,0.366396728515625,0.09921127557754517,0.8477411866188049,-0.10072208195924759
1761501968724452600,0.37645263671875,0.16205495595932007,0.8565503358840942,-0.06585118174552917
1761501968734508500,0.386508544921875,0.19918394088745117,0.8570579886436462,0.026271551847457886
1761501968744565800,0.396565673828125,0.21351733803749084,0.8262630105018616,0.14398513734340668
1761501968754621700,0.40662158203125,0.2117719054222107,0.7441463470458984,0.24537593126296997
1761501968764677600,0.416677734375,0.19637857377529144,0.6505410075187683,0.2793229818344116
1761501968774733600,0.426733642578125,0.1732865571975708,0.611930787563324,0.21195299923419952
1761501968784789500,0.43678955078125,0.15698109567165375,0.611712634563446,0.06203886866569519
1761501968794846500,0.446846435546875,0.17113792896270752,0.6003300547599792,-0.1074976995587349
1761501968804902700,0.456902587890625,0.19796821475028992,0.580636739730835,-0.22303974628448486
1761501968814958600,0.46695849609375,0.21498633921146393,0.5613560080528259,-0.2393886148929596
1761501968825014500,0.4770146484375,0.2154792845249176,0.5329448580741882,-0.17566530406475067
1761501968835070700,0.48707080078125,0.19884519279003143,0.5195862054824829,-0.07388487458229065
1761501968845127700,0.497127685546875,0.16889448463916779,0.5333973169326782,0.019945478066802025
1761501968855183600,0.50718359375,0.14296354353427887,0.55462646484375,0.07378607243299484
1761501968865239600,0.517239501953125,0.10872914642095566,0.5767962336540222,0.08275959640741348
1761501968875295700,0.527295654296875,0.07579489797353745,0.6024890542030334,0.03436702862381935
1761501968885351700,0.5373515625,0.042746398597955704,0.6239930391311646,-0.0461411289870739
1761501968895408600,0.54740869140625,0.009072324261069298,0.6124924421310425,-0.11731677502393723
1761501968905464600,0.557464599609375,-0.022353509441018105,0.5613099336624146,-0.1687120497226715
1761501968915520800,0.567520751953125,-0.05048874020576477,0.5437064170837402,-0.16583317518234253
1761501968925576700,0.57757666015625,-0.09130807220935822,0.5272355675697327,-0.11715405434370041
1761501968935632600,0.587632568359375,-0.11966700851917267,0.4908408224582672,-0.052811283618211746
1761501968945689600,0.597689697265625,-0.10369949787855148,0.3988989293575287,0.007843541912734509
1761501968955745800,0.607745849609375,-0.040704552084207535,0.2556581497192383,0.055507734417915344
1761501968965801700,0.6178017578125,0.041793785989284515,0.0809268057346344,0.07265476137399673
1761501968975857700,0.627857666015625,0.08510370552539825,-0.10282225161790848,0.04867193102836609
1761501968985913600,0.63791357421875,0.10266219824552536,-0.22906380891799927,0.011394068598747253
1761501968995968800,0.64796875,0.08731865882873535,-0.3175204396247864,-0.03259709104895592
1761501969006025700,0.658025634765625,0.05240621790289879,-0.3345220685005188,-0.06845016032457352
1761501969016082000,0.66808203125,0.006767092272639275,-0.31097304821014404,-0.07844740152359009
1761501969026137900,0.678137939453125,-0.03377234563231468,-0.25975993275642395,-0.07057057321071625
1761501969036193800,0.68819384765625,-0.07878322899341583,-0.20292462408542633,-0.041729871183633804
1761501969046250000,0.69825,-0.12519998848438263,-0.16834001243114471,0.00774607015773654
1761501969056307000,0.708306884765625,-0.16821163892745972,-0.16550827026367188,0.08037393540143967
1761501969066363000,0.71836279296875,-0.19267651438713074,-0.18554642796516418,0.1472400575876236
1761501969076418600,0.72841845703125,-0.2048404961824417,-0.19918447732925415,0.18415625393390656
1761501969086474800,0.738474853515625,-0.19804197549819946,-0.1966283768415451,0.1742599457502365
1761501969096530700,0.74853076171875,-0.1822667419910431,-0.20990583300590515,0.11872398853302002
1761501969106587600,0.758587646484375,-0.15915343165397644,-0.20466765761375427,0.08082347363233566
1761501969116643600,0.7686435546875,-0.1403414011001587,-0.2087841033935547,0.07288006693124771
1761501969126699800,0.77869970703125,-0.11996821314096451,-0.18235968053340912,0.073736272752285
1761501969136755700,0.788755615234375,-0.10305608063936234,-0.1295287013053894,0.071906678378582
1761501969146811600,0.798811767578125,-0.06430015712976456,-0.15355733036994934,0.04404788464307785
1761501969156868600,0.80886865234375,-0.01390036940574646,-0.22280484437942505,0.01889459602534771
1761501969166924800,0.8189248046875,0.03137283772230148,-0.30072733759880066,0.0070914654061198235
1761501969176980700,0.828980712890625,0.06076614558696747,-0.37302204966545105,-0.00711676524952054
1761501969187036700,0.83903662109375,0.08754849433898926,-0.38146159052848816,-0.051839228719472885
1761501969197092900,0.8490927734375,0.12454032897949219,-0.4109734296798706,-0.10623722523450851
1761501969207149800,0.85914990234375,0.15573233366012573,-0.47043702006340027,-0.14039252698421478
1761501969217205800,0.869205810546875,0.16124828159809113,-0.5108198523521423,-0.1275201439857483
1761501969227261700,0.87926171875,0.14308498799800873,-0.5521166920661926,-0.08160670846700668
1761501969237318000,0.88931787109375,0.10047280788421631,-0.5646234154701233,-0.016199210658669472
1761501969247373800,0.899373779296875,0.05877889320254326,-0.546402633190155,0.07736083120107651
1761501969257430800,0.9094306640625,0.021816615015268326,-0.5431846976280212,0.19338516891002655
1761501969267486700,0.91948681640625,-0.012051602825522423,-0.5699952840805054,0.2967451214790344
1761501969277543000,0.92954296875,-0.041432928293943405,-0.5493763089179993,0.3296966850757599
1761501969287598800,0.939598876953125,-0.06514038890600204,-0.4814867377281189,0.2651989161968231
1761501969297654800,0.94965478515625,-0.06124338507652283,-0.4270724952220917,0.10666972398757935
1761501969307711700,0.959711669921875,-0.03779584914445877,-0.3993668258190155,-0.11704140156507492
1761501969317768000,0.969767822265625,-0.034210167825222015,-0.391783207654953,-0.3394733965396881
1761501969327823600,0.97982373046875,-0.06256377696990967,-0.3344871699810028,-0.45801258087158203
1761501969337879600,0.989879638671875,-0.14013633131980896,-0.25644856691360474,-0.4246032238006592
1761501969347935700,0.999935791015625,-0.23443487286567688,-0.22479689121246338,-0.2617703676223755
1761501969357992700,1.00999267578125,-0.2899428606033325,-0.20580562949180603,-0.02003496140241623
1761501969368048600,1.020048583984375,-0.3160405158996582,-0.264202356338501,0.25585466623306274
1761501969378104600,1.0301044921875,-0.30085569620132446,-0.37598615884780884,0.4589824974536896
1761501969388160800,1.040160888671875,-0.22423842549324036,-0.474042683839798,0.5348098874092102
1761501969398216700,1.050216796875,-0.10534346848726273,-0.5147988796234131,0.4859704375267029
1761501969408273700,1.060273681640625,0.019055716693401337,-0.5318723917007446,0.3391740620136261
1761501969418329600,1.07032958984375,0.13641802966594696,-0.5089255571365356,0.13337749242782593
1761501969428385800,1.0803857421875,0.22091320157051086,-0.47701743245124817,-0.08651624619960785
1761501969438441700,1.090441650390625,0.2530490458011627,-0.38973045349121094,-0.2659027874469757
1761501969448497700,1.10049755859375,0.2082408219575882,-0.28928375244140625,-0.36080479621887207
1761501969458553900,1.110553955078125,0.13880687952041626,-0.20540668070316315,-0.33073529601097107
1761501969468610800,1.12061083984375,0.05582225322723389,-0.16712987422943115,-0.20211660861968994
1761501969478666800,1.130666748046875,-0.026334401220083237,-0.17185324430465698,-0.022310897707939148
1761501969488722700,1.14072265625,-0.09730737656354904,-0.16777248680591583,0.14868001639842987
1761501969498779000,1.15077880859375,-0.15684820711612701,-0.184572234749794,0.2689742147922516
1761501969508834800,1.160834716796875,-0.2180766761302948,-0.26647377014160156,0.30972668528556824
1761501969518891800,1.170891845703125,-0.3047039806842804,-0.4357038140296936,0.28223276138305664
1761501969528947700,1.18094775390625,-0.401567667722702,-0.31817904114723206,0.2723788022994995
1761501969539004000,1.19100390625,-0.4202151298522949,-0.07130267471075058,0.20702162384986877
1761501969549059800,1.201059814453125,-0.38931819796562195,0.08327890932559967,0.08825928717851639
1761501969559115800,1.21111572265625,-0.3709844648838043,0.15475761890411377,-0.0410880483686924
1761501969569172700,1.2211728515625,-0.35296231508255005,0.32326194643974304,-0.11867258697748184
1761501969579228700,1.231228759765625,-0.36355558037757874,0.5069507956504822,-0.15405428409576416
1761501969589284600,1.24128466796875,-0.40445348620414734,0.6718713045120239,-0.24283847212791443
1761501969599340800,1.2513408203125,-0.44018909335136414,0.8039420247077942,-0.3925880193710327
1761501969609396700,1.261396728515625,-0.44966408610343933,0.7139463424682617,-0.5893604755401611
1761501969619453700,1.27145361328125,-0.3236648738384247,0.3505241870880127,-0.8332173228263855
1761501969629509600,1.281509521484375,-0.07621593773365021,-0.058812715113162994,-1.047017216682434
1761501969639565800,1.29156591796875,0.2144547700881958,-0.355467826128006,-1.1133675575256348
1761501969649621800,1.301621826171875,0.42984992265701294,-0.2631267011165619,-0.836538553237915
1761501969659677700,1.311677734375,0.4410753846168518,-0.011952000670135021,-0.20942406356334686
1761501969669734700,1.321734619140625,0.28480350971221924,0.10490324348211288,0.529369056224823
1761501969679790800,1.331790771484375,0.052686113864183426,0.18254104256629944,1.1583267450332642
1761501969689846800,1.3418466796875,-0.15794888138771057,0.2234746366739273,1.4382963180541992
1761501969699902700,1.35190283203125,-0.3284183740615845,0.17201118171215057,1.1062259674072266
1761501969709959000,1.361958984375,-0.41934481263160706,0.2179965078830719,0.24781885743141174
1761501969720016000,1.372015869140625,-0.3995434045791626,0.4239446222782135,-0.7825120687484741
1761501969730071800,1.38207177734375,-0.3167630434036255,0.48388466238975525,-1.4025473594665527
1761501969740127700,1.392127685546875,-0.24203446507453918,0.3248230814933777,-1.2391622066497803
1761501969750184000,1.402183837890625,-0.21405823528766632,0.3305718004703522,-0.6555660963058472
1761501969760239900,1.412239990234375,-0.21085338294506073,0.1856393665075302,-0.09139036387205124
1761501969770296800,1.422296875,-0.050281014293432236,-0.1546870470046997,0.5144939422607422
1761501969780352800,1.432352783203125,0.2052580863237381,-0.42094242572784424,0.9473596215248108
1761501969790409000,1.442408935546875,0.42518749833106995,-0.3189292550086975,0.9224489331245422
1761501969800465000,1.45246484375,0.5920736789703369,-0.0436159186065197,0.5674613118171692
1761501969810520600,1.4625205078125,0.7055627107620239,0.18611234426498413,0.2349933385848999
1761501969820577800,1.472577880859375,0.7344308495521545,0.3705998957157135,0.020616328343749046
1761501969830633700,1.4826337890625,0.719071090221405,0.3957204222679138,-0.07501112669706345
1761501969840689700,1.492689697265625,0.6407200694084167,0.3528811037540436,-0.08842147141695023
1761501969850745600,1.50274560546875,0.401790589094162,0.3410971462726593,-0.046549391001462936
1761501969860801800,1.5128017578125,0.024105869233608246,0.3485316038131714,0.156180277466774
1761501969870857700,1.522857666015625,-0.32104140520095825,0.5363047122955322,0.5099362134933472
1761501969880914700,1.532914794921875,-0.5954828262329102,0.9273278713226318,0.8797358274459839
1761501969890970600,1.542970703125,-0.790648341178894,1.4316551685333252,1.1197961568832397
1761501969901026800,1.55302685546875,-0.8385064005851746,1.8137186765670776,1.177621603012085
1761501969911082800,1.563082763671875,-0.6748071908950806,1.7217339277267456,1.1415307521820068
1761501969921138700,1.573138671875,-0.41843879222869873,1.3859505653381348,1.0764758586883545
1761501969931195600,1.583195556640625,-0.1140136569738388,0.959297776222229,0.8538933396339417
1761501969941251800,1.593251953125,0.13387471437454224,0.6704691648483276,0.5051393508911133
1761501969951307800,1.603307861328125,0.32861968874931335,0.6171889305114746,0.04427159205079079
1761501969961363700,1.61336376953125,0.4529264569282532,0.6534883379936218,-0.4619884192943573
1761501969971420000,1.623419921875,0.48856887221336365,0.7682098746299744,-0.8146729469299316
1761501969981476900,1.633476806640625,0.40486040711402893,0.829518735408783,-0.9009604454040527
1761501969991532800,1.64353271484375,0.26539918780326843,0.7391124367713928,-0.6826877593994141
1761501970001588200,1.653588134765625,0.08215745538473129,0.5881612300872803,-0.33503100275993347
1761501970011644200,1.66364404296875,-0.1383908987045288,0.3094649016857147,-0.08016620576381683
1761501970021700000,1.6737001953125,-0.2966606914997101,-0.06818225234746933,0.05780977010726929
1761501970031757000,1.683757080078125,-0.44418489933013916,-0.4839991629123688,0.11176274716854095
1761501970041813200,1.693813232421875,-0.5144606828689575,-0.8846006393432617,0.07765112072229385
1761501970051869200,1.703869140625,-0.42483410239219666,-1.1329689025878906,0.021992117166519165
1761501970061925000,1.713925048828125,-0.1878250241279602,-1.2450975179672241,-0.02400733157992363
1761501970071981300,1.723981201171875,0.0855841413140297,-1.1601654291152954,-0.06786826252937317
1761501970082038300,1.734038330078125,0.35094258189201355,-0.9968361258506775,-0.18354345858097076
1761501970092094200,1.74409423828125,0.5963134765625,-0.8008559346199036,-0.42650577425956726
1761501970102150100,1.754150146484375,0.8132486939430237,-0.34707167744636536,-0.7181469202041626
1761501970112206300,1.764206298828125,0.9036979079246521,-0.11371937394142151,-1.017035961151123
1761501970122262300,1.77426220703125,0.848632276058197,-0.016275109723210335,-1.0627800226211548
1761501970132319200,1.7843193359375,0.5901053547859192,-0.03116883896291256,-0.8705143928527832
1761501970142375200,1.794375244140625,0.21705640852451324,-0.02316630631685257,-0.5162774920463562
1761501970152431000,1.80443115234375,-0.211207315325737,0.09422902762889862,0.02413223311305046
1761501970162487000,1.814487060546875,-0.5973837971687317,0.20685650408267975,0.5274196267127991
1761501970172543000,1.82454296875,-0.9041005969047546,0.2360101342201233,0.8565120100975037
1761501970182600000,1.834599853515625,-1.054487943649292,0.2566682696342468,0.9213509559631348
1761501970192656100,1.84465625,-0.987536609172821,0.1468922346830368,0.7564700841903687
1761501970202712000,1.854712158203125,-0.6193907856941223,-0.0034077810123562813,0.5280520915985107
1761501970212768000,1.86476806640625,-0.05919035151600838,-0.30957674980163574,0.23800989985466003
1761501970222824200,1.87482421875,0.3443387448787689,-0.3946565091609955,-0.1736503541469574
1761501970232880000,1.884880126953125,0.5746033787727356,-0.3604505956172943,-0.593102216720581
1761501970242937000,1.89493701171875,0.8094326257705688,-0.22997701168060303,-0.8199345469474792
1761501970252993000,1.904992919921875,0.732160210609436,0.07461830973625183,-0.9256910681724548
1761501970263049200,1.91504931640625,0.16713066399097443,0.18395784497261047,-0.6574130058288574
1761501970273105200,1.925105224609375,-0.43387314677238464,0.20446471869945526,0.19901695847511292
1761501970283161000,1.9351611328125,-0.2916720509529114,0.09974763542413712,1.1654077768325806
1761501970293218000,1.945218017578125,0.22707922756671906,-0.005423794034868479,1.3698583841323853
1761501970303274200,1.955274169921875,0.6667090654373169,-0.031865786761045456,0.8474085330963135
1761501970313330200,1.965330078125,0.9505943059921265,-0.12543275952339172,0.23872016370296478
1761501970323386000,1.97538623046875,1.1457792520523071,-0.322179913520813,-0.16888968646526337
1761501970333442300,1.9854423828125,1.3087612390518188,-0.40435147285461426,-0.3415171205997467
1761501970343499300,1.995499267578125,1.373740792274475,-0.18898217380046844,-0.2704741060733795
1761501970353555200,2.00555517578125,1.2598743438720703,0.21233569085597992,-0.04795687273144722
1761501970363611100,2.015611083984375,0.9886495471000671,0.6969000101089478,0.19348157942295074
1761501970373667300,2.025667236328125,0.5099745988845825,1.0129152536392212,0.12160126864910126
1761501970383723000,2.035722900390625,-0.10001208633184433,1.3391185998916626,-0.19746381044387817
1761501970393779000,2.045779052734375,-0.6932538747787476,1.5222681760787964,-0.4007340967655182
1761501970403836000,2.0558359375,-1.0786718130111694,1.494946837425232,-0.3415541350841522
1761501970413892000,2.06589208984375,-1.1850134134292603,1.349536657333374,-0.1336219757795334
1761501970423948000,2.075947998046875,-1.0474125146865845,1.1091389656066895,0.07289870828390121
1761501970434004000,2.08600390625,-0.8013337254524231,0.8391032218933105,0.14804671704769135
1761501970444060200,2.09606005859375,-0.6505348682403564,0.5053859353065491,0.046303048729896545
1761501970454117000,2.1061171875,-0.5484138131141663,0.234220489859581,-0.09581521153450012
1761501970464173000,2.116173095703125,-0.37294721603393555,0.03957697004079819,-0.12537522614002228
1761501970474229000,2.12622900390625,-0.1321689486503601,-0.15355227887630463,-0.06778623908758163
1761501970484285200,2.13628515625,0.09065186977386475,-0.3481164276599884,0.07400791347026825
1761501970494341000,2.146341064453125,0.26592010259628296,-0.5590007305145264,0.23140579462051392
1761501970504398000,2.156398193359375,0.4086013436317444,-0.6598572731018066,0.3527982532978058
1761501970514454000,2.1664541015625,0.5112728476524353,-0.6020081043243408,0.39837560057640076
1761501970524510200,2.17651025390625,0.5427628755569458,-0.45606207847595215,0.35198333859443665
1761501970534566100,2.186566162109375,0.4885435700416565,-0.387112557888031,0.19118966162204742
1761501970544622000,2.1966220703125,0.40336450934410095,-0.3363460600376129,0.002650910522788763
1761501970554679000,2.206678955078125,0.28239840269088745,-0.2755756378173828,-0.12462341785430908
1761501970564735200,2.2167353515625,0.15644127130508423,-0.20120128989219666,-0.1591600924730301
1761501970574791200,2.226791259765625,0.041722945868968964,-0.12335016578435898,-0.13638101518154144
1761501970584847000,2.23684716796875,-0.05584755167365074,-0.07013221830129623,-0.08443126082420349
1761501970594903300,2.2469033203125,-0.1339452862739563,-0.05754425376653671,-0.058467838913202286
1761501970604959000,2.256958984375,-0.18953104317188263,-0.13635064661502838,-0.08381713926792145
1761501970615016200,2.26701611328125,-0.2514476776123047,-0.20385725796222687,-0.14632312953472137
1761501970625072000,2.277072021484375,-0.2712908983230591,-0.2008923590183258,-0.18237273395061493
1761501970635128000,2.287128173828125,-0.2623986005783081,-0.1126924604177475,-0.18159429728984833
1761501970645184000,2.29718408203125,-0.24932274222373962,0.07698719203472137,-0.13255111873149872
1761501970655240000,2.307239990234375,-0.2163323014974594,0.2563697397708893,-0.05751229450106621
1761501970665297200,2.317297119140625,-0.14174488186836243,0.3279999792575836,-0.014739264734089375
1761501970675353000,2.32735302734375,-0.08777965605258942,0.2016122192144394,0.05909394472837448
1761501970685409000,2.337408935546875,-0.1408734917640686,-0.036314330995082855,0.2586435377597809
1761501970695465000,2.34746484375,-0.20760245621204376,-0.3139725625514984,0.5045787692070007
1761501970705521200,2.357521240234375,-0.1604996621608734,-0.6566519141197205,0.6465950012207031
1761501970715578000,2.367578125,-0.033247966319322586,-0.8685804009437561,0.47088655829429626
1761501970725634000,2.377634033203125,0.13594424724578857,-0.9540673494338989,-0.14186179637908936
1761501970735690200,2.387690185546875,0.22854448854923248,-0.8669435977935791,-1.0484881401062012
1761501970745746200,2.39774609375,0.13904604315757751,-0.5556906461715698,-1.4864764213562012
1761501970755802000,2.407802001953125,-0.08562089502811432,-0.33061015605926514,-0.9356571435928345
1761501970765859000,2.417859130859375,-0.4232841432094574,-0.3688153028488159,0.00475374236702919
1761501970775915300,2.427915283203125,-0.6617965698242188,-0.270404577255249,0.7222908139228821
1761501970785971200,2.43797119140625,-0.7011690139770508,-0.013578392565250397,0.8930593729019165
1761501970796027100,2.448027099609375,-0.5685287117958069,0.11053583025932312,0.6413179636001587
1761501970806083300,2.458083251953125,-0.3493875563144684,0.07321615517139435,0.26480183005332947
1761501970816139300,2.46813916015625,-0.09207133948802948,0.020904483273625374,-0.01780696026980877
1761501970826196200,2.4781962890625,0.22549118101596832,-0.06118159741163254,-0.2505757510662079
1761501970836252200,2.488252197265625,0.4942358136177063,-0.03284290060400963,-0.42968958616256714
1761501970846308400,2.498308349609375,0.7357006669044495,0.1350662112236023,-0.6756706237792969
1761501970856364000,2.508364013671875,0.9349945783615112,0.37669986486434937,-0.8535681366920471
1761501970866420000,2.518419921875,0.9707160592079163,0.5389588475227356,-0.7056457996368408
1761501970876477200,2.528477294921875,0.8231279850006104,0.5806463360786438,-0.33649545907974243
1761501970886533000,2.538533203125,0.605206310749054,0.6628690361976624,-0.039442747831344604
1761501970896589000,2.548589111328125,0.41797512769699097,0.7417452335357666,0.12686499953269958
1761501970906645000,2.55864501953125,0.3208877444267273,0.770551860332489,0.22312310338020325
1761501970916701200,2.568701171875,0.25737881660461426,0.8370746970176697,0.29495733976364136
1761501970926758100,2.578758056640625,0.21152769029140472,0.8279264569282532,0.2827954888343811
1761501970936814000,2.58881396484375,0.25024178624153137,0.7230804562568665,0.19940871000289917
1761501970946870000,2.5988701171875,0.35019662976264954,0.6693761944770813,0.14491590857505798
1761501970956926200,2.60892626953125,0.42473849654197693,0.6753624677658081,0.1044694185256958
1761501970966982100,2.618982177734375,0.4523506760597229,0.6296149492263794,0.07415518909692764
1761501970977038000,2.6290380859375,0.47610023617744446,0.5202351808547974,0.14778199791908264
1761501970987095000,2.639094970703125,0.5066466927528381,0.4685448408126831,0.3742143511772156
1761501970997152500,2.649152587890625,0.45945414900779724,0.43051302433013916,0.6169039607048035
1761501971007208700,2.659208740234375,0.3048371374607086,0.38510480523109436,0.6942959427833557
1761501971017264600,2.6692646484375,0.15528225898742676,0.31316378712654114,0.6076664924621582
1761501971027320600,2.679320556640625,0.004453337751328945,0.1845613270998001,0.42933058738708496
1761501971037377500,2.68937744140625,-0.15268941223621368,0.015261510387063026,0.17515477538108826
1761501971047433700,2.699433837890625,-0.28226205706596375,-0.14359231293201447,-0.11032171547412872
1761501971057489700,2.70948974609375,-0.34606340527534485,-0.31907039880752563,-0.36710742115974426
1761501971067545600,2.719545654296875,-0.30021440982818604,-0.5070022344589233,-0.5662482380867004
1761501971077601800,2.729601806640625,-0.1718955934047699,-0.5898499488830566,-0.7057403326034546
1761501971087658800,2.73965869140625,-0.01811295747756958,-0.5779222249984741,-0.7453657984733582
1761501971097714700,2.749714599609375,0.12678538262844086,-0.5427916646003723,-0.7562738060951233
1761501971107770600,2.7597705078125,0.22558465600013733,-0.539749264717102,-0.7734370827674866
1761501971117826800,2.769826904296875,0.2155839502811432,-0.5998677015304565,-0.773322582244873
1761501971127882500,2.779882568359375,0.1283923238515854,-0.6520617008209229,-0.7251268029212952
1761501971137938400,2.7899384765625,0.00019574233738239855,-0.6530725955963135,-0.6233218908309937
1761501971147995400,2.799995361328125,-0.1227797120809555,-0.6020134091377258,-0.5298721194267273
1761501971158051600,2.810051513671875,-0.2107338011264801,-0.484538197517395,-0.524223804473877
1761501971168107500,2.820107421875,-0.26147952675819397,-0.3893027603626251,-0.5914161801338196
1761501971178163500,2.83016357421875,-0.27419188618659973,-0.38490188121795654,-0.6206108331680298
1761501971188219600,2.8402197265625,-0.3048272728919983,-0.4255691468715668,-0.5797485709190369
1761501971198276600,2.850276611328125,-0.3058067858219147,-0.4820268154144287,-0.46048611402511597
1761501971208332500,2.86033251953125,-0.2244139313697815,-0.5009251236915588,-0.3004967272281647
1761501971218388500,2.870388427734375,-0.06708742678165436,-0.4715214669704437,-0.1709967851638794
1761501971228444700,2.880444580078125,0.1200190857052803,-0.403544545173645,-0.08515644073486328
1761501971238500600,2.89050048828125,0.2515459358692169,-0.2520524859428406,-0.029650038108229637
1761501971248557600,2.9005576171875,0.17425861954689026,-0.10779064893722534,-0.13668754696846008
1761501971258613500,2.910613525390625,-0.13622334599494934,0.07512298226356506,-0.4464310109615326
1761501971268669700,2.920669677734375,-0.5502418279647827,0.26953452825546265,-0.6179153919219971
1761501971278725600,2.9307255859375,-0.8754321932792664,0.3964006006717682,-0.505164623260498
1761501971288781600,2.940781494140625,-0.9654121398925781,0.3011702299118042,-0.32406434416770935
1761501971298837800,2.950837646484375,-0.8146029114723206,0.15677443146705627,-0.057285126298666
1761501971308894700,2.960894775390625,-0.5667941570281982,0.1871728152036667,0.20900487899780273
1761501971318950700,2.97095068359375,-0.3311645984649658,0.28512096405029297,0.3779084086418152
1761501971329006600,2.981006591796875,-0.14972877502441406,0.2438555359840393,0.504947304725647
1761501971339062800,2.991062744140625,0.022403575479984283,-0.004466920159757137,0.625385046005249
1761501971349118500,3.001118408203125,0.15130989253520966,-0.25431910157203674,0.47822490334510803
1761501971359175700,3.01117578125,0.27464327216148376,-0.3538166582584381,0.11093290895223618
1761501971369231600,3.021231689453125,0.37137648463249207,-0.15356692671775818,-0.13985857367515564
1761501971379287600,3.03128759765625,0.3787505030632019,0.28805044293403625,-0.08696232736110687
1761501971389343500,3.041343505859375,0.2403004914522171,0.779828667640686,0.2533712685108185
1761501971399399400,3.0513994140625,0.01840324141085148,1.1491103172302246,0.6509702801704407
1761501971409455600,3.06145556640625,-0.09612546861171722,1.3022193908691406,0.9066705107688904
1761501971419512600,3.0715126953125,-0.04113465175032616,1.289482593536377,0.9724252820014954
1761501971429568500,3.081568603515625,0.14187031984329224,1.1604487895965576,0.8317073583602905
1761501971439624400,3.09162451171875,0.36222293972969055,1.0511342287063599,0.5467935800552368
1761501971449680600,3.1016806640625,0.5731047987937927,0.8947752714157104,0.25734177231788635
1761501971459736600,3.111736572265625,0.7596885561943054,0.7262096405029297,0.007921572774648666
1761501971469793500,3.12179345703125,0.8877143859863281,0.6833905577659607,-0.07140015065670013
1761501971479849500,3.131849365234375,0.8927595019340515,0.6952354907989502,0.1633196771144867
1761501971489905700,3.14190576171875,0.7190921306610107,0.6094907522201538,0.5594795346260071
1761501971499961600,3.151961669921875,0.4240468740463257,0.5258435606956482,0.8764095306396484
1761501971510017500,3.162017578125,0.128533735871315,0.5188306570053101,1.022957682609558
1761501971520073700,3.17207373046875,-0.11608585715293884,0.5155847668647766,0.9580525159835815
1761501971530130700,3.182130615234375,-0.2912544906139374,0.45320770144462585,0.7071616649627686
1761501971540186600,3.1921865234375,-0.42275258898735046,0.3252297639846802,0.3132633864879608
1761501971550242600,3.20224267578125,-0.5048311948776245,0.18668359518051147,-0.11918631196022034
1761501971560298800,3.212298828125,-0.4778880178928375,0.03259975463151932,-0.5639267563819885
1761501971570354700,3.222354736328125,-0.31025880575180054,-0.06456355005502701,-0.9115843176841736
1761501971580411600,3.23241162109375,-0.10552136600017548,-0.15525509417057037,-1.0370383262634277
1761501971590467600,3.242467529296875,0.030048446729779243,-0.19987183809280396,-0.9505205154418945
1761501971600523500,3.2525234375,0.13017265498638153,-0.20741896331310272,-0.7404964566230774
1761501971610579500,3.262579345703125,0.20232939720153809,-0.1562199592590332,-0.5649067759513855
1761501971620635400,3.272635498046875,0.1968747079372406,0.0025350630749017,-0.5024245381355286
1761501971630692600,3.282692626953125,0.11262108385562897,0.2369781881570816,-0.6130391955375671
1761501971640748500,3.29274853515625,-0.04686044901609421,0.3998267650604248,-0.9144712090492249
1761501971650804500,3.302804443359375,-0.2501373887062073,0.43968096375465393,-1.2065539360046387
1761501971660860400,3.3128603515625,-0.4796270430088043,0.349082887172699,-1.2746762037277222
1761501971670916600,3.32291650390625,-0.6665780544281006,0.08348743617534637,-1.1248159408569336
1761501971680972500,3.33297265625,-0.7386381030082703,-0.32292479276657104,-0.9516201615333557
1761501971691029500,3.343029541015625,-0.6051602363586426,-0.7885262966156006,-0.8199830055236816
1761501971701085400,3.35308544921875,-0.362788587808609,-1.1116667985916138,-0.6686467528343201
1761501971711141600,3.3631416015625,-0.14258724451065063,-1.1160807609558105,-0.41960951685905457
1761501971721197600,3.373197509765625,0.00751890242099762,-0.8795355558395386,-0.11890215426683426
1761501971731253500,3.38325341796875,0.07097084820270538,-0.5482247471809387,0.08601929992437363
1761501971741310700,3.393310791015625,-0.06023457646369934,-0.12377840280532837,0.17981183528900146
1761501971751366700,3.40336669921875,-0.50262850522995,0.27923670411109924,0.24618926644325256
1761501971761422600,3.413422607421875,-1.212966799736023,0.6390864849090576,0.1405714899301529
1761501971771478500,3.423478515625,-1.7968528270721436,0.7958539724349976,-0.23090805113315582
1761501971781534700,3.43353466796875,-1.9829736948013306,0.7889066338539124,-0.7026785016059875
1761501971791590700,3.443590576171875,-1.6513148546218872,0.7142382264137268,-0.8311136960983276
1761501971801647600,3.453647705078125,-0.8996120691299438,0.3509436547756195,-0.8681660294532776
1761501971811703800,3.463703857421875,-0.16703000664710999,0.45207399129867554,-0.6151949763298035
1761501971821759700,3.473759765625,0.3706824481487274,0.600726306438446,0.040229711681604385
1761501971831815400,3.4838154296875,0.6885699033737183,0.530198872089386,0.5368101596832275
1761501971841871600,3.49387158203125,0.7438267469406128,0.3608354330062866,0.7421460151672363
1761501971851928600,3.503928466796875,0.6854217648506165,0.27919435501098633,0.7031043767929077
1761501971861984500,3.513984619140625,0.6260457634925842,0.11783795058727264,0.2745966613292694
1761501971872040400,3.52404052734375,0.5400792360305786,-0.10010955482721329,-0.45347240567207336
1761501971882096600,3.5340966796875,0.47402241826057434,-0.2813834846019745,-0.8607794642448425
1761501971892152600,3.544152587890625,0.33782145380973816,-0.29803675413131714,-0.5782734751701355
1761501971902208500,3.55420849609375,0.1506424993276596,-0.17230013012886047,0.249068945646286
1761501971912265500,3.564265380859375,-0.05938955768942833,0.12093067914247513,1.1125954389572144
1761501971922321700,3.57432177734375,-0.19816581904888153,0.3112758696079254,1.588427186012268
1761501971932377600,3.584377685546875,-0.1923939436674118,0.2250719964504242,1.6482679843902588
1761501971942433500,3.59443359375,-0.029157087206840515,0.024216922000050545,1.5096358060836792
1761501971952489700,3.60448974609375,0.2520010769367218,-0.15809056162834167,1.3654991388320923
1761501971962546700,3.614546630859375,0.46182382106781006,-0.3100481331348419,1.2387679815292358
1761501971972602600,3.6246025390625,0.4987797141075134,-0.48520344495773315,1.2257939577102661
1761501971982658600,3.634658447265625,0.40235278010368347,-0.755098283290863,1.365005373954773
1761501971992714800,3.64471484375,0.24416287243366241,-1.0034348964691162,1.627702236175537
1761501972002770000,3.65477001953125,0.080731600522995,-1.2625281810760498,1.8362075090408325
1761501972012825900,3.664825927734375,0.02822391502559185,-1.4124066829681396,1.8094874620437622
1761501972022882800,3.6748828125,-0.10005602985620499,-1.349835991859436,1.4987655878067017
1761501972032939000,3.68493896484375,-0.20680378377437592,-1.1379224061965942,1.0645496845245361
1761501972042995000,3.694994873046875,-0.17355474829673767,-0.8016884326934814,0.5663137435913086
1761501972053051000,3.70505078125,-0.028716333210468292,-0.4494941830635071,0.1016099825501442
1761501972063106800,3.71510693359375,0.156439408659935,-0.24112792313098907,-0.23254536092281342
1761501972073164000,3.7251640625,0.30552342534065247,-0.12083454430103302,-0.35425740480422974
1761501972083219700,3.7352197265625,0.3723120391368866,-0.02592374198138714,-0.2841813862323761
1761501972093276000,3.74527587890625,0.338807076215744,0.06415368616580963,-0.19181764125823975
1761501972103331800,3.755331787109375,0.2151687741279602,0.12078074365854263,-0.1979394406080246
1761501972113387800,3.7653876953125,0.10312159359455109,0.12034238874912262,-0.29804182052612305
1761501972123444700,3.77544482421875,0.04302922636270523,0.04045474901795387,-0.4815583825111389
1761501972133501000,3.7855009765625,0.004743622615933418,-0.11883211135864258,-0.7270925045013428
1761501972143556900,3.795556884765625,-0.03131185099482536,-0.2806369960308075,-0.9684007167816162
1761501972153612800,3.80561279296875,-0.07752195745706558,-0.42952099442481995,-1.1236265897750854
1761501972163669000,3.8156689453125,-0.1382172554731369,-0.57076096534729,-1.1379969120025635
1761501972173725000,3.825724853515625,-0.21180279552936554,-0.7031781077384949,-1.0031722784042358
1761501972183782000,3.835781982421875,-0.2680463492870331,-0.8535889387130737,-0.790134608745575
1761501972193837800,3.845837890625,-0.24894431233406067,-0.9274005889892578,-0.6017915606498718
1761501972203894000,3.85589404296875,-0.16249170899391174,-0.9250431656837463,-0.48691266775131226
1761501972213950000,3.865949951171875,-0.046487871557474136,-0.8588793277740479,-0.4581640958786011
1761501972224006000,3.876005859375,0.048581916838884354,-0.7733127474784851,-0.4015956223011017
1761501972234062800,3.886062744140625,0.08002452552318573,-0.6273866891860962,-0.23634622991085052
1761501972244119000,3.896119140625,0.019963322207331657,-0.45271873474121094,0.03845338150858879
1761501972254175000,3.906175048828125,-0.09179143607616425,-0.23433180153369904,0.3788250684738159
1761501972264231000,3.91623095703125,-0.2409476339817047,0.0037649108562618494,0.4843054413795471
1761501972274287000,3.926287109375,-0.3439334034919739,0.18177059292793274,0.14109426736831665
1761501972284342800,3.9363427734375,-0.4728538393974304,0.187728613615036,-0.3722018003463745
1761501972294400000,3.94639990234375,-0.6713791489601135,0.055094677954912186,-0.5465317964553833
1761501972304455700,3.95645556640625,-0.9425308108329773,-0.057442788034677505,-0.02833922952413559
1761501972314512000,3.966511962890625,-1.1715543270111084,-0.06681311875581741,0.4825938045978546
1761501972324567800,3.97656787109375,-1.1823045015335083,0.05447256192564964,0.7204002737998962
1761501972334623700,3.986623779296875,-0.9343879222869873,0.1493186503648758,0.9243342280387878
1761501972344680700,3.9966806640625,-0.6066454648971558,0.13340918719768524,1.0282648801803589
1761501972354737000,4.00673681640625,-0.2856551706790924,-0.1056758314371109,0.9747289419174194
1761501972364792800,4.016792724609375,0.014416489750146866,-0.38924920558929443,0.7886107563972473
1761501972374848800,4.026848876953125,0.2569415271282196,-0.6679399609565735,0.6356906890869141
1761501972384905000,4.036905029296875,0.38862311840057373,-0.8530083894729614,0.5723034739494324
1761501972394961000,4.0469609375,0.39737585186958313,-0.8804413080215454,0.505607008934021
1761501972405017900,4.057017822265625,0.2896491289138794,-0.7400453090667725,0.4257209300994873
1761501972415073800,4.06707373046875,0.14049772918224335,-0.416847288608551,0.4256215989589691
1761501972425130000,4.0771298828125,-0.024175643920898438,-0.0020157466642558575,0.4839986264705658
1761501972435186000,4.08718603515625,-0.12253470718860626,0.4227682948112488,0.5510846972465515
1761501972445241900,4.097241943359375,-0.1437521129846573,0.8129951357841492,0.5350911021232605
1761501972455298800,4.107298828125,-0.020379573106765747,0.966460645198822,0.5185211896896362
1761501972465355000,4.11735498046875,0.27618658542633057,0.8621488809585571,0.5190839171409607
1761501972475411000,4.127410888671875,0.5763139128684998,0.6906735301017761,0.49210742115974426
1761501972485467000,4.137466796875,0.7530479431152344,0.510848879814148,0.4227736294269562
1761501972495523000,4.147523193359375,0.7837305068969727,0.35417085886001587,0.24554957449436188
1761501972505579000,4.1575791015625,0.6788349747657776,0.24021446704864502,0.008563661016523838
1761501972515636000,4.167635986328125,0.5066823959350586,0.18122811615467072,-0.14220453798770905
1761501972525692000,4.17769189453125,0.3890872895717621,0.2060098946094513,-0.051919125020504
1761501972535747800,4.187747802734375,0.30627045035362244,0.28972262144088745,0.24810275435447693
1761501972545803800,4.1978037109375,0.22879429161548615,0.33917832374572754,0.5764350891113281
1761501972555859700,4.207859619140625,0.14973117411136627,0.28681445121765137,0.7732940912246704
1761501972565916700,4.217916748046875,0.11363814771175385,0.10988069325685501,0.7777900099754333
1761501972575972900,4.227972900390625,0.14757268130779266,-0.10963435471057892,0.5431711673736572
1761501972586028800,4.23802880859375,0.24382278323173523,-0.2726634740829468,0.18530887365341187
1761501972596084700,4.248084716796875,0.38827797770500183,-0.3368922770023346,-0.16602732241153717
1761501972606141000,4.258140869140625,0.5545303225517273,-0.2548418641090393,-0.4117603898048401
1761501972616198000,4.268197998046875,0.6908159852027893,-0.05509920418262482,-0.4817914068698883
1761501972626253800,4.27825390625,0.7580410838127136,0.14163783192634583,-0.4018467664718628
1761501972636309800,4.288309814453125,0.7386141419410706,0.24577035009860992,-0.25556784868240356
1761501972646366000,4.298365966796875,0.6623132228851318,0.32584255933761597,-0.11181441694498062
1761501972656422000,4.308421875,0.588548481464386,0.3848446309566498,-0.01834731549024582
1761501972666478800,4.318478759765625,0.4691469669342041,0.46357324719429016,-0.04766073077917099
1761501972676534800,4.32853466796875,0.3285067677497864,0.501959502696991,-0.1573273092508316
1761501972686591000,4.338591064453125,0.19087648391723633,0.5387327075004578,-0.23680882155895233
1761501972696647000,4.34864697265625,0.06914471834897995,0.5592585206031799,-0.23131977021694183
1761501972706702800,4.358702880859375,-0.0185846034437418,0.5951768159866333,-0.18449048697948456
1761501972716759800,4.368759765625,-0.025233983993530273,0.5410126447677612,-0.1374625265598297
1761501972726816000,4.37881591796875,0.040347155183553696,0.4320771098136902,-0.13682016730308533
1761501972736872000,4.388871826171875,0.11908537894487381,0.3679487109184265,-0.18848362565040588
1761501972746927900,4.398927978515625,0.18347501754760742,0.3154889941215515,-0.23762613534927368
1761501972756983800,4.40898388671875,0.23871830105781555,0.30597802996635437,-0.21791209280490875
1761501972767039700,4.419039794921875,0.2311895489692688,0.3776117265224457,-0.04427691549062729
1761501972777097000,4.429096923828125,0.13728702068328857,0.477107971906662,0.23283778131008148
1761501972787152600,4.439152587890625,-0.010038252919912338,0.45644262433052063,0.4805053770542145
1761501972797208800,4.449208740234375,-0.14002208411693573,0.3082292079925537,0.49906760454177856
1761501972807264800,4.4592646484375,-0.21730861067771912,0.1239408552646637,0.043408993631601334
1761501972817320700,4.46932080078125,-0.20757263898849487,-0.1401272863149643,-0.9742069840431213
1761501972827378000,4.4793779296875,-0.019160112366080284,-0.4630797803401947,-1.8599601984024048
1761501972837433900,4.489433837890625,0.2567252516746521,-0.6252058148384094,-1.6985251903533936
1761501972847489800,4.49948974609375,0.3476317226886749,-0.37550652027130127,-0.8581793904304504
1761501972857545700,4.509545654296875,0.19563713669776917,0.2196844220161438,0.25202956795692444
1761501972867602000,4.519601806640625,0.060323260724544525,0.749563455581665,1.0930137634277344
1761501972877657900,4.529657958984375,-0.05645262449979782,1.0014503002166748,1.1700315475463867
1761501972887714800,4.53971484375,-0.16617512702941895,1.0938241481781006,0.80328768491745
1761501972897771000,4.54977099609375,-0.19634340703487396,1.1709868907928467,0.35099557042121887
1761501972907827000,4.559826904296875,-0.12809085845947266,1.095784306526184,-0.03786775469779968
1761501972917883000,4.5698828125,0.01996784843504429,0.7663869261741638,-0.2744150459766388
1761501972927938800,4.579938720703125,0.1836625039577484,0.21809078752994537,-0.30451542139053345
1761501972937996000,4.58999609375,0.31684133410453796,-0.3652498722076416,-0.1103036031126976
1761501972948052000,4.600052001953125,0.38955867290496826,-0.7618834972381592,0.2962460517883301
1761501972958108000,4.61010791015625,0.34005025029182434,-0.7872506380081177,0.7193301916122437
1761501972968163800,4.620163818359375,0.27799805998802185,-0.6198544502258301,0.9510222673416138
1761501972978220000,4.630219970703125,0.23575766384601593,-0.3906646966934204,1.0015698671340942
1761501972988277000,4.640277099609375,0.20518989861011505,-0.07935634255409241,0.9277598261833191
1761501972998333000,4.6503330078125,0.17787359654903412,0.2388029843568802,0.8800383806228638
1761501973008389000,4.66038916015625,0.09614676982164383,0.4878024160861969,0.9258034825325012
1761501973018445000,4.670445068359375,-0.10380149632692337,0.5552728176116943,1.0399678945541382
1761501973028501000,4.6805009765625,-0.3400707542896271,0.4230695068836212,1.1870180368423462
1761501973038557000,4.690556884765625,-0.4937199652194977,0.122948557138443,1.2782446146011353
1761501973048614100,4.7006142578125,-0.5962519645690918,-0.16449466347694397,1.3137290477752686
1761501973058670000,4.710670166015625,-0.6181170344352722,-0.43080198764801025,1.3181065320968628
1761501973068726000,4.72072607421875,-0.575538694858551,-0.6073125600814819,1.268018364906311
1761501973078782200,4.7307822265625,-0.525035560131073,-0.7205022573471069,1.1423985958099365
1761501973088838100,4.740838134765625,-0.47737401723861694,-0.7600616216659546,0.9659122824668884
1761501973098895000,4.75089501953125,-0.44041839241981506,-0.7747921347618103,0.697109043598175
1761501973108951000,4.760950927734375,-0.4048984944820404,-0.767132043838501,0.33576202392578125
1761501973119007200,4.77100732421875,-0.34494754672050476,-0.7651448249816895,0.011914183385670185
1761501973129063000,4.78106298828125,-0.24983380734920502,-0.7053728103637695,-0.21729636192321777
1761501973139118800,4.791118896484375,-0.14282239973545074,-0.5327408909797668,-0.33845075964927673
1761501973149175800,4.80117578125,-0.03194355219602585,-0.3557184338569641,-0.3696363568305969
1761501973159232000,4.81123193359375,0.0849926546216011,-0.2632862329483032,-0.3559509217739105
1761501973169288000,4.821287841796875,0.16023626923561096,-0.2529217302799225,-0.39318349957466125
1761501973179344000,4.83134375,0.21916617453098297,-0.3446929454803467,-0.4890088438987732
1761501973189400000,4.841400146484375,0.314780056476593,-0.4683706760406494,-0.5956841707229614
1761501973199457000,4.85145703125,0.4469684362411499,-0.3922865688800812,-0.6962653398513794
1761501973209513000,4.861512939453125,0.5929168462753296,-0.008071774616837502,-0.8546409010887146
1761501973219569000,4.87156884765625,0.6848832964897156,0.5470188856124878,-1.087051272392273
1761501973229625000,4.881625,0.6995945572853088,1.0370466709136963,-1.2822591066360474
1761501973239681000,4.891680908203125,0.5762625336647034,1.2667759656906128,-1.3778712749481201
1761501973249738000,4.901738037109375,0.3595714867115021,1.121571660041809,-1.1942453384399414
1761501973259790800,4.911790771484375,0.04643860459327698,0.8848203420639038,-0.8029542565345764
1761501973269847000,4.921846923828125,-0.264495849609375,0.7305330634117126,-0.4355195164680481
1761501973279903000,4.931903076171875,-0.40351763367652893,0.6680999994277954,-0.23965546488761902
1761501973289959000,4.941958984375,-0.42281943559646606,0.6753145456314087,-0.29050585627555847
1761501973300014800,4.952014892578125,-0.39997830986976624,0.5374589562416077,-0.37876754999160767
1761501973310072000,4.962072021484375,-0.2875572144985199,0.1633806675672531,-0.4092721939086914
1761501973320128000,4.9721279296875,-0.10585212707519531,-0.2792276442050934,-0.6356203556060791
1761501973330184000,4.982183837890625,0.050688743591308594,-0.7191326022148132,-1.009153962135315
1761501973340240100,4.992240234375,0.1657671332359314,-0.9688563942909241,-1.1767991781234741
1761501973350296000,5.002296142578125,0.19123972952365875,-0.8531548380851746,-0.9272154569625854
1761501973360353000,5.01235302734375,0.26820775866508484,-0.481591135263443,-0.4424402713775635
1761501973370409000,5.022408935546875,0.11553884297609329,0.12318744510412216,-0.08212496340274811
1761501973380465200,5.032465087890625,-0.25339365005493164,0.4132903814315796,0.26007524132728577
1761501973390521000,5.04252099609375,-0.6627031564712524,0.5911669135093689,0.39892396330833435
1761501973400577000,5.052576904296875,-0.9030086994171143,0.676189124584198,0.43100813031196594
1761501973410634000,5.062634033203125,-0.9168443083763123,0.5096451640129089,0.4329245388507843
1761501973420690200,5.072690185546875,-0.6980331540107727,0.05367627739906311,0.38372743129730225
1761501973430746000,5.08274609375,-0.3443208932876587,-0.4906754493713379,0.29403507709503174
1761501973440802000,5.092802001953125,-0.05091244727373123,-0.8534536361694336,0.023447802290320396
1761501973450858200,5.102858154296875,0.11378755420446396,-0.9707381725311279,-0.3454474210739136
1761501973460914000,5.112913818359375,0.22006472945213318,-0.8627784252166748,-0.45393288135528564
1761501973470971100,5.12297119140625,0.2422294169664383,-0.4831448197364807,-0.2578459084033966
1761501973481026800,5.13302685546875,0.18094554543495178,0.026091255247592926,0.044201284646987915
1761501973491083000,5.1430830078125,0.13659779727458954,0.4669291079044342,0.28730741143226624
1761501973501139000,5.153138916015625,0.1592724770307541,0.6231959462165833,0.4301716089248657
1761501973511195000,5.16319482421875,0.22091346979141235,0.4810190796852112,0.5736936330795288
1761501973521251800,5.173251953125,0.3208094537258148,0.2289397120475769,0.7820492386817932
1761501973531308000,5.18330810546875,0.38914722204208374,0.07649610936641693,0.856261670589447
1761501973541364000,5.193364013671875,0.3878185749053955,0.12131684273481369,0.6883512139320374
1761501973551420000,5.203419921875,0.34307026863098145,0.23287266492843628,0.4508558511734009
1761501973561476000,5.21347607421875,0.23634622991085052,0.34866318106651306,0.3326543867588043
1761501973571533000,5.223532958984375,0.0949890986084938,0.4310019910335541,0.40357887744903564
1761501973581589000,5.233589111328125,-0.004790494218468666,0.4276951551437378,0.5642204880714417
1761501973591645000,5.24364501953125,-0.049439720809459686,0.44576284289360046,0.6988670229911804
1761501973601701000,5.253701171875,-0.08243122696876526,0.43021664023399353,0.7127087712287903
1761501973611757000,5.263757080078125,-0.11818362772464752,0.31350013613700867,0.5930188298225403
1761501973621814000,5.27381396484375,-0.10946231335401535,0.15067845582962036,0.3520627021789551
1761501973631870000,5.283869873046875,-0.07341296225786209,-0.039624374359846115,0.0027057717088609934
1761501973641926100,5.293926025390625,0.001094825565814972,-0.1764400154352188,-0.4011642038822174
1761501973651982000,5.303982177734375,0.08365015685558319,-0.2682386338710785,-0.7387059926986694
1761501973662038000,5.3140380859375,0.16562597453594208,-0.35438284277915955,-0.9642888307571411
1761501973672097000,5.324096923828125,0.2533419728279114,-0.46004536747932434,-1.080247402191162
1761501973682153000,5.334153076171875,0.3242257535457611,-0.5661678314208984,-1.1068435907363892
1761501973692209000,5.344208984375,0.34126386046409607,-0.6354882717132568,-1.078911304473877
1761501973702265000,5.35426513671875,0.3068142533302307,-0.7008877992630005,-1.0542842149734497
1761501973712321000,5.364321044921875,0.2225731611251831,-0.7663490772247314,-1.0662133693695068
1761501973722378000,5.3743779296875,0.11404880881309509,-0.8112049698829651,-1.070164680480957
1761501973732434000,5.384433837890625,0.009950368665158749,-0.7647475004196167,-0.9879952073097229
1761501973742490000,5.394489990234375,-0.07099774479866028,-0.6688065528869629,-0.8699849247932434
1761501973752546000,5.404546142578125,-0.07486359030008316,-0.5998027324676514,-0.7802473306655884
1761501973762602000,5.41460205078125,-0.06304900348186493,-0.5310425758361816,-0.7120081186294556
1761501973772659000,5.424658935546875,-0.071363665163517,-0.37565430998802185,-0.6039961576461792
1761501973782715100,5.434715087890625,-0.08742944896221161,-0.18504442274570465,-0.4113672971725464
1761501973792771000,5.44477099609375,-0.09204630553722382,0.027790619060397148,-0.1777004897594452
1761501973802827000,5.454826904296875,-0.06895749270915985,0.2188231498003006,0.09346949309110641
1761501973812883000,5.464883056640625,0.004043477587401867,0.3437933325767517,0.4170939028263092
1761501973822940200,5.474940185546875,0.12192297726869583,0.3433397710323334,0.5896131992340088
1761501973832995800,5.484995849609375,0.21670594811439514,0.24560096859931946,0.37952813506126404
1761501973843052000,5.495052001953125,0.16282114386558533,0.1484145075082779,-0.16911712288856506
1761501973853108000,5.50510791015625,0.013380253687500954,-0.024229705333709717,-0.6871693134307861
1761501973863164000,5.515163818359375,-0.059530969709157944,-0.2522895038127899,-0.7258901000022888
1761501973873219800,5.5252197265625,-0.027269437909126282,-0.7436440587043762,-0.15048830211162567
1761501973883277000,5.535277099609375,-0.004209125880151987,-0.9683679938316345,0.4365043640136719
1761501973893333000,5.5453330078125,-0.11215396970510483,-0.8596958518028259,0.7220433950424194
1761501973903389000,5.555388916015625,-0.23308704793453217,-0.6858595609664917,0.8892670273780823
1761501973913445000,5.565445068359375,-0.396560937166214,-0.508679211139679,0.837658703327179
1761501973923501000,5.5755009765625,-0.5290459990501404,-0.4908389747142792,0.5303038358688354
1761501973933558000,5.58555810546875,-0.6341519355773926,-0.6106572151184082,0.22410820424556732
1761501973943614000,5.595614013671875,-0.6735696196556091,-0.7449535131454468,0.0430755652487278
1761501973953670100,5.605670166015625,-0.5901104211807251,-0.8151837587356567,-0.2201576679944992
1761501973963726000,5.61572607421875,-0.44264987111091614,-0.7025032639503479,-0.5944007635116577
1761501973973782000,5.625781982421875,-0.28102633357048035,-0.45008113980293274,-0.8089940547943115
1761501973983839000,5.6358388671875,-0.21515437960624695,-0.10702232271432877,-0.6933848857879639
1761501973993895200,5.645895263671875,-0.2573913335800171,0.3175920844078064,-0.3191516101360321
1761501974003950600,5.65595068359375,-0.3153401017189026,0.8460109233856201,0.13398097455501556
1761501974014006500,5.666006591796875,-0.27924203872680664,1.281121850013733,0.543489933013916
1761501974024062700,5.676062744140625,-0.2179536372423172,1.512590765953064,0.8117698431015015
1761501974034119700,5.68611962890625,-0.12301966547966003,1.4803452491760254,0.9614211320877075
1761501974044175600,5.696175537109375,-0.005216333549469709,1.1738694906234741,1.036411166191101
1761501974054231600,5.7062314453125,0.059602342545986176,0.5693278908729553,0.9943154454231262
1761501974064287700,5.716287841796875,0.13543371856212616,-0.039443280547857285,0.9418748617172241
1761501974074343700,5.72634375,0.22598865628242493,-0.40192747116088867,0.9617012739181519
1761501974084400600,5.736400634765625,0.24413862824440002,-0.5764225721359253,0.980889081954956
1761501974094456600,5.74645654296875,0.18941625952720642,-0.5556967854499817,0.9196954965591431
1761501974104512800,5.7565126953125,0.08637403696775436,-0.29411977529525757,0.7443500757217407
1761501974114568400,5.766568359375,-0.037640586495399475,0.12197411060333252,0.5006330013275146
1761501974124624400,5.776624267578125,-0.1634693592786789,0.512927770614624,0.31038209795951843
1761501974134681600,5.786681640625,-0.2459021806716919,0.8278843760490417,0.23275095224380493
1761501974144737500,5.796737548828125,-0.2897937297821045,0.969608724117279,0.2039099931716919
1761501974154793500,5.80679345703125,-0.3139376938343048,0.914982259273529,0.16333059966564178
1761501974164849400,5.816849365234375,-0.3296354115009308,0.634721577167511,0.06649593263864517
1761501974174905600,5.826905517578125,-0.30329036712646484,0.24603800475597382,-0.09072164446115494
1761501974184962600,5.836962646484375,-0.23098021745681763,-0.15272988379001617,-0.22851599752902985
1761501974195018500,5.8470185546875,-0.16201792657375336,-0.42133525013923645,-0.3236318528652191
1761501974205074400,5.857074462890625,-0.05679244175553322,-0.5414512753486633,-0.41193509101867676
1761501974215130600,5.867130615234375,0.0894894003868103,-0.6115613579750061,-0.500529408454895
1761501974225186600,5.8771865234375,0.2501637637615204,-0.5905373096466064,-0.5863398909568787
1761501974235243500,5.887243408203125,0.387116014957428,-0.4904722571372986,-0.633750319480896
1761501974245299500,5.897299560546875,0.4667493402957916,-0.4024411737918854,-0.676942765712738
1761501974255355600,5.907355712890625,0.5119343996047974,-0.38958558440208435,-0.7063714861869812
1761501974265411600,5.91741162109375,0.5025800466537476,-0.44255319237709045,-0.6410036683082581
1761501974275467500,5.927467529296875,0.47157204151153564,-0.4807192087173462,-0.4562501013278961
1761501974285524500,5.9375244140625,0.3742567002773285,-0.41984015703201294,-0.2575708329677582
1761501974295580700,5.94758056640625,0.24392318725585938,-0.23291873931884766,-0.0783027932047844
1761501974305636600,5.95763671875,0.14718225598335266,0.00657561095431447,0.04980803653597832
1761501974315692500,5.967692626953125,0.04899017885327339,0.2037334144115448,0.12527243793010712
1761501974325748700,5.977748779296875,-0.008829976432025433,0.2704432010650635,0.11520116031169891
1761501974335804700,5.9878046875,-0.05017288774251938,0.21979627013206482,-0.0436265729367733
1761501974345861600,5.997861572265625,-0.1335436850786209,-0.0002849582233466208,-0.3484296202659607
1761501974355917600,6.00791748046875,-0.20078903436660767,-0.3479297459125519,-0.6312360167503357
1761501974365973500,6.017973388671875,-0.1993677020072937,-0.6099086403846741,-0.8151379227638245
1761501974376029400,6.028029541015625,-0.05355323851108551,-0.742024302482605,-0.8031222820281982
1761501974386085600,6.038085693359375,0.0608295276761055,-0.594305694103241,-0.5389095544815063
1761501974396142600,6.048142578125,-0.01329876109957695,-0.18232214450836182,-0.10411494970321655
1761501974406198500,6.058198486328125,-0.2630569338798523,0.27842390537261963,0.4512369632720947
1761501974416254500,6.06825439453125,-0.44794341921806335,0.5795680284500122,0.801790714263916
1761501974426310700,6.078310546875,-0.45950794219970703,0.605588436126709,0.8139139413833618
1761501974436366600,6.08836669921875,-0.2623048424720764,0.4567350447177887,0.5666399598121643
1761501974446423600,6.098423583984375,0.04190004616975784,0.14107190072536469,0.14222452044487
1761501974456479500,6.1084794921875,0.35463371872901917,-0.236106276512146,-0.3418830335140228
1761501974466535700,6.11853564453125,0.6095171570777893,-0.4429774284362793,-0.7232943177223206
1761501974476591600,6.128591552734375,0.763388991355896,-0.3548435866832733,-0.8932817578315735
1761501974486647600,6.1386474609375,0.7885819673538208,-0.013894776813685894,-0.7747340798377991
1761501974496704500,6.14870458984375,0.6358358263969421,0.366710364818573,-0.4737153649330139
1761501974506760700,6.1587607421875,0.36995595693588257,0.7103012800216675,-0.2149575799703598
1761501974516816600,6.168816650390625,0.09313367307186127,0.9718955755233765,-0.08076382428407669
1761501974526872600,6.17887255859375,-0.11328261345624924,1.1199564933776855,-0.05049433186650276
1761501974536928800,6.1889287109375,-0.15748868882656097,0.9456648230552673,-0.058277953416109085
1761501974546985700,6.19898583984375,-0.026448652148246765,0.4794752597808838,-0.10053326189517975
1761501974557041700,6.209041748046875,0.19542835652828217,0.08487654477357864,-0.10344383120536804
1761501974567097600,6.21909765625,0.397500216960907,-0.10382945835590363,-0.06914098560810089
1761501974577153800,6.22915380859375,0.49972379207611084,-0.14925286173820496,-0.028148813173174858
1761501974587209700,6.239209716796875,0.40814781188964844,-0.02522333152592182,0.023838486522436142
1761501974597266700,6.2492666015625,0.203904926776886,0.2541654407978058,0.17563973367214203
1761501974607322600,6.259322509765625,-0.09716729819774628,0.6425136923789978,0.4544186294078827
1761501974617378600,6.269378662109375,-0.31329986453056335,0.8423647880554199,0.8328120112419128
1761501974627434500,6.2794345703125,-0.4116831421852112,0.7412368059158325,1.177910566329956
1761501974637490400,6.289490478515625,-0.3701189458370209,0.27298545837402344,1.3708027601242065
1761501974647547400,6.29954736328125,-0.26586923003196716,-0.21214768290519714,1.3362681865692139
1761501974657603600,6.309603515625,-0.12439092993736267,-0.5609046220779419,1.1647963523864746
1761501974667659500,6.319659423828125,-0.00842677429318428,-0.8202149868011475,0.9737480878829956
1761501974677715500,6.329715576171875,0.1498805731534958,-1.047244906425476,0.7080495953559875
1761501974687771600,6.339771728515625,0.3594881296157837,-1.204666018486023,0.38952937722206116
1761501974697828600,6.34982861328125,0.5118315815925598,-1.2164597511291504,0.12665168941020966
1761501974707884500,6.359884521484375,0.5116893649101257,-1.0947272777557373,-0.001205080421641469
1761501974717940500,6.3699404296875,0.39371374249458313,-0.8717426061630249,-0.043171439319849014
1761501974727996700,6.37999658203125,0.1751534342765808,-0.6135814189910889,-0.009111473336815834
1761501974738052600,6.390052490234375,-0.07517118006944656,-0.37178632616996765,0.14040371775627136
1761501974748109600,6.400109619140625,-0.3144032061100006,-0.09815026819705963,0.27894163131713867
1761501974758165500,6.41016552734375,-0.49918636679649353,0.19538387656211853,0.37465721368789673
1761501974768221700,6.4202216796875,-0.6139012575149536,0.23742826282978058,0.39343464374542236
1761501974778277600,6.430277587890625,-0.6752783060073853,0.002579271560534835,0.23501704633235931
1761501974788333600,6.44033349609375,-0.6498643159866333,-0.30442219972610474,-0.04535390064120293
1761501974798390500,6.450390625,-0.5357885956764221,-0.46552774310112,-0.2672162652015686
1761501974808446700,6.46044677734375,-0.3842853605747223,-0.4329572916030884,-0.29967671632766724
1761501974818502700,6.470502685546875,-0.22340166568756104,-0.3114092946052551,-0.11134543269872665
1761501974828558600,6.48055859375,-0.06106122210621834,-0.18545082211494446,0.28629088401794434
1761501974838614800,6.49061474609375,0.06636384129524231,-0.08377639204263687,0.7466307878494263
1761501974848670500,6.50067041015625,0.162286639213562,-0.13617408275604248,0.9484091997146606
1761501974858727700,6.510727783203125,0.3250105679035187,-0.3241106867790222,0.6057277321815491
1761501974868783400,6.520783447265625,0.5190191864967346,-0.5805749893188477,-0.22660598158836365
1761501974878839600,6.530839599609375,0.5411447286605835,-0.8816242814064026,-1.1364734172821045
1761501974888895500,6.5408955078125,0.35055482387542725,-0.8395535349845886,-1.282317876815796
1761501974898951400,6.550951416015625,0.015244998969137669,-0.2888336777687073,-0.6552712917327881
1761501974909008400,6.56100830078125,-0.3250129818916321,0.15466521680355072,0.06954259425401688
1761501974919064600,6.571064697265625,-0.4567214846611023,0.23020631074905396,0.5967507362365723
1761501974929120500,6.58112060546875,-0.30945107340812683,0.02587766945362091,0.8086521029472351
1761501974939176400,6.591176513671875,0.01474672183394432,-0.3520805537700653,0.6401107311248779
1761501974949232600,6.601232666015625,0.32926976680755615,-0.6980627179145813,0.27078676223754883
1761501974959289600,6.61128955078125,0.5220677256584167,-0.6046105623245239,-0.07207232713699341
1761501974969345500,6.621345458984375,0.629722535610199,-0.2653946578502655,-0.4233089089393616
1761501974979401500,6.6314013671875,0.7196210026741028,-0.09914549440145493,-0.8776929378509521
1761501974989457700,6.641457763671875,0.856253445148468,0.07124754786491394,-1.1692453622817993
1761501974999513600,6.651513671875,0.9568764567375183,0.37640026211738586,-1.1591765880584717
1761501975009574700,6.66157470703125,1.0091720819473267,0.6888527274131775,-0.9762016534805298
1761501975019630600,6.671630615234375,0.9899702072143555,0.9236108660697937,-0.7858692407608032
1761501975029686800,6.681686767578125,0.8612654805183411,1.0806199312210083,-0.7091947197914124
1761501975039742700,6.69174267578125,0.6214185357093811,1.1856366395950317,-0.6823146343231201
1761501975049798700,6.701798583984375,0.3035881221294403,1.1803169250488281,-0.611627459526062
1761501975059855600,6.711855712890625,0.01691080629825592,0.915513813495636,-0.5070674419403076
1761501975069911800,6.721911865234375,-0.17088492214679718,0.4778144955635071,-0.499074250459671
1761501975079967700,6.7319677734375,-0.22456572949886322,0.27164509892463684,-0.5719151496887207
1761501975090023700,6.742023681640625,-0.19489172101020813,0.29552724957466125,-0.5943642854690552
1761501975100079900,6.752079833984375,-0.1658337116241455,0.46491628885269165,-0.5072546601295471
1761501975110135800,6.7621357421875,-0.15941283106803894,0.5966958999633789,-0.2995843291282654
1761501975120192800,6.77219287109375,-0.09022630006074905,0.5838722586631775,-0.02901221066713333
1761501975130248700,6.782248779296875,-0.02977627143263817,0.5297166109085083,0.18943198025226593
1761501975140305000,6.792304931640625,-0.029330991208553314,0.4951242506504059,0.3043889105319977
1761501975150360800,6.80236083984375,-0.0556613989174366,0.4450744092464447,0.3237735331058502
1761501975160417800,6.812417724609375,-0.12731507420539856,0.38033321499824524,0.3238523602485657
1761501975170473700,6.8224736328125,-0.20433396100997925,0.3238840699195862,0.29531365633010864
1761501975180529700,6.83252978515625,-0.2832687199115753,0.3118511140346527,0.13333489000797272
1761501975190585600,6.842585693359375,-0.3605414032936096,0.24644839763641357,-0.04435494914650917
1761501975200641500,6.8526416015625,-0.43249842524528503,0.07741490006446838,-0.13754934072494507
1761501975210697700,6.86269775390625,-0.4718889594078064,-0.07519727945327759,-0.1826891154050827
1761501975220754700,6.872754638671875,-0.4594557285308838,-0.19106103479862213,-0.2102898508310318
1761501975230810600,6.882810546875,-0.4316432774066925,-0.2723071575164795,-0.2147359997034073
1761501975240866600,6.892866455078125,-0.3831622898578644,-0.2754025459289551,-0.15095196664333344
1761501975250922800,6.9029228515625,-0.3390590250492096,-0.29031383991241455,-0.0858512595295906
1761501975260978700,6.912978759765625,-0.27661269903182983,-0.2790057957172394,-0.11804221570491791
1761501975271035600,6.92303564453125,-0.1958528608083725,-0.14798812568187714,-0.16836796700954437
1761501975281091600,6.933091552734375,-0.14872077107429504,0.11181680858135223,-0.1398380547761917
1761501975291147800,6.943147705078125,-0.10259854793548584,0.400073379278183,0.03057415410876274
1761501975301203700,6.95320361328125,-0.07781410217285156,0.655129075050354,0.3198874592781067
1761501975311259600,6.963259765625,-0.10440336912870407,0.7381885647773743,0.6713640093803406
1761501975321316600,6.973316650390625,-0.12706607580184937,0.5888108015060425,0.9539133906364441
1761501975331372800,6.983372802734375,-0.15025554597377777,0.3592902421951294,1.0961251258850098
1761501975341428700,6.9934287109375,-0.18138283491134644,0.27688220143318176,1.066659688949585
1761501975351484700,7.003484619140625,-0.23203855752944946,0.23326148092746735,0.8470346331596375
1761501975361540900,7.013540771484375,-0.2570118308067322,0.20156428217887878,0.3830709457397461
1761501975371597800,7.023597900390625,-0.2458992451429367,0.15551236271858215,-0.20053815841674805
1761501975381653800,7.03365380859375,-0.15983067452907562,0.17855402827262878,-0.6150493025779724
1761501975391709700,7.043709716796875,0.02208239957690239,0.34965386986732483,-0.5082919597625732
1761501975401766000,7.053765869140625,0.16491784155368805,0.5696280598640442,0.11322908848524094
1761501975411821600,7.063821533203125,0.21195539832115173,0.5512261390686035,0.6893565654754639
1761501975421878800,7.073878662109375,0.2127242535352707,0.29342442750930786,0.9364691376686096
1761501975431934700,7.083934814453125,0.08676286041736603,-0.11961614340543747,0.7722495794296265
1761501975441990700,7.09399072265625,-0.06485942006111145,-0.4546290338039398,0.3605896234512329
1761501975452046600,7.104046630859375,-0.12012134492397308,-0.49380946159362793,-0.1862228661775589
1761501975462102500,7.1141025390625,-0.10517755150794983,-0.4176800549030304,-0.5890352725982666
1761501975472158700,7.12415869140625,-0.08114784955978394,-0.29330459237098694,-0.7306515574455261
1761501975482215700,7.134215576171875,0.004734035115689039,0.05188077315688133,-0.6154011487960815
1761501975492271600,7.144271728515625,0.16502757370471954,0.4269697070121765,-0.49550163745880127
1761501975502327800,7.154327880859375,0.29106566309928894,0.6763395667076111,-0.4398373067378998
1761501975512383700,7.1643837890625,0.3396984338760376,0.7119796276092529,-0.17685146629810333
1761501975522439700,7.174439697265625,0.34622904658317566,0.4880833923816681,0.15598374605178833
1761501975532496600,7.18449658203125,0.26225799322128296,0.033183518797159195,0.33401578664779663
1761501975542552800,7.194552734375,0.16584382951259613,-0.5328695178031921,0.4030374586582184
1761501975552608800,7.20460888671875,0.021212078630924225,-1.0747170448303223,0.5070879459381104
1761501975562664700,7.214664794921875,-0.12724237143993378,-1.3376120328903198,0.780710756778717
1761501975572720600,7.224720703125,-0.18311363458633423,-1.4264193773269653,1.0861761569976807
1761501975582777900,7.23477783203125,-0.10392293334007263,-1.3616819381713867,1.1385852098464966
1761501975592833800,7.244833740234375,0.05403340607881546,-1.1652064323425293,0.9714519381523132
1761501975602889700,7.2548896484375,0.11798016726970673,-0.7774055004119873,0.8344975113868713
1761501975612946000,7.26494580078125,0.0513465441763401,-0.2976037263870239,0.755767285823822
1761501975623001900,7.275001953125,-0.04507826268672943,0.06266284734010696,0.6713834404945374
1761501975633058800,7.285058837890625,-0.09201674163341522,0.2499656230211258,0.5241769552230835
1761501975643114800,7.29511474609375,-0.07902078330516815,0.378404825925827,0.31958866119384766
1761501975653171000,7.3051708984375,-0.001487641828134656,0.43676427006721497,0.09103084355592728
1761501975663226600,7.3152265625,0.09290064871311188,0.3851359784603119,-0.14121465384960175
1761501975673282600,7.325282470703125,0.219780832529068,0.26967674493789673,-0.34161511063575745
1761501975683339500,7.335339599609375,0.3306942880153656,0.0898774266242981,-0.5016815066337585
1761501975693395700,7.345395751953125,0.39434942603111267,-0.025290442630648613,-0.5852312445640564
1761501975703451600,7.35545166015625,0.38379454612731934,-0.08972429484128952,-0.6446223855018616
1761501975713507600,7.365507568359375,0.349120169878006,-0.15325559675693512,-0.7332273721694946
1761501975723563800,7.375563720703125,0.34470731019973755,-0.18195249140262604,-0.8336860537528992
1761501975733619700,7.38561962890625,0.3386744558811188,-0.1476491093635559,-0.8811585307121277
1761501975743676700,7.3956767578125,0.32921332120895386,-0.028133101761341095,-0.8365542888641357
1761501975753732600,7.405732666015625,0.32590141892433167,0.1740967035293579,-0.750244140625
1761501975763788800,7.415788818359375,0.2573103606700897,0.3999745547771454,-0.6467036604881287
1761501975773844700,7.4258447265625,0.1150544136762619,0.5677303075790405,-0.6005662679672241
1761501975783900700,7.435900634765625,-0.04043956845998764,0.6570191383361816,-0.599163830280304
1761501975793957600,7.44595751953125,-0.1823389083147049,0.6324877142906189,-0.5899543762207031
1761501975804013800,7.456013916015625,-0.2538178861141205,0.45207852125167847,-0.5780995488166809
1761501975814069800,7.46606982421875,-0.17570897936820984,0.27418655157089233,-0.5456771850585938
1761501975824125700,7.476125732421875,-0.0481901653110981,0.26930975914001465,-0.49539509415626526
1761501975834182000,7.486181884765625,0.062012769281864166,0.3459712564945221,-0.3997599184513092
1761501975844238800,7.49623876953125,0.14253291487693787,0.4716021418571472,-0.23760883510112762
1761501975854294800,7.506294677734375,0.14984142780303955,0.5562046766281128,-0.07586812973022461
1761501975864350700,7.516350830078125,0.09737528860569,0.6180651187896729,-0.06545837223529816
1761501975874407000,7.526406982421875,0.035896215587854385,0.5502575635910034,-0.43062514066696167
1761501975884462600,7.536462646484375,0.012856143526732922,0.333731085062027,-1.1755826473236084
1761501975894519800,7.546519775390625,0.2227422595024109,-0.2502756118774414,-1.7521202564239502
1761501975904575700,7.55657568359375,0.42121434211730957,-0.5078315138816833,-1.7456903457641602
1761501975914631700,7.566631591796875,0.22060801088809967,-0.008793225511908531,-1.2839810848236084
1761501975924687600,7.5766875,-0.06279201060533524,0.44043225049972534,-0.47124847769737244
1761501975934743600,7.58674365234375,-0.26243722438812256,0.7408493161201477,0.10770675539970398
1761501975944799700,7.5967998046875,-0.25375956296920776,0.8172634243965149,0.19224081933498383
1761501975954856700,7.606856689453125,-0.055636629462242126,0.7261555790901184,-0.0013217268278822303
1761501975964912600,7.61691259765625,0.16626833379268646,0.7781170606613159,-0.20145376026630402
1761501975974968600,7.626968505859375,0.18027204275131226,0.9522462487220764,-0.22441738843917847
1761501975985024800,7.637024658203125,0.022956447675824165,0.9832393527030945,-0.14804431796073914
1761501975995080700,7.647080810546875,-0.06802193075418472,0.6882787942886353,-0.19982948899269104
1761501976005133600,7.657133544921875,-0.11906380951404572,0.17592975497245789,-0.15977555513381958
1761501976015189800,7.667189697265625,-0.03195473551750183,-0.2982324957847595,0.11588798463344574
1761501976025245700,7.67724560546875,0.08177768439054489,-0.5541276335716248,0.4700343608856201
1761501976035301600,7.687301513671875,0.16167545318603516,-0.6504325866699219,0.7510204911231995
1761501976045357800,7.69735791015625,0.21422547101974487,-0.7214090824127197,0.9348717927932739
1761501976055414800,7.707414794921875,0.23863787949085236,-0.6943705081939697,1.1096566915512085
1761501976065470700,7.717470703125,0.21875151991844177,-0.571813702583313,1.3825563192367554
1761501976075526700,7.727526611328125,0.20576754212379456,-0.27469947934150696,1.6516773700714111
1761501976085582800,7.737582763671875,0.17307111620903015,0.04808603599667549,1.804202675819397
1761501976095638500,7.747638427734375,0.1019655168056488,0.31551241874694824,1.7757505178451538
1761501976105694500,7.757694580078125,-0.01320927869528532,0.46024802327156067,1.6553109884262085
1761501976115751700,7.767751708984375,-0.11687282472848892,0.490517795085907,1.4873610734939575
1761501976125807600,7.7778076171875,-0.17141781747341156,0.44701477885246277,1.3296902179718018
1761501976135863600,7.787863525390625,-0.19938208162784576,0.17287936806678772,1.1308157444000244
1761501976145919500,7.79791943359375,-0.2334393858909607,-0.21309415996074677,0.8014234900474548
1761501976155975700,7.8079755859375,-0.20789220929145813,-0.5005744099617004,0.43707001209259033
1761501976166032600,7.81803271484375,-0.17569565773010254,-0.5253037214279175,0.15629799664020538
1761501976176088600,7.828088623046875,-0.1477031707763672,-0.4080255627632141,-0.013221529312431812
1761501976186144500,7.83814453125,-0.08618228882551193,-0.22873251140117645,-0.13914403319358826
1761501976196200700,7.84820068359375,-0.014681474305689335,-0.01992630399763584,-0.24938106536865234
1761501976206256600,7.858256591796875,0.03814179450273514,0.05234150215983391,-0.3756641745567322
1761501976216313600,7.868313720703125,0.04669373482465744,-0.06587088853120804,-0.5597916841506958
1761501976226369500,7.87836962890625,-0.02069436013698578,-0.29073089361190796,-0.7538332939147949
1761501976236425700,7.88842578125,-0.13857705891132355,-0.494925320148468,-0.9041080474853516
1761501976246481700,7.898481689453125,-0.3568313717842102,-0.7100767493247986,-0.9905723333358765
1761501976256537600,7.90853759765625,-0.5348786115646362,-0.8530980944633484,-1.0689557790756226
1761501976266593800,7.91859375,-0.6559538841247559,-0.8495507836341858,-1.2601732015609741
1761501976276650800,7.928650634765625,-0.7373057007789612,-0.7332404255867004,-1.5388703346252441
1761501976286706700,7.938706787109375,-0.7435348629951477,-0.4374987781047821,-1.7978606224060059
1761501976296762600,7.9487626953125,-0.6591027975082397,-0.07063475251197815,-1.9574726819992065
1761501976306818800,7.95881884765625,-0.5447778105735779,0.1593446433544159,-2.099226236343384
1761501976316874800,7.968874755859375,-0.44906648993492126,0.3057929277420044,-2.2215733528137207
1761501976326931700,7.978931640625,-0.3350389897823334,0.3930751085281372,-2.470146894454956
1761501976336987600,7.988987548828125,-0.1349887102842331,0.167460635304451,-3.0081264972686768
1761501976347043600,7.999043701171875,0.1485990583896637,-0.30369383096694946,-3.7095494270324707
1761501976357099500,8.009099609375,0.533036470413208,-0.499377578496933,-4.3587117195129395
1761501976367155500,8.019155517578126,0.779220700263977,-0.5332444906234741,-4.4833269119262695
1761501976377212400,8.02921240234375,0.7828884124755859,-0.3529828190803528,-3.9994099140167236
1761501976387268600,8.0392685546875,0.6464895606040955,0.029408222064375877,-3.1843559741973877
1761501976397324500,8.049324462890626,0.3754766881465912,0.42017969489097595,-2.361593246459961
1761501976407380500,8.05938037109375,0.03568076714873314,0.31946906447410583,-1.763469934463501
1761501976417436700,8.069436767578125,-0.23741121590137482,0.013278520666062832,-1.4386920928955078
1761501976427492600,8.07949267578125,-0.38115933537483215,-0.3562835454940796,-1.3523612022399902
1761501976437549600,8.089549560546875,-0.3529801666736603,-0.7275521755218506,-1.457728385925293
1761501976447605500,8.09960546875,-0.17452147603034973,-0.9609960913658142,-1.6692278385162354
1761501976457661700,8.10966162109375,0.08526057004928589,-1.0843292474746704,-1.9311680793762207
1761501976467717600,8.119717529296874,0.34109580516815186,-0.9999714493751526,-2.16259765625
1761501976477773600,8.129773681640625,0.5240831971168518,-0.5317216515541077,-2.2583069801330566
1761501976487830500,8.13983056640625,0.6252830624580383,-0.19974027574062347,-2.2457728385925293
1761501976497886700,8.14988671875,0.5945560336112976,0.010090983472764492,-2.0292084217071533
1761501976507942700,8.159942626953125,0.3201497793197632,0.13100887835025787,-1.7684884071350098
1761501976517998600,8.16999853515625,0.02286190539598465,0.46671631932258606,-1.5699896812438965
1761501976528054800,8.1800546875,-0.17543227970600128,0.7648502588272095,-1.4403469562530518
1761501976538111700,8.19011181640625,-0.27991607785224915,1.0029733180999756,-1.422307014465332
1761501976548167700,8.200167724609376,-0.32524120807647705,1.198773741722107,-1.514438509941101
1761501976558223600,8.2102236328125,-0.35198333859443665,1.3634237051010132,-1.6939374208450317
1761501976568279800,8.22027978515625,-0.4279193878173828,1.6353074312210083,-1.848586916923523
1761501976578335500,8.23033544921875,-0.4805474281311035,1.9722774028778076,-1.8703875541687012
1761501976588391400,8.240391357421874,-0.36018693447113037,1.784263014793396,-1.5870029926300049
1761501976598448600,8.25044873046875,-0.20382636785507202,1.5040907859802246,-1.1480261087417603
1761501976608504600,8.260504638671875,-0.09742136299610138,1.199073076248169,-0.7108496427536011
1761501976618560500,8.270560546875,-0.05949102342128754,0.9755111336708069,-0.31735000014305115
1761501976628616400,8.280616455078125,-0.10149066895246506,0.7359470129013062,-0.012558935210108757
1761501976638672600,8.290672607421875,-0.13553492724895477,0.5258858799934387,0.1418578028678894
1761501976648729600,8.3007294921875,-0.10916350781917572,0.38024985790252686,0.15494804084300995
1761501976658785500,8.31078564453125,-0.049375806003808975,0.15775340795516968,0.03692685812711716
1761501976668841700,8.320841796875,0.04187767580151558,-0.08892880380153656,-0.1907244175672531
1761501976678897700,8.330897705078126,0.1575653851032257,-0.15108512341976166,-0.4152770936489105
1761501976688953600,8.34095361328125,0.3136868178844452,-0.20138424634933472,-0.5675837993621826
1761501976699009500,8.351009521484375,0.5111815333366394,-0.3793875277042389,-0.6703288555145264
1761501976709066800,8.361066650390624,0.6116985082626343,-0.6036198139190674,-0.7333717346191406
1761501976719122700,8.371122802734375,0.5761197805404663,-0.8478397130966187,-0.7739801406860352
1761501976729178600,8.3811787109375,0.42898091673851013,-0.9474605917930603,-0.8057822585105896
1761501976739234600,8.391234619140626,0.2597716450691223,-0.6547157764434814,-0.8203263282775879
1761501976749290800,8.401290771484375,0.14186711609363556,-0.06491268426179886,-0.8067436814308167
1761501976759347700,8.41134765625,0.04283241927623749,0.38015905022621155,-0.6999812722206116
1761501976769403600,8.421403564453126,-0.022069616243243217,0.7205858826637268,-0.576602041721344
1761501976779459800,8.4314599609375,-0.08675486594438553,1.0360801219940186,-0.5424332022666931
1761501976789515800,8.441515869140625,-0.17665040493011475,0.7180026173591614,-0.6129550337791443
1761501976799571500,8.451571533203126,-0.3157781958580017,0.4097244143486023,-0.7701627612113953
1761501976809628700,8.461628662109375,-0.39050355553627014,0.05805877596139908,-0.9183468818664551
1761501976819684900,8.471684814453125,-0.3456934988498688,-0.4466312825679779,-0.899146318435669
1761501976829740500,8.481740478515626,-0.2629895508289337,-0.6268489956855774,-0.8379500508308411
1761501976839796500,8.49179638671875,-0.21746574342250824,-0.4682430922985077,-0.8515715599060059
1761501976849852700,8.501852783203125,-0.25936660170555115,-0.35919278860092163,-0.9008376598358154
1761501976859908600,8.51190869140625,-0.37040042877197266,-0.35533225536346436,-0.9607058167457581
1761501976869965600,8.521965576171874,-0.5125399827957153,-0.4440149962902069,-1.0426464080810547
1761501976880021500,8.532021484375,-0.6539666056632996,-0.6504992246627808,-1.1445249319076538
1761501976890077700,8.54207763671875,-0.7720962166786194,-0.7437124848365784,-1.318917989730835
1761501976900133600,8.552133544921874,-0.8417767286300659,-0.6307899355888367,-1.5504212379455566
1761501976910189600,8.562189453125,-0.8671308159828186,-0.49875786900520325,-1.7507482767105103
1761501976920246500,8.57224658203125,-0.77311110496521,-0.08889791369438171,-1.8305562734603882
1761501976930302700,8.582302734375,-0.5469645261764526,0.4925987720489502,-1.664402961730957
1761501976940358700,8.592358642578125,-0.32750463485717773,0.7631431818008423,-1.3022823333740234
1761501976950414600,8.60241455078125,-0.15152667462825775,0.7035123705863953,-0.8301941156387329
1761501976960470800,8.612470703125,-0.040278445929288864,0.5328388810157776,-0.3380795121192932
1761501976970526700,8.622526611328125,-0.0007097324123606086,0.45834973454475403,0.11309992522001266
1761501976980583700,8.632583740234375,-0.002950516063719988,0.36882224678993225,0.4789447486400604
1761501976990639600,8.6426396484375,-0.025106685236096382,0.3248571753501892,0.7122472524642944
1761501977000695800,8.65269580078125,-0.07988417893648148,0.29887858033180237,0.7565441131591797
1761501977010752800,8.662752685546875,-0.15995317697525024,0.19097554683685303,0.6367673873901367
1761501977020808700,8.67280859375,-0.20959210395812988,0.06278402358293533,0.40781810879707336
1761501977030865700,8.68286572265625,-0.18984396755695343,-0.0023579627741128206,0.12146943807601929
1761501977040921600,8.692921630859376,-0.11206422001123428,-0.005313538946211338,-0.2044849693775177
1761501977050977800,8.702977783203124,0.00253453035838902,-0.009579923003911972,-0.5183560848236084
1761501977061033700,8.71303369140625,0.11700251698493958,0.01637098379433155,-0.7710671424865723
1761501977071089700,8.723089599609375,0.2137325257062912,0.10380282998085022,-0.9413222670555115
1761501977081146600,8.733146728515624,0.27450454235076904,0.22474363446235657,-1.0558645725250244
1761501977091202800,8.743202880859375,0.26825034618377686,0.2935328185558319,-1.1458159685134888
1761501977101258800,8.7532587890625,0.19994240999221802,0.3339169919490814,-1.1812560558319092
1761501977111314700,8.763314697265624,0.10784950107336044,0.3850182592868805,-1.1512975692749023
1761501977121371000,8.773370849609375,0.008530104532837868,0.4324347674846649,-1.0787570476531982
1761501977131426800,8.7834267578125,-0.10121743381023407,0.4456637501716614,-0.9893617033958435
1761501977141483800,8.79348388671875,-0.18356263637542725,0.488050639629364,-0.9283976554870605
1761501977151539700,8.803539794921875,-0.21518447995185852,0.46563720703125,-0.8847484588623047
1761501977161596000,8.813595947265625,-0.19391568005084991,0.3554169535636902,-0.796716570854187
1761501977171651600,8.823651611328126,-0.09856226295232773,0.22775833308696747,-0.6482229828834534
1761501977181707500,8.83370751953125,0.03069399669766426,0.090193010866642,-0.48628363013267517
1761501977191764500,8.843764404296875,0.13784441351890564,-0.06094963848590851,-0.33514657616615295
1761501977201820700,8.853820556640626,0.15660718083381653,-0.10870224237442017,-0.27877119183540344
1761501977211876600,8.863876708984375,0.07411204278469086,-0.14980706572532654,-0.2122480720281601
1761501977221932500,8.8739326171875,-0.054848868399858475,-0.2008686512708664,-0.18001237511634827
1761501977231988700,8.88398876953125,-0.17332704365253448,-0.19755515456199646,-0.19048312306404114
1761501977242045700,8.894045654296875,-0.2483280450105667,-0.17995138466358185,-0.22970083355903625
1761501977252101600,8.9041015625,-0.2705595791339874,-0.19085277616977692,-0.28780248761177063
1761501977262155800,8.91415576171875,-0.24855895340442657,-0.14449672400951385,-0.35482892394065857
1761501977272211700,8.924211669921876,-0.20698274672031403,-0.08960764855146408,-0.4257656931877136
1761501977282268000,8.934267822265625,-0.1664949655532837,-0.06989040225744247,-0.48191550374031067
1761501977292323800,8.94432373046875,-0.14378540217876434,-0.11512818932533264,-0.5060858130455017
1761501977302380800,8.954380859375,-0.13344460725784302,-0.1999748945236206,-0.4989496171474457
1761501977312436700,8.964436767578125,-0.14165779948234558,-0.2508801519870758,-0.4505551755428314
1761501977322492700,8.97449267578125,-0.17145803570747375,-0.24160782992839813,-0.3672126233577728
1761501977332548600,8.984548583984376,-0.21411442756652832,-0.22565922141075134,-0.2524130642414093
1761501977342604500,8.9946044921875,-0.24776452779769897,-0.18449394404888153,-0.07416371256113052
1761501977352660700,9.00466064453125,-0.26068246364593506,-0.10166697204113007,0.14576758444309235
1761501977362717700,9.0147177734375,-0.26236823201179504,-0.03615667298436165,0.3585943579673767
1761501977372773600,9.024773681640625,-0.24196842312812805,-0.008844890631735325,0.5167019963264465
1761501977382829600,9.03482958984375,-0.19309595227241516,-0.028914205729961395,0.5972074866294861
1761501977392885800,9.0448857421875,-0.13247229158878326,-0.061951518058776855,0.5880895853042603
1761501977402941700,9.054941650390624,-0.08717751502990723,-0.08729815483093262,0.5103791356086731
1761501977412998700,9.06499853515625,-0.05805690959095955,-0.08567336201667786,0.3848041296005249
1761501977423054600,9.0750546875,-0.04320233315229416,-0.038590267300605774,0.2471219003200531
1761501977433110800,9.08511083984375,-0.05315296724438667,0.02912725880742073,0.11064235866069794
1761501977443166700,9.095166748046875,-0.08581849932670593,0.05155613645911217,0.013453224673867226
1761501977453222700,9.10522265625,-0.09369373321533203,0.0982767716050148,-0.01266812440007925
1761501977463279600,9.115279541015624,-0.06364262849092484,0.10490377992391586,0.03244901821017265
1761501977473335800,9.125335693359375,-0.007831824012100697,0.07828042656183243,0.11982067674398422
1761501977483391700,9.135391845703126,0.06408950686454773,0.05758766084909439,0.24975258111953735
1761501977493447700,9.14544775390625,0.13536900281906128,0.08499931544065475,0.4324190616607666
1761501977503504000,9.15550390625,0.1994824856519699,0.15863704681396484,0.6224576830863953
1761501977513559800,9.165559814453125,0.24603240191936493,0.2139226794242859,0.778179943561554
1761501977523616800,9.17561669921875,0.2752653956413269,0.22268953919410706,0.8782804012298584
1761501977533672700,9.185672607421875,0.28361281752586365,0.1800544559955597,0.8907285928726196
1761501977543729000,9.19572900390625,0.26323696970939636,0.06779555976390839,0.8324125409126282
1761501977553784600,9.20578466796875,0.2136683464050293,-0.10335221886634827,0.7194196581840515
1761501977563840500,9.215840576171875,0.16809819638729095,-0.23990820348262787,0.6037071943283081
1761501977573897700,9.225897705078125,0.15906767547130585,-0.2537473142147064,0.515327513217926
1761501977583953700,9.23595361328125,0.1778368353843689,-0.17303942143917084,0.4539712369441986
1761501977594009600,9.246009521484375,0.19024264812469482,-0.06471135467290878,0.4167673885822296
1761501977604065500,9.2560654296875,0.1938142031431198,0.0485379733145237,0.39053791761398315
1761501977614121700,9.266121826171876,0.1887640506029129,0.1343705952167511,0.3558334708213806
1761501977624178700,9.2761787109375,0.17495369911193848,0.15262070298194885,0.3016384243965149
1761501977634234600,9.286234619140625,0.15663248300552368,0.15026220679283142,0.25220879912376404
1761501977644290600,9.29629052734375,0.13575410842895508,0.15258873999118805,0.22414308786392212
1761501977654346800,9.3063466796875,0.11898870766162872,0.1591624915599823,0.20393502712249756
1761501977664402700,9.316402587890625,0.10276472568511963,0.16563397645950317,0.19513753056526184
1761501977674459600,9.326459716796874,0.07944076508283615,0.18497224152088165,0.1945234090089798
1761501977684516600,9.3365166015625,0.05420145392417908,0.17700833082199097,0.20234058797359467
1761501977694572800,9.34657275390625,0.05408081039786339,0.19416867196559906,0.2082088589668274
1761501977704628700,9.356628662109374,0.07360178232192993,0.1908048391342163,0.21828998625278473
1761501977714684700,9.3666845703125,0.09826638549566269,0.1534864902496338,0.2317858338356018
1761501977724740900,9.376740966796875,0.10999813675880432,0.08662091195583344,0.24957014620304108
1761501977734797800,9.3867978515625,0.1068047434091568,0.026586070656776428,0.25569620728492737
1761501977744853800,9.396853759765625,0.09424234926700592,0.0006524744676426053,0.24897679686546326
1761501977754909700,9.40690966796875,0.08978554606437683,0.03520406037569046,0.22941668331623077
1761501977764966000,9.4169658203125,0.08611650764942169,0.09703706949949265,0.19098113477230072
1761501977775021800,9.427021728515625,0.08840549737215042,0.11835167557001114,0.13321983814239502
1761501977785078800,9.437078857421875,0.10676053166389465,0.09563970565795898,0.05108475685119629
1761501977795134700,9.447134765625,0.14749251306056976,0.0838427022099495,-0.023862721398472786
1761501977805191000,9.45719091796875,0.18295757472515106,0.10249761492013931,-0.07891105860471725
1761501977815246800,9.467246826171875,0.20287162065505981,0.15008696913719177,-0.10690061748027802
1761501977825302500,9.477302490234376,0.20681416988372803,0.18763834238052368,-0.09839927405118942
1761501977835358700,9.487358642578124,0.20009633898735046,0.2066059112548828,-0.07582632452249527
1761501977845415700,9.497415771484375,0.196133553981781,0.2680128216743469,-0.042688872665166855
1761501977855471600,9.5074716796875,0.20105348527431488,0.35915231704711914,-0.019624833017587662
1761501977865527600,9.517527587890624,0.20106174051761627,0.43668997287750244,0.013101687654852867
1761501977875583700,9.527583740234375,0.19217610359191895,0.46455514430999756,0.052375856786966324
1761501977885639700,9.5376396484375,0.16869793832302094,0.4431356191635132,0.08034197986125946
1761501977895696600,9.547696533203125,0.142858624458313,0.3554214835166931,0.07391364127397537
1761501977905752600,9.557752685546875,0.13239160180091858,0.22961455583572388,0.041201233863830566
1761501977915808800,9.567808837890626,0.13701830804347992,0.11508184671401978,0.001019990653730929
1761501977925864700,9.57786474609375,0.14234089851379395,0.06739848107099533,-0.01890365034341812
1761501977935920600,9.587920654296875,0.15883173048496246,0.05651227757334709,-0.011137339286506176
1761501977945977600,9.5979775390625,0.16854161024093628,0.09191127866506577,0.017659686505794525
1761501977956033800,9.60803369140625,0.17278935015201569,0.143473282456398,0.04508598521351814
1761501977966089700,9.61808984375,0.16814959049224854,0.1925356239080429,0.07117138057947159
1761501977976145700,9.628145751953125,0.14625202119350433,0.18998724222183228,0.1051221564412117
1761501977986201900,9.638201904296874,0.12412460893392563,0.16829073429107666,0.17156723141670227
1761501977996258800,9.6482587890625,0.12149420380592346,0.1477700173854828,0.2393398880958557
1761501978006314000,9.65831396484375,0.11383016407489777,0.11190629750490189,0.28871434926986694
1761501978016370200,9.6683701171875,0.10943195223808289,0.0693495124578476,0.30198755860328674
1761501978026426000,9.678426025390625,0.10414664447307587,0.028605012223124504,0.2639738619327545
1761501978036482000,9.68848193359375,0.09222153574228287,-0.0005957491230219603,0.17333076894283295
1761501978046538200,9.698538330078126,0.06619526445865631,-0.02557220496237278,0.05492183938622475
1761501978056595200,9.70859521484375,0.035470642149448395,-0.03941691294312477,-0.06112860143184662
1761501978066651100,9.718651123046875,0.023204920813441277,-0.04073677584528923,-0.13921381533145905
1761501978076707000,9.72870703125,0.02190476655960083,-0.024145549163222313,-0.1737518161535263
1761501978086763300,9.73876318359375,0.03496411070227623,0.023966053500771523,-0.159727081656456
1761501978096819200,9.748819091796875,0.029164543375372887,0.0705343559384346,-0.12637950479984283
1761501978106876200,9.758876220703126,0.01344310399144888,0.07926925271749496,-0.10419484227895737
1761501978116932000,9.76893212890625,-0.004575577098876238,0.06446234881877899,-0.09466099739074707
1761501978126988300,9.77898828125,-0.028480110689997673,0.055508799850940704,-0.09676782041788101
1761501978137044200,9.789044189453126,-0.04379301890730858,0.07926180213689804,-0.10666998475790024
1761501978147100200,9.79910009765625,-0.06797026097774506,0.10708863288164139,-0.11940815299749374
1761501978157157000,9.8091572265625,-0.08010042458772659,0.08960631489753723,-0.12802959978580475
1761501978167213300,9.81921337890625,-0.07195515185594559,0.0792655274271965,-0.11075634509325027
1761501978177269200,9.829269287109375,-0.05187518149614334,0.08181550353765488,-0.06935910135507584
1761501978187325200,9.8393251953125,-0.02966202236711979,0.11211268603801727,-0.0009182579233311117
1761501978197381000,9.849381103515626,-0.013115002773702145,0.13863617181777954,0.08094385266304016
1761501978207437000,9.85943701171875,0.00743208359926939,0.13993926346302032,0.16827556490898132
1761501978217494000,9.869493896484375,0.023260582238435745,0.14426450431346893,0.2303171008825302
1761501978227550000,9.879550048828126,0.01426522247493267,0.13922153413295746,0.24658794701099396
1761501978237606100,9.889606201171874,-0.00809094961732626,0.12334084510803223,0.21861010789871216
1761501978247662000,9.899662109375,-0.021462680771946907,0.10524599254131317,0.17569538950920105
1761501978257718000,9.909718017578125,-0.01474565640091896,0.07898616045713425,0.1342211812734604
1761501978267775000,9.91977490234375,-0.0035441347863525152,0.04602262005209923,0.11365146189928055
1761501978277831200,9.9298310546875,0.004607268609106541,0.042880088090896606,0.10022780299186707
1761501978287887000,9.93988720703125,0.012264922261238098,0.05825185403227806,0.09775052964687347
1761501978297943000,9.949943115234374,0.025951705873012543,0.06772392243146896,0.10868946462869644
1761501978307999200,9.959999267578125,0.03977936878800392,0.16267625987529755,0.22135502099990845
1761501978318056200,9.97005615234375,0.019881829619407654,0.1496046781539917,0.31916120648384094
1761501978328112000,9.980112060546874,-0.014304104261100292,0.09122525155544281,0.3118833303451538
1761501978338168000,9.99016796875,-0.029991455376148224,-0.002285258611664176,0.24485927820205688
1761501978348224300,10.000224365234375,-0.04782691225409508,-0.10384464263916016,0.16067169606685638
1761501978358280200,10.0102802734375,-0.06886481493711472,-0.17313982546329498,0.07509768009185791
1761501978368337200,10.020337158203125,-0.0664605125784874,-0.17695826292037964,0.03816762566566467
1761501978378393000,10.03039306640625,-0.05426084250211716,-0.13553892076015472,0.05619189888238907
1761501978388449300,10.04044921875,-0.06521255522966385,-0.12546683847904205,0.11912772059440613
