time,seconds_elapsed,z,y,x
1761379019987000000,0.116,0.05937222642302513,0.29627310309410093,-0.11862404133677482
1761379019997056000,0.126055908203125,0.16779287191974,0.31908874601423737,-0.09372402989063411
1761379020007112000,0.13611181640625,0.2913543696586974,0.2780097166508436,-0.05449968848321587
1761379020017166800,0.146166748046875,0.37457682448029517,0.18355916258394717,0.006338263110816479
1761379020027222800,0.156222900390625,0.5044049813985825,0.08336451190710067,0.09359251246545464
1761379020037278000,0.16627783203125,0.5353320345818996,0.0527115994900465,0.11604984346721321
1761379020047334000,0.176333984375,0.6114636726260185,0.013818097472190856,0.06237813024073839
1761379020057389000,0.18638916015625,0.6012561668664217,-0.04076397206485271,0.08172430695202201
1761379020067445000,0.196445068359375,0.530161353945732,-0.14652677826285362,0.1358616283962503
1761379020077501000,0.2065009765625,0.4064695443579927,-0.1927911013096571,0.19030797925703227
1761379020087555800,0.216555908203125,0.2323743391573429,-0.14740473014116287,0.15739450149685144
1761379020097612000,0.226612060546875,0.39814825420379635,-0.195351891708374,0.1966001382037997
1761379020107667000,0.2366669921875,0.17899696923494338,-0.1863286272972822,0.21445552836805581
1761379020117723000,0.246722900390625,0.1523790114223957,-0.05807458782792091,0.28594167869389053
1761379020127777800,0.25677783203125,0.1392535906557925,0.005493921241164207,0.2888093065520748
1761379020137833700,0.266833740234375,0.19875616546021774,0.08295183945298194,0.32541820476409045
1761379020147890000,0.276889892578125,0.26020985606610775,0.12146949389576911,0.431465417394042
1761379020157944800,0.28694482421875,0.34587332909796387,0.07589607572257519,0.4864051777949556
1761379020168001000,0.2970009765625,0.44069969420731064,-0.031069092002511022,0.5644529151260852
1761379020178056000,0.307055908203125,0.5325047752667218,0.028001521125435826,0.5937140078585594
1761379020188112100,0.317112060546875,0.6808271317094564,0.16672843929231165,0.47881925271060316
1761379020198166800,0.327166748046875,0.7960732210457324,0.16222645169794558,0.4335378032213077
1761379020208223000,0.337222900390625,0.8127133902013302,0.22546762850880622,0.3619482290536165
1761379020218279000,0.34727880859375,0.8317518526703119,0.3474713754117489,0.2508481534808874
1761379020228333800,0.357333740234375,0.8827847052931785,0.3357587257862091,0.22328151664137838
1761379020238390000,0.36739013671875,0.9835270529806613,0.23548984082937238,0.24214166340138762
1761379020248445000,0.37744482421875,1.0705296291291713,0.16525485960841177,0.2622746431088075
1761379020258500900,0.3875009765625,1.054565751799941,0.10702829608917236,0.3017228563999757
1761379020268555800,0.3975556640625,1.017433414235711,0.12069558691382408,0.3228282248035073
1761379020278612000,0.407612060546875,1.018705333867669,0.11987374913692474,0.30796091053932906
1761379020288668000,0.41766796875,1.0442319893121719,0.1039630632996559,0.32230332414656876
1761379020298723000,0.42772314453125,1.0493781200289725,0.13225567632615565,0.3078615052854642
1761379020308779000,0.437779052734375,1.1515864486157894,0.13614157784879208,0.2848462481399998
1761379020318834000,0.447833984375,1.2771668849617241,0.13395371241569518,0.2601017560491338
1761379020328889900,0.457889892578125,1.3070441368311643,0.12849895414114,0.2274184703156352
1761379020338945000,0.467945068359375,1.2523498390913008,0.07345452778935432,0.20731416871342806
1761379020349001000,0.4780009765625,1.0820862114101648,-0.06983633729219436,0.1526800401955843
1761379020359057000,0.488056884765625,0.8492460083067417,-0.2039583920121193,0.08634995745867491
1761379020369112000,0.498112060546875,0.6179004276752471,-0.25214871468544003,0.08606675660312176
1761379020379168000,0.50816796875,0.502444604578428,-0.2809042690485716,0.14143961119167506
1761379020389223000,0.518222900390625,0.5753402929086238,-0.2383995907962322,0.23060816973503678
1761379020399278800,0.52827880859375,0.7433833219308406,-0.15648936935067176,0.31827096335794774
1761379020409334000,0.538333984375,0.9389929877925663,-0.12153086869418621,0.4242839083921164
1761379020419390000,0.548389892578125,1.06200211234577,-0.12011281858980655,0.5160494611587375
1761379020429446000,0.55844580078125,1.1554372788250447,-0.09434183299541472,0.5124816491419449
1761379020439501000,0.5685009765625,1.1556114663481711,-0.06307400355041026,0.4373272951647639
1761379020449556700,0.578556640625,1.086261451268196,-0.018363339686393736,0.36379502596408125
1761379020459612000,0.58861181640625,0.9609282676815986,-0.02186053415238857,0.3021685543408617
1761379020469667800,0.598667724609375,0.9444535182207823,-0.014793079984188079,0.24177725053578614
1761379020479723000,0.608722900390625,0.9102350222766399,0.01791091974377632,0.19100067422892897
1761379020489779000,0.618779052734375,0.9178817376375198,-0.06665069299340248,0.2368804184049368
1761379020499835100,0.628835205078125,0.9881646496534346,-0.16093290475606917,0.24725071351081132
1761379020509889800,0.638889892578125,1.0430500860512255,-0.2113601927012205,0.16186050446238368
1761379020519946000,0.648946044921875,1.0681903725266455,-0.24348610028028486,0.12943974212259055
1761379020530001000,0.6590009765625,1.0205120910286902,-0.21199381442964077,0.1534901875346899
1761379020540056800,0.669056884765625,0.8857786264121532,-0.188494280898571,0.17504761055465787
1761379020550113000,0.679113037109375,0.8392927695691585,-0.2910492309659719,0.1482420212155208
1761379020560168000,0.68916796875,0.9536527237206697,-0.5511830991864204,0.12727847243547438
1761379020570224000,0.69922412109375,1.1085983707606792,-0.7117214516669511,-0.003869534909725189
1761379020580278800,0.70927880859375,1.2085925304293632,-0.8006985427588224,-0.23320088964197783
1761379020590335000,0.7193349609375,1.182361526107788,-1.0196376462817192,-0.36343437595814465
1761379020600390000,0.729389892578125,0.9474462702959775,-1.3958441177904606,-0.3989849972888827
1761379020610446000,0.739446044921875,0.6301596052676439,-1.6940806299120186,-0.37354981952011584
1761379020620502000,0.749501953125,0.13996263397429137,-1.832206075054407,-0.36126934341136363
1761379020630557000,0.759556884765625,-0.34285131439566613,-1.892102617612481,-0.33738018950819965
1761379020640612900,0.76961279296875,-0.7748720275849104,-1.885957538986206,-0.24072803374379872
1761379020650668000,0.77966796875,-1.0737971064925194,-1.7841209663212299,-0.06921206791400909
1761379020660724000,0.789723876953125,-1.2235025147914886,-1.577476111704111,0.10169979454278945
1761379020670779000,0.79977880859375,-1.1701087782561779,-1.2332827350497244,0.23880678335763514
1761379020680835000,0.8098349609375,-0.9596364743053912,-0.747645582485199,0.24238106164783238
1761379020690891000,0.81989111328125,-0.6807739402174949,-0.2145668797880411,0.12805614227708428
1761379020700946000,0.82994580078125,-0.3963812445312738,0.17325462619066237,0.005714578254520893
1761379020711001900,0.840001953125,-0.2821241662323475,0.507042928686738,-0.13033289157003164
1761379020721057000,0.85005712890625,-0.36269407898485656,0.7834650838851929,-0.2674155496612191
1761379020731113000,0.860113037109375,-0.46781741823554035,1.0516922421902417,-0.44094490114003415
1761379020741168000,0.870168212890625,-0.5253601276764646,1.2088029583096505,-0.5479254856299609
1761379020751224000,0.88022412109375,-0.5504863856265321,1.2169979552030563,-0.5082808729838579
1761379020761279700,0.89027978515625,-0.4921276836276054,1.229343057513237,-0.34627427458167076
1761379020771335000,0.9003349609375,-0.37171383626461024,1.2567729162305592,-0.13048051987979561
1761379020781390800,0.910390869140625,-0.13034838140010832,1.2363456297516822,-0.011781623208522796
1761379020791446000,0.920446044921875,0.04841477907896041,1.107222406232357,0.002056348007917404
1761379020801502000,0.930501953125,0.05277649968611076,0.7807043870002031,-0.024608115827478468
1761379020811558000,0.940557861328125,-0.11910800719512626,0.5140151057869196,-0.051118229351378976
1761379020821612800,0.95061279296875,-0.4902420160114765,0.377615169262886,-0.14759616106003523
1761379020831668700,0.960668701171875,-0.8426748132228851,0.24763503665328024,-0.2303537200499326
1761379020841724000,0.970723876953125,-1.1065338394463062,0.22435352978706358,-0.26385931848436595
1761379020851779800,0.98077978515625,-1.1948866611599922,0.1588917543172836,-0.24662585961073635
1761379020861835000,0.9908349609375,-1.128233630079031,0.062355626147985455,-0.31829723031036555
1761379020871891000,1.000890869140625,-0.933403716418147,-0.04943126264512539,-0.494700493257679
1761379020881947100,1.010947021484375,-0.8296785535275936,-0.17945464987456797,-0.6111518667304888
1761379020892001800,1.021001708984375,-0.8036509628236294,-0.1526180808752775,-0.701446945085749
1761379020902058000,1.03105810546875,-0.8429746729522943,0.0398801749676466,-0.766586429798603
1761379020912113000,1.04111279296875,-0.7673720272183417,0.15680618021488188,-0.7955366299510002
1761379020922169000,1.051169189453125,-0.5984674129307269,0.32762685725688934,-0.7004266621273011
1761379020932227300,1.061227294921875,-0.42245735055208206,0.5389771130859852,-0.5676845174584537
1761379020942283300,1.071283203125,-0.20207153708590195,0.7105757887631654,-0.4612267147336155
1761379020952339500,1.08133935546875,-0.007276694738399237,0.8274830893099308,-0.3697347182113677
1761379020962394000,1.09139404296875,0.1658201288083568,0.9739368023365735,-0.34321064922735095
1761379020972450300,1.1014501953125,0.3724269529700279,1.0305261200428009,-0.3988284184876829
1761379020982505200,1.111505126953125,0.4606488417804241,0.8837813151150942,-0.4711331186547875
1761379020992561400,1.1215615234375,0.2978904934291728,0.8247159626841545,-0.5094860109899193
1761379021002617300,1.131617431640625,0.09955109207630157,0.8448913202285766,-0.5598322695881128
1761379021012672300,1.14167236328125,0.04788284589303657,0.7459025382101535,-0.5023894768577069
1761379021022728200,1.151728271484375,0.23558745598495004,0.6089221714496612,-0.42562575145512815
1761379021032783400,1.161783447265625,0.41115156469438224,0.6357979034155606,-0.46972511502038683
1761379021042839300,1.17183935546875,0.6637012248635291,0.640142654621601,-0.4663336824838072
1761379021052894500,1.18189453125,0.7854056965589523,0.5771347020447254,-0.4481261178810149
1761379021062950400,1.191950439453125,0.8339572537600993,0.47827100771069525,-0.37829500475320965
1761379021073006300,1.20200634765625,0.7961714207231998,0.34928339326977725,-0.32291268821656705
1761379021083061200,1.212061279296875,0.6606897680878638,0.2598182264000177,-0.33735242471843957
1761379021093117200,1.2221171875,0.5058253695905208,0.268816356369853,-0.38320966480169444
1761379021103172400,1.23217236328125,0.38008886590003965,0.30007950963973995,-0.46508273257464167
1761379021113228300,1.242228271484375,0.39675124688744545,0.3393313235759735,-0.5256666728749871
1761379021123283500,1.252283447265625,0.4981950208425522,0.39801790582239627,-0.5705486381852999
1761379021133339400,1.26233935546875,0.5644108295500279,0.44240708264708517,-0.5735843526193872
1761379021143395000,1.27239501953125,0.5232692198118195,0.4150076190680265,-0.49622569353096185
1761379021153450200,1.2824501953125,0.4684685756206512,0.2747971843451261,-0.38902828795257954
1761379021163506200,1.292506103515625,0.44430330818984654,0.004952069449424743,-0.31642131690327074
1761379021173561300,1.302561279296875,0.42994690258987245,-0.2515554249674082,-0.30457747864611445
1761379021183617300,1.3126171875,0.47782622308526185,-0.24828502499461172,-0.43551502157840877
1761379021193672400,1.32267236328125,0.5905471778580919,-0.1627227107822895,-0.6332081791833043
1761379021203728100,1.33272802734375,0.6968295874834061,-0.2368886017113924,-0.8283327649418264
1761379021213784300,1.342784423828125,0.729444739884138,-0.38691198991835113,-0.9452216530490666
1761379021223839200,1.352839111328125,0.6222972013294696,-0.3771867147177458,-0.9479802310422062
1761379021233895400,1.3628955078125,0.5047369898319244,-0.3822130184471607,-0.8192787400662899
1761379021243950300,1.372950439453125,0.4620540324032306,-0.4622352341890335,-0.623199118605256
1761379021254006300,1.38300634765625,0.38273324292898175,-0.6373334424197673,-0.505077145039104
1761379021264061200,1.393061279296875,0.4183165974855423,-0.93274554477036,-0.41915567865818737
1761379021274117000,1.4031171875,0.4618640627890825,-1.1306512126147747,-0.31174017334971577
1761379021284173300,1.41317333984375,0.4045236344546079,-1.2227245161563158,-0.2692448474476114
1761379021294228200,1.423228271484375,0.34559038397073744,-1.3390683376014232,-0.35078798914644865
1761379021304284400,1.433284423828125,0.2630009480893612,-1.5029846420824526,-0.36751404648721214
1761379021314339300,1.44333935546875,0.07036240699291228,-1.8471721735179423,-0.2796305958509445
1761379021324395500,1.4533955078125,-0.132977012870647,-2.255675817519426,-0.08634378344621509
1761379021334450200,1.4634501953125,-0.45523854370210315,-2.380361350852251,0.07470807151440531
1761379021344506400,1.47350634765625,-0.8703425723493099,-2.186404128372669,0.18931144250035284
1761379021354562300,1.483562255859375,-1.2871090177834033,-1.828759733992815,0.2920867207875475
1761379021364617500,1.493617431640625,-1.5107435856461524,-1.2998276295810938,0.3431426985576749
1761379021374673400,1.50367333984375,-1.4528747495234011,-0.6762216837406158,0.24699293935745953
1761379021384728300,1.513728271484375,-1.135369546373561,-0.11352116523981094,0.055593621199764305
1761379021394784300,1.5237841796875,-0.8095055340707301,0.29731296753585335,-0.033220424817502495
1761379021404840200,1.533840087890625,-0.6746925744771957,0.6514870554566383,-0.0018380290821194648
1761379021414895400,1.543895263671875,-0.6200924578268081,0.8163836031466722,0.01367081622229889
1761379021424951300,1.553951416015625,-0.5572884303241968,0.7975263424634933,0.147374627263844
1761379021435006500,1.56400634765625,-0.6041250003010035,0.7688836008250713,0.3642433542534709
1761379021445062400,1.5740625,-0.5917266699662431,0.8001660433173179,0.5466586074993014
1761379021455117300,1.584117431640625,-0.542588325853087,0.9117699767589569,0.669839289227128
1761379021465173200,1.59417333984375,-0.44805418515596535,1.0792542028546332,0.6120709908694029
1761379021475228400,1.604228515625,-0.2108546177992597,1.1882219425737857,0.5082373991683126
1761379021485284400,1.614284423828125,-0.15623689242694527,1.1859563357293605,0.4914835405051708
1761379021495340300,1.62434033203125,-0.08784198611471801,1.092388409715891,0.4843427288398146
1761379021505395500,1.6343955078125,0.0023135376393795012,1.0945388657480477,0.43894905114769933
1761379021515451100,1.644451171875,0.04566752619743347,1.0787795710802077,0.3573427810847759
1761379021525506300,1.65450634765625,0.15028993018865586,0.9639046531438827,0.34743688862025734
1761379021535562200,1.664562255859375,0.2102011223265901,0.8467945235013962,0.3605407003432512
1761379021545618200,1.6746181640625,0.24984573497269302,0.7061550497114658,0.36847032429873944
1761379021555673300,1.68467333984375,0.257921525933221,0.4379863435953855,0.3519783314421773
1761379021565729300,1.694729248046875,0.13706574348900466,0.20837679297626016,0.2830745988249779
1761379021575784200,1.7047841796875,-0.10386599613334983,-0.0011947627425193785,0.2498638186186552
1761379021585840000,1.714840087890625,-0.3253530305733904,-0.2335673483341932,0.31923692231327294
1761379021595895300,1.724895263671875,-0.5133919689198956,-0.36703240045011043,0.3738067168906331
1761379021605951200,1.734951171875,-0.6659820292770863,-0.377576006296277,0.5131833311378956
1761379021616007400,1.74500732421875,-0.7292552817266434,-0.34491818379759787,0.7159890459835528
1761379021626062300,1.755062255859375,-0.6599697101850063,-0.22007366051077842,0.8491367027133703
1761379021636118500,1.765118408203125,-0.5554600458532571,-0.005150222370028495,0.9396230293244123
1761379021646173200,1.775173095703125,-0.38442484927773474,0.20356676234602927,0.9429445749625563
1761379021656229400,1.7852294921875,-0.1589746833603829,0.4158522531986236,0.80047934705019
1761379021666284300,1.7952841796875,0.029655754605866967,0.6499713901966809,0.6049100131988525
1761379021676340200,1.80534033203125,0.16656422517392783,0.8892676375716924,0.48966275481879706
1761379021686396400,1.815396484375,0.29908352087233214,0.9257195916563272,0.4168111613586545
1761379021696451000,1.825451171875,0.4117542432952672,0.9422603920906781,0.30595481314761563
1761379021706507300,1.83550732421875,0.5195803386986255,1.0725228487730025,0.10931786833107471
1761379021716562200,1.845562255859375,0.6296908187121153,1.1904138996601104,0.02567600078731775
1761379021726618400,1.855618408203125,0.7021043130159378,1.1693728651970625,0.015652619422972202
1761379021736673300,1.86567333984375,0.7495077961605042,1.0450491509139537,0.07554801120357588
1761379021746729500,1.8757294921875,0.6836825211405754,0.8070230696052313,0.1759457649707794
1761379021756785400,1.885785400390625,0.5113000381419435,0.6114841308921575,0.31114333996772764
1761379021766840300,1.89584033203125,0.30104331317059696,0.39853988386988637,0.41931028469800946
1761379021776896300,1.905896240234375,0.13882515437696127,0.23608722220063208,0.4987321964591741
1761379021786951400,1.915951416015625,-0.02051668179538101,0.12266893281340599,0.5291930934354663
1761379021797007400,1.92600732421875,-0.04432129922024906,0.06485562627017498,0.5204264341339468
1761379021807062300,1.936062255859375,0.04922386697214096,0.02701718626320362,0.4252729559620842
1761379021817118500,1.946118408203125,0.11756320717222989,-0.07227379357218743,0.34067893879264594
1761379021827173000,1.956173095703125,0.2128852103114128,-0.25221885731220245,0.32335955520123244
1761379021837229300,1.966229248046875,0.23085819897335022,-0.49386079103052616,0.33274781699981537
1761379021847285200,1.97628515625,0.14792148402426392,-0.6737602620631455,0.33664339966624973
1761379021857340400,1.98634033203125,-0.06945983213,-0.7772358341068029,0.3428775813480839
1761379021867396400,1.996396240234375,-0.23668986426889896,-1.0274953740447759,0.4200149258360266
1761379021877451500,2.006451416015625,-0.35657355027794835,-1.0176783289074898,0.5205699342578649
1761379021887507200,2.016507080078125,-0.5262842567840591,-0.8835065898269414,0.5204524818906561
1761379021897563100,2.026563232421875,-0.6137690269589424,-1.0892466045588254,0.5327738745316862
1761379021907618300,2.036618408203125,-0.6144546711355447,-1.2675579296171664,0.5664800370395183
1761379021917674200,2.04667431640625,-0.4888742347896099,-1.2535679827094077,0.421092199678719
1761379021927729400,2.0567294921875,-0.27899229794740676,-1.1010843418687581,0.18671967244148252
1761379021937781000,2.066781005859375,-0.14336915448214857,-1.0105185202807188,-0.07136343726161867
1761379021947836200,2.076836181640625,-0.13392331727743148,-1.0004442855119704,-0.2933908256560564
1761379021957892000,2.08689208984375,-0.20054476591004058,-1.0634960772305726,-0.39298517235219477
1761379021967947300,2.096947265625,-0.36451139407251026,-1.2199790168404578,-0.39282030064668505
1761379021978003000,2.1070029296875,-0.6029027650296688,-1.2814555220663546,-0.45496582770794625
1761379021988059100,2.11705908203125,-0.812816266053915,-1.2457201918184757,-0.5058069206183776
1761379021998114000,2.127114013671875,-1.079823527175188,-1.362625738799572,-0.4087154966538772
1761379022008170200,2.137170166015625,-1.317557932060957,-1.3716343901634216,-0.2484711952164769
1761379022018225200,2.14722509765625,-1.5252198547661304,-1.1533207250624895,-0.183261056420207
1761379022028281000,2.157281005859375,-1.6194915451347827,-0.8471820615142583,-0.18035981855336575
1761379022038336000,2.1673359375,-1.6394424462735653,-0.43212884973883625,-0.22089754411429166
1761379022048392000,2.177391845703125,-1.609063674622774,-0.006139817929267883,-0.27349954575002194
1761379022058448100,2.1874482421875,-1.390833596152067,0.3538730591475963,-0.26501930217444897
1761379022068503000,2.1975029296875,-1.0929833799343556,0.6818570592790841,-0.22327983614094554
1761379022078559200,2.207559326171875,-0.8453180212080478,0.9561386953175067,-0.20701982540935276
1761379022088614100,2.2176142578125,-0.6118272817740217,1.0829787763357162,-0.1714387724077329
1761379022098670300,2.22767041015625,-0.44188923278544096,1.0914403152108192,-0.06780917884614318
1761379022108725000,2.23772509765625,-0.3033902416229248,1.0210416678607463,0.035946634911000724
1761379022118781200,2.24778125,-0.17894198764469474,0.9260077609479427,0.10777261165045202
1761379022128837000,2.257837158203125,-0.11221300525069236,0.8085854966163635,0.08764145857393742
1761379022138892300,2.267892333984375,-0.07006784449312836,0.7974456784427165,-0.014792130136117338
1761379022148948200,2.2779482421875,-0.05119359614253044,0.8403712124556303,-0.1591717403024435
1761379022159003100,2.288003173828125,-0.03125266840849072,0.8236907112896442,-0.35946423021815715
1761379022169059000,2.29805908203125,-0.012663045685552059,0.7678034043729305,-0.5876929940033704
1761379022179114000,2.308114013671875,-0.07806169279124588,0.7293985626548528,-0.706708591940999
1761379022189170200,2.318170166015625,-0.14681198841240256,0.6872387523174286,-0.7075109212998301
1761379022199225000,2.32822509765625,-0.25344697433505203,0.6407458812117576,-0.6701840840768069
1761379022209281300,2.33828125,-0.2334335658866912,0.7248767013162374,-0.5977232434999198
1761379022219337200,2.348337158203125,-0.16112353195734322,0.8481424309790134,-0.5304599715661257
1761379022229392100,2.35839208984375,0.07698628211207688,0.8422598026812076,-0.5075056508276611
1761379022239448000,2.368447998046875,0.3373252444505691,0.7762661122918129,-0.5429433863684535
1761379022249503200,2.378503173828125,0.5781950247526169,0.7391454651653766,-0.6057663377672433
1761379022259559200,2.38855908203125,0.6889994053144007,0.6422270596802234,-0.688817911267653
1761379022269614300,2.3986142578125,0.6478969220101833,0.44906127983927724,-0.719772948436439
1761379022279670300,2.408670166015625,0.570178891557455,0.29937574528455735,-0.6958043360888958
1761379022289726000,2.418725830078125,0.40169637513943013,0.13909165982604027,-0.6634703387171029
1761379022299781000,2.428781005859375,0.2274772878307849,0.05166881243884563,-0.636888329000771
1761379022309837000,2.438837158203125,0.1305021837223321,0.07619301284253596,-0.6097721393425017
1761379022319892200,2.448892333984375,0.1562391939818859,0.08049918560385703,-0.6046168754711747
1761379022329948200,2.4589482421875,0.3087527185041457,0.10813011985123157,-0.6096414987001568
1761379022340003300,2.46900341796875,0.5667420489765703,0.19155892916619777,-0.708749888510257
1761379022350059000,2.47905908203125,0.8559259244620799,0.19996260037422178,-0.8222524951800704
1761379022360115000,2.489114990234375,1.0823487348038703,0.06466331856846809,-0.8283181518945842
1761379022370170000,2.499170166015625,1.1178625312555581,-0.032412323305010794,-0.7485270414948463
1761379022380226000,2.50922607421875,1.0143174011070282,-0.03692424777150154,-0.7032243300218135
1761379022390281200,2.51928125,0.9148680158395319,-0.03687748602032661,-0.6799135970611124
1761379022400337200,2.529337158203125,0.7483289616394787,0.011992635610699652,-0.646722617533803
1761379022410392000,2.53939208984375,0.6397470794327557,0.09122808488905429,-0.6662946023575961
1761379022420448000,2.549447998046875,0.6722445968031883,0.045704351076483726,-0.6580009673953056
1761379022430503200,2.559503173828125,0.7117542579580098,-0.13081658343374727,-0.5650535479003563
1761379022440559000,2.56955908203125,0.7614601728260517,-0.2233341236114502,-0.425258671708405
1761379022450615000,2.579614990234375,0.8348965073715895,-0.36894787868261336,-0.3272164498250931
1761379022460670200,2.589670166015625,0.8755191712696104,-0.539675032222271,-0.2864637298066169
1761379022470726100,2.59972607421875,0.7736017884533852,-0.5966811140358448,-0.33508265315555036
1761379022480781000,2.609781005859375,0.6122451783925295,-0.6737678608477116,-0.3720516899168491
1761379022490837000,2.6198369140625,0.4315302993237972,-0.7436474527597426,-0.409273751591146
1761379022500892200,2.62989208984375,0.23184658895619212,-0.7183464227646589,-0.4573878306904807
1761379022510948000,2.639947998046875,0.05364807662256062,-0.6867337254047393,-0.44173988744262604
1761379022521004300,2.65000439453125,-0.11748415058664977,-0.6849585324257612,-0.4281617362061515
1761379022531059000,2.660058837890625,-0.22340433930344877,-0.89980948985219,-0.42769141528066246
1761379022541115100,2.670115234375,-0.1714454944094643,-1.165308099976182,-0.36931178009156135
1761379022551170000,2.680170166015625,-0.21906528718583285,-1.3180840017616748,-0.30917733712438494
1761379022561226200,2.690226318359375,-0.2503605891596526,-1.2848679608583449,-0.26224870494995267
1761379022571281200,2.70028125,-0.3366775941967964,-1.1315513763248919,-0.26004648219794035
1761379022581337000,2.710337158203125,-0.3347095089942217,-1.0183347469896078,-0.30973522673547266
1761379022591392000,2.72039208984375,-0.25875030490756035,-0.8872574667930603,-0.3668731182351708
1761379022601448000,2.730447998046875,-0.26596220904774964,-0.7127367661893368,-0.3237903113013133
1761379022611504000,2.740504150390625,-0.28526071069240566,-0.5699637875020503,-0.23033523454517124
1761379022621559000,2.75055908203125,-0.3307873671144247,-0.4187690174281597,-0.1842155806660652
1761379022631615200,2.760615234375,-0.32757888992931694,-0.2777162866622209,-0.18377225734535604
1761379022641670100,2.770670166015625,-0.2816869438588619,-0.1946639094442129,-0.23749504317194223
1761379022651726300,2.780726318359375,-0.3414086778393015,-0.3155027042210102,-0.26570145748602225
1761379022661781000,2.790781005859375,-0.4069387693049386,-0.4514858766376972,-0.21721978718331084
1761379022671837200,2.800837158203125,-0.5374877513110637,-0.4146083906173706,-0.17630115427970885
1761379022681892000,2.81089208984375,-0.5869681868601591,-0.445854008230567,-0.09240410639848559
1761379022691948300,2.8209482421875,-0.6652325991492718,-0.5426444034218788,0.028813385497592388
1761379022702004200,2.831004150390625,-0.7514455592900514,-0.5811427686423063,0.12117896825028583
1761379022712059100,2.84105908203125,-0.9063351652938872,-0.5685182648688555,0.21176939455661922
1761379022722115000,2.851114990234375,-1.0251438424825667,-0.4517085794776678,0.2819631304517388
1761379022732170000,2.861169921875,-1.1043348680973053,-0.1337175655722618,0.2803223775073886
1761379022742226200,2.87122607421875,-1.1284580864846705,0.32201778520345686,0.1963116766512394
1761379022752281000,2.881281005859375,-1.0812655426770448,0.806430364409089,0.1142871811762452
1761379022762337300,2.891337158203125,-0.9634551558107137,1.2275398074835537,0.027619536070525644
1761379022772392000,2.901391845703125,-0.7340916889071464,1.5052198537886141,-0.056421267662942406
1761379022782448000,2.9114482421875,-0.45088272311277683,1.6250082627296447,-0.024272837724816053
1761379022792504000,2.921504150390625,-0.20387305181622503,1.503353475394845,0.10510171194076537
1761379022802559200,2.931559326171875,-0.012180267137289046,1.269088207924366,0.20273849482834339
1761379022812615200,2.941615234375,0.0015174553582444786,1.036475383836031,0.29188509726822376
1761379022822670300,2.95167041015625,-0.07196396043803542,0.8634516437917947,0.32414310679435726
1761379022832726300,2.961726318359375,-0.1406978894462809,0.7250754387587308,0.2637105576634407
1761379022842781200,2.97178125,-0.28244747990258035,0.7384650816857814,0.17814561310261487
1761379022852837000,2.981837158203125,-0.40738201956041153,0.8088730813860893,0.16086276212930678
1761379022862893000,2.99189306640625,-0.42215281464755533,0.7603320455789565,0.18778642489016054
1761379022872948200,3.0019482421875,-0.29996728143692014,0.7132669275432825,0.22705314413458108
1761379022883004200,3.012004150390625,-0.19986779823023826,0.7059767705351114,0.25100127994967625
1761379022893059300,3.022059326171875,-0.1049742861688137,0.5796703580021858,0.3239864549279213
1761379022903115000,3.032114990234375,-0.051530865272879596,0.4534264893114566,0.3633922903820872
1761379022913170200,3.042170166015625,-0.1573760525247082,0.32224107256531714,0.4097127275303006
1761379022923226000,3.05222607421875,-0.2908399721294641,0.2368266423910856,0.49716655457764863
1761379022933281500,3.062281494140625,-0.37328736919164657,0.20744974125921725,0.5347334841668605
1761379022943337700,3.072337646484375,-0.33730295955352485,0.21361820076107976,0.5305170355156064
1761379022953393700,3.0823935546875,-0.18555406272821126,0.29345746115148064,0.4541200245335698
1761379022963448600,3.092448486328125,0.029382819416001436,0.44816228517293927,0.3855985692322254
1761379022973504500,3.10250439453125,0.24767365163061766,0.5865858364790678,0.3211059310555458
1761379022983559700,3.1125595703125,0.36416429766789077,0.5436234775871038,0.27004851024700327
1761379022993615600,3.12261572265625,0.36258711147904393,0.5206435840159654,0.2787798242405057
1761379023003670800,3.1326708984375,0.2840081168154254,0.5024509247213602,0.2694754048004746
1761379023013726700,3.142726806640625,0.3221850315291434,0.3972147727459669,0.26175357837677
1761379023023781600,3.15278173828125,0.31237204151246695,0.31362346634566785,0.25140607962459327
1761379023033837600,3.162837646484375,0.3360877385448664,0.320419117835164,0.2216553767442703
1761379023043893500,3.1728935546875,0.37427174058649687,0.34818040046393867,0.20535423028469085
1761379023053948700,3.18294873046875,0.4233131271312013,0.2801221787601709,0.28765345104783774
1761379023064004600,3.193004638671875,0.49961014833748335,0.25577742657661434,0.3570768236249685
1761379023074059800,3.203059814453125,0.5687491875478997,0.25185470017492767,0.33229660263359545
1761379023084115700,3.21311572265625,0.5894762241583317,0.21684768420159817,0.34537498765438795
1761379023094170600,3.223170654296875,0.5738316053787246,0.1701075603365898,0.35764088724851606
1761379023104226600,3.2332265625,0.531649473611638,0.04918868606090546,0.36167934898436066
1761379023114281700,3.24328173828125,0.48483756315205245,-0.13397650876939296,0.3447968955054879
1761379023124337700,3.253337646484375,0.4475514597982168,-0.28312428318560123,0.297140241317451
1761379023134393600,3.2633935546875,0.38302316578626633,-0.45770402050018305,0.22369185100793837
1761379023144448500,3.273448486328125,0.3571382349560037,-0.6302607275545596,0.1996460817709565
1761379023154504400,3.28350439453125,0.3004529825946316,-0.7491051336437463,0.22219167557805775
1761379023164559600,3.2935595703125,0.2129507132956758,-0.8519722184002398,0.24965631334781646
1761379023174615600,3.303615478515625,0.15574823212716726,-0.8284235850304364,0.2844263056948781
1761379023184670700,3.313670654296875,0.11812014693524688,-0.7516250075101852,0.2739160175964236
1761379023194726700,3.3237265625,0.05065704158041626,-0.8701672157824039,0.23028525792360305
1761379023204781600,3.333781494140625,-0.05526301927221939,-1.0598673653393984,0.2388888356178999
1761379023214837500,3.34383740234375,-0.10970244720187038,-1.1629904706835745,0.18599954147338865
1761379023224893700,3.353893798828125,-0.1030003557473421,-1.1964561024338005,0.12581599866747856
1761379023234948600,3.363948486328125,-0.0978325611880049,-1.2346423329651355,0.06706977692199871
1761379023245004500,3.374004638671875,-0.08667290580272674,-1.1581436151742934,-0.05589549022316932
1761379023255059700,3.384059814453125,-0.13393849658025428,-0.9784890588134527,-0.17799100706279278
1761379023265115600,3.39411572265625,-0.2641922037005424,-0.7528478273034095,-0.24249855054765937
1761379023275170600,3.404170654296875,0.054518365784222256,-0.6277689107388258,-0.2950631427824497
1761379023285226500,3.4142265625,-0.18057340650511905,-0.3539531386464834,-0.5049845713848248
1761379023295281700,3.42428173828125,-0.08006547036170959,-0.35305355945825573,-0.5473714319437742
1761379023305337600,3.434337646484375,-0.26983050184845925,-0.4529436742305755,-0.5197422512620687
1761379023315393800,3.444393798828125,-0.5092810630023479,-0.4499228651046753,-0.3915758900761604
1761379023325448700,3.45444873046875,-0.6738087773799896,-0.5381611205279827,-0.3139499218210578
1761379023335504600,3.464504638671875,-0.6988952878415584,-0.6137737031340599,-0.2870923100337386
1761379023345559600,3.4745595703125,-0.670740037459135,-0.5494447310864925,-0.2792071097418666
1761379023355615500,3.484615478515625,-0.6805144124984741,-0.37484336646199223,-0.2697916494091041
1761379023365670700,3.494670654296875,-0.6964531553864479,-0.11527531543076038,-0.27442488043401386
1761379023375726600,3.5047265625,-0.7709235822200775,0.12707505881786346,-0.27945553154498337
1761379023385781500,3.514781494140625,-0.8845838636696338,0.3006044102966785,-0.2220232967412099
1761379023395837400,3.52483740234375,-1.0568459716916083,0.47145489795505996,-0.12851711085233836
1761379023405893600,3.5348935546875,-1.1098340500354766,0.5586515353709459,-0.053050055930484084
1761379023415948500,3.544948486328125,-1.0277607469826937,0.5038280582934618,0.02221007824242115
1761379023426004700,3.555004638671875,-0.8218272555053233,0.3722615332752466,0.09029516968680545
1761379023436059600,3.5650595703125,-0.642360330671072,0.37900399327278134,0.09671904698815197
1761379023446115800,3.57511572265625,-0.5399772300392389,0.38385786304473873,0.03987893285863101
1761379023456170500,3.58517041015625,-0.5420423458755016,0.37679800766110416,-0.028337036690115926
1761379023466226700,3.595226806640625,-0.6586801818311214,0.35706104153394697,-0.10835428399592638
1761379023476281600,3.605281494140625,-0.7966390382349491,0.3407394368082285,-0.21960109282927587
1761379023486337500,3.615337646484375,-0.8912006514608859,0.4188935205906629,-0.3353309288281947
1761379023496393700,3.625393798828125,-0.8335515955686569,0.5074100084334612,-0.37836222477052356
1761379023506448600,3.63544873046875,-0.7051391506671905,0.4921539871126413,-0.3710322837412357
1761379023516504600,3.645504638671875,-0.5477484485626221,0.47599721755981445,-0.31010701918993144
1761379023526559500,3.6555595703125,-0.40048400367498393,0.4138274693727493,-0.24638624216858296
1761379023536615700,3.66561572265625,-0.23005729438662528,0.330659941342473,-0.2690127557247877
1761379023546670600,3.675670654296875,-0.1839583910346031,0.3403331940948963,-0.3591074526697397
1761379023556726800,3.685726806640625,-0.19262568161487578,0.3212672590970993,-0.4999068662617355
1761379023566781400,3.695781494140625,-0.25737667846679685,0.35943595397174355,-0.6437105762362479
1761379023576837600,3.705837646484375,-0.3557446982383728,0.46104280953407284,-0.7339081490337849
1761379023586893600,3.7158935546875,-0.4275952979624271,0.5925275014877319,-0.7770929185047746
1761379023596948700,3.72594873046875,-0.39813422567844386,0.6668377693235874,-0.7288207627668977
1761379023607004700,3.736004638671875,-0.2812508905291557,0.6309440336436033,-0.5555755254590884
1761379023617059600,3.7460595703125,-0.18529343903064727,0.5974912613749503,-0.3660881418699398
1761379023627115800,3.75611572265625,-0.11013561445474623,0.5452957947134971,-0.21932258641514926
1761379023637170400,3.76617041015625,-0.09083704887800849,0.5306505987673997,-0.1054522058788687
1761379023647226600,3.7762265625,-0.10346154351830482,0.5613514419794082,-0.024595804335176944
1761379023657281500,3.786281494140625,-0.09009352790117263,0.5645592981100082,0.006947079191543162
1761379023667337700,3.796337646484375,-0.02836217113137245,0.5858826566457748,-0.04451923294514418
1761379023677393700,3.8063935546875,0.060367073546117166,0.6671364600092172,-0.1573557038564235
1761379023687448800,3.81644873046875,0.08286416116952895,0.7237526657223701,-0.25083562279287724
1761379023697504500,3.82650439453125,0.1506873959404882,0.6403343778014182,-0.33812406667806205
1761379023707559700,3.8365595703125,0.1519254224359989,0.5695908625364303,-0.4348535985276103
1761379023717615600,3.84661572265625,0.10480711290836334,0.5272101029247045,-0.5060332036549225
1761379023727670800,3.8566708984375,0.05313186616215389,0.3961772463917732,-0.5247241678604856
1761379023737726700,3.866726806640625,0.07574468455314635,0.2926104889333248,-0.5410638562321662
1761379023747781600,3.87678173828125,0.13096096034049987,0.19964169785678385,-0.5421238866791129
1761379023757837600,3.886837646484375,0.2840133409798145,0.03459083638787269,-0.5259963066881522
1761379023767893500,3.8968935546875,0.390741192817688,-0.14608371067047118,-0.4837471375668421
1761379023777948700,3.90694873046875,0.3039467064619064,-0.3214046217411756,-0.37795364396963266
1761379023788004600,3.917004638671875,0.12004675848311744,-0.5151660293877125,-0.2986240866670385
1761379023798059800,3.927059814453125,0.007307692664861679,-0.6467419067561626,-0.3354746481478214
1761379023808115700,3.93711572265625,-0.0599321709938813,-0.7094570138663053,-0.44453759186975655
1761379023818170600,3.947170654296875,-0.16733458849191665,-0.7122142036199569,-0.5047106863468885
1761379023828226600,3.9572265625,-0.21583238794552162,-0.6603542525231838,-0.5211536158973351
1761379023838281700,3.96728173828125,-0.150578684002161,-0.5385375526249409,-0.5201037780508398
1761379023848337700,3.977337646484375,0.027187263866793362,-0.39085517458617686,-0.47595604529920965
1761379023858392800,3.987392822265625,0.2225274834036827,-0.3608206863284111,-0.43789194331020115
1761379023868448800,3.99744873046875,0.45236967373490333,-0.4068213900029659,-0.4718304532691836
1761379023878504700,4.007504638671875,0.622063392573595,-0.5475409432917833,-0.41589609234035013
1761379023888559600,4.0175595703125,0.6216694248199462,-0.7778747165322303,-0.33961598573625085
1761379023898615600,4.027615478515625,0.38716859502792356,-0.9054816902697086,-0.2813090504571795
1761379023908670700,4.037670654296875,0.09126490976810454,-1.0925526603668927,-0.2701557882800698
1761379023918726700,4.0477265625,-0.1584615462064743,-1.1713117243051527,-0.2707774273097515
1761379023928781800,4.05778173828125,-0.44951720691323277,-1.1635562878727912,-0.2447848896528594
1761379023938841000,4.067841064453125,-0.700889676529169,-1.0078630373358726,-0.23066576340747996
1761379023948896300,4.077896240234375,-0.8763397669374943,-0.7283347328156232,-0.24302783511877057
1761379023958952200,4.0879521484375,-0.8466098145842552,-0.48117257437109945,-0.24449849219322203
1761379023969006000,4.098006103515625,-0.6272866801798344,-0.2821633291989565,-0.22542610918832942
1761379023979061200,4.108061279296875,-0.3603554069042206,-0.18566928660571574,-0.15367811132222414
1761379023989117200,4.1181171875,-0.1428524919305928,-0.1835235067486763,-0.028327410345245153
1761379023999172000,4.128172119140625,-0.06254152237521485,-0.19442133285999297,0.11264291196740232
1761379024009228300,4.138228271484375,-0.10095747000919654,-0.27134558258652686,0.21980039652734992
1761379024019283200,4.148283203125,-0.2518424434815533,-0.3643851008117199,0.21085311996191738
1761379024029339100,4.158339111328125,-0.40128129153251646,-0.2979348988264799,0.17717676807045935
1761379024039395000,4.16839501953125,-0.5019710322499275,-0.1780991436123848,0.12555325607806445
1761379024049450200,4.1784501953125,-0.5561655637741089,-0.20300445228815078,0.09140577041036449
1761379024059506200,4.188506103515625,-0.7334756028354168,-0.19655016158223151,0.11624386820197105
1761379024069561300,4.198561279296875,-0.8650409588098525,-0.13167232348024843,0.119446171374619
1761379024079617300,4.2086171875,-0.89898882111907,-0.05880465566813945,0.07751286326944827
1761379024089672200,4.218672119140625,-0.7233820788443088,0.0875812528192997,-0.009976619613170623
1761379024099728100,4.22872802734375,-0.5482511373877526,0.3314309257149696,-0.07093290035724639
1761379024109783300,4.238783203125,-0.376292980748415,0.5484375998705625,-0.05254881014376878
1761379024119839200,4.248839111328125,-0.21255902883065864,0.6063759940981864,0.002148115661309566
1761379024129895200,4.258895263671875,-0.09407877987874672,0.6377279946953058,0.09700403794199228
1761379024139950300,4.268950439453125,-0.19638649545311926,0.65478492795825,0.12924977250844238
1761379024150006300,4.27900634765625,-0.36873043653964993,0.638977117973566,0.2254629523336887
1761379024160061200,4.289061279296875,-0.5504325730800629,0.6662947484880686,0.3555962296783924
1761379024170117000,4.2991171875,-0.6687105774581432,0.6337777957648039,0.45016661073267455
1761379024180172300,4.30917236328125,-0.6633014118909836,0.5072948576211929,0.5411182167679071
1761379024190228200,4.319228271484375,-0.585692102509737,0.359420171880722,0.6053302844375371
1761379024200283400,4.329283447265625,-0.4515899580666795,0.22863632167279718,0.6219876969888806
1761379024210339000,4.339339111328125,-0.34301030434966084,0.12242577170729636,0.6096580845087767
1761379024220395000,4.34939501953125,-0.35507483615279195,0.07173369534611701,0.5556684279069304
1761379024230450200,4.3594501953125,-0.43080432313680644,0.008732757031917572,0.48246115287691355
1761379024240506000,4.369506103515625,-0.4879050974965095,0.043565000960230825,0.3989613241523504
1761379024250561300,4.379561279296875,-0.5435083267748355,0.12211305249631405,0.2930804445326328
1761379024260617200,4.3896171875,-0.488536381137371,0.14655951148867608,0.22959610661566257
1761379024270672100,4.399672119140625,-0.4309796797037124,0.19145546879172323,0.21180148846162483
1761379024280728000,4.40972802734375,-0.3881108443140983,0.21263035876750944,0.217739354078006
1761379024290783200,4.419783203125,-0.37015316281914706,0.2372714635491371,0.23914750482039523
1761379024300839200,4.429839111328125,-0.43169513449668884,0.19259294838905333,0.2973413351138122
1761379024310895000,4.43989501953125,-0.487969394904375,0.11701660614013672,0.3374997242346406
1761379024320950300,4.4499501953125,-0.5866752683281898,0.11604688432514666,0.3343877296939492
1761379024331006200,4.460006103515625,-0.6748141550302506,0.1895662940442562,0.3395379520639777
1761379024341061000,4.47006103515625,-0.6511831040740013,0.3019944033503532,0.3331988121703267
1761379024351117000,4.480116943359375,-0.5215536845982074,0.43731765055358407,0.334210911822319
1761379024361172200,4.490172119140625,-0.3448082936823368,0.5542296272754669,0.3423272905215621
1761379024371228200,4.500228271484375,-0.17281974190473556,0.6007920564860105,0.44895051294118166
1761379024381284400,4.510284423828125,-0.05370003513866104,0.5472200407743454,0.5183543040350079
1761379024391340300,4.52034033203125,0.08247136245965957,0.5041051216691732,0.5360238162383437
1761379024401396200,4.530396240234375,0.15325930138826369,0.44273909108042714,0.5628954565510154
1761379024411451100,4.540451171875,0.1775976238310337,0.36807109584808345,0.6210869487568735
1761379024421507000,4.550507080078125,0.14633388603925704,0.3293272314339876,0.6512561693102121
1761379024431562200,4.560562255859375,0.1151987339300569,0.2878863830208778,0.6541916382402181
1761379024441618200,4.5706181640625,0.10995557257956824,0.23236264871954918,0.5979051028728485
1761379024451673300,4.58067333984375,0.0464765044927597,0.26884382889866826,0.466281294709444
1761379024461729300,4.590729248046875,0.03529809874123893,0.32490181620717046,0.32091859178990123
1761379024471784200,4.6007841796875,0.040623102289438245,0.3360357891619205,0.2032712865307927
1761379024481840000,4.610840087890625,0.09036358614736235,0.29371172817349434,0.18977758044106885
1761379024491896000,4.62089599609375,0.17953005319833754,0.2345961068600416,0.21887451385408638
1761379024501951200,4.630951171875,0.2610509830653667,0.1703735177963972,0.22789867331432176
1761379024512007200,4.641007080078125,0.34012510430216786,0.108534024477005,0.2675713247448206
1761379024522062000,4.65106201171875,0.4082207354068756,0.0633165801346302,0.2631651987403631
1761379024532118000,4.661117919921875,0.4451461522221565,0.012891045755147934,0.2351937987585552
1761379024542173200,4.671173095703125,0.4807961422741413,-0.024172318226099013,0.16665420501232145
1761379024552229000,4.68122900390625,0.40276130095720286,-0.0558136571586132,0.15166123680816962
1761379024562284300,4.6912841796875,0.32086978421211243,-0.13158932137191295,0.11027767154024913
1761379024572340200,4.70134033203125,0.2242038556506857,-0.19438275441527367,0.07075933388862758
1761379024582396200,4.711396240234375,0.18015664239777252,-0.281787481623888,0.04761224879072979
1761379024592451000,4.721451171875,0.21791909455908462,-0.2537456284880638,0.00035628435807302593
1761379024602507000,4.731507080078125,0.3226654354572296,-0.18640929131805895,0.007471367927128448
1761379024612562200,4.741562255859375,0.4483762201845646,-0.15668226157426834,0.08262010501427576
1761379024622618000,4.7516181640625,0.6010194355010986,-0.09061959760189056,0.19960604202151297
1761379024632673300,4.76167333984375,0.6446235994279385,-0.14732757325172424,0.26347002690583465
1761379024642729200,4.771729248046875,0.5875356480171904,-0.3566647356927395,0.3055225957428105
1761379024652784000,4.7817841796875,0.5062731133580207,-0.54310851380229,0.2982327127292752
1761379024662840000,4.791840087890625,0.3704021691441536,-0.5981085164904594,0.17352789017409084
1761379024672896300,4.801896240234375,0.21187048031091688,-0.6157154848515987,0.08206628879010677
1761379024682951200,4.811951171875,0.10733690538061783,-0.655654112008214,0.010799051045114173
1761379024693007000,4.822007080078125,0.04970774149894714,-0.6593909604489803,-0.03212707662284374
1761379024703062300,4.832062255859375,-0.03572360327746719,-0.622730916571617,-0.06453824915038421
1761379024713118000,4.842117919921875,-0.09454057043790817,-0.5142524216741323,-0.0694470457136631
1761379024723173000,4.852173095703125,-0.10286182405948638,-0.37002573704719544,-0.052039399316906924
1761379024733229000,4.86222900390625,-0.06425183342443778,-0.2943301523327827,-0.029412547833984715
1761379024743285200,4.87228515625,-0.0251602150185965,-0.2633580909639597,0.025067540899617595
1761379024753340200,4.882340087890625,0.014860884523391724,-0.23608839124441144,0.06784311764836311
1761379024763396400,4.892396240234375,-0.01698037916170433,-0.2642980021625757,0.05889585021608509
1761379024773451000,4.902450927734375,-0.032618696064688264,-0.31673429184257984,0.03573855425142683
1761379024783507200,4.912507080078125,-0.096003044205904,-0.3082651541829109,-0.01759293983578682
1761379024793562000,4.92256201171875,-0.21097734912978483,-0.3092196784287691,-0.0943672596976161
1761379024803618300,4.932618408203125,-0.35498361420538277,-0.2666325825899839,-0.13141280489438212
1761379024813673200,4.942673095703125,-0.47844990794155745,-0.17557926974594593,-0.1493926799548324
1761379024823729200,4.952729248046875,-0.551235669623874,-0.07510872473716736,-0.14732523516416549
1761379024833785300,4.962785400390625,-0.6068272449970245,0.008902268379926682,-0.1228992344379425
1761379024843840000,4.972840087890625,-0.5983528101077303,0.036656536746025085,-0.0911012436389923
1761379024853896200,4.982896240234375,-0.5913163355996832,0.0449777903676033,-0.038545711493492125
1761379024863951000,4.992951171875,-0.6553542522788047,0.05899696336984634,-0.015184709650278091
1761379024874007300,5.00300732421875,-0.7216203298687934,0.12360358331501484,-0.05458674571216106
1761379024884062200,5.013062255859375,-0.7256137834191322,0.24807693520188331,-0.12046996146440506
1761379024894118100,5.0231181640625,-0.742059891307354,0.34487025300264357,-0.1530655323818326
1761379024904173000,5.033173095703125,-0.8371358837962151,0.32520401402413845,-0.13894845196306704
1761379024914229200,5.043229248046875,-0.9618062195599079,0.25187106678783894,-0.13559446536004544
1761379024924285200,5.05328515625,-1.0324316614031792,0.34271804340481754,-0.17988164311498403
1761379024934340400,5.06334033203125,-1.0043114823341368,0.4026636858016252,-0.24299597867578265
1761379024944396500,5.073396484375,-0.8821066599011421,0.31832886755764483,-0.22935177646577357
1761379024954451500,5.083451416015625,-0.7585048301517963,0.25699790828228,-0.22631050907373426
1761379024964507600,5.093507568359375,-0.666836600279808,0.3464414478421211,-0.2561415837138891
1761379024974562300,5.103562255859375,-0.5508253352573141,0.44216392154097556,-0.3208385122910142
1761379024984618500,5.113618408203125,-0.4045651355087757,0.4558212754935026,-0.3835261468723416
1761379024994673400,5.12367333984375,-0.3572480885386467,0.3554658812969923,-0.38851942511498927
1761379025004729600,5.1337294921875,-0.32786881278660146,0.2049900731474161,-0.399180227600038
1761379025014785500,5.14378564453125,-0.32074356401655824,0.20845979508459567,-0.45846945191472765
1761379025024840700,5.1538408203125,-0.36626375416517254,0.20645663856863974,-0.4942544665232301
1761379025034896600,5.163896728515625,-0.4176069879114628,0.0838642781227827,-0.5405874708920717
1761379025044951600,5.17395166015625,-0.4486018456339836,0.08351122690141201,-0.5542231975346803
1761379025055007500,5.184007568359375,-0.4056394867420196,0.09734627550840377,-0.6221721136450767
1761379025065062400,5.1940625,-0.3177320707082748,0.14495324533581733,-0.7453864053815603
1761379025075118600,5.20411865234375,-0.3600175532519817,0.18832827668190003,-0.7635676664993166
1761379025085174500,5.214174560546875,-0.28793314477205273,0.21205051305294034,-0.7516159474208951
1761379025095229700,5.224229736328125,-0.26523732883930207,0.2611433375239372,-0.7336547587946057
1761379025105285400,5.234285400390625,-0.2553986381257884,0.31596155390441416,-0.734092273429036
1761379025115340500,5.244340576171875,-0.16220246803415939,0.377094944781065,-0.7322808400928974
1761379025125396500,5.254396484375,-0.13830373345189728,0.4368032712906599,-0.6364435078427195
1761379025135451600,5.26445166015625,-0.1363362236380577,0.38518355869054793,-0.4588961528941989
1761379025145507600,5.274507568359375,-0.13455344100766814,0.3624766368418932,-0.27383071393314745
1761379025155562500,5.2845625,-0.07794950112104415,0.3841740893870592,-0.16157880144417286
1761379025165618400,5.294618408203125,-0.031605098575353624,0.39795302389264103,-0.1425827168121934
1761379025175674400,5.30467431640625,-0.021557185557950286,0.4247083443492651,-0.16817315820790826
