time,seconds_elapsed,z,y,x
1761379019940493800,0.069493896484375,0.006561279296875,-1.017730712890625,0.0485687255859375
1761379019950549800,0.0795498046875,0.001739501953125,-1.0206756591796875,0.05035400390625
1761379019960605000,0.08960498046875,-0.0066986083984375,-1.0115203857421875,0.042877197265625
1761379019970660900,0.099660888671875,-0.0123291015625,-0.9933929443359375,0.030059814453125
1761379019980717000,0.109717041015625,-0.01409912109375,-0.9722747802734375,0.0236968994140625
1761379019990772000,0.11977197265625,-0.0066375732421875,-0.966094970703125,0.0255126953125
1761379020000828000,0.129827880859375,0.0100250244140625,-0.969573974609375,0.0298004150390625
1761379020010882800,0.1398828125,0.0173797607421875,-0.977447509765625,0.03643798828125
1761379020020938800,0.149938720703125,0.03192138671875,-0.988677978515625,0.0455474853515625
1761379020030994000,0.159993896484375,0.0362701416015625,-0.9931182861328125,0.0516815185546875
1761379020041049900,0.1700498046875,0.042327880859375,-0.9964141845703125,0.046295166015625
1761379020051106000,0.18010595703125,0.04364013671875,-1.0013275146484375,0.047210693359375
1761379020061161000,0.190160888671875,0.035919189453125,-1.0111541748046875,0.0513916015625
1761379020071217000,0.200216796875,0.0236663818359375,-1.0183868408203125,0.05902099609375
1761379020081271800,0.210271728515625,0.0044708251953125,-1.0152740478515625,0.055816650390625
1761379020091328000,0.220327880859375,0.0135040283203125,-1.0159912109375,0.06005859375
1761379020101383000,0.2303828125,-0.0035858154296875,-1.020660400390625,0.0610809326171875
1761379020111439000,0.240439208984375,-0.01055908203125,-1.006805419921875,0.0698089599609375
1761379020121495000,0.2504951171875,-0.01708984375,-1.000030517578125,0.0725250244140625
1761379020131550000,0.260550048828125,-0.0112762451171875,-0.9919586181640625,0.0750274658203125
1761379020141606000,0.27060595703125,-0.0077667236328125,-0.986053466796875,0.0862884521484375
1761379020151660800,0.280660888671875,0.000823974609375,-0.9886932373046875,0.0935211181640625
1761379020161717000,0.290717041015625,0.0095062255859375,-0.9995269775390625,0.099517822265625
1761379020171772000,0.30077197265625,0.0178680419921875,-0.99932861328125,0.10546875
1761379020181828000,0.310828125,0.0312347412109375,-0.9836883544921875,0.09466552734375
1761379020191884000,0.320884033203125,0.04345703125,-0.9815216064453125,0.087615966796875
1761379020201939000,0.33093896484375,0.04608154296875,-0.97845458984375,0.0814208984375
1761379020211995000,0.340994873046875,0.0457611083984375,-0.965301513671875,0.06988525390625
1761379020222050000,0.351050048828125,0.048187255859375,-0.962371826171875,0.064788818359375
1761379020232106000,0.36110595703125,0.056182861328125,-0.97174072265625,0.06597900390625
1761379020242161200,0.3711611328125,0.064910888671875,-0.9798126220703125,0.0682373046875
1761379020252216800,0.381216796875,0.06439208984375,-0.9862823486328125,0.071075439453125
1761379020262272800,0.391272705078125,0.0592041015625,-0.9866180419921875,0.0738677978515625
1761379020272328000,0.401327880859375,0.0577850341796875,-0.98529052734375,0.07159423828125
1761379020282384000,0.4113837890625,0.05999755859375,-0.9876556396484375,0.0714263916015625
1761379020292439000,0.42143896484375,0.05926513671875,-0.9854888916015625,0.0703887939453125
1761379020302495000,0.431494873046875,0.0662841796875,-0.9839324951171875,0.06719970703125
1761379020312551000,0.441551025390625,0.078857421875,-0.9848480224609375,0.0640106201171875
1761379020322605800,0.451605712890625,0.0828704833984375,-0.98443603515625,0.0602264404296875
1761379020332661800,0.461661865234375,0.077911376953125,-0.988311767578125,0.0580596923828125
1761379020342717000,0.471717041015625,0.06134033203125,-1.0005950927734375,0.0530853271484375
1761379020352772900,0.48177294921875,0.03778076171875,-1.0162353515625,0.04595947265625
1761379020362828000,0.491828125,0.0130462646484375,-1.0223846435546875,0.0440673828125
1761379020372884000,0.501884033203125,-0.0019378662109375,-1.0265045166015625,0.0494384765625
1761379020382940000,0.51193994140625,0.0023193359375,-1.02374267578125,0.0583038330078125
1761379020392994800,0.521994873046875,0.0205841064453125,-1.0163421630859375,0.0680389404296875
1761379020403051000,0.532051025390625,0.0428314208984375,-1.0105133056640625,0.0782928466796875
1761379020413106000,0.54210595703125,0.0595550537109375,-1.0105438232421875,0.08935546875
1761379020423161900,0.552161865234375,0.0715484619140625,-1.0087738037109375,0.0907745361328125
1761379020433216800,0.562216796875,0.0760650634765625,-1.005218505859375,0.08416748046875
1761379020443272700,0.572272705078125,0.0717620849609375,-1.0018463134765625,0.07464599609375
1761379020453329000,0.582328857421875,0.06097412109375,-0.9999237060546875,0.06842041015625
1761379020463383800,0.5923837890625,0.0581817626953125,-1.001129150390625,0.061676025390625
1761379020473440000,0.60243994140625,0.0585479736328125,-0.996978759765625,0.055633544921875
1761379020483495000,0.612494873046875,0.0586395263671875,-1.002593994140625,0.058197021484375
1761379020493551000,0.622551025390625,0.0672149658203125,-1.0133514404296875,0.062530517578125
1761379020503605800,0.632605712890625,0.0748748779296875,-1.0192108154296875,0.0551605224609375
1761379020513662000,0.642661865234375,0.0800628662109375,-1.0235595703125,0.050445556640625
1761379020523718000,0.6527177734375,0.0783233642578125,-1.0216522216796875,0.0521392822265625
1761379020533773000,0.66277294921875,0.0680999755859375,-1.0179901123046875,0.05560302734375
1761379020543829000,0.6728291015625,0.0605316162109375,-1.024017333984375,0.05419921875
1761379020553884000,0.6828837890625,0.0716094970703125,-1.0485687255859375,0.0518341064453125
1761379020563939800,0.69293994140625,0.08856201171875,-1.06884765625,0.0430908203125
1761379020573994800,0.702994873046875,0.101318359375,-1.077911376953125,0.0204925537109375
1761379020584051000,0.713051025390625,0.102020263671875,-1.0953521728515625,0.005279541015625
1761379020594107000,0.72310693359375,0.0801239013671875,-1.13128662109375,0.0011749267578125
1761379020604162000,0.733162109375,0.0456085205078125,-1.1655426025390625,0.0050048828125
1761379020614218000,0.743218017578125,-0.003753662109375,-1.183013916015625,0.009368896484375
1761379020624273000,0.75327294921875,-0.05950927734375,-1.1900177001953125,0.013153076171875
1761379020634328800,0.763328857421875,-0.1079864501953125,-1.191131591796875,0.0237579345703125
1761379020644384800,0.773384765625,-0.1446075439453125,-1.183074951171875,0.04168701171875
1761379020654440000,0.78343994140625,-0.164764404296875,-1.1647796630859375,0.0618438720703125
1761379020664495900,0.793495849609375,-0.164886474609375,-1.1331787109375,0.07855224609375
1761379020674551000,0.803551025390625,-0.1456756591796875,-1.0872955322265625,0.0839385986328125
1761379020684607000,0.81360693359375,-0.1177978515625,-1.0316925048828125,0.073944091796875
1761379020694662000,0.823661865234375,-0.0870208740234375,-0.988983154296875,0.0613250732421875
1761379020704717800,0.8337177734375,-0.0694427490234375,-0.953857421875,0.04730224609375
1761379020714774000,0.84377392578125,-0.0731658935546875,-0.9246673583984375,0.032440185546875
1761379020724829000,0.853828857421875,-0.0839996337890625,-0.89691162109375,0.015350341796875
1761379020734884900,0.863884765625,-0.0885467529296875,-0.8764495849609375,0.0014801025390625
1761379020744940000,0.87393994140625,-0.090240478515625,-0.8732757568359375,0.0023345947265625
1761379020754995700,0.88399560546875,-0.08349609375,-0.8734893798828125,0.0172119140625
1761379020765051000,0.89405078125,-0.069915771484375,-0.869964599609375,0.0407257080078125
1761379020775106800,0.90410693359375,-0.045318603515625,-0.871002197265625,0.0574493408203125
1761379020785163000,0.9141630859375,-0.0215911865234375,-0.8797760009765625,0.0615386962890625
1761379020795218000,0.924218017578125,-0.016448974609375,-0.908660888671875,0.059661865234375
1761379020805274000,0.934274169921875,-0.028564453125,-0.9407196044921875,0.05706787109375
1761379020815328800,0.944328857421875,-0.06268310546875,-0.9559173583984375,0.048309326171875
1761379020825385000,0.954385009765625,-0.100067138671875,-0.9702606201171875,0.0377197265625
1761379020835439900,0.96443994140625,-0.1290130615234375,-0.9748992919921875,0.032318115234375
1761379020845496000,0.97449609375,-0.1417083740234375,-0.9796600341796875,0.032562255859375
1761379020855552000,0.984552001953125,-0.1374969482421875,-0.98907470703125,0.0291290283203125
1761379020865607000,0.99460693359375,-0.119049072265625,-1.0001220703125,0.011627197265625
1761379020875663000,1.0046630859375,-0.1045379638671875,-1.0135955810546875,-0.00103759765625
1761379020885717800,1.0147177734375,-0.1009979248046875,-1.0170745849609375,-0.0105133056640625
1761379020895774000,1.02477392578125,-0.1040802001953125,-0.99835205078125,-0.0163421630859375
1761379020905830000,1.034829833984375,-0.10107421875,-0.9847412109375,-0.0200653076171875
1761379020915885000,1.044885009765625,-0.083709716796875,-0.9695892333984375,-0.011932373046875
1761379020925941000,1.05494091796875,-0.066253662109375,-0.9481658935546875,0.0026092529296875
1761379020935999500,1.06499951171875,-0.0437164306640625,-0.9288482666015625,0.015228271484375
1761379020946055400,1.075055419921875,-0.0218353271484375,-0.916717529296875,0.0250396728515625
1761379020956110300,1.0851103515625,-0.0058746337890625,-0.9022979736328125,0.030120849609375
1761379020966166300,1.095166259765625,0.01556396484375,-0.8920745849609375,0.0255584716796875
1761379020976222200,1.10522216796875,0.0280609130859375,-0.903533935546875,0.016326904296875
1761379020986277400,1.11527734375,0.016448974609375,-0.913421630859375,0.0114288330078125
1761379020996333300,1.125333251953125,-0.0054168701171875,-0.9117279052734375,0.005126953125
1761379021006388200,1.13538818359375,-0.018585205078125,-0.917877197265625,0.005889892578125
1761379021016444200,1.145444091796875,0.0017547607421875,-0.9334716796875,0.0169677734375
1761379021026499300,1.155499267578125,0.013824462890625,-0.9347076416015625,0.0124053955078125
1761379021036555300,1.16555517578125,0.0427093505859375,-0.9321441650390625,0.0119781494140625
1761379021046611200,1.175611083984375,0.0558929443359375,-0.93695068359375,0.012786865234375
1761379021056666400,1.185666259765625,0.0607757568359375,-0.946563720703125,0.0182647705078125
1761379021066722300,1.195722412109375,0.058624267578125,-0.9588775634765625,0.0241241455078125
1761379021076777200,1.205777099609375,0.043182373046875,-0.9704132080078125,0.0226898193359375
1761379021086833200,1.215833251953125,0.02716064453125,-0.971405029296875,0.017059326171875
1761379021096888300,1.225888427734375,0.010589599609375,-0.9680938720703125,0.0077972412109375
1761379021106944300,1.2359443359375,0.0071563720703125,-0.9649200439453125,-0.0011138916015625
1761379021117000400,1.24600048828125,0.01824951171875,-0.9593658447265625,-0.00701904296875
1761379021127055400,1.256055419921875,0.0252685546875,-0.9540557861328125,-0.0103302001953125
1761379021137111300,1.266111328125,0.02508544921875,-0.95428466796875,-0.0052337646484375
1761379021147166200,1.276166259765625,0.0183868408203125,-0.965850830078125,0.0048980712890625
1761379021157222100,1.28622216796875,0.015411376953125,-0.9898681640625,0.0124359130859375
1761379021167278300,1.2962783203125,0.0146636962890625,-1.01995849609375,0.0140380859375
1761379021177333200,1.306333251953125,0.01812744140625,-1.0261688232421875,0.002593994140625
1761379021187389400,1.316389404296875,0.0304107666015625,-1.0167999267578125,-0.0193634033203125
1761379021197444000,1.326444091796875,0.0431671142578125,-1.019073486328125,-0.0408782958984375
1761379021207500300,1.336500244140625,0.0514984130859375,-1.0363616943359375,-0.057952880859375
1761379021217555200,1.34655517578125,0.0450286865234375,-1.038482666015625,-0.061798095703125
1761379021227611400,1.356611328125,0.0335540771484375,-1.0369720458984375,-0.0530548095703125
1761379021237667300,1.366667236328125,0.02899169921875,-1.0440216064453125,-0.033416748046875
1761379021247722500,1.376722412109375,0.0229339599609375,-1.0582427978515625,-0.01922607421875
1761379021257778400,1.3867783203125,0.0225372314453125,-1.0868072509765625,-0.0110015869140625
1761379021267833300,1.396833251953125,0.029754638671875,-1.1112518310546875,-0.0015869140625
1761379021277889300,1.40688916015625,0.024749755859375,-1.1215362548828125,0.0059967041015625
1761379021287944200,1.416944091796875,0.017303466796875,-1.13275146484375,-0.0020294189453125
1761379021298000400,1.42700048828125,0.009063720703125,-1.14715576171875,-0.006103515625
1761379021308056300,1.437056396484375,-0.01220703125,-1.1766815185546875,-0.000701904296875
1761379021318111500,1.447111572265625,-0.0361175537109375,-1.22052001953125,0.0173797607421875
1761379021328167200,1.457167236328125,-0.0709075927734375,-1.24176025390625,0.0354766845703125
1761379021338222300,1.467222412109375,-0.1160736083984375,-1.228790283203125,0.0467987060546875
1761379021348278300,1.4772783203125,-0.16522216796875,-1.19580078125,0.0569915771484375
1761379021358333400,1.48733349609375,-0.1966552734375,-1.1462249755859375,0.0628662109375
1761379021368389400,1.497389404296875,-0.2001190185546875,-1.083099365234375,0.05584716796875
1761379021378445300,1.5074453125,-0.1734619140625,-1.0230712890625,0.03594970703125
1761379021388500200,1.517500244140625,-0.138519287109375,-0.9776763916015625,0.0211181640625
1761379021398556200,1.52755615234375,-0.119110107421875,-0.9401397705078125,0.02264404296875
1761379021408611300,1.537611328125,-0.1153717041015625,-0.917083740234375,0.02313232421875
1761379021418667300,1.547667236328125,-0.106536865234375,-0.916046142578125,0.0326995849609375
1761379021428722400,1.557722412109375,-0.109344482421875,-0.91986083984375,0.053466796875
1761379021438778400,1.5677783203125,-0.1097564697265625,-0.9182586669921875,0.072540283203125
1761379021448834300,1.577834228515625,-0.1033477783203125,-0.909637451171875,0.08648681640625
1761379021458889200,1.58788916015625,-0.095794677734375,-0.8927154541015625,0.0844879150390625
1761379021468945200,1.597945068359375,-0.0709075927734375,-0.8796234130859375,0.0714111328125
1761379021479000300,1.608000244140625,-0.0599212646484375,-0.876495361328125,0.066802978515625
1761379021489056300,1.61805615234375,-0.0537261962890625,-0.8853607177734375,0.064422607421875
1761379021499111400,1.628111328125,-0.0428619384765625,-0.8884429931640625,0.0599365234375
1761379021509167000,1.6381669921875,-0.0365142822265625,-0.887237548828125,0.0502777099609375
1761379021519223300,1.648223388671875,-0.0272674560546875,-0.89794921875,0.0455169677734375
1761379021529278200,1.6582783203125,-0.018829345703125,-0.9098052978515625,0.0457916259765625
1761379021539334400,1.66833447265625,-0.015899658203125,-0.922882080078125,0.045867919921875
1761379021549389300,1.678389404296875,-0.014556884765625,-0.9469757080078125,0.0442047119140625
1761379021559445500,1.688445556640625,-0.0254974365234375,-0.972930908203125,0.037811279296875
1761379021569500200,1.698500244140625,-0.0504913330078125,-0.9930267333984375,0.0315704345703125
1761379021579556400,1.708556396484375,-0.0777130126953125,-1.01739501953125,0.037322998046875
1761379021589612300,1.7186123046875,-0.100433349609375,-1.0338592529296875,0.0440673828125
1761379021599667200,1.728667236328125,-0.1191864013671875,-1.0374298095703125,0.05584716796875
1761379021609723400,1.738723388671875,-0.131103515625,-1.0346527099609375,0.07806396484375
1761379021619778300,1.7487783203125,-0.1269073486328125,-1.02520751953125,0.093841552734375
1761379021629834500,1.75883447265625,-0.116973876953125,-1.00433349609375,0.1048736572265625
1761379021639889200,1.76888916015625,-0.101470947265625,-0.9830322265625,0.107940673828125
1761379021649945300,1.7789453125,-0.0772552490234375,-0.9613800048828125,0.0966796875
1761379021660001300,1.789001220703125,-0.0559844970703125,-0.9390411376953125,0.0752105712890625
1761379021670056400,1.799056396484375,-0.0390777587890625,-0.9119873046875,0.06085205078125
1761379021680112400,1.8091123046875,-0.0248870849609375,-0.9040374755859375,0.0517730712890625
1761379021690167300,1.819167236328125,-0.01202392578125,-0.903900146484375,0.0426483154296875
1761379021700223200,1.82922314453125,-0.0013885498046875,-0.893524169921875,0.023468017578125
1761379021710278400,1.8392783203125,0.0098724365234375,-0.878814697265625,0.01226806640625
1761379021720334300,1.849334228515625,0.0177459716796875,-0.8782501220703125,0.01123046875
1761379021730390300,1.859390380859375,0.022308349609375,-0.8871917724609375,0.017333984375
1761379021740445400,1.869445556640625,0.0181427001953125,-0.9102630615234375,0.0281524658203125
1761379021750501400,1.87950146484375,0.000885009765625,-0.9307708740234375,0.042633056640625
1761379021760556300,1.889556396484375,-0.021087646484375,-0.9526519775390625,0.05511474609375
1761379021770612200,1.8996123046875,-0.04034423828125,-0.970672607421875,0.06512451171875
1761379021780667400,1.90966748046875,-0.056671142578125,-0.9832611083984375,0.0698089599609375
1761379021790723300,1.919723388671875,-0.064483642578125,-0.9906158447265625,0.071563720703125
1761379021800779300,1.929779296875,-0.0544586181640625,-0.9940032958984375,0.0648651123046875
1761379021810834400,1.93983447265625,-0.0476226806640625,-1.00225830078125,0.0556488037109375
1761379021820890000,1.94989013671875,-0.035369873046875,-1.0188140869140625,0.0537109375
1761379021830945300,1.9599453125,-0.0311737060546875,-1.0420989990234375,0.0545501708984375
1761379021841001200,1.970001220703125,-0.0335540771484375,-1.0642852783203125,0.0568389892578125
1761379021851056400,1.980056396484375,-0.0520477294921875,-1.073822021484375,0.0568389892578125
1761379021861112300,1.9901123046875,-0.0693206787109375,-1.097137451171875,0.06365966796875
1761379021871168300,2.000168212890625,-0.0787506103515625,-1.1065521240234375,0.0755462646484375
1761379021881223200,2.01022314453125,-0.09149169921875,-1.0891876220703125,0.0792694091796875
1761379021891279000,2.020279052734375,-0.10003662109375,-1.1031341552734375,0.0789337158203125
1761379021901334300,2.030334228515625,-0.098175048828125,-1.12548828125,0.084747314453125
1761379021911390200,2.04039013671875,-0.085693359375,-1.1293792724609375,0.0739898681640625
1761379021921445400,2.0504453125,-0.062408447265625,-1.1154022216796875,0.0519256591796875
1761379021931497200,2.060497314453125,-0.0435028076171875,-1.1036834716796875,0.026763916015625
1761379021941553200,2.07055322265625,-0.0391387939453125,-1.1010589599609375,0.0035552978515625
1761379021951608000,2.080608154296875,-0.0448760986328125,-1.1050262451171875,-0.0093994140625
1761379021961664300,2.090664306640625,-0.0603790283203125,-1.1193389892578125,-0.0081939697265625
1761379021971719000,2.100718994140625,-0.0863800048828125,-1.1300506591796875,-0.0113525390625
1761379021981775000,2.110775146484375,-0.1113433837890625,-1.1256256103515625,-0.0162811279296875
1761379021991830000,2.120830078125,-0.13946533203125,-1.1341400146484375,-0.0094146728515625
1761379022001886200,2.13088623046875,-0.1681060791015625,-1.1409759521484375,0.0091552734375
1761379022011942100,2.140942138671875,-0.1920623779296875,-1.122528076171875,0.018890380859375
1761379022021997300,2.150997314453125,-0.2069549560546875,-1.0934600830078125,0.0211944580078125
1761379022032053200,2.16105322265625,-0.209503173828125,-1.0537109375,0.018157958984375
1761379022042108200,2.171108154296875,-0.2090301513671875,-1.0091400146484375,0.0131072998046875
1761379022052164000,2.1811640625,-0.1902008056640625,-0.9709320068359375,0.012481689453125
1761379022062219300,2.19121923828125,-0.158355712890625,-0.9369354248046875,0.017608642578125
1761379022072275200,2.201275146484375,-0.1301116943359375,-0.90679931640625,0.0208892822265625
1761379022082330000,2.211330078125,-0.1050567626953125,-0.8897857666015625,0.0242767333984375
1761379022092386300,2.22138623046875,-0.0845489501953125,-0.8862152099609375,0.035003662109375
1761379022102442000,2.23144189453125,-0.0698699951171875,-0.8920135498046875,0.047027587890625
1761379022112497200,2.2414970703125,-0.056610107421875,-0.9009857177734375,0.0565948486328125
1761379022122553000,2.251552978515625,-0.0487518310546875,-0.91326904296875,0.0577392578125
1761379022132608300,2.261608154296875,-0.0455169677734375,-0.9176483154296875,0.0493927001953125
1761379022142664200,2.271664306640625,-0.0447235107421875,-0.9134368896484375,0.0356292724609375
1761379022152719000,2.281718994140625,-0.044921875,-0.912384033203125,0.0172576904296875
1761379022162775000,2.291775146484375,-0.043853759765625,-0.91876220703125,-0.0061798095703125
1761379022172831000,2.3018310546875,-0.05035400390625,-0.9219512939453125,-0.0220794677734375
1761379022182886100,2.31188623046875,-0.0584716796875,-0.9268035888671875,-0.0234832763671875
1761379022192942000,2.321942138671875,-0.0706787109375,-0.9317169189453125,-0.01971435546875
1761379022202997200,2.331997314453125,-0.0719757080078125,-0.92718505859375,-0.0116119384765625
1761379022213053200,2.34205322265625,-0.067626953125,-0.9131927490234375,-0.0030975341796875
1761379022223108000,2.352108154296875,-0.04730224609375,-0.9100341796875,0.002532958984375
1761379022233164000,2.3621640625,-0.0218963623046875,-0.9167633056640625,0.001190185546875
1761379022243220000,2.372219970703125,0.0022430419921875,-0.9206390380859375,-0.003173828125
1761379022253275100,2.382275146484375,0.015411376953125,-0.9276885986328125,-0.01055908203125
1761379022263331000,2.3923310546875,0.0107879638671875,-0.9462127685546875,-0.0143890380859375
1761379022273386200,2.40238623046875,0.0003662109375,-0.9621124267578125,-0.011871337890625
1761379022283442000,2.41244189453125,-0.017333984375,-0.978118896484375,-0.0072174072265625
1761379022293497000,2.4224970703125,-0.03900146484375,-0.9897308349609375,-0.00396728515625
1761379022303553000,2.432552978515625,-0.053680419921875,-0.9886474609375,0.0001678466796875
1761379022313608200,2.442608154296875,-0.05584716796875,-0.987152099609375,0.001373291015625
1761379022323664100,2.4526640625,-0.042877197265625,-0.9862060546875,0.0014495849609375
1761379022333720300,2.46272021484375,-0.01910400390625,-0.97796630859375,-0.00640869140625
1761379022343775000,2.47277490234375,0.0109100341796875,-0.9742431640625,-0.0202789306640625
1761379022353831200,2.4828310546875,0.037017822265625,-0.98492431640625,-0.0253753662109375
1761379022363886000,2.492885986328125,0.0465240478515625,-0.9981536865234375,-0.0196075439453125
1761379022373942000,2.50294189453125,0.0370025634765625,-0.999847412109375,-0.01483154296875
1761379022383997200,2.5129970703125,0.026123046875,-1.0000152587890625,-0.013916015625
1761379022394053000,2.52305322265625,0.011383056640625,-0.9965362548828125,-0.0111236572265625
1761379022404109300,2.533109375,-0.004150390625,-0.9884490966796875,-0.012664794921875
1761379022414164000,2.5431640625,-0.0017852783203125,-0.988006591796875,-0.0142822265625
1761379022424220200,2.55322021484375,0.0030517578125,-1.0055694580078125,-0.007171630859375
1761379022434275000,2.563275146484375,0.0088043212890625,-1.01690673828125,0.0060272216796875
1761379022444331300,2.573331298828125,0.0168609619140625,-1.029205322265625,0.0161285400390625
1761379022454386200,2.58338623046875,0.02398681640625,-1.0487213134765625,0.0207977294921875
1761379022464442400,2.5934423828125,0.017822265625,-1.0566864013671875,0.0155487060546875
1761379022474497000,2.6034970703125,0.002197265625,-1.0629425048828125,0.0092620849609375
1761379022484553200,2.61355322265625,-0.0159149169921875,-1.0720062255859375,0.004547119140625
1761379022494609200,2.623609130859375,-0.03570556640625,-1.0711212158203125,-0.002044677734375
1761379022504664000,2.6336640625,-0.0548095703125,-1.0680999755859375,-0.00274658203125
1761379022514720300,2.64372021484375,-0.0707855224609375,-1.0653076171875,-0.0009765625
1761379022524775000,2.65377490234375,-0.08489990234375,-1.08172607421875,-0.0022125244140625
1761379022534831000,2.6638310546875,-0.0792083740234375,-1.110137939453125,0.0017242431640625
1761379022544886000,2.673885986328125,-0.080291748046875,-1.1295013427734375,0.0069122314453125
1761379022554942200,2.683942138671875,-0.0823516845703125,-1.1313018798828125,0.0108489990234375
1761379022564997000,2.6939970703125,-0.088836669921875,-1.1168975830078125,0.0115509033203125
1761379022575053300,2.70405322265625,-0.0904693603515625,-1.10400390625,0.00653076171875
1761379022585109200,2.714109130859375,-0.0816802978515625,-1.092620849609375,-0.0005340576171875
1761379022595164200,2.7241640625,-0.07891845703125,-1.0746307373046875,-0.0003509521484375
1761379022605220000,2.73422021484375,-0.08160400390625,-1.0600433349609375,0.008819580078125
1761379022615275300,2.744275146484375,-0.0840911865234375,-1.0443572998046875,0.0136566162109375
1761379022625331200,2.754331298828125,-0.08734130859375,-1.0299530029296875,0.0142974853515625
1761379022635386000,2.76438623046875,-0.0809783935546875,-1.0183563232421875,0.00921630859375
1761379022645442300,2.7744423828125,-0.086822509765625,-1.025604248046875,0.0039520263671875
1761379022655498000,2.784498046875,-0.093017578125,-1.042633056640625,0.0068817138671875
1761379022665553200,2.79455322265625,-0.1071624755859375,-1.04150390625,0.011932373046875
1761379022675609000,2.804609130859375,-0.1148681640625,-1.04132080078125,0.0177764892578125
1761379022685664300,2.814664306640625,-0.1237030029296875,-1.0509796142578125,0.0301055908203125
1761379022695720200,2.82472021484375,-0.1328277587890625,-1.056854248046875,0.0395660400390625
1761379022705775000,2.834775146484375,-0.1481781005859375,-1.056549072265625,0.0471343994140625
1761379022715831000,2.8448310546875,-0.163177490234375,-1.0483856201171875,0.0535736083984375
1761379022725886200,2.85488623046875,-0.1717071533203125,-1.0217132568359375,0.0539093017578125
1761379022735942100,2.864942138671875,-0.1756744384765625,-0.977294921875,0.044647216796875
1761379022745998000,2.874998046875,-0.17120361328125,-0.9278717041015625,0.034027099609375
1761379022756053200,2.88505322265625,-0.159454345703125,-0.882659912109375,0.02392578125
1761379022766109200,2.895109130859375,-0.136566162109375,-0.850311279296875,0.0132598876953125
1761379022776164000,2.9051640625,-0.10516357421875,-0.8336639404296875,0.0115203857421875
1761379022786220000,2.915219970703125,-0.077392578125,-0.840362548828125,0.0228424072265625
1761379022796275200,2.925275146484375,-0.0542144775390625,-0.8629150390625,0.03253173828125
1761379022806331100,2.9353310546875,-0.04803466796875,-0.8875885009765625,0.0404510498046875
1761379022816387000,2.945386962890625,-0.056549072265625,-0.906829833984375,0.04473876953125
1761379022826442200,2.955442138671875,-0.064849853515625,-0.921966552734375,0.0396728515625
1761379022836498000,2.965497802734375,-0.0799560546875,-0.924896240234375,0.029937744140625
1761379022846553000,2.975552978515625,-0.0960845947265625,-0.9169769287109375,0.0257415771484375
1761379022856609000,2.985609130859375,-0.1028289794921875,-0.9184722900390625,0.02716064453125
1761379022866664200,2.995664306640625,-0.0933685302734375,-0.92529296875,0.0309600830078125
1761379022876720000,3.00572021484375,-0.0823974609375,-0.9251251220703125,0.0331878662109375
1761379022886775300,3.015775390625,-0.07379150390625,-0.9352569580078125,0.0389556884765625
1761379022896831000,3.0258310546875,-0.066192626953125,-0.9489593505859375,0.0442047119140625
1761379022906887200,3.03588720703125,-0.07421875,-0.9620208740234375,0.0474395751953125
1761379022916942000,3.045942138671875,-0.0889892578125,-0.972442626953125,0.05596923828125
1761379022926998000,3.055998046875,-0.0991668701171875,-0.976409912109375,0.061004638671875
1761379022937053700,3.0660537109375,-0.098876953125,-0.97698974609375,0.06146240234375
1761379022947109600,3.076109619140625,-0.08544921875,-0.9709930419921875,0.0550994873046875
1761379022957164500,3.08616455078125,-0.06396484375,-0.9569091796875,0.0464935302734375
1761379022967220500,3.096220458984375,-0.04022216796875,-0.9404296875,0.0401763916015625
1761379022977275600,3.106275634765625,-0.0248870849609375,-0.940704345703125,0.03375244140625
1761379022987331600,3.11633154296875,-0.02191162109375,-0.9456634521484375,0.033355712890625
1761379022997387500,3.126387451171875,-0.029937744140625,-0.9450531005859375,0.033172607421875
1761379023007442700,3.136442626953125,-0.028533935546875,-0.955230712890625,0.0321807861328125
1761379023017498600,3.14649853515625,-0.0274810791015625,-0.9642791748046875,0.03173828125
1761379023027553500,3.156553466796875,-0.025726318359375,-0.966796875,0.0298004150390625
1761379023037609500,3.166609375,-0.02117919921875,-0.962249755859375,0.0269317626953125
1761379023047664600,3.17666455078125,-0.015106201171875,-0.967987060546875,0.033599853515625
1761379023057720600,3.186720458984375,-0.006866455078125,-0.9723358154296875,0.043121337890625
1761379023067775700,3.196775634765625,0.001861572265625,-0.9724273681640625,0.0424041748046875
1761379023077831700,3.206831787109375,0.00653076171875,-0.975372314453125,0.04296875
1761379023087887600,3.2168876953125,0.006561279296875,-0.979705810546875,0.0451507568359375
1761379023097942500,3.226942626953125,0.0034942626953125,-0.9895477294921875,0.046234130859375
1761379023107998700,3.236998779296875,-0.000335693359375,-1.0077056884765625,0.044677734375
1761379023118053600,3.2470537109375,-0.002197265625,-1.024078369140625,0.0410919189453125
1761379023128109600,3.257109619140625,-0.007171630859375,-1.040618896484375,0.0332489013671875
1761379023138164500,3.26716455078125,-0.00811767578125,-1.059173583984375,0.029022216796875
1761379023148220400,3.277220458984375,-0.0103759765625,-1.072662353515625,0.0302276611328125
1761379023158275600,3.287275634765625,-0.0169219970703125,-1.084014892578125,0.03271484375
1761379023168331500,3.29733154296875,-0.02105712890625,-1.085723876953125,0.0366973876953125
1761379023178387700,3.3073876953125,-0.0223236083984375,-1.076690673828125,0.0378265380859375
1761379023188442600,3.317442626953125,-0.0251922607421875,-1.083465576171875,0.0331573486328125
1761379023198498800,3.327498779296875,-0.03302001953125,-1.1031646728515625,0.0339202880859375
1761379023208553500,3.337553466796875,-0.037689208984375,-1.1165008544921875,0.03070068359375
1761379023218609700,3.347609619140625,-0.0353851318359375,-1.1207275390625,0.0237579345703125
1761379023228664600,3.35766455078125,-0.03143310546875,-1.1250762939453125,0.0191650390625
1761379023238720800,3.367720703125,-0.0283966064453125,-1.121612548828125,0.0081787109375
1761379023248775700,3.377775634765625,-0.0282135009765625,-1.104095458984375,-0.0048675537109375
1761379023258831600,3.38783154296875,-0.04425048828125,-1.0826568603515625,-0.0152435302734375
1761379023268887600,3.397887451171875,-0.00360107421875,-1.0663299560546875,-0.0133209228515625
1761379023278942500,3.4079423828125,-0.0327911376953125,-1.0438690185546875,-0.03607177734375
1761379023288998700,3.41799853515625,-0.014129638671875,-1.0316162109375,-0.0406341552734375
1761379023299053600,3.428053466796875,-0.03375244140625,-1.0455780029296875,-0.0388946533203125
1761379023309109800,3.43810986328125,-0.053985595703125,-1.04510498046875,-0.0251007080078125
1761379023319164700,3.44816455078125,-0.0745697021484375,-1.05181884765625,-0.0135955810546875
1761379023329220600,3.458220703125,-0.079132080078125,-1.0616607666015625,-0.0086212158203125
1761379023339275500,3.468275634765625,-0.076385498046875,-1.058837890625,-0.00689697265625
1761379023349331700,3.478331787109375,-0.076263427734375,-1.0433349609375,-0.004913330078125
1761379023359387600,3.4883876953125,-0.0775146484375,-1.018402099609375,-0.003936767578125
1761379023369442800,3.49844287109375,-0.0831756591796875,-0.9922027587890625,-0.0041656494140625
1761379023379498800,3.508498779296875,-0.0936126708984375,-0.9729156494140625,0.0006256103515625
1761379023389553700,3.5185537109375,-0.10968017578125,-0.9556884765625,0.0110015869140625
1761379023399609600,3.528609619140625,-0.1177520751953125,-0.9437255859375,0.020111083984375
1761379023409664500,3.53866455078125,-0.110931396484375,-0.9453582763671875,0.02886962890625
1761379023419720700,3.548720703125,-0.09130859375,-0.9589385986328125,0.037139892578125
1761379023429775600,3.558775634765625,-0.0692901611328125,-0.962432861328125,0.0399169921875
1761379023439831800,3.568831787109375,-0.057403564453125,-0.9598388671875,0.035980224609375
1761379023449887700,3.5788876953125,-0.0534210205078125,-0.960906982421875,0.0291290283203125
1761379023459942700,3.588942626953125,-0.0643310546875,-0.962554931640625,0.0216827392578125
1761379023469998600,3.59899853515625,-0.078216552734375,-0.9649658203125,0.0108184814453125
1761379023480053800,3.6090537109375,-0.0892791748046875,-0.9596405029296875,-0.0014190673828125
1761379023490109700,3.619109619140625,-0.0869293212890625,-0.94915771484375,-0.007232666015625
1761379023500164900,3.629164794921875,-0.0749359130859375,-0.948577880859375,-0.0063934326171875
1761379023510220500,3.639220458984375,-0.0573272705078125,-0.9505615234375,-0.0007476806640625
1761379023520275700,3.649275634765625,-0.04254150390625,-0.9548492431640625,0.00732421875
1761379023530331600,3.65933154296875,-0.0243682861328125,-0.964202880859375,0.0082855224609375
1761379023540387600,3.6693876953125,-0.0169525146484375,-0.965057373046875,0.00006103515625
1761379023550442800,3.67944287109375,-0.0167083740234375,-0.96600341796875,-0.0122222900390625
1761379023560498700,3.689498779296875,-0.023162841796875,-0.96478271484375,-0.027862548828125
1761379023570553600,3.6995537109375,-0.03277587890625,-0.95513916015625,-0.0377044677734375
1761379023580609500,3.709609619140625,-0.041290283203125,-0.9425811767578125,-0.0419921875
1761379023590664700,3.719664794921875,-0.041168212890625,-0.9316558837890625,-0.0387115478515625
1761379023600720600,3.729720703125,-0.029937744140625,-0.9339141845703125,-0.02130126953125
1761379023610775800,3.73977587890625,-0.01812744140625,-0.936981201171875,-0.0000152587890625
1761379023620831700,3.749831787109375,-0.0095672607421875,-0.9423980712890625,0.0177001953125
1761379023630886700,3.75988671875,-0.0050506591796875,-0.9449310302734375,0.031341552734375
1761379023640942600,3.769942626953125,-0.00567626953125,-0.9424285888671875,0.040863037109375
1761379023650998500,3.77999853515625,-0.0043182373046875,-0.94146728515625,0.0458984375
1761379023661053700,3.7900537109375,0.0002899169921875,-0.9401702880859375,0.043121337890625
1761379023671109600,3.800109619140625,0.0101470947265625,-0.9337615966796875,0.031646728515625
1761379023681164800,3.810164794921875,0.0134429931640625,-0.92510986328125,0.0209503173828125
1761379023691220500,3.820220458984375,0.0189361572265625,-0.9311370849609375,0.0116119384765625
1761379023701275600,3.830275634765625,0.0216217041015625,-0.939849853515625,0.0014495849609375
1761379023711331600,3.84033154296875,0.016876220703125,-0.943359375,-0.0069580078125
1761379023721386800,3.85038671875,0.01165771484375,-0.9549560546875,-0.010162353515625
1761379023731442700,3.860442626953125,0.0125885009765625,-0.96722412109375,-0.0117950439453125
1761379023741498600,3.87049853515625,0.01837158203125,-0.975677490234375,-0.0126495361328125
1761379023751553500,3.880553466796875,0.03240966796875,-0.9909515380859375,-0.011444091796875
1761379023761609500,3.890609375,0.047515869140625,-1.0094757080078125,-0.0082550048828125
1761379023771664600,3.90066455078125,0.0441436767578125,-1.0270233154296875,-0.000091552734375
1761379023781720600,3.910720458984375,0.025909423828125,-1.0467987060546875,0.0099639892578125
1761379023791775700,3.920775634765625,0.01220703125,-1.062469482421875,0.007843017578125
1761379023801831700,3.930831787109375,0.0059661865234375,-1.0708160400390625,-0.0037384033203125
1761379023811886600,3.940886474609375,-0.0027313232421875,-1.0721588134765625,-0.0134429931640625
1761379023821942500,3.950942626953125,-0.0079803466796875,-1.068328857421875,-0.0165557861328125
1761379023831998500,3.96099853515625,-0.0021820068359375,-1.0580291748046875,-0.01910400390625
1761379023842053600,3.9710537109375,0.0173187255859375,-1.04254150390625,-0.016754150390625
1761379023852109600,3.981109619140625,0.039642333984375,-1.0354766845703125,-0.0128173828125
1761379023862164700,3.991164794921875,0.0647125244140625,-1.0394439697265625,-0.0171356201171875
1761379023872220700,4.001220703125,0.0870208740234375,-1.0495147705078125,-0.0155792236328125
1761379023882275600,4.011275634765625,0.0904388427734375,-1.073760986328125,-0.00885009765625
1761379023892331500,4.02133154296875,0.07220458984375,-1.0879974365234375,-0.003875732421875
1761379023902386700,4.03138671875,0.0382080078125,-1.1064910888671875,-0.0030059814453125
1761379023912442600,4.041442626953125,0.010223388671875,-1.1181793212890625,-0.005706787109375
1761379023922498800,4.051498779296875,-0.019256591796875,-1.119415283203125,-0.00433349609375
1761379023932557000,4.06155712890625,-0.0500030517578125,-1.108306884765625,-0.0047607421875
1761379023942613200,4.07161328125,-0.0698089599609375,-1.0810394287109375,-0.0062408447265625
1761379023952668200,4.081668212890625,-0.0733795166015625,-1.05487060546875,-0.0088958740234375
1761379023962724000,4.09172412109375,-0.052886962890625,-1.032745361328125,-0.0085601806640625
1761379023972776200,4.101776123046875,-0.024688720703125,-1.02001953125,-0.00421142578125
1761379023982832000,4.11183203125,0.000335693359375,-1.017791748046875,0.006195068359375
1761379023992888300,4.121888427734375,0.01214599609375,-1.0194549560546875,0.0194091796875
1761379024002943200,4.131943115234375,0.0108795166015625,-1.024383544921875,0.0308990478515625
1761379024012999400,4.14199951171875,-0.0041351318359375,-1.0359344482421875,0.031097412109375
1761379024023054000,4.15205419921875,-0.0209808349609375,-1.0331573486328125,0.027099609375
1761379024033110000,4.162110107421875,-0.0357666015625,-1.019989013671875,0.0210113525390625
1761379024043165200,4.172165283203125,-0.0398406982421875,-1.019073486328125,0.01580810546875
1761379024053221000,4.18222119140625,-0.05859375,-1.021148681640625,0.0164031982421875
1761379024063276300,4.1922763671875,-0.0734100341796875,-1.015106201171875,0.0169677734375
1761379024073332000,4.20233203125,-0.0815277099609375,-1.008270263671875,0.012786865234375
1761379024083388200,4.21238818359375,-0.0658721923828125,-0.995758056640625,0.003814697265625
1761379024093443000,4.222443115234375,-0.0458221435546875,-0.97283935546875,-0.0059356689453125
1761379024103499300,4.232499267578125,-0.026580810546875,-0.9480133056640625,-0.007049560546875
1761379024113554200,4.24255419921875,-0.0083770751953125,-0.938385009765625,-0.00360107421875
1761379024123610400,4.2526103515625,0.007598876953125,-0.9361724853515625,0.0038604736328125
1761379024133665000,4.2626650390625,0.0034942626953125,-0.9324798583984375,0.0075225830078125
1761379024143721200,4.27272119140625,-0.0140533447265625,-0.934722900390625,0.01300048828125
1761379024153777200,4.282777099609375,-0.0314788818359375,-0.932708740234375,0.0265960693359375
1761379024163832000,4.29283203125,-0.0469818115234375,-0.932952880859375,0.0364532470703125
1761379024173888300,4.30288818359375,-0.0485992431640625,-0.9446868896484375,0.0452728271484375
1761379024183943200,4.312943115234375,-0.042755126953125,-0.9595184326171875,0.052886962890625
1761379024193999400,4.322999267578125,-0.0296630859375,-0.9732513427734375,0.0551300048828125
1761379024204054000,4.333053955078125,-0.017547607421875,-0.9852752685546875,0.053863525390625
1761379024214110200,4.343110107421875,-0.0162353515625,-0.990936279296875,0.0478668212890625
1761379024224165000,4.3531650390625,-0.025146484375,-0.9978485107421875,0.03912353515625
1761379024234221300,4.36322119140625,-0.0310211181640625,-0.99749755859375,0.02996826171875
1761379024244276200,4.373276123046875,-0.0397186279296875,-0.9886016845703125,0.0176544189453125
1761379024254332200,4.383332275390625,-0.036712646484375,-0.9857635498046875,0.00933837890625
1761379024264388000,4.39338818359375,-0.0319976806640625,-0.9813995361328125,0.006317138671875
1761379024274443300,4.403443359375,-0.02850341796875,-0.978240966796875,0.006591796875
1761379024284499200,4.413499267578125,-0.0276031494140625,-0.976043701171875,0.0084991455078125
1761379024294554000,4.42355419921875,-0.03399658203125,-0.97802734375,0.013641357421875
1761379024304610300,4.4336103515625,-0.0422821044921875,-0.9865570068359375,0.019561767578125
1761379024314665000,4.4436650390625,-0.051727294921875,-0.9891357421875,0.01947021484375
1761379024324721200,4.45372119140625,-0.063446044921875,-0.9825439453125,0.020416259765625
1761379024334777000,4.463777099609375,-0.0645904541015625,-0.972564697265625,0.0198822021484375
1761379024344832300,4.473832275390625,-0.0530548095703125,-0.9586334228515625,0.0205230712890625
1761379024354888200,4.48388818359375,-0.0356292724609375,-0.94580078125,0.021087646484375
1761379024364943400,4.493943359375,-0.015380859375,-0.9387664794921875,0.0298309326171875
1761379024375001000,4.5040009765625,-0.0023040771484375,-0.942108154296875,0.04046630859375
1761379024385056300,4.51405615234375,0.012847900390625,-0.947662353515625,0.042755126953125
1761379024395112200,4.5241123046875,0.022430419921875,-0.9527130126953125,0.0450286865234375
1761379024405167000,4.5341669921875,0.0256500244140625,-0.960784912109375,0.050628662109375
1761379024415223000,4.54422314453125,0.024017333984375,-0.965545654296875,0.054473876953125
1761379024425278200,4.5542783203125,0.019195556640625,-0.9692535400390625,0.0554046630859375
1761379024435334100,4.564334228515625,0.0188140869140625,-0.975128173828125,0.05157470703125
1761379024445390300,4.574390380859375,0.0124053955078125,-0.974212646484375,0.0384979248046875
1761379024455445200,4.5844453125,0.01043701171875,-0.9678192138671875,0.0240020751953125
1761379024465501200,4.594501220703125,0.0099945068359375,-0.9654541015625,0.0095977783203125
1761379024475556000,4.60455615234375,0.0152587890625,-0.9685211181640625,0.00543212890625
1761379024485612000,4.614612060546875,0.0247802734375,-0.9743804931640625,0.0079498291015625
1761379024495667200,4.624667236328125,0.034576416015625,-0.9810333251953125,0.0084381103515625
1761379024505723100,4.63472314453125,0.044036865234375,-0.98699951171875,0.0116729736328125
1761379024515778000,4.644778076171875,0.052337646484375,-0.9925994873046875,0.0117645263671875
1761379024525834000,4.654833984375,0.0572967529296875,-0.99676513671875,0.009674072265625
1761379024535890200,4.66489013671875,0.0621490478515625,-1.0019683837890625,0.002410888671875
1761379024545945000,4.674945068359375,0.057952880859375,-1.0041046142578125,-0.000701904296875
1761379024556001300,4.685001220703125,0.0481719970703125,-1.0114593505859375,-0.0039215087890625
1761379024566056200,4.69505615234375,0.0403594970703125,-1.0178375244140625,-0.008392333984375
1761379024576112400,4.7051123046875,0.0339813232421875,-1.0267791748046875,-0.01068115234375
1761379024586167000,4.7151669921875,0.0383148193359375,-1.0274810791015625,-0.0147705078125
1761379024596223200,4.72522314453125,0.049591064453125,-1.0199432373046875,-0.015472412109375
1761379024606278100,4.735278076171875,0.0637969970703125,-1.01690673828125,-0.0089874267578125
1761379024616334000,4.745333984375,0.081573486328125,-1.0098876953125,0.00323486328125
1761379024626390300,4.755390380859375,0.0908050537109375,-1.01141357421875,0.0118408203125
1761379024636445200,4.765445068359375,0.087890625,-1.030120849609375,0.0161285400390625
1761379024646501000,4.775501220703125,0.079833984375,-1.0515289306640625,0.0174560546875
1761379024656556000,4.78555615234375,0.067596435546875,-1.0602569580078125,0.0068359375
1761379024666612200,4.7956123046875,0.0502166748046875,-1.061553955078125,-0.004486083984375
1761379024676667100,4.805667236328125,0.0381622314453125,-1.0655364990234375,-0.01165771484375
1761379024686723300,4.815723388671875,0.0314178466796875,-1.067230224609375,-0.0171051025390625
1761379024696779300,4.825779296875,0.02349853515625,-1.0646209716796875,-0.0202789306640625
1761379024706834200,4.835834228515625,0.0169830322265625,-1.055450439453125,-0.0214080810546875
1761379024716890000,4.84589013671875,0.0149688720703125,-1.0406951904296875,-0.0189666748046875
1761379024726945300,4.8559453125,0.0190277099609375,-1.0309600830078125,-0.0162506103515625
1761379024737001200,4.866001220703125,0.0230255126953125,-1.026824951171875,-0.0102386474609375
1761379024747056000,4.87605615234375,0.0284881591796875,-1.0243072509765625,-0.0036773681640625
1761379024757112300,4.8861123046875,0.0261383056640625,-1.0249176025390625,-0.0030517578125
1761379024767167000,4.8961669921875,0.0245513916015625,-1.031524658203125,-0.00445556640625
1761379024777223200,4.90622314453125,0.01922607421875,-1.031280517578125,-0.008026123046875
1761379024787278000,4.916278076171875,0.008819580078125,-1.03131103515625,-0.0154876708984375
1761379024797334300,4.926334228515625,-0.0058746337890625,-1.028411865234375,-0.0196075439453125
1761379024807390200,4.93639013671875,-0.0195465087890625,-1.019989013671875,-0.021331787109375
1761379024817445400,4.9464453125,-0.0275421142578125,-1.009796142578125,-0.0206146240234375
1761379024827501300,4.956501220703125,-0.0347747802734375,-1.0006103515625,-0.017486572265625
1761379024837556200,4.96655615234375,-0.03497314453125,-0.9959869384765625,-0.0132598876953125
1761379024847612200,4.976612060546875,-0.03363037109375,-0.995391845703125,-0.00775146484375
1761379024857667300,4.986667236328125,-0.0387725830078125,-0.9941253662109375,-0.0033111572265625
1761379024867723300,4.99672314453125,-0.0470428466796875,-0.98974609375,-0.005279541015625
1761379024877779200,5.006779296875,-0.0491943359375,-0.9772796630859375,-0.0114898681640625
1761379024887834000,5.016834228515625,-0.0499725341796875,-0.966583251953125,-0.0157928466796875
1761379024897890000,5.02689013671875,-0.0584869384765625,-0.9648590087890625,-0.0151214599609375
1761379024907945200,5.0369453125,-0.07110595703125,-0.973236083984375,-0.013763427734375
1761379024918001200,5.047001220703125,-0.080230712890625,-0.968231201171875,-0.0160675048828125
1761379024928056300,5.057056396484375,-0.0790863037109375,-0.9585418701171875,-0.022857666015625
1761379024938112500,5.067112548828125,-0.0672607421875,-0.964691162109375,-0.022125244140625
1761379024948168400,5.07716845703125,-0.053375244140625,-0.97308349609375,-0.0198822021484375
1761379024958223600,5.0872236328125,-0.0416717529296875,-0.9676513671875,-0.0215911865234375
1761379024968279600,5.097279541015625,-0.03106689453125,-0.9559783935546875,-0.0264129638671875
1761379024978334500,5.10733447265625,-0.0141448974609375,-0.9526214599609375,-0.0329742431640625
1761379024988390400,5.117390380859375,-0.00677490234375,-0.959259033203125,-0.0338897705078125
1761379024998445600,5.127445556640625,-0.00384521484375,-0.9759368896484375,-0.0330963134765625
1761379025008501500,5.13750146484375,-0.002655029296875,-0.9795074462890625,-0.03778076171875
1761379025018556700,5.147556640625,-0.0078125,-0.9766998291015625,-0.0407562255859375
1761379025028612600,5.157612548828125,-0.0136871337890625,-0.9884490966796875,-0.0443572998046875
1761379025038668300,5.167668212890625,-0.02252197265625,-0.9923858642578125,-0.0459442138671875
1761379025048723500,5.177723388671875,-0.01654052734375,-0.9899444580078125,-0.048797607421875
1761379025058779400,5.187779296875,-0.011871337890625,-0.986419677734375,-0.0604705810546875
1761379025068834600,5.19783447265625,-0.0139007568359375,-0.9810333251953125,-0.0641937255859375
1761379025078890500,5.207890380859375,-0.0123443603515625,-0.978912353515625,-0.0609893798828125
1761379025088945700,5.217945556640625,-0.00823974609375,-0.9744415283203125,-0.0579071044921875
1761379025099001300,5.22800146484375,-0.011138916015625,-0.968505859375,-0.054901123046875
1761379025109056500,5.238056396484375,-0.0038299560546875,-0.963134765625,-0.05377197265625
1761379025119112400,5.248112548828125,-0.0010528564453125,-0.955810546875,-0.04437255859375
1761379025129168400,5.25816845703125,-0.002105712890625,-0.9584197998046875,-0.02593994140625
1761379025139223600,5.2682236328125,-0.003082275390625,-0.962677001953125,-0.004852294921875
1761379025149279500,5.278279541015625,-0.000030517578125,-0.9611663818359375,0.00982666015625
1761379025159334400,5.28833447265625,0.004730224609375,-0.959075927734375,0.0146331787109375
1761379025169390300,5.298390380859375,0.006072998046875,-0.95721435546875,0.0121612548828125
