time,seconds_elapsed,z,y,x
1761379019940493800,0.069493896484375,0.04092506319284439,0.031065773218870163,-0.006691192276775837
1761379019950549800,0.0795498046875,0.060921940952539444,-0.0016937704058364034,-0.0036250948905944824
1761379019960605000,0.08960498046875,0.055030763149261475,-0.0028192223981022835,0.01992310769855976
1761379019970660900,0.099660888671875,0.024706412106752396,0.01745329238474369,0.05974295735359192
1761379019980717000,0.109717041015625,-0.013137373141944408,0.030376281589269638,0.09446258842945099
1761379019990772000,0.11977197265625,-0.044141627848148346,0.054063234478235245,0.10722445696592331
1761379020000828000,0.129827880859375,-0.07218338549137115,0.0590987391769886,0.09368707984685898
1761379020010882800,0.1398828125,-0.07754725217819214,0.04836487025022507,0.058391403406858444
1761379020020938800,0.149938720703125,-0.07250162959098816,0.04384894669055939,0.014489993453025818
1761379020030994000,0.159993896484375,-0.06149718165397644,0.04747191071510315,-0.027545873075723648
1761379020041049900,0.1700498046875,-0.051362790167331696,0.05161712318658829,-0.06427965313196182
1761379020051106000,0.18010595703125,-0.03488421440124512,0.04866713657975197,-0.09318932890892029
1761379020061161000,0.190160888671875,-0.018850119784474373,0.03298644721508026,-0.11852025240659714
1761379020071217000,0.200216796875,-0.017979532480239868,0.018800053745508194,-0.13662602007389069
1761379020081271800,0.210271728515625,-0.03196112811565399,-0.038359906524419785,-0.14741076529026031
1761379020091328000,0.220327880859375,-0.04100123047828674,-0.008444617502391338,-0.16025492548942566
1761379020101383000,0.2303828125,-0.06904111802577972,-0.0013456953456625342,-0.18300630152225494
1761379020111439000,0.240439208984375,-0.09892844408750534,0.020177707076072693,-0.1947188824415207
1761379020121495000,0.2504951171875,-0.11774687469005585,0.05585607513785362,-0.18516239523887634
1761379020131550000,0.260550048828125,-0.10971157997846603,0.06667596846818924,-0.15020787715911865
1761379020141606000,0.27060595703125,-0.07238258421421051,0.05535992980003357,-0.10559380054473877
1761379020151660800,0.280660888671875,-0.018306037411093712,0.026011094450950623,-0.07504335045814514
1761379020161717000,0.290717041015625,0.037048034369945526,0.0005941512063145638,-0.05663664638996124
1761379020171772000,0.30077197265625,0.06463412195444107,-0.012714463286101818,-0.0623302198946476
1761379020181828000,0.310828125,0.07563057541847229,-0.00569916469976306,-0.0921429768204689
1761379020191884000,0.320884033203125,0.07346143573522568,0.010321879759430885,-0.12399118393659592
1761379020201939000,0.33093896484375,0.04971881955862045,0.01895185373723507,-0.14319629967212677
1761379020211995000,0.340994873046875,0.012432168237864971,0.018741464242339134,-0.15506654977798462
1761379020222050000,0.351050048828125,-0.0057074204087257385,0.019356120377779007,-0.15682156383991241
1761379020232106000,0.36110595703125,0.002367816399782896,0.019401393830776215,-0.15334348380565643
1761379020242161200,0.3711611328125,0.02189597859978676,0.031678568571805954,-0.1467452347278595
1761379020252216800,0.381216796875,0.049967825412750244,0.03925099968910217,-0.12943415343761444
1761379020262272800,0.391272705078125,0.07339592278003693,0.027357587590813637,-0.1000368520617485
1761379020272328000,0.401327880859375,0.09296589344739914,0.018500180914998055,-0.07386783510446548
1761379020282384000,0.4113837890625,0.09420718997716904,0.007591607049107552,-0.06694068759679794
1761379020292439000,0.42143896484375,0.08228741586208344,-0.022598786279559135,-0.07875952869653702
1761379020302495000,0.431494873046875,0.07254104316234589,-0.05265548825263977,-0.1050017848610878
1761379020312551000,0.441551025390625,0.056416936218738556,-0.08355721086263657,-0.13999491930007935
1761379020322605800,0.451605712890625,0.03912636265158653,-0.11004208028316498,-0.1796986609697342
1761379020332661800,0.461661865234375,0.022065887227654457,-0.12207264453172684,-0.20752735435962677
1761379020342717000,0.471717041015625,0.012986105866730213,-0.11133371293544769,-0.1944965124130249
1761379020352772900,0.48177294921875,-0.005993976723402739,-0.09531879425048828,-0.1257755011320114
1761379020362828000,0.491828125,-0.028376514092087746,-0.08842679858207703,-0.023629428818821907
1761379020372884000,0.501884033203125,-0.05174894630908966,-0.08223415166139603,0.08346480131149292
1761379020382940000,0.51193994140625,-0.06045881658792496,-0.0790354311466217,0.16226480901241302
1761379020392994800,0.521994873046875,-0.058764778077602386,-0.0914878398180008,0.20756863057613373
1761379020403051000,0.532051025390625,-0.03472628816962242,-0.11000213772058487,0.21099665760993958
1761379020413106000,0.54210595703125,0.0004063983797095716,-0.15237542986869812,0.18799999356269836
1761379020423161900,0.552161865234375,0.03238856419920921,-0.18476691842079163,0.1634104996919632
1761379020433216800,0.562216796875,0.053763095289468765,-0.20583252608776093,0.1507948338985443
1761379020443272700,0.572272705078125,0.048764877021312714,-0.2342013120651245,0.15716564655303955
1761379020453329000,0.582328857421875,0.036130309104919434,-0.2534293234348297,0.17408019304275513
1761379020463383800,0.5923837890625,0.008595618419349194,-0.25857216119766235,0.19509918987751007
1761379020473440000,0.60243994140625,-0.021621139720082283,-0.28168946504592896,0.20494462549686432
1761379020483495000,0.612494873046875,-0.03190094232559204,-0.30541664361953735,0.203792542219162
1761379020493551000,0.622551025390625,-0.041613757610321045,-0.31719687581062317,0.18266302347183228
1761379020503605800,0.632605712890625,-0.050697531551122665,-0.30688509345054626,0.1550138145685196
1761379020513662000,0.642661865234375,-0.057566624134778976,-0.28070810437202454,0.1392340511083603
1761379020523718000,0.6527177734375,-0.05951951816678047,-0.24952806532382965,0.15190431475639343
1761379020533773000,0.66277294921875,-0.04864050820469856,-0.2504473924636841,0.18037191033363342
1761379020543829000,0.6728291015625,-0.03346794471144676,-0.28543707728385925,0.20957453548908234
1761379020553884000,0.6828837890625,-0.018512165173888206,-0.3267536163330078,0.2058975100517273
1761379020563939800,0.69293994140625,-0.029625270515680313,-0.34820619225502014,0.15368570387363434
1761379020573994800,0.702994873046875,-0.07507051527500153,-0.358907550573349,0.048828791826963425
1761379020584051000,0.713051025390625,-0.13378895819187164,-0.3588939905166626,-0.09010672569274902
1761379020594107000,0.72310693359375,-0.1851397603750229,-0.35888171195983887,-0.2489994317293167
1761379020604162000,0.733162109375,-0.23012587428092957,-0.3496711850166321,-0.3655439019203186
1761379020614218000,0.743218017578125,-0.261099249124527,-0.32936856150627136,-0.4107385277748108
1761379020624273000,0.75327294921875,-0.2816367447376251,-0.30764251947402954,-0.3769177198410034
1761379020634328800,0.763328857421875,-0.27635037899017334,-0.29575788974761963,-0.2894829511642456
1761379020644384800,0.773384765625,-0.24581056833267212,-0.31351903080940247,-0.16913416981697083
1761379020654440000,0.78343994140625,-0.1971687227487564,-0.35029569268226624,-0.05377454683184624
1761379020664495900,0.793495849609375,-0.14411082863807678,-0.3882766366004944,0.03164447844028473
1761379020674551000,0.803551025390625,-0.08839431405067444,-0.4165647327899933,0.08854983747005463
1761379020684607000,0.81360693359375,-0.04261510446667671,-0.4353216290473938,0.10275833308696747
1761379020694662000,0.823661865234375,0.002927346620708704,-0.4264964461326599,0.08512714505195618
1761379020704717800,0.8337177734375,0.039613988250494,-0.3903656303882599,0.06966829299926758
1761379020714774000,0.84377392578125,0.05035345256328583,-0.3576955497264862,0.08859165012836456
1761379020724829000,0.853828857421875,0.02419987879693508,-0.29982081055641174,0.14238084852695465
1761379020734884900,0.863884765625,-0.030520625412464142,-0.24014762043952942,0.20734360814094543
1761379020744940000,0.87393994140625,-0.0911240503191948,-0.18534056842327118,0.2698628902435303
1761379020754995700,0.88399560546875,-0.13681696355342865,-0.1595534384250641,0.31510627269744873
1761379020765051000,0.89405078125,-0.15170377492904663,-0.15730386972427368,0.3176501393318176
1761379020775106800,0.90410693359375,-0.13092365860939026,-0.14121678471565247,0.267975777387619
1761379020785163000,0.9141630859375,-0.09371823817491531,-0.1280602365732193,0.16743479669094086
1761379020795218000,0.924218017578125,-0.03605920076370239,-0.12311660498380661,0.06627968698740005
1761379020805274000,0.934274169921875,0.029815420508384705,-0.1384952962398529,0.014165886677801609
1761379020815328800,0.944328857421875,0.07016870379447937,-0.1690329611301422,0.02022537589073181
1761379020825385000,0.954385009765625,0.07857843488454819,-0.20805412530899048,0.07262387126684189
1761379020835439900,0.96443994140625,0.06380800902843475,-0.25368472933769226,0.1239970475435257
1761379020845496000,0.97449609375,0.04097699373960495,-0.29510408639907837,0.14881078898906708
1761379020855552000,0.984552001953125,0.007502391003072262,-0.3403937816619873,0.13449601829051971
1761379020865607000,0.99460693359375,-0.023551132529973984,-0.350127637386322,0.08255932480096817
1761379020875663000,1.0046630859375,-0.05493621900677681,-0.339703768491745,0.0214749313890934
1761379020885717800,1.0147177734375,-0.09266309440135956,-0.32382732629776,-0.006547914352267981
1761379020895774000,1.02477392578125,-0.12374883890151978,-0.30802732706069946,0.002843723399564624
1761379020905830000,1.034829833984375,-0.1319734752178192,-0.27983883023262024,0.036137230694293976
1761379020915885000,1.044885009765625,-0.13131967186927795,-0.24585556983947754,0.06393343955278397
1761379020925941000,1.05494091796875,-0.11744167655706406,-0.20425006747245789,0.07328540086746216
1761379020935999500,1.06499951171875,-0.08159313350915909,-0.16502223908901215,0.07062436640262604
1761379020946055400,1.075055419921875,-0.04018443822860718,-0.1353897750377655,0.04381033033132553
1761379020956110300,1.0851103515625,0.006924751214683056,-0.13046719133853912,0.005485845264047384
1761379020966166300,1.095166259765625,0.05494820326566696,-0.10885005444288254,-0.051110588014125824
1761379020976222200,1.10522216796875,0.09694039821624756,-0.06089424341917038,-0.08212815970182419
1761379020986277400,1.11527734375,0.09940541535615921,-0.015396000817418098,-0.0736345425248146
1761379020996333300,1.125333251953125,0.07357648015022278,-0.0036751623265445232,-0.03395264223217964
1761379021006388200,1.13538818359375,0.05734158679842949,0.009945042431354523,0.000571248063351959
1761379021016444200,1.145444091796875,0.03413160517811775,0.026191124692559242,0.007803328335285187
1761379021026499300,1.155499267578125,0.01782107539474964,0.059605274349451065,-0.012299809604883194
1761379021036555300,1.16555517578125,0.011540275998413563,0.08439983427524567,-0.051429636776447296
1761379021046611200,1.175611083984375,0.023850737139582634,0.08184106647968292,-0.10157030075788498
1761379021056666400,1.185666259765625,0.05945427343249321,0.06241543963551521,-0.15613581240177155
1761379021066722300,1.195722412109375,0.09782829135656357,0.03639742359519005,-0.19810456037521362
1761379021076777200,1.205777099609375,0.1425803154706955,0.023572970181703568,-0.2013496309518814
1761379021086833200,1.215833251953125,0.1627258062362671,0.01709696091711521,-0.16303420066833496
1761379021096888300,1.225888427734375,0.16473914682865143,0.01882641762495041,-0.10478340089321136
1761379021106944300,1.2359443359375,0.14945286512374878,0.05464833229780197,-0.04574272036552429
1761379021117000400,1.24600048828125,0.12526418268680573,0.10103846341371536,-0.007903463207185268
1761379021127055400,1.256055419921875,0.10328404605388641,0.14684243500232697,0.010466755367815495
1761379021137111300,1.266111328125,0.07900241017341614,0.1465393751859665,0.01299409568309784
1761379021147166200,1.276166259765625,0.07227073609828949,0.10423612594604492,0.014964302070438862
1761379021157222100,1.28622216796875,0.11415427178144455,0.04308142513036728,0.034340664744377136
1761379021167278300,1.2962783203125,0.1643785536289215,-0.01444099098443985,0.0813734158873558
1761379021177333200,1.306333251953125,0.1863802671432495,-0.03639103099703789,0.12302898615598679
1761379021187389400,1.316389404296875,0.18142491579055786,-0.013618607074022293,0.14757481217384338
1761379021197444000,1.326444091796875,0.16925959289073944,0.05103388801217079,0.1608930081129074
1761379021207500300,1.336500244140625,0.14171425998210907,0.12737952172756195,0.1636429876089096
1761379021217555200,1.34655517578125,0.10252238065004349,0.17391373217105865,0.1611342877149582
1761379021227611400,1.356611328125,0.05351435765624046,0.1931910365819931,0.1469375193119049
1761379021237667300,1.366667236328125,0.02124563418328762,0.20242100954055786,0.1230769231915474
1761379021247722500,1.376722412109375,0.026746924966573715,0.17440083622932434,0.08529012650251389
1761379021257778400,1.3867783203125,0.053211554884910583,0.15894411504268646,0.04030321538448334
1761379021267833300,1.396833251953125,0.06687543541193008,0.1619553416967392,-0.013055347837507725
1761379021277889300,1.40688916015625,0.06472306698560715,0.1643356829881668,-0.06428924202919006
1761379021287944200,1.416944091796875,0.046239934861660004,0.16761696338653564,-0.11594684422016144
1761379021298000400,1.42700048828125,0.018632806837558746,0.16506032645702362,-0.19615885615348816
1761379021308056300,1.437056396484375,-0.00007403588097076863,0.17238987982273102,-0.32570886611938477
1761379021318111500,1.447111572265625,0.013540309853851795,0.20193524658679962,-0.4510859549045563
1761379021328167200,1.457167236328125,0.04199378937482834,0.2500971853733063,-0.5241662859916687
1761379021338222300,1.467222412109375,0.0696382001042366,0.286316454410553,-0.5101284980773926
1761379021348278300,1.4772783203125,0.09899848699569702,0.288860023021698,-0.4121324419975281
1761379021358333400,1.48733349609375,0.12615154683589935,0.25545865297317505,-0.27099502086639404
1761379021368389400,1.497389404296875,0.14283065497875214,0.21036149561405182,-0.14158189296722412
1761379021378445300,1.5074453125,0.14342772960662842,0.19108553230762482,-0.06023591011762619
1761379021388500200,1.517500244140625,0.126701220870018,0.2013072818517685,-0.04006459563970566
1761379021398556200,1.52755615234375,0.08273588865995407,0.20460933446884155,-0.03747573494911194
1761379021408611300,1.537611328125,0.04880908504128456,0.21423932909965515,-0.024647556245326996
1761379021418667300,1.547667236328125,0.04097273200750351,0.2079436182975769,0.010448912158608437
1761379021428722400,1.557722412109375,0.0621616430580616,0.1943598985671997,0.04836833104491234
1761379021438778400,1.5677783203125,0.08648615330457687,0.19568747282028198,0.08744356036186218
1761379021448834300,1.577834228515625,0.09844561666250229,0.22060666978359222,0.11125089228153229
1761379021458889200,1.58788916015625,0.10970252752304077,0.25134968757629395,0.13155455887317657
1761379021468945200,1.597945068359375,0.12393845617771149,0.26481008529663086,0.13077105581760406
1761379021479000300,1.608000244140625,0.1384686678647995,0.24004589021205902,0.11823556572198868
1761379021489056300,1.61805615234375,0.15965543687343597,0.20397444069385529,0.11385572701692581
1761379021499111400,1.628111328125,0.16172072291374207,0.15256956219673157,0.11558464914560318
1761379021509167000,1.6381669921875,0.14616759121418,0.09061778336763382,0.1047879308462143
1761379021519223300,1.648223388671875,0.1299276351928711,0.04659200459718704,0.06880596280097961
1761379021529278200,1.6582783203125,0.10081875324249268,-0.003346261801198125,0.007620102725923061
1761379021539334400,1.66833447265625,0.08499132096767426,-0.04524257779121399,-0.07299990952014923
1761379021549389300,1.678389404296875,0.08316466212272644,-0.06909198313951492,-0.15400740504264832
1761379021559445500,1.688445556640625,0.060931794345378876,-0.07287607342004776,-0.22248579561710358
1761379021569500200,1.698500244140625,0.015265505760908127,-0.05692719668149948,-0.2734789550304413
1761379021579556400,1.708556396484375,-0.03877456113696098,-0.019895676523447037,-0.2982862889766693
1761379021589612300,1.7186123046875,-0.08454524725675583,0.012476377189159393,-0.27961593866348267
1761379021599667200,1.728667236328125,-0.10852381587028503,0.018389659002423286,-0.2249116748571396
1761379021609723400,1.738723388671875,-0.10131224244832993,0.007019826211035252,-0.14634603261947632
1761379021619778300,1.7487783203125,-0.0790809690952301,-0.014902782626450062,-0.06350920349359512
1761379021629834500,1.75883447265625,-0.04289606958627701,-0.051056258380413055,0.011743208393454552
1761379021639889200,1.76888916015625,0.0035577169619500637,-0.08956397324800491,0.07139109075069427
1761379021649945300,1.7789453125,0.05017342045903206,-0.13481613993644714,0.11736737191677094
1761379021660001300,1.789001220703125,0.06796839833259583,-0.17963021993637085,0.1502731293439865
1761379021670056400,1.799056396484375,0.06557954102754593,-0.2247532159090042,0.14824698865413666
1761379021680112400,1.8091123046875,0.05498655140399933,-0.2443666011095047,0.11542432755231857
1761379021690167300,1.819167236328125,0.011529623530805111,-0.24229839444160461,0.061766959726810455
1761379021700223200,1.82922314453125,-0.05378147214651108,-0.22592660784721375,0.012886237353086472
1761379021710278400,1.8392783203125,-0.11941108107566833,-0.22087912261486053,-0.029168805107474327
1761379021720334300,1.849334228515625,-0.1623487025499344,-0.22768908739089966,-0.06232249736785889
1761379021730390300,1.859390380859375,-0.17117814719676971,-0.25247833132743835,-0.09353075176477432
1761379021740445400,1.869445556640625,-0.15505217015743256,-0.27442222833633423,-0.11997274309396744
1761379021750501400,1.87950146484375,-0.12886103987693787,-0.28783151507377625,-0.12317279726266861
1761379021760556300,1.889556396484375,-0.10681193321943283,-0.30485472083091736,-0.1073717325925827
1761379021770612200,1.8996123046875,-0.09701655805110931,-0.31350332498550415,-0.07123156636953354
1761379021780667400,1.90966748046875,-0.1061709076166153,-0.3304908275604248,-0.023261912167072296
1761379021790723300,1.919723388671875,-0.11752130091190338,-0.3417791724205017,0.0252760611474514
1761379021800779300,1.929779296875,-0.13009995222091675,-0.352182000875473,0.06982702016830444
1761379021810834400,1.93983447265625,-0.1391826570034027,-0.37543007731437683,0.11251083016395569
1761379021820890000,1.94989013671875,-0.12247984111309052,-0.40209710597991943,0.13901540637016296
1761379021830945300,1.9599453125,-0.10392399877309799,-0.38932937383651733,0.157803475856781
1761379021841001200,1.970001220703125,-0.10214101523160934,-0.3671116828918457,0.17878305912017822
1761379021851056400,1.980056396484375,-0.10186457633972168,-0.3652602732181549,0.20689725875854492
1761379021861112300,1.9901123046875,-0.10112395137548447,-0.34724611043930054,0.24574239552021027
1761379021871168300,2.000168212890625,-0.11412470787763596,-0.32858747243881226,0.3021121919155121
1761379021881223200,2.01022314453125,-0.11136461049318314,-0.3613733947277069,0.3625992238521576
1761379021891279000,2.020279052734375,-0.07735071331262589,-0.4438118040561676,0.40144863724708557
1761379021901334300,2.030334228515625,-0.04247715324163437,-0.5348040461540222,0.39655372500419617
1761379021911390200,2.04039013671875,-0.04108378663659096,-0.5849894285202026,0.352107971906662
1761379021921445400,2.0504453125,-0.0685977041721344,-0.5881130695343018,0.28856682777404785
1761379021931497200,2.060497314453125,-0.10210160166025162,-0.5552632212638855,0.18849986791610718
1761379021941553200,2.07055322265625,-0.13822418451309204,-0.5198668837547302,0.06768424063920975
1761379021951608000,2.080608154296875,-0.1624871790409088,-0.49140167236328125,-0.05137850344181061
1761379021961664300,2.090664306640625,-0.17135843634605408,-0.47079014778137207,-0.16374632716178894
1761379021971719000,2.100718994140625,-0.19060483574867249,-0.4494049549102783,-0.23050057888031006
1761379021981775000,2.110775146484375,-0.19900231063365936,-0.42077943682670593,-0.2620539963245392
1761379021991830000,2.120830078125,-0.17562028765678406,-0.3939867317676544,-0.26375946402549744
1761379022001886200,2.13088623046875,-0.14141304790973663,-0.369369775056839,-0.24006719887256622
1761379022011942100,2.140942138671875,-0.09901952743530273,-0.3548065721988678,-0.18246008455753326
1761379022021997300,2.150997314453125,-0.06582242250442505,-0.33047404885292053,-0.10242011398077011
1761379022032053200,2.16105322265625,-0.053040847182273865,-0.3095591962337494,-0.004534031730145216
1761379022042108200,2.171108154296875,-0.06576995551586151,-0.2912725806236267,0.0847974419593811
1761379022052164000,2.1811640625,-0.08683609217405319,-0.2726325988769531,0.15032851696014404
1761379022062219300,2.19121923828125,-0.10381614416837692,-0.2586062550544739,0.1793348640203476
1761379022072275200,2.201275146484375,-0.12348785251379013,-0.2660282254219055,0.17620351910591125
1761379022082330000,2.211330078125,-0.13788063824176788,-0.2788185775279999,0.15055382251739502
1761379022092386300,2.22138623046875,-0.1368582546710968,-0.2936340272426605,0.11173345893621445
1761379022102442000,2.23144189453125,-0.1302858293056488,-0.3148556649684906,0.06030222401022911
1761379022112497200,2.2414970703125,-0.10340815037488937,-0.33495962619781494,0.003132942598313093
1761379022122553000,2.251552978515625,-0.07499860972166061,-0.34690576791763306,-0.05974056199193001
1761379022132608300,2.261608154296875,-0.05260169133543968,-0.33794981241226196,-0.1100226417183876
1761379022142664200,2.271664306640625,-0.04205743968486786,-0.3092518448829651,-0.1530904769897461
1761379022152719000,2.281718994140625,-0.030437268316745758,-0.2604105472564697,-0.16863268613815308
1761379022162775000,2.291775146484375,-0.033729732036590576,-0.20876359939575195,-0.15898005664348602
1761379022172831000,2.3018310546875,-0.05011030659079552,-0.16463954746723175,-0.1369839459657669
1761379022182886100,2.31188623046875,-0.07484201341867447,-0.1381181925535202,-0.11103570461273193
1761379022192942000,2.321942138671875,-0.10489632189273834,-0.14003726840019226,-0.07486891746520996
1761379022202997200,2.331997314453125,-0.13655439019203186,-0.16469706594944,-0.03827308490872383
1761379022213053200,2.34205322265625,-0.15795500576496124,-0.21503934264183044,-0.02388935349881649
1761379022223108000,2.352108154296875,-0.16378892958164215,-0.25213077664375305,-0.045457497239112854
1761379022233164000,2.3621640625,-0.1539434939622879,-0.2752124071121216,-0.097150519490242
1761379022243220000,2.372219970703125,-0.14169561862945557,-0.27199769020080566,-0.1660824418067932
1761379022253275100,2.382275146484375,-0.13760872185230255,-0.24830195307731628,-0.23631666600704193
1761379022263331000,2.3923310546875,-0.13082459568977356,-0.21468541026115417,-0.2912166714668274
1761379022273386200,2.40238623046875,-0.1260056048631668,-0.1647428721189499,-0.3193489611148834
1761379022283442000,2.41244189453125,-0.11727309972047806,-0.10712885111570358,-0.3060864210128784
1761379022293497000,2.4224970703125,-0.10727159678936005,-0.060553889721632004,-0.2670000195503235
1761379022303553000,2.432552978515625,-0.08220219612121582,-0.02863856963813305,-0.18921546638011932
1761379022313608200,2.442608154296875,-0.04122732952237129,-0.020418722182512283,-0.09794573485851288
1761379022323664100,2.4526640625,0.017283648252487183,-0.023611586540937424,-0.008981510996818542
1761379022333720300,2.46272021484375,0.05986839532852173,-0.00737349409610033,0.04508385434746742
1761379022343775000,2.47277490234375,0.09057197719812393,0.027949608862400055,0.05017795041203499
1761379022353831200,2.4828310546875,0.11936420947313309,0.08932667970657349,0.0183491799980402
1761379022363886000,2.492885986328125,0.12952549755573273,0.1347237229347229,-0.021470937877893448
1761379022373942000,2.50294189453125,0.12888315320014954,0.166061669588089,-0.04934198409318924
1761379022383997200,2.5129970703125,0.11585336178541183,0.1940147429704666,-0.051713261753320694
1761379022394053000,2.52305322265625,0.09719206392765045,0.20375339686870575,-0.03419551998376846
1761379022404109300,2.533109375,0.06834177672863007,0.214997798204422,0.009455286897718906
1761379022414164000,2.5431640625,0.051727909594774246,0.23469746112823486,0.04381299391388893
1761379022424220200,2.55322021484375,0.05252765491604805,0.24754934012889862,0.07307208329439163
1761379022434275000,2.563275146484375,0.06791406869888306,0.23797954618930817,0.08883053809404373
1761379022444331300,2.573331298828125,0.11614072322845459,0.22686749696731567,0.08498280495405197
1761379022454386200,2.58338623046875,0.15946875512599945,0.22329646348953247,0.0633707195520401
1761379022464442400,2.5934423828125,0.1725832223892212,0.223180890083313,0.028861742466688156
1761379022474497000,2.6034970703125,0.16495352983474731,0.22298380732536316,-0.0021523667965084314
1761379022484553200,2.61355322265625,0.14259709417819977,0.23306414484977722,-0.018127072602510452
1761379022494609200,2.623609130859375,0.10708224773406982,0.24450162053108215,-0.01666526310145855
1761379022504664000,2.6336640625,0.0716097354888916,0.2705095112323761,0.011574097909033298
1761379022514720300,2.64372021484375,0.057195380330085754,0.268007755279541,0.06204739212989807
1761379022524775000,2.65377490234375,0.07427848875522614,0.2508111894130707,0.10879652202129364
1761379022534831000,2.6638310546875,0.10346993058919907,0.24873018264770508,0.1394156813621521
1761379022544886000,2.673885986328125,0.12117036432027817,0.2641834616661072,0.1476842612028122
1761379022554942200,2.683942138671875,0.12541277706623077,0.2704716920852661,0.15259380638599396
1761379022564997000,2.6939970703125,0.11774181574583054,0.25709065794944763,0.15393656492233276
1761379022575053300,2.70405322265625,0.10784603655338287,0.23846423625946045,0.1444980651140213
1761379022585109200,2.714109130859375,0.08765821158885956,0.23416589200496674,0.11681263893842697
1761379022595164200,2.7241640625,0.08384909480810165,0.23324443399906158,0.07397009432315826
1761379022605220000,2.73422021484375,0.08382539451122284,0.22787711024284363,0.040101345628499985
1761379022615275300,2.744275146484375,0.08714368939399719,0.21061982214450836,0.020077571272850037
1761379022625331200,2.754331298828125,0.08622889220714569,0.19946597516536713,0.0021888520568609238
1761379022635386000,2.76438623046875,0.07222119718790054,0.20421971380710602,-0.03248204290866852
1761379022645442300,2.7744423828125,0.056589242070913315,0.2112874686717987,-0.07016683369874954
1761379022655498000,2.784498046875,0.04300365969538689,0.22280192375183105,-0.09557179361581802
1761379022665553200,2.79455322265625,0.02762283943593502,0.22229830920696259,-0.10868147015571594
1761379022675609000,2.804609130859375,0.029809560626745224,0.22256489098072052,-0.11593405902385712
1761379022685664300,2.814664306640625,0.05138808861374855,0.23011203110218048,-0.12456696480512619
1761379022695720200,2.82472021484375,0.0882723405957222,0.23273950815200806,-0.13105548918247223
1761379022705775000,2.834775146484375,0.13678687810897827,0.21812647581100464,-0.11114542931318283
1761379022715831000,2.8448310546875,0.18326330184936523,0.21519513428211212,-0.06940091401338577
1761379022725886200,2.85488623046875,0.20440612733364105,0.2118307650089264,-0.01302498858422041
1761379022735942100,2.864942138671875,0.203567236661911,0.20212966203689575,0.06156083196401596
1761379022745998000,2.874998046875,0.18535174429416656,0.1804933398962021,0.14356541633605957
1761379022756053200,2.88505322265625,0.15962374210357666,0.15521275997161865,0.21862581372261047
1761379022766109200,2.895109130859375,0.1297401487827301,0.14049719274044037,0.25747761130332947
1761379022776164000,2.9051640625,0.10376022011041641,0.1172264888882637,0.25119760632514954
1761379022786220000,2.915219970703125,0.1107771173119545,0.08177448809146881,0.19241365790367126
1761379022796275200,2.925275146484375,0.11866326630115509,0.05149008706212044,0.09168358147144318
1761379022806331100,2.9353310546875,0.11571727693080902,0.029375465586781502,-0.027106719091534615
1761379022816387000,2.945386962890625,0.1097632497549057,0.032941702753305435,-0.13759061694145203
1761379022826442200,2.955442138671875,0.09066732227802277,0.06863152235746384,-0.20441626012325287
1761379022836498000,2.965497802734375,0.06307457387447357,0.10788172483444214,-0.21791288256645203
1761379022846553000,2.975552978515625,0.046955257654190063,0.1214744970202446,-0.1821002960205078
1761379022856609000,2.985609130859375,0.03717426583170891,0.1212523952126503,-0.12111310660839081
1761379022866664200,2.995664306640625,0.0376826636493206,0.11087005585432053,-0.0699484571814537
1761379022876720000,3.00572021484375,0.033482592552900314,0.09442344307899475,-0.04168486222624779
1761379022886775300,3.015775390625,0.027172232046723366,0.08639587461948395,-0.04700798913836479
1761379022896831000,3.0258310546875,0.02484249882400036,0.07374825328588486,-0.06379442662000656
1761379022906887200,3.03588720703125,0.022960975766181946,0.048534780740737915,-0.06440162658691406
1761379022916942000,3.045942138671875,0.01853879727423191,0.010936536826193333,-0.045037250965833664
1761379022926998000,3.055998046875,0.017437845468521118,-0.03971518948674202,-0.00959670078009367
1761379022937053700,3.0660537109375,0.016763800755143166,-0.07603804022073746,0.029223399236798286
1761379022947109600,3.076109619140625,0.018798189237713814,-0.10702791810035706,0.06665705889463425
1761379022957164500,3.08616455078125,0.020142551511526108,-0.12814384698867798,0.07845193147659302
1761379022967220500,3.096220458984375,0.011749333702027798,-0.13344088196754456,0.061283063143491745
1761379022977275600,3.106275634765625,0.008387892507016659,-0.13411305844783783,0.02882152795791626
1761379022987331600,3.11633154296875,-0.001193096162751317,-0.15042784810066223,0.01785942353308201
1761379022997387500,3.126387451171875,-0.017539845779538155,-0.18071278929710388,0.020671457052230835
1761379023007442700,3.136442626953125,-0.02652694843709469,-0.18454401195049286,0.0268944650888443
1761379023017498600,3.14649853515625,-0.03732180595397949,-0.18087230622768402,0.042034003883600235
1761379023027553500,3.156553466796875,-0.053338054567575455,-0.17989706993103027,0.06840222328901291
1761379023037609500,3.166609375,-0.06507433950901031,-0.19136463105678558,0.10349017381668091
1761379023047664600,3.17666455078125,-0.06117520481348038,-0.2137458473443985,0.12106916308403015
1761379023057720600,3.186720458984375,-0.057614825665950775,-0.24332796037197113,0.12977024912834167
1761379023067775700,3.196775634765625,-0.06302610039710999,-0.26773104071617126,0.1174725666642189
1761379023077831700,3.206831787109375,-0.06642696261405945,-0.2760896384716034,0.100336454808712
1761379023087887600,3.2168876953125,-0.06658834964036942,-0.2787450850009918,0.09000818431377411
1761379023097942500,3.226942626953125,-0.05210314691066742,-0.27743133902549744,0.09471426159143448
1761379023107998700,3.236998779296875,-0.020006731152534485,-0.2786007225513458,0.12006968259811401
1761379023118053600,3.2470537109375,0.0046725161373615265,-0.28739237785339355,0.15729402005672455
1761379023128109600,3.257109619140625,0.01215972751379013,-0.28935378789901733,0.19552849233150482
1761379023138164500,3.26716455078125,0.010860636830329895,-0.29230961203575134,0.22353161871433258
1761379023148220400,3.277220458984375,0.002873817225918174,-0.3038586974143982,0.24149757623672485
1761379023158275600,3.287275634765625,-0.012166650965809822,-0.31235790252685547,0.24721938371658325
1761379023168331500,3.29733154296875,-0.04586655646562576,-0.3194991648197174,0.26431047916412354
1761379023178387700,3.3073876953125,-0.06155470758676529,-0.33390286564826965,0.2817685604095459
1761379023188442600,3.317442626953125,-0.05919594690203667,-0.35637009143829346,0.2876887619495392
1761379023198498800,3.327498779296875,-0.05557990446686745,-0.3730505406856537,0.2831896245479584
1761379023208553500,3.337553466796875,-0.04739734157919884,-0.3927574157714844,0.284039705991745
1761379023218609700,3.347609619140625,-0.03975646570324898,-0.4095856547355652,0.2846983075141907
1761379023228664600,3.35766455078125,-0.027699004858732224,-0.423085480928421,0.2752046585083008
1761379023238720800,3.367720703125,-0.02137053571641445,-0.44719135761260986,0.26460129022598267
1761379023248775700,3.377775634765625,-0.0272649098187685,-0.475196897983551,0.25046205520629883
1761379023258831600,3.38783154296875,-0.048323854804039,-0.5040104389190674,0.24025121331214905
1761379023268887600,3.397887451171875,-0.09342794865369797,-0.483193039894104,0.19844144582748413
1761379023278942500,3.4079423828125,-0.14216779172420502,-0.42919132113456726,0.147119402885437
1761379023288998700,3.41799853515625,-0.1761728972196579,-0.3903355300426483,0.09858090430498123
1761379023299053600,3.428053466796875,-0.19395482540130615,-0.35257962346076965,0.07146459817886353
1761379023309109800,3.43810986328125,-0.19416281580924988,-0.3489135205745697,0.06149451807141304
1761379023319164700,3.44816455078125,-0.17375421524047852,-0.35277217626571655,0.06941289454698563
1761379023329220600,3.458220703125,-0.13231702148914337,-0.34814172983169556,0.07573417574167252
1761379023339275500,3.468275634765625,-0.10270906984806061,-0.31671562790870667,0.06036507338285446
1761379023349331700,3.478331787109375,-0.09102125465869904,-0.2683315873146057,0.03140612691640854
1761379023359387600,3.4883876953125,-0.09436192363500595,-0.2151479870080948,0.00872131995856762
1761379023369442800,3.49844287109375,-0.09855293482542038,-0.18202678859233856,0.016820259392261505
1761379023379498800,3.508498779296875,-0.10111862421035767,-0.1705874502658844,0.049725744873285294
1761379023389553700,3.5185537109375,-0.1024632602930069,-0.18884608149528503,0.11120481789112091
1761379023399609600,3.528609619140625,-0.10724176466464996,-0.22365066409111023,0.1614765077829361
1761379023409664500,3.53866455078125,-0.10476049780845642,-0.2607666254043579,0.1785992980003357
1761379023419720700,3.548720703125,-0.08341313153505325,-0.26634618639945984,0.15251044929027557
1761379023429775600,3.558775634765625,-0.06369242817163467,-0.2620989978313446,0.1063847616314888
1761379023439831800,3.568831787109375,-0.03779158741235733,-0.2451423853635788,0.044736310839653015
1761379023449887700,3.5788876953125,-0.01811455562710762,-0.22540809214115143,0.004378769546747208
1761379023459942700,3.588942626953125,-0.0012993563432246447,-0.2108834683895111,-0.008305334486067295
1761379023469998600,3.59899853515625,-0.006511695217341185,-0.20638273656368256,0.015222894959151745
1761379023480053800,3.6090537109375,-0.03834525868296623,-0.2121913582086563,0.049782734364271164
1761379023490109700,3.619109619140625,-0.07541566342115402,-0.21150532364845276,0.07624390721321106
1761379023500164900,3.629164794921875,-0.09586208313703537,-0.2200183868408203,0.09157891571521759
1761379023510220500,3.639220458984375,-0.09626448154449463,-0.25164076685905457,0.08928646892309189
1761379023520275700,3.649275634765625,-0.07355570793151855,-0.29232320189476013,0.06655612587928772
1761379023530331600,3.65933154296875,-0.042520031332969666,-0.31870049238204956,0.02702229656279087
1761379023540387600,3.6693876953125,-0.02437032014131546,-0.3319912552833557,-0.01260846946388483
1761379023550442800,3.67944287109375,-0.02315725013613701,-0.3095727562904358,-0.036380644887685776
1761379023560498700,3.689498779296875,-0.04505163058638573,-0.24744148552417755,-0.037219807505607605
1761379023570553600,3.6995537109375,-0.08693862706422806,-0.16110765933990479,-0.020266389474272728
1761379023580609500,3.709609619140625,-0.13878558576107025,-0.0868012085556984,0.017002951353788376
1761379023590664700,3.719664794921875,-0.1846044659614563,-0.022426478564739227,0.05608590692281723
1761379023600720600,3.729720703125,-0.19269035756587982,0.026322150602936745,0.07622366398572922
1761379023610775800,3.73977587890625,-0.17629434168338776,0.053092777729034424,0.07945993542671204
1761379023620831700,3.749831787109375,-0.14453640580177307,0.06907041370868683,0.07493069767951965
1761379023630886700,3.75988671875,-0.10777067393064499,0.07448674738407135,0.07235835492610931
1761379023640942600,3.769942626953125,-0.071307472884655,0.07727694511413574,0.070253387093544
1761379023650998500,3.77999853515625,-0.03131398186087608,0.08207383006811142,0.0508517287671566
1761379023661053700,3.7900537109375,0.004509530495852232,0.10806228965520859,0.03038480319082737
1761379023671109600,3.800109619140625,0.021390508860349655,0.12126117944717407,0.015187208540737629
1761379023681164800,3.810164794921875,0.033427465707063675,0.1263350397348404,-0.008606270886957645
1761379023691220500,3.820220458984375,0.04066087678074837,0.1413227766752243,-0.024716265499591827
1761379023701275600,3.830275634765625,0.03266340494155884,0.15141135454177856,-0.02208985574543476
1761379023711331600,3.84033154296875,0.02195776253938675,0.1610352247953415,-0.002662362065166235
1761379023721386800,3.85038671875,0.008565524592995644,0.182047039270401,0.03566558659076691
1761379023731442700,3.860442626953125,-0.00010439591278554872,0.20021644234657288,0.07837523519992828
1761379023741498600,3.87049853515625,-0.0029113676864653826,0.2220756709575653,0.10216205567121506
1761379023751553500,3.880553466796875,0.004889830015599728,0.2631557285785675,0.08998581767082214
1761379023761609500,3.890609375,0.01611878164112568,0.3043367266654968,0.05601320043206215
1761379023771664600,3.90066455078125,0.03953089937567711,0.3276638984680176,0.019762519747018814
1761379023781720600,3.910720458984375,0.06735986471176147,0.3274303376674652,0.007995608262717724
1761379023791775700,3.920775634765625,0.09330917149782181,0.34058552980422974,0.025441443547606468
1761379023801831700,3.930831787109375,0.1200672835111618,0.36158937215805054,0.06853591650724411
1761379023811886600,3.940886474609375,0.13501960039138794,0.38690271973609924,0.13151754438877106
1761379023821942500,3.950942626953125,0.13298867642879486,0.4160773754119873,0.2087891697883606
1761379023831998500,3.96099853515625,0.11886487156152725,0.4617668390274048,0.2681126892566681
1761379023842053600,3.9710537109375,0.10606838017702103,0.4788355529308319,0.3012288212776184
1761379023852109600,3.981109619140625,0.11324213445186615,0.4656294882297516,0.2916467487812042
1761379023862164700,3.991164794921875,0.12285055220127106,0.44237956404685974,0.21695548295974731
1761379023872220700,4.001220703125,0.12918993830680847,0.43497490882873535,0.08507095277309418
1761379023882275600,4.011275634765625,0.13288187980651855,0.43675389885902405,-0.04495761916041374
1761379023892331500,4.02133154296875,0.13948360085487366,0.41432899236679077,-0.14882223308086395
1761379023902386700,4.03138671875,0.15135809779167175,0.39409059286117554,-0.2059670090675354
1761379023912442600,4.041442626953125,0.1540449559688568,0.39077362418174744,-0.22877299785614014
1761379023922498800,4.051498779296875,0.15520742535591125,0.404745876789093,-0.21164380013942719
1761379023932557000,4.06155712890625,0.1438186913728714,0.4332433044910431,-0.14554041624069214
1761379023942613200,4.07161328125,0.13017983734607697,0.4510928690433502,-0.041784197092056274
1761379023952668200,4.081668212890625,0.12132136523723602,0.4574085772037506,0.06031154468655586
1761379023962724000,4.09172412109375,0.11289965361356735,0.4630832374095917,0.12143401801586151
1761379023972776200,4.101776123046875,0.10823166370391846,0.4721584916114807,0.1144285723567009
1761379023982832000,4.11183203125,0.10793392360210419,0.4555198550224304,0.06389456242322922
1761379023992888300,4.121888427734375,0.11089029908180237,0.40166833996772766,-0.004332430195063353
1761379024002943200,4.131943115234375,0.11177952587604523,0.33883771300315857,-0.07727880775928497
1761379024012999400,4.14199951171875,0.11177074164152145,0.2882317900657654,-0.12002653628587723
1761379024023054000,4.15205419921875,0.09601574391126633,0.24451227486133575,-0.13466300070285797
1761379024033110000,4.162110107421875,0.07530194520950317,0.23839712142944336,-0.14042901992797852
1761379024043165200,4.172165283203125,0.06991516798734665,0.25484907627105713,-0.13542626798152924
1761379024053221000,4.18222119140625,0.07193118333816528,0.2667384743690491,-0.1039423793554306
1761379024063276300,4.1922763671875,0.07249630242586136,0.2684423625469208,-0.042578887194395065
1761379024073332000,4.20233203125,0.08828245848417282,0.27387547492980957,0.03399258852005005
1761379024083388200,4.21238818359375,0.1123872622847557,0.29318341612815857,0.11346957087516785
1761379024093443000,4.222443115234375,0.12616033852100372,0.3116566836833954,0.17017892003059387
1761379024103499300,4.232499267578125,0.13714347779750824,0.3215058445930481,0.18012157082557678
1761379024113554200,4.24255419921875,0.1422511488199234,0.3212723135948181,0.1564633697271347
1761379024123610400,4.2526103515625,0.1414300948381424,0.3290894627571106,0.10703776776790619
1761379024133665000,4.2626650390625,0.12623277306556702,0.325472891330719,0.05832322686910629
1761379024143721200,4.27272119140625,0.09247533977031708,0.3206946551799774,0.03063753806054592
1761379024153777200,4.282777099609375,0.051064249128103256,0.3059018552303314,0.02437777817249298
1761379024163832000,4.29283203125,0.014756841585040092,0.2894294261932373,0.02442518249154091
1761379024173888300,4.30288818359375,0.004093012306839228,0.26669880747795105,0.02298174798488617
1761379024183943200,4.312943115234375,0.01637151651084423,0.24012471735477448,0.019245600327849388
1761379024193999400,4.322999267578125,0.04650172218680382,0.2197805643081665,-0.008174306713044643
1761379024204054000,4.333053955078125,0.08593115210533142,0.20575688779354095,-0.05061417445540428
1761379024214110200,4.343110107421875,0.12046622484922409,0.1796126365661621,-0.08415882289409637
1761379024224165000,4.3531650390625,0.14149588346481323,0.15321378409862518,-0.08984386920928955
1761379024234221300,4.36322119140625,0.13942420482635498,0.11993172764778137,-0.08429277688264847
1761379024244276200,4.373276123046875,0.10456981509923935,0.08212336897850037,-0.07992146164178848
1761379024254332200,4.383332275390625,0.05856024846434593,0.05607578530907631,-0.09092670679092407
1761379024264388000,4.39338818359375,0.01756993867456913,0.03105432167649269,-0.11620250344276428
1761379024274443300,4.403443359375,-0.015740348026156425,0.008153533563017845,-0.15077459812164307
1761379024284499200,4.413499267578125,-0.037038177251815796,-0.015311311930418015,-0.17539338767528534
1761379024294554000,4.42355419921875,-0.035655733197927475,-0.04381725564599037,-0.18608064949512482
1761379024304610300,4.4336103515625,-0.016993364319205284,-0.06292037665843964,-0.1659753918647766
1761379024314665000,4.4436650390625,-0.004344148561358452,-0.07240761816501617,-0.12628629803657532
1761379024324721200,4.45372119140625,-0.007930893450975418,-0.06629673391580582,-0.06978760659694672
1761379024334777000,4.463777099609375,-0.031731829047203064,-0.03141145035624504,-0.002897519152611494
1761379024344832300,4.473832275390625,-0.050689809024333954,0.003151052165776491,0.05506565049290657
1761379024354888200,4.48388818359375,-0.06671857833862305,0.022908510640263557,0.09375818073749542
1761379024364943400,4.493943359375,-0.06776732951402664,0.022118085995316505,0.11166714131832123
1761379024375001000,4.5040009765625,-0.05340996012091637,0.002996056107804179,0.10763884335756302
1761379024385056300,4.51405615234375,-0.03285062313079834,-0.01984960399568081,0.08780655264854431
1761379024395112200,4.5241123046875,-0.01593795418739319,-0.05134494602680206,0.05335749685764313
1761379024405167000,4.5341669921875,-0.007099454756826162,-0.07212745398283005,0.0173219982534647
1761379024415223000,4.54422314453125,0.00293347192928195,-0.10516849905252457,-0.014436197467148304
1761379024425278200,4.5542783203125,0.02057797834277153,-0.13557034730911255,-0.036860279738903046
1761379024435334100,4.564334228515625,0.035345472395420074,-0.1472586989402771,-0.044076912105083466
1761379024445390300,4.574390380859375,0.040040627121925354,-0.14968696236610413,-0.03170173615217209
1761379024455445200,4.5844453125,0.03960733115673065,-0.12996305525302887,0.008084557950496674
1761379024465501200,4.594501220703125,0.03575107455253601,-0.1183420866727829,0.05982178822159767
1761379024475556000,4.60455615234375,0.03594468533992767,-0.10995180159807205,0.0995340496301651
1761379024485612000,4.614612060546875,0.04300419241189957,-0.10833233594894409,0.12196505069732666
1761379024495667200,4.624667236328125,0.04735260084271431,-0.11454308778047562,0.12288331240415573
1761379024505723100,4.63472314453125,0.0521063432097435,-0.1268271803855896,0.11415772885084152
1761379024515778000,4.644778076171875,0.052197955548763275,-0.14797881245613098,0.09671296179294586
1761379024525834000,4.654833984375,0.04295971617102623,-0.1584695279598236,0.07522124797105789
1761379024535890200,4.66489013671875,0.03293211758136749,-0.16004453599452972,0.050869304686784744
1761379024545945000,4.674945068359375,0.019158514216542244,-0.16660548746585846,0.03415477275848389
1761379024556001300,4.685001220703125,0.003823766717687249,-0.1729147881269455,0.037819016724824905
1761379024566056200,4.69505615234375,0.000663393409922719,-0.19935810565948486,0.06414676457643509
1761379024576112400,4.7051123046875,-0.006413690745830536,-0.2036663144826889,0.1103624626994133
1761379024586167000,4.7151669921875,-0.027340278029441833,-0.20553584396839142,0.16532105207443237
1761379024596223200,4.72522314453125,-0.04318821802735329,-0.19354256987571716,0.19184160232543945
1761379024606278100,4.735278076171875,-0.054478686302900314,-0.1783580183982849,0.19718897342681885
1761379024616334000,4.745333984375,-0.042924296110868454,-0.17887920141220093,0.1874375343322754
1761379024626390300,4.755390380859375,-0.0182863287627697,-0.19617803394794464,0.131989985704422
1761379024636445200,4.765445068359375,0.01104412879794836,-0.21275247633457184,0.05397002398967743
1761379024646501000,4.775501220703125,0.023316508159041405,-0.21289922297000885,-0.011122426018118858
1761379024656556000,4.78555615234375,0.021733524277806282,-0.20076000690460205,-0.037634726613759995
1761379024666612200,4.7956123046875,0.01624421775341034,-0.19331993162631989,-0.028773058205842972
1761379024676667100,4.805667236328125,0.010511230677366257,-0.18225902318954468,-0.014858840964734554
1761379024686723300,4.815723388671875,-0.004174504894763231,-0.17543786764144897,-0.0026098978705704212
1761379024696779300,4.825779296875,-0.024266190826892853,-0.16009166836738586,0.012851616367697716
1761379024706834200,4.835834228515625,-0.05876744166016579,-0.14844007790088654,0.03339177742600441
1761379024716890000,4.84589013671875,-0.08404270559549332,-0.14496970176696777,0.057367950677871704
1761379024726945300,4.8559453125,-0.09629324823617935,-0.14196299016475677,0.05756982043385506
1761379024737001200,4.866001220703125,-0.09621415287256241,-0.14671966433525085,0.04548332840204239
1761379024747056000,4.87605615234375,-0.09336376935243607,-0.15837658941745758,0.026821760460734367
1761379024757112300,4.8861123046875,-0.08886995166540146,-0.167014017701149,0.00806298665702343
1761379024767167000,4.8961669921875,-0.0731959193944931,-0.16534128785133362,-0.0046874298714101315
1761379024777223200,4.90622314453125,-0.058509115129709244,-0.15488092601299286,-0.008884038776159286
1761379024787278000,4.916278076171875,-0.05903961881995201,-0.13630937039852142,-0.012602876871824265
1761379024797334300,4.926334228515625,-0.07164409011602402,-0.0996786579489708,-0.008610532619059086
1761379024807390200,4.93639013671875,-0.08237796276807785,-0.07945434749126434,-0.0028511802665889263
1761379024817445400,4.9464453125,-0.10032740235328674,-0.06771779805421829,0.0026011094450950623
1761379024827501300,4.956501220703125,-0.10886789113283157,-0.06535903364419937,0.0005597964627668262
1761379024837556200,4.96655615234375,-0.10714855790138245,-0.0718797817826271,-0.006205165293067694
1761379024847612200,4.976612060546875,-0.08668030053377151,-0.08583980798721313,-0.019398732110857964
1761379024857667300,4.986667236328125,-0.06197468936443329,-0.10489232838153839,-0.0273224338889122
1761379024867723300,4.99672314453125,-0.04697975888848305,-0.11925555020570755,-0.030336866155266762
1761379024877779200,5.006779296875,-0.04128565266728401,-0.11991122364997864,-0.03385809808969498
1761379024887834000,5.016834228515625,-0.04421140253543854,-0.12236879020929337,-0.037146035581827164
1761379024897890000,5.02689013671875,-0.03994129225611687,-0.1442306786775589,-0.025238245725631714
1761379024907945200,5.0369453125,-0.0342961885035038,-0.16425924003124237,0.0196077898144722
1761379024918001200,5.047001220703125,-0.051959868520498276,-0.1797817498445511,0.06974605470895767
1761379024928056300,5.057056396484375,-0.07205741852521896,-0.17537954449653625,0.10263849049806595
1761379024938112500,5.067112548828125,-0.07922611385583878,-0.15985465049743652,0.1182430163025856
1761379024948168400,5.07716845703125,-0.08113932609558105,-0.1385437697172165,0.12609721720218658
1761379024958223600,5.0872236328125,-0.08487441390752792,-0.13311651349067688,0.1409033238887787
1761379024968279600,5.097279541015625,-0.09007982164621353,-0.13359907269477844,0.13404488563537598
1761379024978334500,5.10733447265625,-0.09178318083286285,-0.1458706557750702,0.10175299644470215
1761379024988390400,5.117390380859375,-0.08165012300014496,-0.16719165444374084,0.046368829905986786
1761379024998445600,5.127445556640625,-0.07786230742931366,-0.18737708032131195,-0.00811917893588543
1761379025008501500,5.13750146484375,-0.09181860089302063,-0.2071627676486969,-0.057794325053691864
1761379025018556700,5.147556640625,-0.0997534915804863,-0.23048406839370728,-0.09231501817703247
1761379025028612600,5.157612548828125,-0.1041860580444336,-0.2541915476322174,-0.11211082339286804
1761379025038668300,5.167668212890625,-0.11101999133825302,-0.25141093134880066,-0.12086303532123566
1761379025048723500,5.177723388671875,-0.11842437833547592,-0.2487160712480545,-0.12704263627529144
1761379025058779400,5.187779296875,-0.12958835065364838,-0.21362866461277008,-0.12586072087287903
1761379025068834600,5.19783447265625,-0.14231106638908386,-0.18596214056015015,-0.13285711407661438
1761379025078890500,5.207890380859375,-0.15899071097373962,-0.14607810974121094,-0.14142078161239624
1761379025088945700,5.217945556640625,-0.18767856061458588,-0.11063437163829803,-0.15837232768535614
1761379025099001300,5.22800146484375,-0.22296783328056335,-0.05043494328856468,-0.16719751060009003
1761379025109056500,5.238056396484375,-0.2395622581243515,0.015480156056582928,-0.15820720791816711
1761379025119112400,5.248112548828125,-0.23377440869808197,0.0637504830956459,-0.13799382746219635
1761379025129168400,5.25816845703125,-0.20134110748767853,0.09371956437826157,-0.11925742030143738
1761379025139223600,5.2682236328125,-0.1565704345703125,0.09528790414333344,-0.0995502918958664
1761379025149279500,5.278279541015625,-0.10366647690534592,0.08638814836740494,-0.09064281731843948
1761379025159334400,5.28833447265625,-0.048947568982839584,0.07994436472654343,-0.08439157903194427
1761379025169390300,5.298390380859375,-0.004517253953963518,0.059296078979969025,-0.07796590775251389
1761379025179445500,5.308445556640625,0.03804032504558563,0.04721624776721001,-0.07032236456871033
