time,seconds_elapsed,z,y,x
1761379019987000000,0.116,-0.027706829831004143,0.04066642001271248,0.09922761470079422
1761379019997056000,0.126055908203125,-0.05617158114910126,0.055304914712905884,0.09690491110086441
1761379020007112000,0.13611181640625,-0.0709310919046402,0.04844141751527786,0.06629186868667603
1761379020017166800,0.146166748046875,-0.07136610895395279,0.04001333564519882,0.02647821232676506
1761379020027222800,0.156222900390625,-0.061969682574272156,0.038760051131248474,-0.017046894878149033
1761379020037278000,0.16627783203125,-0.04740051180124283,0.04549870640039444,-0.05744434893131256
1761379020047334000,0.176333984375,-0.03389162942767143,0.04706810787320137,-0.08813941478729248
1761379020057389000,0.18638916015625,-0.015123926103115082,0.03405485674738884,-0.11550892144441605
1761379020067445000,0.196445068359375,-0.009352324530482292,0.020419470965862274,-0.13793645799160004
1761379020077501000,0.2065009765625,-0.019666222855448723,-0.03542660176753998,-0.15135452151298523
1761379020087555800,0.216555908203125,-0.029534034430980682,-0.007242633029818535,-0.1582379937171936
1761379020097612000,0.226612060546875,-0.04752755165100098,-0.017667407169938087,-0.18091049790382385
1761379020107667000,0.2366669921875,-0.08352097123861313,0.007322364952415228,-0.19907379150390625
1761379020117723000,0.246722900390625,-0.10575109720230103,0.03717333450913429,-0.19810955226421356
1761379020127777800,0.25677783203125,-0.10913730412721634,0.0599694587290287,-0.1701306402683258
1761379020137833700,0.266833740234375,-0.08305985480546951,0.056844428181648254,-0.12900462746620178
1761379020147890000,0.276889892578125,-0.03399350494146347,0.03555351868271828,-0.0939885750412941
1761379020157944800,0.28694482421875,0.02474033460021019,0.004953343886882067,-0.06531262397766113
1761379020168001000,0.2970009765625,0.06445552408695221,-0.019079022109508514,-0.06471846997737885
1761379020178056000,0.307055908203125,0.08120898902416229,-0.014381162822246552,-0.08708380162715912
1761379020188112100,0.317112060546875,0.08302206546068192,0.0005826069973409176,-0.11759377270936966
1761379020198166800,0.327166748046875,0.06720969080924988,0.009700418449938297,-0.14228321611881256
1761379020208223000,0.337222900390625,0.031075922772288322,0.018488850444555283,-0.15652073919773102
1761379020218279000,0.34727880859375,0.004894849844276905,0.0148331169039011,-0.16157718002796173
1761379020228333800,0.357333740234375,0.0025683119893074036,0.013467447832226753,-0.15982188284397125
1761379020238390000,0.36739013671875,0.020181795582175255,0.025147903710603714,-0.1564599871635437
1761379020248445000,0.37744482421875,0.04741421341896057,0.03432249277830124,-0.14670296013355255
1761379020258500900,0.3875009765625,0.07154693454504013,0.027547363191843033,-0.11744377762079239
1761379020268555800,0.3975556640625,0.09145405888557434,0.015699492767453194,-0.08746164292097092
1761379020278612000,0.407612060546875,0.10441922396421432,0.006160091608762741,-0.07354163378477097
1761379020288668000,0.41766796875,0.095308817923069,-0.012777913361787796,-0.08045359700918198
1761379020298723000,0.42772314453125,0.08234842866659164,-0.046900928020477295,-0.09916157275438309
1761379020308779000,0.437779052734375,0.07141588628292084,-0.07473042607307434,-0.13035224378108978
1761379020318834000,0.447833984375,0.05457278713583946,-0.10479351133108139,-0.17279355227947235
1761379020328889900,0.457889892578125,0.03682441636919975,-0.12293150275945663,-0.20784208178520203
1761379020338945000,0.467945068359375,0.024125220254063606,-0.12462601810693741,-0.21334625780582428
1761379020349001000,0.4780009765625,0.007217875681817532,-0.1065404936671257,-0.16117706894874573
1761379020359057000,0.488056884765625,-0.014595363289117813,-0.09296508133411407,-0.06940963119268417
1761379020369112000,0.498112060546875,-0.037107598036527634,-0.08686377853155136,0.03826276957988739
1761379020379168000,0.50816796875,-0.053667519241571426,-0.08541906625032425,0.126982182264328
1761379020389223000,0.518222900390625,-0.05532800033688545,-0.08838582783937454,0.1884056031703949
1761379020399278800,0.52827880859375,-0.036194123327732086,-0.10572097450494766,0.2084459513425827
1761379020409334000,0.538333984375,-0.0082687484100461,-0.14210933446884155,0.19069571793079376
1761379020419390000,0.548389892578125,0.030703548341989517,-0.17659205198287964,0.16719365119934082
1761379020429446000,0.55844580078125,0.05562301352620125,-0.20245027542114258,0.1500876396894455
1761379020439501000,0.5685009765625,0.05621861666440964,-0.22678512334823608,0.14957930147647858
1761379020449556700,0.578556640625,0.049645405262708664,-0.24771064519882202,0.16086603701114655
1761379020459612000,0.58861181640625,0.029036149382591248,-0.2583301365375519,0.181450754404068
1761379020469667800,0.598667724609375,-0.001675957813858986,-0.27103129029273987,0.1985415816307068
1761379020479723000,0.608722900390625,-0.022795431315898895,-0.30520036816596985,0.1993972361087799
1761379020489779000,0.618779052734375,-0.032605186104774475,-0.32075294852256775,0.18660713732242584
1761379020499835100,0.628835205078125,-0.044980041682720184,-0.31628334522247314,0.1563926786184311
1761379020509889800,0.638889892578125,-0.04627513885498047,-0.2949247658252716,0.13429269194602966
1761379020519946000,0.648946044921875,-0.053582631051540375,-0.2622341215610504,0.13691121339797974
1761379020530001000,0.6590009765625,-0.04765044152736664,-0.2492040991783142,0.16268502175807953
1761379020540056800,0.669056884765625,-0.035755954682826996,-0.27562084794044495,0.1930832713842392
1761379020550113000,0.679113037109375,-0.016676804050803185,-0.31875473260879517,0.20798978209495544
1761379020560168000,0.68916796875,-0.01226165983825922,-0.3460594713687897,0.1716507375240326
1761379020570224000,0.69922412109375,-0.04987960681319237,-0.3596964478492737,0.08981873095035553
1761379020580278800,0.70927880859375,-0.1055598109960556,-0.36154845356941223,-0.041158922016620636
1761379020590335000,0.7193349609375,-0.15968403220176697,-0.36261293292045593,-0.1984041929244995
1761379020600390000,0.729389892578125,-0.2057121992111206,-0.3561079204082489,-0.3338554799556732
1761379020610446000,0.739446044921875,-0.24285157024860382,-0.34631362557411194,-0.4087342321872711
1761379020620502000,0.749501953125,-0.2687644362449646,-0.3174178898334503,-0.4075019061565399
1761379020630557000,0.759556884765625,-0.27890920639038086,-0.3044371008872986,-0.33114615082740784
1761379020640612900,0.76961279296875,-0.25334709882736206,-0.30740582942962646,-0.21983475983142853
1761379020650668000,0.77966796875,-0.21041959524154663,-0.33557167649269104,-0.10111263394355774
1761379020660724000,0.789723876953125,-0.15682952105998993,-0.378624826669693,0.00026781344786286354
1761379020670779000,0.79977880859375,-0.09650732576847076,-0.4109755754470825,0.06833474338054657
1761379020680835000,0.8098349609375,-0.05217822268605232,-0.436368852853775,0.09459444880485535
1761379020690891000,0.81989111328125,-0.006189960520714521,-0.43917316198349,0.09048066288232803
1761379020700946000,0.82994580078125,0.03844767063856125,-0.4085579514503479,0.06831098347902298
1761379020711001900,0.840001953125,0.059366002678871155,-0.37762773036956787,0.0680723637342453
1761379020721057000,0.85005712890625,0.043316349387168884,-0.3229694962501526,0.11406321823596954
1761379020731113000,0.860113037109375,-0.0017608474008738995,-0.267459899187088,0.1771513670682907
1761379020741168000,0.870168212890625,-0.06283379346132278,-0.20796453952789307,0.2419518083333969
1761379020751224000,0.88022412109375,-0.11538781970739365,-0.1680557280778885,0.2943231463432312
1761379020761279700,0.89027978515625,-0.14370253682136536,-0.1607334464788437,0.31514811515808105
1761379020771335000,0.9003349609375,-0.13438813388347626,-0.15626278519630432,0.2878243625164032
1761379020781390800,0.910390869140625,-0.10568363219499588,-0.13406068086624146,0.204176664352417
1761379020791446000,0.920446044921875,-0.05456718057394028,-0.12642115354537964,0.09393377602100372
1761379020801502000,0.930501953125,0.012696051970124245,-0.1346198320388794,0.018673954531550407
1761379020811558000,0.940557861328125,0.06614010035991669,-0.16169272363185883,0.005842311307787895
1761379020821612800,0.95061279296875,0.08588166534900665,-0.1960633546113968,0.04369291663169861
1761379020831668700,0.960668701171875,0.0784812718629837,-0.23934105038642883,0.10018495470285416
1761379020841724000,0.970723876953125,0.05824548378586769,-0.2856128215789795,0.1378810703754425
1761379020851779800,0.98077978515625,0.025762643665075302,-0.3275786340236664,0.1375838667154312
1761379020861835000,0.9908349609375,-0.007980136200785637,-0.35393282771110535,0.10016817599534988
1761379020871891000,1.000890869140625,-0.03790634498000145,-0.34958869218826294,0.03690345957875252
1761379020881947100,1.010947021484375,-0.07246731966733932,-0.3323063850402832,-0.007299588993191719
1761379020892001800,1.021001708984375,-0.10795607417821884,-0.3187423646450043,-0.009762213565409184
1761379020902058000,1.03105810546875,-0.1197168380022049,-0.2971935570240021,0.01561770960688591
1761379020912113000,1.04111279296875,-0.12442770600318909,-0.26202893257141113,0.047710664570331573
1761379020922169000,1.051169189453125,-0.12347650527954102,-0.22511164844036102,0.06759978830814362
1761379020932227300,1.061227294921875,-0.09038300067186356,-0.182673379778862,0.06772202253341675
1761379020942283300,1.071283203125,-0.0477730855345726,-0.1495789885520935,0.048235341906547546
1761379020952339500,1.08133935546875,-0.004022675566375256,-0.13655878603458405,0.01720658503472805
1761379020962394000,1.09139404296875,0.04513249173760414,-0.1236988976597786,-0.03926141932606697
1761379020972450300,1.1014501953125,0.09327872097492218,-0.08561063557863235,-0.08082590997219086
1761379020982505200,1.111505126953125,0.11187468469142914,-0.034818004816770554,-0.08681099116802216
1761379020992561400,1.1215615234375,0.0916232094168663,-0.006222579162567854,-0.05820118635892868
1761379021002617300,1.131617431640625,0.0692470595240593,-0.015267860144376755,-0.015809522941708565
1761379021012672300,1.14167236328125,0.05136286839842796,0.01635398343205452,0.004186821635812521
1761379021022728200,1.151728271484375,0.028296979144215584,0.04011726379394531,-0.004904542118310928
1761379021032783400,1.161783447265625,0.01877005398273468,0.07259558141231537,-0.03997810557484627
1761379021042839300,1.17183935546875,0.02569841407239437,0.08315415680408478,-0.08659148216247559
1761379021052894500,1.18189453125,0.05501502379775047,0.06827054917812347,-0.14134420454502106
1761379021062950400,1.191950439453125,0.09157462418079376,0.039437185972929,-0.19135437905788422
1761379021073006300,1.20200634765625,0.13348665833473206,0.024655047804117203,-0.21392041444778442
1761379021083061200,1.212061279296875,0.16775016486644745,0.016294365748763084,-0.19139324128627777
1761379021093117200,1.2221171875,0.17113424837589264,0.012696968391537666,-0.1354263722896576
1761379021103172400,1.23217236328125,0.16078266501426697,0.031421177089214325,-0.07122228294610977
1761379021113228300,1.242228271484375,0.14480848610401154,0.07753807306289673,-0.024542393162846565
1761379021123283500,1.252283447265625,0.1195095032453537,0.1297650933265686,-0.001469829585403204
1761379021133339400,1.26233935546875,0.0938107967376709,0.14716938138008118,0.005298327654600143
1761379021143395000,1.27239501953125,0.07756505906581879,0.1186438649892807,0.006316087208688259
1761379021153450200,1.2824501953125,0.09997609257698059,0.06432123482227325,0.016746090725064278
1761379021163506200,1.292506103515625,0.15473422408103943,0.0011350084096193314,0.05383836477994919
1761379021173561300,1.302561279296875,0.1890927255153656,-0.03803157061338425,0.10281442850828171
1761379021183617300,1.3126171875,0.19199024140834808,-0.03164755553007126,0.1370759904384613
1761379021193672400,1.32267236328125,0.1831272393465042,0.014244835823774338,0.1509968638420105
1761379021203728100,1.33272802734375,0.16160078346729279,0.09526220709085464,0.15407608449459076
1761379021213784300,1.342784423828125,0.12784016132354736,0.15548694133758545,0.15838055312633514
1761379021223839200,1.352839111328125,0.07700532674789429,0.18090340495109558,0.15049393475055695
1761379021233895400,1.3628955078125,0.03815566748380661,0.2040681093931198,0.125703364610672
1761379021243950300,1.372950439453125,0.029752623289823532,0.18110914528369904,0.09281744807958603
1761379021254006300,1.38300634765625,0.05157482996582985,0.15709009766578674,0.049777571111917496
1761379021264061200,1.393061279296875,0.06993516534566879,0.15228940546512604,0.001928296871483326
1761379021274117000,1.4031171875,0.07164385169744492,0.1589941829442978,-0.05342257767915726
1761379021284173300,1.41317333984375,0.06031809747219086,0.16037657856941223,-0.10247647762298584
1761379021294228200,1.423228271484375,0.0363568440079689,0.16034728288650513,-0.16813910007476807
1761379021304284400,1.433284423828125,0.011094623245298862,0.16194204986095428,-0.27967509627342224
1761379021314339300,1.44333935546875,0.011739907786250114,0.18417759239673615,-0.41408270597457886
1761379021324395500,1.4533955078125,0.03718859702348709,0.22743695974349976,-0.5139579772949219
1761379021334450200,1.4634501953125,0.06639068573713303,0.27256980538368225,-0.533147394657135
1761379021344506400,1.47350634765625,0.09628727287054062,0.28889694809913635,-0.4634779393672943
1761379021354562300,1.483562255859375,0.1251058727502823,0.2635636329650879,-0.3331731855869293
1761379021364617500,1.493617431640625,0.14636488258838654,0.2195872813463211,-0.19096128642559052
1761379021374673400,1.50367333984375,0.15161104500293732,0.19223928451538086,-0.08860297501087189
1761379021384728300,1.513728271484375,0.14211389422416687,0.19181546568870544,-0.050145357847213745
1761379021394784300,1.5237841796875,0.10660011321306229,0.2022760957479477,-0.045684028416872025
1761379021404840200,1.533840087890625,0.06409046798944473,0.2047983705997467,-0.04041842743754387
1761379021414895400,1.543895263671875,0.04639136791229248,0.20977875590324402,-0.011821671389043331
1761379021424951300,1.553951416015625,0.05900036543607712,0.19776442646980286,0.02720615640282631
1761379021435006500,1.56400634765625,0.08708340674638748,0.18620099127292633,0.06900739669799805
1761379021445062400,1.5740625,0.1002020537853241,0.2043319195508957,0.10195346921682358
1761379021455117300,1.584117431640625,0.11298975348472595,0.23047670722007751,0.11743175983428955
1761379021465173200,1.59417333984375,0.12641862034797668,0.2580757439136505,0.1261875033378601
1761379021475228400,1.604228515625,0.1386592984199524,0.24575571715831757,0.1171889454126358
1761379021485284400,1.614284423828125,0.16045606136322021,0.2151712030172348,0.10779283940792084
1761379021495340300,1.62434033203125,0.16965515911579132,0.1677645444869995,0.10909166187047958
1761379021505395500,1.6343955078125,0.15929754078388214,0.10594066977500916,0.10152013599872589
1761379021515451100,1.644451171875,0.14514896273612976,0.05938701704144478,0.07683102786540985
1761379021525506300,1.65450634765625,0.11769325286149979,0.011734561994671822,0.02644941583275795
1761379021535562200,1.664562255859375,0.0935002937912941,-0.03760795667767525,-0.049941226840019226
1761379021545618200,1.6746181640625,0.09154504537582397,-0.06632416695356369,-0.1290610432624817
1761379021555673300,1.68467333984375,0.08240348100662231,-0.07650117576122284,-0.2036399394273758
1761379021565729300,1.694729248046875,0.040942396968603134,-0.07168731093406677,-0.2616763114929199
1761379021575784200,1.7047841796875,-0.011401232331991196,-0.0367484949529171,-0.3000530004501343
1761379021585840000,1.714840087890625,-0.06456685811281204,-0.004961488302797079,-0.29756608605384827
1761379021595895300,1.724895263671875,-0.09893202036619186,0.015504371374845505,-0.25730201601982117
1761379021605951200,1.734951171875,-0.10131016373634338,0.005182384513318539,-0.18386143445968628
1761379021616007400,1.74500732421875,-0.08234100043773651,-0.00841198768466711,-0.10024750977754593
1761379021626062300,1.755062255859375,-0.05452420935034752,-0.03722905367612839,-0.020955312997102737
1761379021636118500,1.765118408203125,-0.009127967059612274,-0.07985986769199371,0.043315816670656204
1761379021646173200,1.775173095703125,0.038212329149246216,-0.11894765496253967,0.09875573962926865
1761379021656229400,1.7852294921875,0.07289387285709381,-0.1667359620332718,0.13366524875164032
1761379021666284300,1.7952841796875,0.07458623498678207,-0.21609750390052795,0.14910529553890228
1761379021676340200,1.80534033203125,0.06879306584596634,-0.2456258237361908,0.1244840994477272
1761379021686396400,1.815396484375,0.03926261141896248,-0.25098133087158203,0.07622230052947998
1761379021696451000,1.825451171875,-0.020270224660634995,-0.23577149212360382,0.022038426250219345
1761379021706507300,1.83550732421875,-0.08784222602844238,-0.22466890513896942,-0.024409569799900055
1761379021716562200,1.845562255859375,-0.14412705600261688,-0.22801809012889862,-0.055755771696567535
1761379021726618400,1.855618408203125,-0.1670008897781372,-0.24605195224285126,-0.09129256010055542
1761379021736673300,1.86567333984375,-0.1540965437889099,-0.2712462544441223,-0.11432170867919922
1761379021746729500,1.8757294921875,-0.1315176635980606,-0.28682446479797363,-0.13041596114635468
1761379021756785400,1.885785400390625,-0.10992128401994705,-0.30623170733451843,-0.12512744963169098
1761379021766840300,1.89584033203125,-0.09150373190641403,-0.31449639797210693,-0.09367316216230392
1761379021776896300,1.905896240234375,-0.09474266320466995,-0.3280726671218872,-0.05032035708427429
1761379021786951400,1.915951416015625,-0.10970069468021393,-0.3476446270942688,0.0012470241636037827
1761379021797007400,1.92600732421875,-0.11872480809688568,-0.34802067279815674,0.04653621092438698
1761379021807062300,1.936062255859375,-0.12898945808410645,-0.3703582286834717,0.09198904782533646
1761379021817118500,1.946118408203125,-0.12093763798475266,-0.39582711458206177,0.12396162748336792
1761379021827173000,1.956173095703125,-0.1006997749209404,-0.40153536200523376,0.14471442997455597
1761379021837229300,1.966229248046875,-0.09167885035276413,-0.38179177045822144,0.16185002028942108
1761379021847285200,1.97628515625,-0.09610659629106522,-0.36898273229599,0.1884354203939438
1761379021857340400,1.98634033203125,-0.08884815126657486,-0.36030054092407227,0.2221987098455429
1761379021867396400,1.996396240234375,-0.09983044862747192,-0.34008315205574036,0.27431973814964294
1761379021877451500,2.006451416015625,-0.10959438979625702,-0.34578633308410645,0.33656394481658936
1761379021887507200,2.016507080078125,-0.08379694819450378,-0.4086451232433319,0.3853359818458557
1761379021897563100,2.026563232421875,-0.047094061970710754,-0.5042936205863953,0.3951939344406128
1761379021907618300,2.036618408203125,-0.02823648415505886,-0.5752115249633789,0.3655633330345154
1761379021917674200,2.04667431640625,-0.04871752858161926,-0.5966177582740784,0.30826038122177124
1761379021927729400,2.0567294921875,-0.07992397248744965,-0.5733636617660522,0.2225112020969391
1761379021937781000,2.066781005859375,-0.11703112721443176,-0.5371835231781006,0.10842777788639069
1761379021947836200,2.076836181640625,-0.14819997549057007,-0.5072441697120667,-0.013555923476815224
1761379021957892000,2.08689208984375,-0.1619512140750885,-0.48247411847114563,-0.13318964838981628
1761379021967947300,2.096947265625,-0.176212340593338,-0.46252205967903137,-0.21787813305854797
1761379021978003000,2.1070029296875,-0.19417031109333038,-0.4367820918560028,-0.2604740858078003
1761379021988059100,2.11705908203125,-0.18198570609092712,-0.4106086492538452,-0.27581632137298584
1761379021998114000,2.127114013671875,-0.1450796276330948,-0.3806970715522766,-0.25784000754356384
1761379022008170200,2.137170166015625,-0.10497801005840302,-0.3655422627925873,-0.21406562626361847
1761379022018225200,2.14722509765625,-0.0697459802031517,-0.3449634909629822,-0.1428481638431549
1761379022028281000,2.157281005859375,-0.0462777316570282,-0.32192203402519226,-0.04894806817173958
1761379022038336000,2.1673359375,-0.05328690633177757,-0.3063851594924927,0.04672359675168991
1761379022048392000,2.177391845703125,-0.06801825016736984,-0.28723350167274475,0.12314989417791367
1761379022058448100,2.1874482421875,-0.08756665140390396,-0.26943477988243103,0.1642874777317047
1761379022068503000,2.1975029296875,-0.1088646873831749,-0.26646819710731506,0.1734868586063385
1761379022078559200,2.207559326171875,-0.12454991787672043,-0.27965110540390015,0.15560080111026764
1761379022088614100,2.2176142578125,-0.13337261974811554,-0.2931516468524933,0.12049200385808945
1761379022098670300,2.22767041015625,-0.1278047412633896,-0.3075753152370453,0.07531413435935974
1761379022108725000,2.23772509765625,-0.11012303829193115,-0.33366501331329346,0.01927744410932064
1761379022118781200,2.24778125,-0.07657679915428162,-0.3484967052936554,-0.04349725693464279
1761379022128837000,2.257837158203125,-0.053274981677532196,-0.35041773319244385,-0.10091502219438553
1761379022138892300,2.267892333984375,-0.03946995362639427,-0.3272514343261719,-0.14265741407871246
1761379022148948200,2.2779482421875,-0.02864288166165352,-0.2880391776561737,-0.17279693484306335
1761379022159003100,2.288003173828125,-0.020873375236988068,-0.23004937171936035,-0.17434290051460266
1761379022169059000,2.29805908203125,-0.03574040159583092,-0.18055778741836548,-0.156130850315094
1761379022179114000,2.308114013671875,-0.059182342141866684,-0.14629969000816345,-0.12841638922691345
1761379022189170200,2.318170166015625,-0.08574771136045456,-0.14028772711753845,-0.09736703336238861
1761379022199225000,2.32822509765625,-0.11989183723926544,-0.15358036756515503,-0.058039069175720215
1761379022209281300,2.33828125,-0.1450190246105194,-0.20309898257255554,-0.03157829865813255
1761379022219337200,2.348337158203125,-0.15603093802928925,-0.24255132675170898,-0.03753579035401344
1761379022229392100,2.35839208984375,-0.15048202872276306,-0.27501562237739563,-0.08325004577636719
1761379022239448000,2.368447998046875,-0.13937239348888397,-0.28226232528686523,-0.14652541279792786
1761379022249503200,2.378503173828125,-0.1301102638244629,-0.26306214928627014,-0.21948182582855225
1761379022259559200,2.38855908203125,-0.1259077936410904,-0.2351013422012329,-0.2808682322502136
1761379022269614300,2.3986142578125,-0.11922276765108109,-0.188606396317482,-0.31725502014160156
1761379022279670300,2.408670166015625,-0.1153300330042839,-0.13385367393493652,-0.32157623767852783
1761379022289726000,2.418725830078125,-0.10438258945941925,-0.07886169105768204,-0.2920909523963928
1761379022299781000,2.428781005859375,-0.08565418422222137,-0.04079553112387657,-0.2269660085439682
1761379022309837000,2.438837158203125,-0.05059538781642914,-0.02675352804362774,-0.13989534974098206
1761379022319892200,2.448892333984375,0.0013314597308635712,-0.02663874626159668,-0.0466998927295208
1761379022329948200,2.4589482421875,0.05143796652555466,-0.020877204835414886,0.021088972687721252
1761379022340003300,2.46900341796875,0.08491683006286621,0.009516654536128044,0.04472479224205017
1761379022350059000,2.47905908203125,0.1153722032904625,0.06270656734704971,0.026717696338891983
1761379022360115000,2.489114990234375,0.13880430161952972,0.11647605895996094,-0.012221712619066238
1761379022370170000,2.499170166015625,0.13738302886486053,0.1484910398721695,-0.04822191596031189
1761379022380226000,2.50922607421875,0.12821030616760254,0.1797378957271576,-0.06068524345755577
1761379022390281200,2.51928125,0.11736665666103363,0.195939838886261,-0.049864694476127625
1761379022400337200,2.529337158203125,0.08689716458320618,0.20435196161270142,-0.01342812180519104
1761379022410392000,2.53939208984375,0.06311020255088806,0.22271911799907684,0.023537546396255493
1761379022420448000,2.549447998046875,0.057888541370630264,0.24151384830474854,0.05570986494421959
1761379022430503200,2.559503173828125,0.06465902179479599,0.23956872522830963,0.07897254079580307
1761379022440559000,2.56955908203125,0.10646799206733704,0.22754880785942078,0.07937920093536377
1761379022450615000,2.579614990234375,0.1544153392314911,0.21816891431808472,0.06661670655012131
1761379022460670200,2.589670166015625,0.1781315952539444,0.21824587881565094,0.03799544647336006
1761379022470726100,2.59972607421875,0.17766998708248138,0.21810577809810638,0.0006252685561776161
1761379022480781000,2.609781005859375,0.16063401103019714,0.2229956090450287,-0.01822165586054325
1761379022490837000,2.6198369140625,0.1266314685344696,0.23502092063426971,-0.025868449360132217
1761379022500892200,2.62989208984375,0.09106387943029404,0.256089448928833,-0.006409528665244579
1761379022510948000,2.639947998046875,0.0634235218167305,0.2666134238243103,0.034809309989213943
1761379022521004300,2.65000439453125,0.07214298099279404,0.2511652410030365,0.08769330382347107
1761379022531059000,2.660058837890625,0.10031276941299438,0.24180565774440765,0.1268163025379181
1761379022541115100,2.670115234375,0.12357468158006668,0.2530982792377472,0.1384388655424118
1761379022551170000,2.680170166015625,0.1343076080083847,0.26744434237480164,0.14359401166439056
1761379022561226200,2.690226318359375,0.1288428157567978,0.25791341066360474,0.14762364327907562
1761379022571281200,2.70028125,0.11901548504829407,0.23923660814762115,0.14654172956943512
1761379022581337000,2.710337158203125,0.10472576320171356,0.22919514775276184,0.12294506281614304
1761379022591392000,2.72039208984375,0.09201955050230026,0.22950689494609833,0.0839443951845169
1761379022601448000,2.730447998046875,0.09006478637456894,0.22651030123233795,0.04413892701268196
1761379022611504000,2.740504150390625,0.0918027013540268,0.21464283764362335,0.0182160884141922
1761379022621559000,2.75055908203125,0.09170070290565491,0.1962694227695465,0.0023186146281659603
1761379022631615200,2.760615234375,0.08293776959180832,0.20093633234500885,-0.023561621084809303
1761379022641670100,2.770670166015625,0.07057005167007446,0.20568181574344635,-0.06712693721055984
1761379022651726300,2.780726318359375,0.05431064963340759,0.21433235704898834,-0.09359943121671677
1761379022661781000,2.790781005859375,0.03863848000764847,0.2195441722869873,-0.11246872693300247
1761379022671837200,2.800837158203125,0.03261847421526909,0.21765993535518646,-0.11967840045690536
1761379022681892000,2.81089208984375,0.048244304955005646,0.22202618420124054,-0.12969933450222015
1761379022691948300,2.8209482421875,0.08060631155967712,0.22850646078586578,-0.14018484950065613
1761379022702004200,2.831004150390625,0.12511572241783142,0.22051404416561127,-0.1271534562110901
1761379022712059100,2.84105908203125,0.17634859681129456,0.20882673561573029,-0.09292887896299362
1761379022722115000,2.851114990234375,0.20814089477062225,0.21033914387226105,-0.040159672498703
1761379022732170000,2.861169921875,0.20873898267745972,0.19837911427021027,0.025668978691101074
1761379022742226200,2.87122607421875,0.1967286616563797,0.18238842487335205,0.10603359341621399
1761379022752281000,2.881281005859375,0.17592470347881317,0.15983742475509644,0.18862879276275635
1761379022762337300,2.891337158203125,0.14857271313667297,0.14314474165439606,0.24191758036613464
1761379022772392000,2.901391845703125,0.11416253447532654,0.12032591551542282,0.2546848952770233
1761379022782448000,2.9114482421875,0.11580464243888855,0.08860846608877182,0.2145920991897583
1761379022792504000,2.921504150390625,0.12428520619869232,0.05722949653863907,0.12767504155635834
1761379022802559200,2.931559326171875,0.1268644779920578,0.03221682086586952,0.010494617745280266
1761379022812615200,2.941615234375,0.12182198464870453,0.023862209171056747,-0.10740582644939423
1761379022822670300,2.95167041015625,0.10536152124404907,0.04837820306420326,-0.1925574690103531
1761379022832726300,2.961726318359375,0.07748913764953613,0.08789912611246109,-0.222319096326828
1761379022842781200,2.97178125,0.05520647019147873,0.1151195615530014,-0.20498457551002502
1761379022852837000,2.981837158203125,0.0443887785077095,0.11618822813034058,-0.15070320665836334
1761379022862893000,2.99189306640625,0.04534458741545677,0.11015962809324265,-0.09029337763786316
1761379022872948200,3.0019482421875,0.04602302610874176,0.0958176925778389,-0.05296926572918892
1761379022883004200,3.012004150390625,0.036957092583179474,0.08233357965946198,-0.04925735294818878
1761379022893059300,3.022059326171875,0.03405445069074631,0.07481889426708221,-0.06395920366048813
1761379022903115000,3.032114990234375,0.02968207374215126,0.05033937841653824,-0.07606087625026703
1761379022913170200,3.042170166015625,0.028733719140291214,0.021569056436419487,-0.061767030507326126
1761379022923226000,3.05222607421875,0.025726478546857834,-0.02246817760169506,-0.03055291622877121
1761379022933281500,3.062281494140625,0.021347977221012115,-0.06689856201410294,0.012663396075367928
1761379022943337700,3.072337646484375,0.02728043496608734,-0.0996791422367096,0.04762537404894829
1761379022953393700,3.0823935546875,0.02712450921535492,-0.1261165887117386,0.06975498050451279
1761379022963448600,3.092448486328125,0.0208722073584795,-0.13853037357330322,0.06652189791202545
1761379022973504500,3.10250439453125,0.017171207815408707,-0.13745565712451935,0.03211652487516403
1761379022983559700,3.1125595703125,0.006709510926157236,-0.14492608606815338,0.013650431297719479
1761379022993615600,3.12261572265625,-0.003680479247123003,-0.1761275976896286,0.010908206924796104
1761379023003670800,3.1326708984375,-0.01585512049496174,-0.18790116906166077,0.01780872233211994
1761379023013726700,3.142726806640625,-0.025233112275600433,-0.18998679518699646,0.029444502666592598
1761379023023781600,3.15278173828125,-0.04180516302585602,-0.18607328832149506,0.053141310811042786
1761379023033837600,3.162837646484375,-0.05397939682006836,-0.1909613013267517,0.08518626540899277
1761379023043893500,3.1728935546875,-0.056588493287563324,-0.21011555194854736,0.10881409794092178
1761379023053948700,3.18294873046875,-0.04981641843914986,-0.23768119513988495,0.1225929781794548
1761379023064004600,3.193004638671875,-0.05122976005077362,-0.2683109939098358,0.11727039515972137
1761379023074059800,3.203059814453125,-0.061967626214027405,-0.2772219479084015,0.10252418369054794
1761379023084115700,3.21311572265625,-0.062144726514816284,-0.2795703113079071,0.08552389591932297
1761379023094170600,3.223170654296875,-0.049380723387002945,-0.28189218044281006,0.08120211213827133
1761379023104226600,3.2332265625,-0.026677273213863373,-0.28204718232154846,0.100428007543087
1761379023114281700,3.24328173828125,0.0027664978988468647,-0.28719910979270935,0.1350538432598114
1761379023124337700,3.253337646484375,0.018830686807632446,-0.29063940048217773,0.17639276385307312
1761379023134393600,3.2633935546875,0.01727253571152687,-0.2965397238731384,0.205346018075943
1761379023144448500,3.273448486328125,0.014160898514091969,-0.2986273765563965,0.230132594704628
1761379023154504400,3.28350439453125,0.0029792170971632004,-0.3130793869495392,0.2378598153591156
1761379023164559600,3.2935595703125,-0.024428971111774445,-0.3207540810108185,0.24860779941082
1761379023174615600,3.303615478515625,-0.049459341913461685,-0.3303064703941345,0.2680034339427948
1761379023184670700,3.313670654296875,-0.05581817403435707,-0.3535318970680237,0.28061455488204956
1761379023194726700,3.3237265625,-0.05079246312379837,-0.37178248167037964,0.2778974771499634
1761379023204781600,3.333781494140625,-0.044380370527505875,-0.39223024249076843,0.2769611179828644
1761379023214837500,3.34383740234375,-0.034938469529151917,-0.40952068567276,0.2786978483200073
1761379023224893700,3.353893798828125,-0.024163853377103806,-0.42546796798706055,0.27430763840675354
1761379023234948600,3.363948486328125,-0.015432476997375488,-0.4390806555747986,0.2628413736820221
1761379023245004500,3.374004638671875,-0.015255376696586609,-0.46575701236724854,0.2494041472673416
1761379023255059700,3.384059814453125,-0.03310561552643776,-0.563686192035675,0.23630836606025696
1761379023265115600,3.39411572265625,-0.06540229916572571,-0.47704583406448364,0.2123098224401474
1761379023275170600,3.404170654296875,-0.12387359142303467,-0.46943360567092896,0.15844286978244781
1761379023285226500,3.4142265625,-0.15861161053180695,-0.41258177161216736,0.1080542653799057
1761379023295281700,3.42428173828125,-0.1839858591556549,-0.3587228059768677,0.07316382229328156
1761379023305337600,3.434337646484375,-0.19114950299263,-0.3561943769454956,0.05515206977725029
1761379023315393800,3.444393798828125,-0.17787624895572662,-0.3546731770038605,0.060630444437265396
1761379023325448700,3.45444873046875,-0.1419225037097931,-0.3573818802833557,0.07069772481918335
1761379023335504600,3.464504638671875,-0.10380987077951431,-0.3363896906375885,0.06156621873378754
1761379023345559600,3.4745595703125,-0.08614938706159592,-0.2964779734611511,0.037430524826049805
1761379023355615500,3.484615478515625,-0.0858708918094635,-0.23724177479743958,0.00936985481530428
1761379023365670700,3.494670654296875,-0.08956283330917358,-0.1953744888305664,0.00011244136840105057
1761379023375726600,3.5047265625,-0.09130840003490448,-0.17667868733406067,0.025553163141012192
1761379023385781500,3.514781494140625,-0.09588317573070526,-0.186216801404953,0.0773250162601471
1761379023395837400,3.52483740234375,-0.09741349518299103,-0.2157529890537262,0.13968490064144135
1761379023405893600,3.5348935546875,-0.09912431240081787,-0.25651639699935913,0.17042230069637299
1761379023415948500,3.544948486328125,-0.08296705037355423,-0.26942679286003113,0.15972883999347687
1761379023426004700,3.555004638671875,-0.06034722179174423,-0.26848775148391724,0.11672171205282211
1761379023436059600,3.5650595703125,-0.04026772454380989,-0.2583755552768707,0.06065861135721207
1761379023446115800,3.57511572265625,-0.018067877739667892,-0.23407234251499176,0.010193037800490856
1761379023456170500,3.58517041015625,0.0003711199387907982,-0.21865038573741913,-0.015333452261984348
1761379023466226700,3.595226806640625,0.004978122655302286,-0.21338210999965668,-0.0029561452101916075
1761379023476281600,3.605281494140625,-0.01601177640259266,-0.22000522911548615,0.033821169286966324
1761379023486337500,3.615337646484375,-0.056555211544036865,-0.21310976147651672,0.062173716723918915
1761379023496393700,3.625393798828125,-0.08249380439519882,-0.21891652047634125,0.08150526881217957
1761379023506448600,3.63544873046875,-0.09377735108137131,-0.24060583114624023,0.08636420220136642
1761379023516504600,3.645504638671875,-0.07648783922195435,-0.28199303150177,0.07261311262845993
1761379023526559500,3.6555595703125,-0.04786472022533417,-0.31452515721321106,0.03802318125963211
1761379023536615700,3.66561572265625,-0.02450014464557171,-0.34065377712249756,-0.0034877241123467684
1761379023546670600,3.675670654296875,-0.013874664902687073,-0.32647085189819336,-0.03742465376853943
1761379023556726800,3.685726806640625,-0.027828164398670197,-0.281021386384964,-0.04610981047153473
1761379023566781400,3.695781494140625,-0.05980180948972702,-0.197900652885437,-0.036992479115724564
1761379023576837600,3.705837646484375,-0.11179668456315994,-0.11794289946556091,-0.005806921515613794
1761379023586893600,3.7158935546875,-0.15906140208244324,-0.05023948848247528,0.036500319838523865
1761379023596948700,3.72594873046875,-0.18668365478515625,0.005054041743278503,0.06383169442415237
1761379023607004700,3.736004638671875,-0.17811574041843414,0.03994864225387573,0.07451470196247101
1761379023617059600,3.7460595703125,-0.15045781433582306,0.06022254377603531,0.06873347610235214
1761379023627115800,3.75611572265625,-0.11280710250139236,0.06982244551181793,0.06686180830001831
1761379023637170400,3.76617041015625,-0.07786908745765686,0.06874672323465347,0.06368239223957062
1761379023647226600,3.7762265625,-0.04011079668998718,0.07428956031799316,0.05161401256918907
1761379023657281500,3.786281494140625,0.0019468427635729313,0.09329112619161606,0.03197396546602249
1761379023667337700,3.796337646484375,0.025408493354916573,0.11399321258068085,0.013810410164296627
1761379023677393700,3.8063935546875,0.03726368770003319,0.12312687933444977,-0.007186815142631531
1761379023687448800,3.81644873046875,0.04589472711086273,0.1304021030664444,-0.02738822251558304
1761379023697504500,3.82650439453125,0.04716525599360466,0.1442311704158783,-0.03227116912603378
1761379023707559700,3.8365595703125,0.03066377528011799,0.15049625933170319,-0.018207015469670296
1761379023717615600,3.84661572265625,0.022226614877581596,0.16811999678611755,0.013661169447004795
1761379023727670800,3.8566708984375,0.011438947170972824,0.18645772337913513,0.056890398263931274
1761379023737726700,3.866726806640625,0.0034238374792039394,0.20933276414871216,0.08923327177762985
1761379023747781600,3.87678173828125,0.006982619408518076,0.24238818883895874,0.08946683257818222
1761379023757837600,3.886837646484375,0.019506262615323067,0.287781685590744,0.0624467208981514
1761379023767893500,3.8968935546875,0.03794412687420845,0.3166421055793762,0.024156589061021805
1761379023777948700,3.90694873046875,0.06223155930638313,0.321864515542984,-0.0015207012183964252
1761379023788004600,3.917004638671875,0.08865757286548615,0.32770511507987976,0.009794004261493683
1761379023798059800,3.927059814453125,0.11793816834688187,0.3523685038089752,0.04383077472448349
1761379023808115700,3.93711572265625,0.13432088494300842,0.3707294166088104,0.10127835720777512
1761379023818170600,3.947170654296875,0.1425909698009491,0.3987954258918762,0.17348897457122803
1761379023828226600,3.9572265625,0.1334395557641983,0.4411809742450714,0.24136629700660706
1761379023838281700,3.96728173828125,0.1152082234621048,0.47085312008857727,0.2888992726802826
1761379023848337700,3.977337646484375,0.11860615015029907,0.4712810814380646,0.2947651445865631
1761379023858392800,3.987392822265625,0.12818634510040283,0.4434799253940582,0.24427706003189087
1761379023868448800,3.99744873046875,0.13414409756660461,0.4318682551383972,0.1339726597070694
1761379023878504700,4.007504638671875,0.1380542814731598,0.4353407919406891,-0.005433348007500172
1761379023888559600,4.0175595703125,0.14355051517486572,0.421524316072464,-0.12176128476858139
1761379023898615600,4.027615478515625,0.15632596611976624,0.39855140447616577,-0.19686762988567352
1761379023908670700,4.037670654296875,0.1612544059753418,0.3811742961406708,-0.23022958636283875
1761379023918726700,4.0477265625,0.16446983814239502,0.39337506890296936,-0.23022562265396118
1761379023928781800,4.05778173828125,0.15669341385364532,0.42127275466918945,-0.1850016862154007
1761379023938841000,4.067841064453125,0.14047589898109436,0.4420129954814911,-0.09017873555421829
1761379023948896300,4.077896240234375,0.13214899599552155,0.4517764151096344,0.01904202625155449
1761379023958952200,4.0879521484375,0.12044792622327805,0.4554482400417328,0.09798788279294968
1761379023969006000,4.098006103515625,0.1172523945569992,0.46625667810440063,0.11789847165346146
1761379023979061200,4.108061279296875,0.11365306377410889,0.46199995279312134,0.08241873979568481
1761379023989117200,4.1181171875,0.11552846431732178,0.41724979877471924,0.017083674669265747
1761379023999172000,4.128172119140625,0.12097989022731781,0.35565927624702454,-0.05892364680767059
1761379024009228300,4.138228271484375,0.11951621621847153,0.30103784799575806,-0.1145501583814621
1761379024019283200,4.148283203125,0.1116030365228653,0.25755250453948975,-0.14008460938930511
1761379024029339100,4.158339111328125,0.08757200092077255,0.22663614153862,-0.14415737986564636
1761379024039395000,4.16839501953125,0.0816410705447197,0.24328073859214783,-0.1465030014514923
1761379024049450200,4.1784501953125,0.07785166054964066,0.2601047158241272,-0.12531408667564392
1761379024059506200,4.188506103515625,0.07774380594491959,0.26533621549606323,-0.0772421658039093
1761379024069561300,4.198561279296875,0.08586884289979935,0.26628750562667847,-0.003239308949559927
1761379024079617300,4.2086171875,0.11344493925571442,0.2818743586540222,0.07612535357475281
1761379024089672200,4.218672119140625,0.13199065625667572,0.30393704771995544,0.14777930080890656
1761379024099728100,4.22872802734375,0.1411084532737732,0.31505054235458374,0.17622010409832
1761379024109783300,4.238783203125,0.14536765217781067,0.3175387382507324,0.1640169620513916
1761379024119839200,4.248839111328125,0.14922112226486206,0.32235682010650635,0.12209487706422806
1761379024129895200,4.258895263671875,0.1427174210548401,0.3230481743812561,0.06952355057001114
1761379024139950300,4.268950439453125,0.11488445103168488,0.3199223279953003,0.030291713774204254
1761379024150006300,4.27900634765625,0.07378947734832764,0.3098744750022888,0.015091455541551113
1761379024160061200,4.289061279296875,0.033602576702833176,0.29163363575935364,0.01609770767390728
1761379024170117000,4.2991171875,0.009541715495288372,0.2713414132595062,0.015826331451535225
1761379024180172300,4.30917236328125,0.014381342567503452,0.2461812049150467,0.013669351115822792
1761379024190228200,4.319228271484375,0.03881078585982323,0.2211616039276123,-0.0050042010843753815
1761379024200283400,4.329283447265625,0.07685816287994385,0.20645353198051453,-0.040582362562417984
1761379024210339000,4.339339111328125,0.11694540083408356,0.18694055080413818,-0.07959447801113129
1761379024220395000,4.34939501953125,0.14520247280597687,0.15772250294685364,-0.09591265767812729
1761379024230450200,4.3594501953125,0.1499444842338562,0.12714461982250214,-0.09207264333963394
1761379024240506000,4.369506103515625,0.12572051584720612,0.08855711668729782,-0.08584892004728317
1761379024250561300,4.379561279296875,0.08478240668773651,0.05523218959569931,-0.08986843377351761
1761379024260617200,4.3896171875,0.04238128289580345,0.033922597765922546,-0.11146698892116547
1761379024270672100,4.399672119140625,0.002846391871571541,0.010923271998763084,-0.14202888309955597
1761379024280728000,4.40972802734375,-0.02454574778676033,-0.00753948837518692,-0.17403484880924225
1761379024290783200,4.419783203125,-0.029922671616077423,-0.035196948796510696,-0.19362957775592804
1761379024300839200,4.429839111328125,-0.01878998801112175,-0.06157667189836502,-0.18579809367656708
1761379024310895000,4.43989501953125,0.00013017421588301659,-0.07665043324232101,-0.15015487372875214
1761379024320950300,4.4499501953125,0.00197334261611104,-0.07392153888940811,-0.09645237773656845
1761379024331006200,4.460006103515625,-0.014364086091518402,-0.05086122453212738,-0.035997822880744934
1761379024341061000,4.47006103515625,-0.037964753806591034,-0.01479210052639246,0.028664391487836838
1761379024351117000,4.480116943359375,-0.05372454226016998,0.015642505139112473,0.07537916302680969
1761379024361172200,4.490172119140625,-0.06266903877258301,0.02181776985526085,0.10375341773033142
1761379024371228200,4.500228271484375,-0.05360683053731918,0.0072225830517709255,0.10382799059152603
1761379024381284400,4.510284423828125,-0.03190026432275772,-0.014446916058659554,0.08971200883388519
1761379024391340300,4.52034033203125,-0.014757499098777771,-0.04361465573310852,0.060478486120700836
1761379024401396200,4.530396240234375,-0.0016566789709031582,-0.06843985617160797,0.024632969871163368
1761379024411451100,4.540451171875,0.006070483475923538,-0.09832877665758133,-0.01146191731095314
1761379024421507000,4.550507080078125,0.02185751497745514,-0.13206544518470764,-0.03497612476348877
1761379024431562200,4.560562255859375,0.034354932606220245,-0.15190891921520233,-0.050759345293045044
1761379024441618200,4.5706181640625,0.04511842504143715,-0.16246873140335083,-0.04535882547497749
1761379024451673300,4.58067333984375,0.04726839438080788,-0.14324364066123962,-0.013362542726099491
1761379024461729300,4.590729248046875,0.044144634157419205,-0.126918762922287,0.034784410148859024
1761379024471784200,4.6007841796875,0.043428510427474976,-0.11563654243946075,0.08247710019350052
1761379024481840000,4.610840087890625,0.04865476116538048,-0.11004266142845154,0.11076801270246506
1761379024491896000,4.62089599609375,0.05034240707755089,-0.11431117355823517,0.11637876182794571
1761379024501951200,4.630951171875,0.05354013293981552,-0.13033340871334076,0.10950557887554169
1761379024512007200,4.641007080078125,0.05528823286294937,-0.1433544009923935,0.09743187576532364
1761379024522062000,4.65106201171875,0.05185721814632416,-0.160283625125885,0.07904711365699768
1761379024532118000,4.661117919921875,0.0436064787209034,-0.1662435233592987,0.05385947227478027
1761379024542173200,4.671173095703125,0.02955523505806923,-0.17118920385837555,0.030946746468544006
1761379024552229000,4.68122900390625,0.01764451339840889,-0.17264249920845032,0.028343506157398224
1761379024562284300,4.6912841796875,0.008775193244218826,-0.19410285353660583,0.04513878375291824
1761379024572340200,4.70134033203125,0.0026283510960638523,-0.20709535479545593,0.0849732831120491
1761379024582396200,4.711396240234375,-0.010147303342819214,-0.2123306393623352,0.14135563373565674
1761379024592451000,4.721451171875,-0.031228618696331978,-0.20307987928390503,0.1748179793357849
1761379024602507000,4.731507080078125,-0.045413415879011154,-0.18719922006130219,0.19228577613830566
1761379024612562200,4.741562255859375,-0.045778267085552216,-0.17652207612991333,0.18739141523838043
1761379024622618000,4.7516181640625,-0.02098916471004486,-0.19308272004127502,0.1487499475479126
1761379024632673300,4.76167333984375,0.006695725955069065,-0.21020099520683289,0.07911068946123123
1761379024642729200,4.771729248046875,0.02556835114955902,-0.2207108736038208,0.004749711602926254
1761379024652784000,4.7817841796875,0.030759384855628014,-0.21059724688529968,-0.040793005377054214
1761379024662840000,4.791840087890625,0.022341996431350708,-0.19664578139781952,-0.04207821935415268
1761379024672896300,4.801896240234375,0.017530197277665138,-0.19145049154758453,-0.026464106515049934
1761379024682951200,4.811951171875,0.011069435626268387,-0.18310661613941193,-0.01018815953284502
1761379024693007000,4.822007080078125,-0.008496008813381195,-0.16772446036338806,-0.00030703283846378326
1761379024703062300,4.832062255859375,-0.04033869504928589,-0.1546310931444168,0.020855996757745743
1761379024713118000,4.842117919921875,-0.07330010831356049,-0.1501484513282776,0.041100017726421356
1761379024723173000,4.852173095703125,-0.08650985360145569,-0.14554236829280853,0.05065960809588432
1761379024733229000,4.86222900390625,-0.0897487923502922,-0.15130385756492615,0.045090675354003906
1761379024743285200,4.87228515625,-0.08919478207826614,-0.1577477753162384,0.02940988540649414
1761379024753340200,4.882340087890625,-0.08428258448839188,-0.17222177982330322,0.010472947731614113
1761379024763396400,4.892396240234375,-0.07222085446119308,-0.17351308465003967,-0.005733588710427284
1761379024773451000,4.902450927734375,-0.058405712246894836,-0.16450893878936768,-0.01702539250254631
1761379024783507200,4.912507080078125,-0.05025916546583176,-0.14694634079933167,-0.018542492762207985
1761379024793562000,4.92256201171875,-0.05693890526890755,-0.11848621070384979,-0.018924655392766
1761379024803618300,4.932618408203125,-0.07098621875047684,-0.09111319482326508,-0.014405522495508194
1761379024813673200,4.942673095703125,-0.08921875804662704,-0.07271713763475418,-0.004434913396835327
1761379024823729200,4.952729248046875,-0.103103868663311,-0.06905103474855423,-0.004578542895615101
1761379024833785300,4.962785400390625,-0.10300453752279282,-0.07234323769807816,-0.00962789636105299
1761379024843840000,4.972840087890625,-0.09341921657323837,-0.08722058683633804,-0.022333933040499687
1761379024853896200,4.982896240234375,-0.06492125988006592,-0.10260087251663208,-0.03150852397084236
1761379024863951000,4.992951171875,-0.04471013695001602,-0.12094095349311829,-0.036196690052747726
1761379024874007300,5.00300732421875,-0.03458746150135994,-0.12836797535419464,-0.03930619731545448
1761379024884062200,5.013062255859375,-0.03483007848262787,-0.1239776611328125,-0.042387086898088455
1761379024894118100,5.0231181640625,-0.03621412068605423,-0.13969697058200836,-0.038967058062553406
1761379024904173000,5.033173095703125,-0.027069559320807457,-0.15979033708572388,-0.007076718378812075
1761379024914229200,5.043229248046875,-0.03382013738155365,-0.17865855991840363,0.04205966740846634
1761379024924285200,5.05328515625,-0.06138911843299866,-0.1854167878627777,0.08593741059303284
1761379024934340400,5.06334033203125,-0.07346948236227036,-0.17168579995632172,0.10581231862306595
1761379024944396500,5.073396484375,-0.07387954741716385,-0.14900560677051544,0.11460942029953003
1761379024954451500,5.083451416015625,-0.07789026945829391,-0.1344844549894333,0.12895506620407104
1761379024964507600,5.093507568359375,-0.08161555230617523,-0.13621270656585693,0.1324443370103836
1761379024974562300,5.103562255859375,-0.08656636625528336,-0.14299443364143372,0.11310046166181564
1761379024984618500,5.113618408203125,-0.08375494182109833,-0.16399964690208435,0.06212218850851059
1761379024994673400,5.12367333984375,-0.07187964022159576,-0.18190328776836395,0.0028593996539711952
1761379025004729600,5.1337294921875,-0.0771518275141716,-0.20176666975021362,-0.04727776348590851
1761379025014785500,5.14378564453125,-0.09174328297376633,-0.22855807840824127,-0.0854850709438324
1761379025024840700,5.1538408203125,-0.09142085164785385,-0.2433515340089798,-0.11364497244358063
1761379025034896600,5.163896728515625,-0.0973900631070137,-0.26603662967681885,-0.12264005839824677
1761379025044951600,5.17395166015625,-0.10817045718431473,-0.2626494765281677,-0.13042059540748596
1761379025055007500,5.184007568359375,-0.11851816624403,-0.22925369441509247,-0.13257747888565063
1761379025065062400,5.1940625,-0.1308748424053192,-0.19971314072608948,-0.1376306414604187
1761379025075118600,5.20411865234375,-0.14455284178256989,-0.16614478826522827,-0.14531412720680237
1761379025085174500,5.214174560546875,-0.167854905128479,-0.13161608576774597,-0.15754052996635437
1761379025095229700,5.224229736328125,-0.20299318432807922,-0.08142747730016708,-0.17391417920589447
1761379025105285400,5.234285400390625,-0.22816038131713867,-0.009607117623090744,-0.16727587580680847
1761379025115340500,5.244340576171875,-0.2350102961063385,0.04082969203591347,-0.1554967164993286
1761379025125396500,5.254396484375,-0.21023964881896973,0.0786454975605011,-0.1324947029352188
1761379025135451600,5.26445166015625,-0.1679755598306656,0.09239965677261353,-0.11593597382307053
1761379025145507600,5.274507568359375,-0.11407057195901871,0.08633587509393692,-0.09728601574897766
1761379025155562500,5.2845625,-0.06173306331038475,0.07931338995695114,-0.09519782662391663
1761379025165618400,5.294618408203125,-0.015184786170721054,0.06378183513879776,-0.08734685927629471
1761379025175674400,5.30467431640625,0.029090799391269684,0.046189796179533005,-0.0818418338894844
