time,seconds_elapsed,z,y,x
1761379457334136000,0.083135986328125,0.1638771415144205,-0.08117379692979157,-0.170670454916358
1761379457344219000,0.093218994140625,0.03768471074998379,-0.11549831053167581,-0.10910597914606332
1761379457354301000,0.103301025390625,-0.04104512709379196,-0.15185601046159863,-0.11778086851090191
1761379457364383000,0.113383056640625,-0.03239420312643051,-0.1413270907279104,-0.18544030015543103
1761379457374465000,0.123465087890625,0.021389994031190872,-0.05631261965669691,-0.2028115600645542
1761379457384547800,0.1335478515625,0.06763268976807595,0.0017035159822553396,-0.21910934552326797
1761379457394630000,0.1436298828125,0.12707155168652534,-0.004100859447568655,-0.203240891392529
1761379457404712000,0.1537119140625,-0.07296586748957634,-0.07007606433220208,-0.1466373990304768
1761379457414794000,0.1637939453125,-0.24110475810170173,-0.13512911287061868,-0.06624284284487367
1761379457424877000,0.173876953125,-0.18720365656614302,-0.08820449928417802,-0.0910816621556878
1761379457434959000,0.183958984375,-0.10643033019602298,-0.0007605360437184572,-0.1199275251507759
1761379457445041200,0.194041259765625,0.05283727169632911,0.04380743141397834,-0.08796586822271346
1761379457455123000,0.204123046875,0.19750234774053096,-0.003631269174441695,-0.04845350365415215
1761379457465206300,0.214206298828125,0.282188463640213,-0.005571443456783891,0.011094371596723794
1761379457475288000,0.2242880859375,0.2645288883090019,0.04106032466292381,0.032740240085124966
1761379457485370000,0.2343701171875,0.19840075788497924,0.03539338494241238,0.024163696528226135
1761379457495452200,0.2444521484375,-0.003545125260949135,-0.029752894837409255,0.02666296599805355
1761379457505535200,0.25453515625,-0.2249941657781601,-0.06792012840732932,0.038839141482114786
1761379457515617000,0.264616943359375,-0.27970366108715533,-0.030956571538746355,0.06365764865726233
1761379457525699000,0.274698974609375,-0.15165829593241215,0.03089738869741559,0.0658913990586996
1761379457535781000,0.284781005859375,0.03803893101513386,0.06809658095277846,0.06214812087714672
1761379457545864200,0.2948642578125,0.1999187612324953,0.08488317284174263,0.051368660448491574
1761379457555946000,0.304946044921875,0.34064532878398895,0.03168631058540195,0.06897782076671718
1761379457566028000,0.315028076171875,0.3712514794498682,-0.038891858050040896,0.023683657926321027
1761379457576111000,0.325111083984375,0.1793704787224531,-0.051919901123084124,-0.07780322451815008
1761379457586193200,0.335193115234375,-0.16801731005907058,-0.030258944663405417,-0.07979425220489501
1761379457596275200,0.345275146484375,-0.29117841030359265,-0.03766582338642329,-0.06647226768657565
1761379457606357000,0.35535693359375,-0.19015081593394279,-0.03917841990645975,-0.10070786089599132
1761379457616439000,0.36543896484375,-0.0647936669498682,0.025563188062608242,-0.1242494800031185
1761379457626522000,0.375522216796875,0.039945056897401805,0.05313713142573833,-0.12393296139985323
1761379457636604200,0.385604248046875,0.1653501366764307,0.07623071450442075,-0.11860577502772211
1761379457646686000,0.39568603515625,0.25495383523404597,0.09131543437894434,-0.1181128769442439
1761379457656769000,0.40576904296875,0.2521779407799244,0.05811203376147896,-0.11469167032390833
1761379457666851000,0.41585107421875,0.01234042613506317,0.0263750524347648,-0.08842340273186564
1761379457676933000,0.42593310546875,-0.20739596524536608,0.007695778666995465,-0.027266923240572213
1761379457687015200,0.43601513671875,-0.2466998016297817,0.010954013277962802,0.020262012914568184
1761379457697097000,0.446096923828125,-0.10297346774041652,0.026060762321203947,0.058412149219214914
1761379457707180000,0.456179931640625,0.09309212519526482,0.034590690257400275,0.06861892432644963
1761379457717262000,0.466261962890625,0.19426818812489507,0.07328139971215278,0.060899582120776174
1761379457727344000,0.47634423828125,0.15664134504199026,0.0942957288313657,0.06487637679725886
1761379457737426000,0.486426025390625,0.07656827589571476,0.09081888303365558,0.08570712951049209
1761379457747509000,0.496509033203125,0.08262509171664714,0.022380831699445842,0.09095803577601909
1761379457757591000,0.506591064453125,0.06451601905226707,-0.06954904478341341,0.06340951911509037
1761379457767673000,0.516673095703125,0.047098435783386225,-0.09252948634382337,0.06354907371625304
1761379457777755100,0.526755126953125,0.017201310169696806,-0.052675395665504034,0.09816022223979234
1761379457787838000,0.536837890625,0.021433248651027678,-0.0417852779366076,0.06786503721922636
1761379457797920000,0.546919921875,0.10762041676342486,-0.01053867394272238,0.029125995110720393
1761379457808002000,0.557001953125,0.15235504602491853,0.04119768730700016,-0.019405980607122182
1761379457818084000,0.567083984375,0.20655659181177616,0.03504347552619874,-0.07614902757033705
1761379457828167000,0.5771669921875,0.2576630941927433,-0.017732640567421912,-0.10905483348071575
1761379457838249000,0.5872490234375,0.1375701493471861,-0.09538315874189138,-0.11082695771977305
1761379457848331000,0.5973310546875,-0.11006254921853542,-0.13989113964065908,-0.043751755703985686
1761379457858413000,0.6074130859375,-0.2043628811597824,-0.14152882384508847,-0.006034311728179455
1761379457868496100,0.61749609375,-0.1177145252764225,-0.11327953850366175,-0.02524740011170506
1761379457878578000,0.627577880859375,0.10763678337633609,-0.1094764564262703,-0.04812324878647923
1761379457888660000,0.637659912109375,0.2760463076233864,-0.05391699322443455,-0.08339549156725407
1761379457898742000,0.647741943359375,0.3294534881621599,0.03832629658915102,-0.12214973124489187
1761379457908825000,0.6578251953125,0.08391863865852356,0.07109868537820875,-0.07627426138520241
1761379457918907100,0.6679072265625,-0.2960743656516075,0.015259966843575239,0.010309650959819555
1761379457928989200,0.6779892578125,-0.37789749333560463,0.02623677647523582,-0.023469138392806052
1761379457939071200,0.6880712890625,-0.2356073297291994,-0.03381696593854576,-0.05276055319830775
1761379457949154000,0.698154052734375,-0.09289572584033012,-0.07316833125911652,-0.005873568208515644
1761379457959236000,0.708236083984375,0.16643617834746838,-0.04931114339679479,0.024334961441904304
1761379457969318100,0.718318115234375,0.4348942227989435,-0.015979367159307003,-0.03163958536684513
1761379457979400200,0.728400146484375,0.5120265623182058,0.03858085587210953,-0.06974807448685169
1761379457989483000,0.73848291015625,0.43664603490233417,0.04720847202911973,-0.07653875754028558
1761379457999565000,0.74856494140625,0.2881488333493471,0.007464782922714948,-0.08963277852162718
1761379458009651700,0.758651611328125,0.051826633349061006,0.010795023323968053,-0.10367781661748886
1761379458019733800,0.768733642578125,-0.16302900025248526,0.032779914508387444,-0.11044804140478372
1761379458029816600,0.778816650390625,-0.16818565236330033,0.019222294603288174,-0.12630553575009107
1761379458039898600,0.788898681640625,-0.11353285567760467,-0.009292948197945952,-0.13056976906582712
1761379458049980700,0.798980712890625,-0.033466216272115705,-0.04582103625871241,-0.08250102694556116
1761379458060062700,0.809062744140625,-0.028145898032188414,-0.050457463887706396,-0.03749284143969416
1761379458070145500,0.8191455078125,-0.12086977443695068,-0.024265841728448867,0.021284341699630022
1761379458080227600,0.8292275390625,-0.27646190268695353,0.024767142314091325,-0.03392828082591295
1761379458090309600,0.8393095703125,-0.30846096901595593,0.07272606738433242,-0.11179857923090457
1761379458100391700,0.8493916015625,-0.18569208295941353,0.03281991772521287,-0.10941679866090416
1761379458110474500,0.859474609375,-0.026804420295357703,-0.010888766022026538,-0.07989099057763814
1761379458120556500,0.869556640625,0.12382570163309574,0.0022419337078928947,-0.06807824157848953
1761379458130638600,0.879638671875,0.22591946392953394,0.05816069520879537,-0.07546236048042773
1761379458140720600,0.889720703125,0.2757353419780731,0.07919836867097765,-0.07256313190758228
1761379458150803700,0.8998037109375,0.2618149531751871,0.06658774729240685,-0.05726926279440522
1761379458160885500,0.909885498046875,0.16237667382359502,0.04101356291174888,-0.03871317701488733
1761379458170967600,0.919967529296875,0.06536299127042293,0.02268211620096117,0.009521861582994461
1761379458181049600,0.930049560546875,0.08259294301271439,0.039085407860763366,0.013455255509167909
1761379458191132700,0.940132568359375,0.10716916586458683,0.061701546153426164,-0.000866699831932783
1761379458201214700,0.950214599609375,0.10303834967017172,0.047206207006797195,0.017168138552457093
1761379458211296800,0.960296875,0.10129530539512634,0.027408450603112578,0.03254515590444207
1761379458221378800,0.97037890625,0.1285813717275858,0.0027321283776313063,0.02510156190022826
1761379458231462000,0.9804619140625,0.0923170491695404,0.003549947566539049,-0.03651026014313102
1761379458241543700,0.990543701171875,0.013942600634694099,0.04401603266336024,-0.10719137769639492
1761379458251625700,1.000625732421875,-0.060654667448997494,0.07699077562410384,-0.13226985098198055
1761379458261707800,1.010707763671875,-0.13240589845180512,0.05475209234170615,-0.14076485373526812
1761379458271790800,1.020790771484375,-0.17306348753273487,0.04500877002775669,-0.14601941326260565
1761379458281872600,1.03087255859375,-0.051667058873176575,0.08113127296231687,-0.13639584487080572
1761379458291954700,1.04095458984375,0.0300637143522501,0.09098262222800403,-0.11613120160773396
1761379458302036700,1.05103662109375,0.07038052717149257,0.07814118776824325,-0.05623772778958082
1761379458312119800,1.061119873046875,0.10668342817425727,0.06807564776260405,0.01812850801721215
1761379458322201900,1.071201904296875,0.18780279150307178,0.07688322359640151,0.08298442654833198
1761379458332283600,1.08128369140625,0.21136603792011738,0.10751312046404927,0.10456263662800193
1761379458342365700,1.09136572265625,0.1514502061396837,0.11066449716705828,0.09589607670009136
1761379458352448800,1.10144873046875,0.14753624756634234,0.09177651255205273,0.08873758324757218
1761379458362530800,1.11153076171875,0.1426414612621069,0.021745200677029786,0.10477554872632026
1761379458372612600,1.121612548828125,0.12198095054924488,-0.008450250296108424,0.09560147766768932
1761379458382694700,1.131694580078125,0.07858136928379535,0.04107278228569776,0.019351473940908907
1761379458392777700,1.14177783203125,-0.005399813216924667,0.07223331543132662,-0.03562061782702804
1761379458402859800,1.15185986328125,-0.017911504265666008,0.034289003897085786,-0.04513400384262204
1761379458412941600,1.161941650390625,-0.03501987545490265,0.003618044366687536,-0.056623366106301545
1761379458423023600,1.172023681640625,-0.03450549619197845,-0.004767470130138099,-0.0816357884183526
1761379458433106700,1.182106689453125,0.023940263035893437,-0.010938011991232633,-0.0924425752453506
1761379458443188700,1.192188720703125,0.046803836750984186,-0.04104216795172542,-0.09048165043592453
1761379458453270800,1.202270751953125,0.016654197680950163,-0.04837897711321711,-0.0862608178704977
1761379458463352600,1.2123525390625,0.012141688692569732,-0.030682357707247136,-0.08386457038372755
1761379458473435600,1.222435546875,-0.014213818791508674,-0.00231474321577698,-0.08618629132956265
1761379458483517700,1.232517578125,-0.10602584104835987,0.04666508586741984,-0.04989157363325357
1761379458493599700,1.242599853515625,-0.08509878835380077,0.05237228453308344,-0.006952303355932235
1761379458503681500,1.252681640625,-0.0072726213514804836,0.0435141840884462,0.012141688692569732
1761379458513764600,1.2627646484375,0.09215046043097973,0.06572440846133977,0.03925488267615437
1761379458523846700,1.2728466796875,0.18003741819858549,0.08159293565731496,0.047316462448239324
1761379458533928700,1.2829287109375,0.22506138579547405,0.0627825463231653,0.04982844526916742
1761379458544010800,1.2930107421875,0.213918060490489,0.011411949645914138,0.04067965478226542
1761379458554093600,1.303093505859375,0.11144085183441638,-0.05217789447214454,0.017328005289286373
1761379458564175600,1.313175537109375,0.0003343465209007263,-0.06839096078947186,-0.004596241749078035
1761379458574257700,1.323257568359375,-0.07943243315517902,-0.04398450501393526,-0.04172112665921449
1761379458584339700,1.333339599609375,-0.09310206206738948,-0.011394596652314066,-0.059766194176673886
1761379458594422500,1.343422607421875,-0.10735621286928652,-0.003251147283054888,-0.062059273549914355
1761379458604504600,1.353504638671875,-0.11775953346192836,0.008501651689782739,-0.03733721248656511
1761379458614586600,1.363586669921875,-0.08123802127242088,0.01756093726232648,-0.024686112967133522
1761379458624668700,1.373668701171875,0.08306991287469863,0.018545893179066478,0.0028990824423730374
1761379458634751700,1.383751708984375,0.22517595208585262,-0.0034278190242126583,-0.005927198091894388
1761379458644833800,1.393833740234375,0.25911446204483507,-0.016654197680950163,-0.024645780956745147
1761379458654915600,1.40391552734375,0.22447569486200808,-0.01951992584299296,-0.04840089668408036
1761379458664997600,1.41399755859375,0.09762333888411522,-0.03136084149070084,-0.057985448239743706
1761379458675080700,1.424080810546875,0.025658172869682312,-0.01066310403998941,-0.06652297496050597
1761379458685162800,1.434162841796875,-0.003643909460306167,0.008600691617466509,-0.08768339801952242
1761379458695244800,1.444244873046875,0.036272505864500995,0.007447101135551929,-0.08117021673321724
1761379458705326800,1.454326904296875,0.08560323074460029,0.0017928747661411762,-0.07926978993937372
1761379458715409700,1.46440966796875,0.04552840998768806,0.017040493584796784,-0.06127177643403411
1761379458725491700,1.47449169921875,0.04524842400252819,0.02957618656363338,-0.037620997864007945
1761379458735573800,1.48457373046875,0.022807459613680837,0.05047518220748752,-0.033367870464175935
1761379458745655800,1.49465576171875,0.027279636591672894,0.052241388162411743,-0.01688639900162816
1761379458755738600,1.504738525390625,0.08383329846262931,0.04663889198023825,-0.0166753865994513
1761379458765820700,1.514820556640625,0.17469313456118105,0.04190404547806829,-0.035179888322204346
1761379458775902700,1.52490283203125,0.1923456956297159,0.04155873917173594,-0.042899376658350225
1761379458785984800,1.53498486328125,0.08001870861053466,0.027996041232720016,0.006723170775175094
1761379458796067800,1.54506787109375,-0.029894787526130673,0.02327259290739894,0.0401481782540679
1761379458806149600,1.555149658203125,-0.05065875861346721,0.032118674120679494,-0.010653788222372531
1761379458816231700,1.565231689453125,-0.04123626575171947,0.04429930658414959,-0.07023541961237788
1761379458826313700,1.575313720703125,-0.046402270212769506,0.03569390225894749,-0.051849429702758784
1761379458836396800,1.585396728515625,0.01699029776751995,0.012653656802698969,-0.0029724399395287034
1761379458846478600,1.595478515625,0.0821826086461544,0.005368541295826435,0.034925475169718265
1761379458856560600,1.605560546875,0.0921212343364954,-0.013451456116884947,0.028397388575226067
1761379458866642700,1.615642578125,0.016325696378946302,-0.007600684262067079,0.005795826797187328
1761379458876724700,1.625724853515625,-0.02258943294882774,0.008534384915605186,0.00008738602250814438
1761379458886807800,1.635807861328125,0.0002069207489490509,0.007471212663501501,-0.008684826236963272
1761379458896889600,1.6458896484375,0.027515783435106276,0.0135139268938452,-0.031216537649184462
1761379458906971600,1.6559716796875,0.08065116129517555,-0.004293057551421225,-0.040325580647587775
1761379458917054700,1.6660546875,0.07880991734266281,-0.015840725873596966,-0.05149535556808114
1761379458927136800,1.67613671875,0.09483049329519272,0.01815901275333017,-0.08496405605822802
1761379458937218600,1.686218505859375,0.07123276008665562,0.0316400602908805,-0.10920929339006542
1761379458947300600,1.696300537109375,0.007318214058876037,-0.01074687333330512,-0.09657792148441076
1761379458957382700,1.706382568359375,-0.05738309843242168,-0.035834552838653326,-0.11772694636657834
1761379458967465700,1.7164658203125,-0.04745908578932285,-0.027624614104442297,-0.12959303298816083
1761379458977547500,1.726547607421875,-0.02344868012666702,-0.022047471559233964,-0.10567074400037527
1761379458987629600,1.736629638671875,-0.007779986351728439,-0.011498458885587752,-0.061995122272521255
1761379458997711600,1.746711669921875,0.050638884869217866,0.017998999886028468,-0.007421966694295406
1761379459007790800,1.756790771484375,0.10289455728530883,0.050112011450901627,0.009938771820813416
1761379459017872600,1.76687255859375,0.12035071899890899,0.08285988685321062,-0.02571677118912339
1761379459027954700,1.77695458984375,0.12151391755938529,0.09163286629766225,-0.0289558992408216
1761379459038036500,1.787036376953125,0.0796598121702671,0.04721296554114669,-0.011433248162269592
1761379459048119800,1.797119873046875,0.031276012751460074,-0.01697279864344746,0.010213204848021268
1761379459058201900,1.807201904296875,0.009957330390810966,-0.03922390301600098,0.02231836092248559
1761379459068284000,1.817283935546875,0.007141688448190689,-0.03455130809508264,0.022540186979621648
1761379459078365700,1.82736572265625,0.026145079603791234,-0.021559870705381033,0.014768530064821242
1761379459088448800,1.83744873046875,0.08361410275399685,-0.007824373482726514,0.009392828375846147
1761379459098530800,1.84753076171875,0.1129693765759468,0.002673310862481594,-0.02585632579028606
1761379459108612900,1.85761279296875,0.02775777549743652,0.009807802384905516,-0.06764540311917662
1761379459118694700,1.867694580078125,-0.023887656065821647,0.021600385378859936,-0.08915946192145346
1761379459128777700,1.87777783203125,-0.026736031234264372,0.0017378566432744264,-0.0924696093827486
1761379459138859800,1.88785986328125,-0.02634966226518154,-0.026403474811650812,-0.09348550842702388
1761379459148941800,1.89794189453125,-0.04756371520757675,-0.04578530735820532,-0.06199643744677305
1761379459159023900,1.90802392578125,-0.11328092674314975,-0.04475618350617587,-0.04357274587526917
1761379459169106700,1.918106689453125,-0.07603226932287216,-0.011858487837016582,-0.04253142012879252
1761379459179188700,1.928188720703125,0.0489338345170021,0.04034136273860931,-0.0437079165622592
1761379459189270800,1.938270751953125,0.1737374412715435,0.07332604257147758,-0.03184957485571503
1761379459199352800,1.948352783203125,0.22706629587709903,0.08338942715264856,-0.024921675288677215
1761379459209435600,1.958435546875,0.24241116452515124,0.0592970788275823,-0.013856968177855014
1761379459219517700,1.968517578125,0.17183189991116524,0.020295586390607058,0.014548019181936978
1761379459229599700,1.978599853515625,0.07693535564243793,-0.00491005693860352,0.037900545457750554
1761379459239681800,1.988681884765625,-0.0034901802033185957,0.019103417463973163,0.019347674548625945
1761379459249764600,1.9987646484375,-0.0149316116720438,0.03825761526711285,0.0059016252592206
1761379459259846700,2.0088466796875,0.030219781696796417,0.03910962898656726,-0.012636340341717005
1761379459269928700,2.0189287109375,0.09469371517300605,-0.00748228204678744,-0.019304273798316715
1761379459280010800,2.0290107421875,0.10008826769292355,-0.054613999045267696,-0.007689385458827018
1761379459290093600,2.039093505859375,0.03448036175072193,-0.08076930778212844,-0.014390782793611287
1761379459300175600,2.049175537109375,0.011624386820197105,-0.0655423664253205,-0.05581994076892733
1761379459310257700,2.059257568359375,0.06521919888556003,-0.04048793160244822,-0.08920110910609363
1761379459320339700,2.069339599609375,0.07427052034735679,-0.04061258089542389,-0.11710720703303813
1761379459330422500,2.079422607421875,0.04592296226322651,-0.006725070471316576,-0.1344040865316987
1761379459340504600,2.089504638671875,0.006903203517198562,0.009111234955489635,-0.13384148421287537
1761379459350586600,2.099586669921875,-0.06074877547323703,-0.017506357530876992,-0.11477423404082655
1761379459360668700,2.109668701171875,-0.1438128431290388,-0.06645853142216801,-0.0942187911376357
1761379459370751700,2.119751708984375,-0.14508184015154837,-0.05605769504755735,-0.0775055567458272
1761379459380833500,2.12983349609375,-0.05365560234189033,-0.023433957481570542,-0.10496391090527177
1761379459390915600,2.13991552734375,0.01881634415090084,0.020180216382630168,-0.11937851296588778
1761379459400997600,2.14999755859375,0.08512567636072635,0.023461393477767704,-0.09817395850419998
1761379459411080700,2.160080810546875,0.13831073858141898,0.014669672800227998,-0.05896598370969295
1761379459421162500,2.17016259765625,0.13207798167169094,0.014242168103158473,-0.037166824355721474
1761379459431244500,2.18024462890625,0.0894236658155918,0.037946686154417694,-0.025889059016108513
1761379459441326600,2.19032666015625,0.1376426300615072,0.05791358857993036,-0.05001300805583596
1761379459451409700,2.20040966796875,0.18442308593690393,0.04005253585986793,-0.09262202346548437
1761379459461491700,2.21049169921875,0.1318131932556629,0.025419176482036707,-0.10599822238907218
1761379459471573500,2.220573486328125,-0.007509937238693237,0.005117269948497414,-0.05904226381629705
1761379459481655600,2.230655517578125,-0.1177104336231947,-0.04262271514143794,-0.04680149866342544
1761379459491739000,2.24073876953125,-0.09777589909732341,-0.040679106792993844,-0.07028992627859115
1761379459501821000,2.250821044921875,-0.008947861087322234,-0.006738222213834524,-0.06942308031618595
1761379459511902500,2.26090234375,0.05839432130157947,0.00859901111703366,-0.0582851618386805
1761379459521984500,2.270984619140625,0.08945990617275237,0.0043764615185558796,-0.05802081181406975
1761379459532067800,2.28106787109375,0.1464583892017603,-0.009675115915946662,-0.07456877264156937
1761379459542150000,2.29114990234375,0.1544476343899965,-0.040591647705249485,-0.09236512609496712
1761379459552231700,2.301231689453125,-0.012481880432367323,-0.05202131567094475,-0.08236644078046083
1761379459562313700,2.311313720703125,-0.10655775596797466,-0.025789507631771263,-0.07969415283128618
1761379459572396800,2.321396728515625,-0.01218494331240654,-0.019868081693537532,-0.13189473405927418
1761379459582478800,2.331478759765625,-0.022689970713853834,-0.00724606213811785,-0.11299129614681004
1761379459592561000,2.341560791015625,0.058176294636726376,-0.009608918811939655,-0.042289135805517436
1761379459602642700,2.351642578125,0.15329963339865207,-0.030143976514227688,-0.014832827472686766
1761379459612725800,2.361725830078125,0.2427922727972269,-0.02769040934965014,-0.03108049017935991
1761379459622807800,2.371807861328125,0.20607494577467442,-0.023184549297764895,-0.08113003085330128
1761379459632889900,2.381889892578125,0.027206571355462072,-0.026537184193916617,-0.09078706312328577
1761379459642971600,2.3919716796875,-0.1451595815628767,-0.020634937880188227,-0.05725757235661149
1761379459653053700,2.4020537109375,-0.1882411829203367,-0.0019335253458470105,-0.07662512064948677
1761379459663136800,2.41213671875,-0.13734160128831863,0.018869316447153686,-0.09023074441477656
1761379459673218800,2.42221875,-0.14359130933284758,0.04082633324395865,-0.06379296547472477
1761379459683300600,2.432300537109375,-0.1480395209133625,0.051394489009492096,-0.048773675519227976
1761379459693382700,2.442382568359375,-0.03712532330155372,0.04306545394025743,-0.04117825195416808
1761379459703465700,2.4524658203125,0.09989537546932696,0.048037725927494467,-0.07742270076796412
1761379459713547800,2.4625478515625,0.19653964018821715,0.05909578410182148,-0.07934607004597782
1761379459723629800,2.4726298828125,0.24326807361543176,0.03344133755918592,-0.034348698195070027
1761379459733711600,2.482711669921875,0.2691553790658712,0.021049108171649275,-0.04373670426532626
1761379459743794700,2.492794677734375,0.2316945401996374,0.040135428370349106,-0.0821137811936438
1761379459753876700,2.502876708984375,0.140806062528491,0.03612948066461831,-0.07147665184512735
1761379459763958800,2.512958740234375,-0.0008346972584724426,0.0060122094942256805,-0.04514437910616398
1761379459774040600,2.52304052734375,-0.05367664512991905,-0.011374467179737984,-0.04852291562855243
1761379459784123600,2.53312353515625,-0.05114683439135551,0.021429266595654188,-0.07962181824743747
1761379459794205700,2.543205810546875,-0.08394786475300789,0.04921856974251568,-0.0754931940101087
1761379459804287700,2.553287841796875,-0.06684884591400624,0.04637300758566707,-0.08740253525152802
1761379459814369800,2.563369873046875,0.01478957285284996,0.03759089498668909,-0.090752137940377
1761379459824452600,2.57345263671875,0.044404958915710446,0.029336897915042934,-0.07145020222961902
1761379459834534700,2.58353466796875,0.03596563187241554,0.012323803793825208,-0.07520268663093448
1761379459844616700,2.59361669921875,0.06175356860160827,0.007281973701715469,-0.09063552582338452
1761379459854698800,2.60369873046875,0.07744155159890652,-0.005670629514940083,-0.06693082510903477
1761379459864781600,2.613781494140625,0.0931798034787178,-0.02416676526814699,-0.050408729375153775
1761379459874863600,2.623863525390625,0.06216331844627857,-0.02066555221416056,-0.020740736342221497
1761379459884945700,2.633945556640625,0.013072832062840462,-0.013151231061294674,0.007666735235601663
1761379459895027700,2.64402783203125,0.001228080490231514,0.018097966748476028,0.0034105390958487987
1761379459905110500,2.654110595703125,-0.018542787906527518,0.03686130207050591,-0.012681348527222872
1761379459915192600,2.664192626953125,-0.12125497436225413,0.061103616792894895,-0.013131430382281541
1761379459925274600,2.674274658203125,-0.09624503626823425,0.07443082547560334,-0.014075287103652953
1761379459935356700,2.684356689453125,0.00696340927183628,0.03447239763997495,-0.01089241928383708
1761379459945439500,2.694439453125,0.053180970567464826,-0.02060147400200367,0.00877703456506133
1761379459955521500,2.704521484375,0.13083353456854818,-0.04800444471240043,-0.004007628206163644
1761379459965603600,2.714603515625,0.21529227145314214,-0.06364745605681091,-0.04959127551242709
1761379459975685600,2.724685546875,0.18854104264974594,-0.04401625185906887,-0.08547448979839682
1761379459985768700,2.734768798828125,0.10495382790267467,-0.012963161143288016,-0.08401099311709403
1761379459995850800,2.744850830078125,0.027459084811806676,0.004429945271462202,-0.08969809884279965
1761379460005933800,2.754933837890625,-0.10737024139463901,0.020288973986729977,-0.09622662382870913
1761379460016016000,2.765015869140625,-0.1138408987134695,0.021489180089347065,-0.07276610713377595
1761379460026097700,2.77509765625,-0.04263561115562915,-0.00330280440505594,-0.05337853896617889
1761379460036180700,2.7851806640625,0.04233165977299213,-0.010102218754217029,-0.023677812707424164
1761379460046262800,2.7952626953125,0.10662848311662673,-0.017042101019993424,-0.002644084767997265
1761379460056344800,2.8053447265625,0.16681202592253683,-0.029083325012773272,-0.005741758522391319
1761379460066427000,2.815427001953125,0.14274492163658142,-0.012174385385774075,-0.009699556237459182
1761379460076509700,2.825509765625,0.04187281008958816,0.0010620397409424186,-0.01768470977246761
1761379460086591700,2.835591796875,-0.06083703827857971,0.014263357021659612,-0.030418519139289855
1761379460096673800,2.845673828125,-0.08256020978689194,0.005066891468130052,-0.053165626867860555
1761379460106755800,2.855755859375,-0.07043547222912311,-0.008697831849008799,-0.06604147505387663
1761379460116838700,2.865838623046875,-0.008968319353461264,-0.02689783419985324,-0.05605857183039188
1761379460126920700,2.875920654296875,0.06403788014650344,-0.031223917238041757,-0.08511194009631871
1761379460137002800,2.886002685546875,0.10400164174437522,0.001299830552190542,-0.1037038278415799
1761379460147084800,2.896084716796875,0.11434943275749683,0.02232869965340942,-0.08826353599503636
1761379460157167600,2.906167724609375,0.1300409228861332,0.025730872779712078,-0.07394917943850159
1761379460167249700,2.916249755859375,0.09599310733377933,0.026486549985222516,-0.06377265333905816
1761379460177331700,2.926331787109375,0.030341946771740912,0.03280296659041196,-0.06817176508083939
1761379460187413800,2.936413818359375,0.018320669588446616,0.04212269319742918,-0.07707096472084522
1761379460197496600,2.94649658203125,0.03691138828992843,0.04298263449501246,-0.08128098363131284
1761379460207578600,2.95657861328125,0.04336860160529613,0.02997442863360047,-0.05933598606586456
1761379460217660700,2.96666064453125,0.10403671305775641,0.031715244418941434,-0.03968012235090136
1761379460227742700,2.97674267578125,0.13696633823513985,0.02431611061096191,-0.04548720119446516
1761379460237825500,2.986825439453125,0.1108387942880392,0.009399952236376703,-0.06944616893082857
1761379460247907600,2.996907470703125,0.03633388066291809,0.02933247746825218,-0.09035130205452442
1761379460257989600,3.00698974609375,-0.04474807326495647,0.05152063613981008,-0.0756936850182712
1761379460268071700,3.01707177734375,-0.07080313649773597,0.05272730851583182,-0.06504851849377155
1761379460278154500,3.027154541015625,-0.03609071955680847,0.0439631334323436,-0.03826557937785983
1761379460288236500,3.037236572265625,0.027517537000775336,0.025938852974586188,-0.030297084716707466
1761379460298318600,3.047318603515625,0.08329553832411765,0.03090929833091795,-0.0470057890638709
1761379460308400600,3.057400634765625,0.08732757031917572,0.02262918043732643,-0.06685162239298224
1761379460318483700,3.067483642578125,0.07721709519326686,0.02003419550806284,-0.05130860082432628
1761379460328565500,3.0775654296875,0.09550152442455291,0.01228142595682293,-0.049130818393826485
1761379460338647600,3.0876474609375,0.09450666816830634,0.02142272725701332,-0.05226224828734994
1761379460348729600,3.0977294921875,0.05100304200649261,0.018873079306818544,-0.05226151763498783
1761379460358811600,3.107811767578125,0.00322246917784214,0.021790026199445128,-0.05189794501960277
1761379460368894500,3.11789453125,-0.01529459976553917,0.018831980111449955,-0.07020064055994153
1761379460378976500,3.1279765625,-0.006117606097459793,0.015054763127677142,-0.08198504024744033
1761379460389058600,3.13805859375,-0.01125906063914299,0.015545615384541451,-0.09319967722296714
1761379460399140600,3.148140625,-0.01025426751077175,0.003219436970539391,-0.10585632970035075
1761379460409223700,3.1582236328125,0.008664367970824241,-0.011174999084882438,-0.10878303080201149
1761379460419305700,3.1683056640625,-0.0276759424328804,-0.03419854913465679,-0.08977174860090016
1761379460429387800,3.1783876953125,-0.033438159221410746,-0.017630056975781915,-0.07707593315690756
1761379460439469600,3.188469482421875,-0.022831425011157987,0.03212254657819867,-0.10587152726948261
1761379460449553000,3.198552978515625,-0.007576572734117507,0.04400372117105871,-0.08847907844185829
1761379460459634700,3.208634765625,0.04309679892659187,0.011454546678625046,-0.053731151796132325
1761379460469716700,3.218716796875,0.14005086024701593,0.010179192980565131,-0.06635960109233856
1761379460479798800,3.228798828125,0.17299334490597246,0.04620886653251946,-0.08032324451506137
1761379460489881900,3.2388818359375,0.08543547296226024,0.06783409409169107,-0.08949600039944053
1761379460499963600,3.248963623046875,-0.007812719577550888,0.06829590291716157,-0.08218553125560284
1761379460510045700,3.259045654296875,-0.06632628334462642,0.021919169004447757,-0.08420037820935249
1761379460520127700,3.269127685546875,-0.059280456486344335,0.00229165460113436,-0.07363003048673272
1761379460530210800,3.2792109375,0.025517303094267845,-0.0013165624912828207,-0.06549480095654725
1761379460540292900,3.28929296875,0.1193523556113243,0.013423252935707569,-0.050260114684700964
1761379460550374700,3.299374755859375,0.19220599489808082,0.020322145603969693,-0.044995326024293895
1761379460560456700,3.309456787109375,0.2071340994387865,0.03840856804512441,-0.03394698552638292
1761379460570538800,3.319538818359375,0.1531546719700098,0.04369271899312734,-0.049493952617794275
1761379460580621800,3.329621826171875,0.06397650534808635,0.02252710830233991,-0.0879924639686942
1761379460590703600,3.33970361328125,-0.02210369525849819,-0.006903934169560671,-0.1275776015125215
1761379460600785700,3.34978564453125,-0.13539806600511073,-0.044136334574781354,-0.1425328863210976
1761379460610867700,3.35986767578125,-0.15940554905831814,-0.059448579594865436,-0.1307727442920208
1761379460620950800,3.36995068359375,-0.05689560717642307,-0.036320838518254454,-0.129294342302531
1761379460631032800,3.38003271484375,0.08890519489943981,-0.000615465017221868,-0.10070742250457405
1761379460641114600,3.390114501953125,0.1682996341317892,0.005662227012775838,-0.08737813146263361
1761379460651196700,3.40019677734375,0.19196926353275776,0.004456650615297258,-0.07396379248574375
1761379460661279700,3.41027978515625,0.14707798240482806,-0.003285962868109345,-0.09019275049194693
1761379460671361800,3.42036181640625,0.021224574336409566,-0.033958274105377495,-0.0754006934210658
1761379460681443600,3.430443603515625,-0.05440320583879947,-0.05301208027396351,-0.06736965491771697
1761379460691525600,3.440525634765625,-0.1078325982093811,-0.08199669415261596,-0.09834887667968868
1761379460701608700,3.450608642578125,-0.13503683147728443,-0.053910417353175574,-0.11082023571804166
1761379460711690800,3.460690673828125,-0.11555705498158932,0.0180822577226907,-0.09347805577293038
1761379460721772500,3.4707724609375,-0.05305939001441001,0.07329747406411916,-0.049118397303670645
1761379460731854600,3.4808544921875,0.027880525094270706,0.08993603578452021,-0.007104425177723169
1761379460741936600,3.4909365234375,0.08802841206490992,0.07196699264533818,-0.0004107727579772472
1761379460752019700,3.501019775390625,0.10572072062194347,0.027043818541802465,-0.022122838350385428
1761379460762101800,3.511101806640625,0.09534428803622721,-0.016999978911317885,-0.04650763028338551
1761379460772183600,3.52118359375,0.09577332710325717,-0.0341966494385153,-0.05625993962138891
1761379460782265600,3.531265625,0.09599661446511745,-0.029300584492646158,-0.06849938960000872
1761379460792348700,3.5413486328125,0.07547171283066273,-0.016508396002091467,-0.08346636484637857
1761379460802430700,3.5514306640625,0.02096212400794029,-0.006470072796940803,-0.08510200322419405
1761379460812512500,3.561512451171875,-0.01957096191048622,0.00749916011635214,-0.060373950811475514
1761379460822594600,3.571594482421875,-0.012905658802390097,0.009735029409639537,-0.04527881914079189
1761379460832677600,3.581677734375,0.038163434177637096,0.01449044377580285,-0.06637640609666705
1761379460842759700,3.591759765625,0.08005962514281273,-0.0011747428677976132,-0.09694266314357519
1761379460852841700,3.601841796875,0.06307634163796902,-0.008632511527836322,-0.09862550166398286
1761379460862923500,3.611923583984375,0.025009938094019888,-0.012372246045432984,-0.08318608660027384
1761379460873006600,3.622006591796875,-0.03990355584323406,-0.038742951098643244,-0.06369213544875384
1761379460883088600,3.632088623046875,-0.08664309518635273,-0.04510799261853098,-0.02402107318714261
1761379460893170700,3.642170654296875,-0.1051917283117771,-0.03425546695366501,-0.004558247826248407
1761379460903252500,3.65225244140625,-0.03129413293004036,0.00039941111374646425,0.020152122799307108
1761379460913334500,3.66233447265625,0.07716098109185696,0.03212755154687911,0.007192687983065843
1761379460923417900,3.67241796875,0.11783376774191856,0.04733958759550005,0.004688742338120937
1761379460933499600,3.682499755859375,0.16052958465218542,0.012551840396039187,-0.002223229007422924
1761379460943581700,3.692581787109375,0.142889298543334,-0.02377546439561993,-0.010052315197885036
1761379460953663500,3.70266357421875,0.06616495530307293,-0.04659110731575638,-0.023322569528967142
1761379460963746800,3.712746826171875,-0.016384148567914963,-0.040477410208433866,-0.05402502017617225
1761379460973828900,3.722828857421875,-0.04361176271140575,-0.052443413540534674,-0.06765987003594637
1761379460983911000,3.732910888671875,-0.08805997624695301,-0.067296881942451,-0.0627151071101427
1761379460993992700,3.74299267578125,-0.06584697539508343,-0.06991192327905446,-0.03948109264746308
1761379461004075800,3.75307568359375,0.04548749345541,-0.05045863293148577,-0.03069689768925309
1761379461014157000,3.763156982421875,0.14681436303257941,-0.0040924569454044105,-0.0628352263584733
1761379461024238800,3.77323876953125,0.15272504838109016,0.006864478942006826,-0.05461699471995234
1761379461034321000,3.78332080078125,0.10639175175130366,0.005393127747811376,-0.049420448990166184
1761379461044404000,3.793404052734375,0.0733814625531435,0.0006567103430628776,-0.06796382141858338
1761379461054486000,3.803486083984375,-0.04328150784373283,-0.012104936878755688,-0.0881713276669383
1761379461064568000,3.813568115234375,-0.10939736330807208,0.010991678407229482,-0.08560352300554513
1761379461074650000,3.823650146484375,-0.037222938457131385,0.014213855324126778,-0.05776639866158366
1761379461084733000,3.83373291015625,0.02751695247888565,-0.01464570740275085,-0.030297815369069576
1761379461094815000,3.84381494140625,0.06861994723975658,-0.01391472624707967,0.00884177036434412
1761379461104897000,3.85389697265625,0.15086393068432807,0.010555113620869815,0.011657412306964397
1761379461114979000,3.86397900390625,0.2228974857598543,0.026634799349494278,-0.044108021795749665
1761379461125061000,3.87406103515625,0.14768471612632272,0.017159699517674744,-0.07762816021218895
1761379461135144000,3.88414404296875,0.0063935004293918605,-0.0006235752584412694,-0.08672565890327096
1761379461145226000,3.89422607421875,-0.08241407931447028,-0.006825133312307298,-0.06486541701182723
1761379461155308000,3.90430810546875,-0.06024433308243751,-0.017451558603718876,-0.040406536929309365
1761379461165390000,3.91439013671875,-0.030334347987174985,-0.032829416205920274,-0.05272796610295772
1761379461175473000,3.924472900390625,0.02643500246107578,-0.003045468643121421,-0.06741320179849862
1761379461185555000,3.934554931640625,0.08017711404263973,0.015815518367104233,-0.05328311576768756
1761379461195637000,3.944636962890625,0.09024433454871177,0.034166473495960234,-0.034718700551241634
1761379461205719000,3.954718994140625,0.06748539025187492,0.0428067299388349,-0.035872692891955375
1761379461215801900,3.9648017578125,0.0934632965952158,0.02887245874106884,-0.05445625120028853
1761379461225884000,3.9748837890625,0.09861001183390616,-0.004871734222210943,-0.0773145642183721
1761379461235966000,3.984966064453125,0.03348199836313724,-0.023132015392929313,-0.0971209423199296
1761379461246048000,3.995048095703125,-0.047751346734166145,-0.0035728169854730364,-0.09173530375882982
1761379461256130000,4.005130126953125,-0.07116144841611385,0.022623408283665776,-0.11779226668775081
1761379461266212900,4.015212890625,-0.040728900751471515,0.022461714915931224,-0.09681815998107195
1761379461276295000,4.025294921875,0.029336569121479986,0.01374879509564489,-0.059561173123866315
1761379461286377000,4.035376953125,0.10898995155096053,0.008887691865302623,-0.04437076438516378
1761379461296459000,4.045458984375,0.16015724420845506,-0.0027750176712870596,-0.039812370428442954
1761379461306541800,4.055541748046875,0.1537725116074085,-0.023161972139775753,-0.017517098120599983
1761379461316624000,4.065623779296875,0.08369359773099422,-0.010998583072051406,-0.020292408052831886
1761379461326706000,4.075705810546875,-0.013199088791012763,0.0224872146833688,-0.04390007813349366
1761379461336788000,4.0857880859375,-0.04414426215291023,0.03782159847002476,-0.0673731620490551
1761379461346870800,4.095870849609375,-0.03350479471683502,0.03641322950944304,-0.059147477756440636
1761379461356952800,4.105952880859375,0.0081476506203413,-0.0004932634096592664,-0.03128741092830896
1761379461367035000,4.116034912109375,0.11207447356283665,-0.019090484917163846,-0.044698681165277955
1761379461377117000,4.126116943359375,0.14477788876891134,-0.014997918373905121,-0.07230521162375807
1761379461387199000,4.136198974609375,0.10302549018859862,-0.009506298687681556,-0.06559343902543187
1761379461397281800,4.14628173828125,0.005290507623553276,0.02348930439800024,-0.04643544183000922
1761379461407363800,4.15636376953125,-0.025759879678487776,0.08063501387797295,-0.03890782280415296
1761379461417446000,4.16644580078125,-0.046074937954545016,0.10454214182924479,-0.03419043889343738
1761379461427528000,4.17652783203125,0.012283142989873885,0.08116787864565848,-0.02437529345229268
1761379461437610800,4.18661083984375,0.05408697949647903,0.024566614773310718,-0.029429800362884995
1761379461447692800,4.19669287109375,0.06739245127141476,0.026073110346123574,-0.029056144744902847
1761379461457774800,4.20677490234375,0.07675415385663509,0.03173354726061225,-0.020355390286445618
1761379461467857000,4.21685693359375,0.08032149094939231,0.03869523949939757,-0.03863485108166933
1761379461477940000,4.22693994140625,0.06528115820586682,0.03984795319847762,-0.07142623683214187
1761379461488021800,4.237021728515625,0.011667056918144226,0.0066810851991176605,-0.06306055954694748
1761379461498103800,4.247103759765625,-0.04490706321895122,-0.02716393779013306,-0.04709887417480349
1761379461508185900,4.257185791015625,-0.01609013405740261,-0.03506897529363632,-0.039299452470242975
1761379461518268000,4.267267822265625,0.06181552792191505,-0.013036226379498838,-0.05622618348225951
1761379461528350700,4.277350830078125,0.12104863813519477,-0.003750913498736918,-0.09980725879445672
1761379461538432800,4.287432861328125,0.07783727291822433,-0.0044458734929561615,-0.14359657002985476
1761379461548514800,4.297514892578125,-0.018356909945607184,-0.0013865589875727891,-0.14171031789183616
1761379461558596900,4.307596923828125,-0.08928045795261859,-0.012304112712666392,-0.09837488790377974
1761379461568680000,4.317679931640625,-0.0449339512258768,-0.011519611271470784,-0.08599544493257999
1761379461578762000,4.327761962890625,0.04820376667678356,0.005032733470201492,-0.08106076500937343
1761379461588843800,4.33784375,0.15161854844391345,0.019936836080811916,-0.07534472545012831
1761379461598925800,4.34792578125,0.15991408310234545,0.0514417622173205,-0.04944762925803661
1761379461609009200,4.358009033203125,0.07821779666841029,0.06290730521399528,-0.0019528876334428786
1761379461619091000,4.368091064453125,0.014164134430885314,0.06270590089038014,0.019978081406652925
1761379461629173000,4.378173095703125,-0.00523848517537117,0.03343804962355643,0.009671206925809382
1761379461639255000,4.388255126953125,-0.021996143230795857,0.0007819441579282283,-0.03122252899855375
1761379461649337000,4.398337158203125,0.01213525895178318,-0.01191741495002061,-0.04812134909033775
1761379461659420000,4.408419921875,0.07379998022615909,-0.01666059088911861,-0.08621990133821963
1761379461669502000,4.418501953125,0.06847732389867306,-0.009902239202708005,-0.11239289186224341
1761379461679584000,4.428583984375,0.03513385722339153,0.014135894717089832,-0.12718158793225884
1761379461689666000,4.438666015625,0.04050678243339061,0.025138934768550097,-0.11199863184764981
1761379461699749000,4.4487490234375,0.0113327103972435,0.021730258836224675,-0.09056801354512571
1761379461709831000,4.458830810546875,-0.04341302526891231,0.02785666929464787,-0.06390007911100984
1761379461719913000,4.468912841796875,-0.07669920879900455,0.008143705097585916,-0.021735008076578376
1761379461729995000,4.4789951171875,-0.03530687570273876,-0.013597257795743643,-0.010616963343322277
1761379461740078000,4.489078125,0.07772855184674263,-0.024054062141291795,-0.007948328655958176
1761379461750160000,4.499159912109375,0.16850772392451763,-0.0036316710332408545,-0.04011486050635576
1761379461760242000,4.509241943359375,0.16426760213673114,0.04020184467006475,-0.043697979690134524
1761379461770324000,4.519323974609375,0.10116086536049843,0.03292703136149794,-0.011450199297070503
1761379461780406000,4.529406005859375,0.058361588075757025,0.01937606039289385,-0.00259396201595664
1761379461790488800,4.53948876953125,0.04510930779278278,0.043568690754659474,-0.04474237417653203
1761379461800571000,4.54957080078125,0.010078910943865775,0.06303495018165559,-0.07611717112734913
1761379461810653000,4.55965283203125,-0.018052374041080475,0.04989073338303715,-0.09351298095583915
1761379461820735000,4.56973486328125,-0.025251345634460447,0.03117229664865881,-0.09954904624968766
1761379461830818000,4.579818115234375,0.009350012147426605,0.006775412419065833,-0.09194500098675489
1761379461840899800,4.58989990234375,0.058872460207343096,-0.008462159929610788,-0.05389379501193761
1761379461850982000,4.59998193359375,0.1342407126635313,0.011675021028891204,-0.011488339350372552
1761379461861064000,4.61006396484375,0.2212684232532978,-0.002675868145748973,-0.0016167875468730926
1761379461871146000,4.62014599609375,0.20452946989834309,0.006889101926609873,-0.007133212880790233
1761379461881228800,4.630228759765625,0.14103227249979972,0.027576062254980205,-0.004797609540075063
1761379461891310800,4.640310791015625,-0.01814882015287876,0.06708601567074655,-0.02554097623080015
1761379461901393000,4.650392822265625,-0.07459726808369159,0.10711370935030282,-0.09664557989314197
1761379461911475000,4.660474853515625,-0.09203589414060115,-0.003684241470694542,-0.03993658133000135
1761379461921558000,4.67055810546875,-0.02643500246107578,-0.004475318783149123,0.006750935564935207
1761379461931639800,4.680639892578125,-0.003100304102897644,-0.005945866259746253,-0.03857537597939372
1761379461941721900,4.690721923828125,0.019707155510783194,0.026031134367920455,-0.005007745159417391
1761379461951804000,4.700803955078125,0.0587765986174345,0.03770812815818935,-0.07162965044975281
1761379461961887000,4.710886962890625,0.06964461411237716,0.04424823398403823,-0.11248451566845177
1761379461971968800,4.72096875,-0.061897360986471174,0.02327653843015432,-0.06513634290769696
1761379461982050800,4.73105078125,-0.14125322177410124,-0.0033988851906731725,-0.05158800228759646
1761379461992132900,4.7411328125,-0.10809914019107818,0.013767645926587283,-0.05407163579687476
1761379462002215000,4.75121484375,-0.06315875922441481,0.03343498088363558,-0.04968757549375295
1761379462012297700,4.761297607421875,-0.017872341299057005,0.03955927245020866,-0.008738163859397172
1761379462022379500,4.771379638671875,0.07189502338767051,0.05374985649660229,-0.007617489266395569
1761379462032461600,4.781461669921875,0.18331015625894068,0.07813764410428703,-0.04002425961345434
1761379462042543600,4.791543701171875,0.22469839770197866,0.05921499003469944,-0.03205430364757776
1761379462052626700,4.801626708984375,0.1468622938275337,0.04348294869996607,-0.0186567696750164
1761379462062708700,4.811708740234375,0.06508592789471149,0.03649455111734569,-0.0108000648252666
1761379462072790500,4.82179052734375,0.07176409048438072,0.028690928161703048,-0.0650103784404695
1761379462082872600,4.83187255859375,0.03524374733865261,0.027346710478514433,-0.1120654134735465
1761379462092954600,4.84195458984375,-0.02252279745340347,0.03143376059643924,-0.09341931132301688
1761379462103037700,4.85203759765625,-0.03539572302997112,0.03554762565605342,-0.04717398523762822
1761379462113119500,4.862119384765625,-0.022330489751696585,0.038421171798370776,-0.04285787560418248
1761379462123201500,4.872201416015625,-0.03456161029338836,0.06368570570796728,-0.047598640390485523
1761379462133283600,4.88228369140625,0.035652912661433216,0.06405705977100878,-0.05500935503840446
1761379462143366700,4.89236669921875,0.10623159275352954,0.027600392978638408,-0.055781946846097705
1761379462153448700,4.90244873046875,0.11674363441765308,-0.012361103596910833,-0.025935674636811016
1761379462163530500,4.912530517578125,0.1401350313991308,-0.03267455443777144,-0.01461377789452672
1761379462173612500,4.922612548828125,0.1336439158141613,-0.051721273278445,-0.01828136049136519
1761379462183694600,4.932694580078125,0.09480068267881869,-0.026516579797305165,-0.024414164157956837
1761379462193777700,4.942777587890625,0.03267126650214195,0.013776194559223949,-0.02958879031687975
1761379462203859500,4.952859375,0.006199439162015915,0.05786178532745689,-0.03672141867578029
1761379462213941500,4.96294140625,-0.008072831818461417,0.07497096023429185,-0.029205343957245347
1761379462224023600,4.9730234375,0.0010375263541936874,0.021984781586565076,-0.0074079381689429276
1761379462234106600,4.983106689453125,-0.03242810539603233,-0.029934023557975885,-0.017338672813773156
1761379462244188700,4.993188720703125,0.0034971944659948346,-0.008678652224503458,-0.043588089574873444
1761379462254270500,5.0032705078125,0.02657061153948307,0.008292502451129257,-0.09627689271122217
1761379462264352500,5.0133525390625,0.02342003855407238,-0.0002901055203750729,-0.08972440232783556
1761379462274434600,5.0234345703125,0.03451777115166187,-0.02453037441615015,-0.06812222685068846
1761379462284518000,5.033517822265625,-0.005060790520906448,-0.023587650205940006,-0.08493409931138157
1761379462294599400,5.043599365234375,-0.024175240835547444,-0.0024419132594019175,-0.09366773312613368
1761379462304681500,5.053681396484375,-0.023166940575838086,0.0004159238571301102,-0.07296747492477297
1761379462314763500,5.063763427734375,0.02228372800052166,-0.020484533091448247,-0.054098962195217606
1761379462324846800,5.073846923828125,0.08262976789176464,-0.006169592013023794,-0.04756240003332495
1761379462334928600,5.0839287109375,0.1380132169395685,0.005061923032067716,-0.05628142080083489
1761379462345010700,5.0940107421875,0.14740122300982475,0.016530315572954712,-0.06901742212474346
1761379462355092700,5.1040927734375,0.10546762264370918,0.0053045361489057535,-0.10000453493222594
1761379462365174500,5.114174560546875,-0.025794366469979284,0.0055544192567467685,-0.08908888090327381
1761379462375257900,5.1242578125,-0.09756605573892593,0.008157076035812496,-0.053921121410280465
1761379462385339600,5.134339599609375,-0.10250292761921882,-0.00955729822255671,-0.03568813010528683
1761379462395421700,5.144421630859375,-0.11566168439984321,-0.0027598201021552084,-0.05802431894540786
1761379462405503700,5.154503662109375,-0.050315059742331504,0.007404540635459125,-0.07014364967569708
1761379462415586800,5.1645869140625,0.024102175599336622,0.023477540894970297,-0.0475559702925384
1761379462425668600,5.174668701171875,0.10458557911217212,0.014861797838844358,-0.03486132389232516
1761379462435750700,5.184750732421875,0.12239946822226047,0.0334202582385391,-0.043481414330005644
1761379462445832700,5.194832763671875,0.07538871072232722,0.06103358376398682,-0.00785202867463231
1761379462455914800,5.204914794921875,0.05289221675395965,0.054922480472549794,0.004068710743635893
1761379462465997600,5.21499755859375,0.08465396719574927,0.04336041829884052,-0.024767799901217222
1761379462476079600,5.22507958984375,0.08667407484650612,0.023822189614176748,-0.045065907042473555
1761379462486161700,5.23516162109375,0.029117957934737204,-0.002047653244808316,-0.04384732503294945
1761379462496243700,5.24524365234375,0.0004489128112792969,0.01104424884468317,-0.051677434136718506
1761379462506326800,5.255326904296875,0.043155835637450214,0.020685425958409904,-0.09114347534552215
1761379462516408600,5.26540869140625,0.03035422173142433,0.01775295270308852,-0.10088877042084932
1761379462526490600,5.27549072265625,0.01317746148109436,-0.004808934651687741,-0.07056260574012994
1761379462536572700,5.28557275390625,0.03184066089689731,-0.023537527453899382,-0.06034603989124298
1761379462546655700,5.29565576171875,0.10616086560487746,-0.022338088536262513,-0.06562880259975791
1761379462556737500,5.305737548828125,0.10051321510672569,-0.03210749513953924,-0.06671177553087472
1761379462566819600,5.315819580078125,0.06509469572305679,-0.021315905881673095,-0.04930383687317371
1761379462576901600,5.325901611328125,0.02483165891766548,0.036944340711459515,-0.033348873502761125
1761379462586983700,5.335983642578125,0.005693827727437019,0.1055629727769643,-0.019525369203090667
1761379462597066800,5.346066650390625,0.04151800530254841,0.10811835634820163,0.019973697492480277
1761379462607148500,5.3561484375,0.12590250790715216,0.03705759182758629,0.028261925627291202
1761379462617230600,5.366230712890625,0.19816168843209742,-0.02027333802618086,-0.010067658897489309
1761379462627312600,5.376312744140625,0.16808394555449485,-0.036663039552047846,-0.04980491826310753
1761379462637394700,5.386394775390625,0.07437631880939007,-0.049266208276525135,-0.07515037192180753
1761379462647477500,5.3964775390625,-0.012950666987895964,-0.059532458486035465,-0.10435717718377709
1761379462657559600,5.4065595703125,-0.11544482677876948,-0.05978058802820742,-0.10734306112676859
1761379462667641600,5.4166416015625,-0.11715864495933055,-0.058284504251554604,-0.08644333483055233
1761379462677723600,5.4267236328125,-0.06834639099538325,-0.05810797864086926,-0.052992462258040905
1761379462687806700,5.436806640625,0.021858196064829825,-0.025566110672056674,-0.04945201317220926
1761379462697888500,5.446888427734375,0.09793255096375941,-0.005347936899214983,-0.029873452477157114
1761379462707970600,5.456970458984375,0.14140578198730944,-0.008276172370836138,-0.027547786008566617
1761379462718052600,5.467052490234375,0.12293605931699275,-0.021798063375428316,-0.04028948642089963
1761379462728134700,5.477134765625,0.045296939319372176,-0.027054230337962507,-0.08075155292972921
1761379462738217500,5.487217529296875,0.0013426467806100845,0.006555412992835044,-0.1236519525013864
1761379462748299500,5.497299560546875,-0.013187398353219032,-0.00102444767691195,-0.07914324095025659
1761379462758381600,5.507381591796875,-0.010198737931251525,-0.009793664261698722,0.007247633040696382
1761379462768463600,5.517463623046875,0.02107669029831886,-0.03908442148007452,0.06262947465330362
1761379462778546700,5.527546630859375,0.08122925344407558,-0.026546207750588652,0.04589417456015944
1761379462788628500,5.53762841796875,0.08000175747573375,0.029840646186098455,0.009676613753288984
1761379462798710500,5.54771044921875,0.09041910659372807,0.07441855051591992,0.009147621443122625
1761379462808792600,5.55779248046875,0.05735036520659923,0.10119308712966739,-0.016316197898238897
1761379462818874600,5.56787451171875,-0.07485504223704338,0.08058854438774288,-0.028963790286332367
1761379462828957400,5.57795751953125,-0.19229367318153381,0.08359547111876309,-0.06300663740262388
1761379462839039500,5.58803955078125,-0.20049451529383658,0.11207023577913641,-0.1421783737950027
1761379462849121500,5.59812158203125,-0.017990999242663383,0.0839999602664262,-0.12116335055604577
1761379462859203600,5.60820361328125,0.20888649606406687,-0.012113339380919932,-0.06109262047484517
1761379462869286700,5.61828662109375,0.3291384308636188,-0.06762801359295845,0.017436287969350813
1761379462879368400,5.628368408203125,0.3025578824520111,-0.04671119003146887,0.034760347735881804
1761379462889450500,5.638450439453125,0.13321370770335197,0.08287482869401573,-0.030663726072013377
1761379462899532500,5.648532470703125,0.034621231526136394,0.13028328027464448,-0.044662002416700125
1761379462909614600,5.658614501953125,0.019631752187013626,0.08602335585281252,-0.007288111181557178
1761379462919697700,5.66869775390625,0.03942950859069824,0.05769157985970377,-0.011998480829596519
1761379462929779500,5.678779541015625,-0.017872925820946694,0.09236381092071533,-0.012474720039218663
1761379462939861500,5.688861572265625,-0.06904080300033093,0.020265666176378726,0.02600537887215614
1761379462949943600,5.698943603515625,-0.02496668347418308,-0.05664528567716479,0.02256941307410598
1761379462960025600,5.709025634765625,-0.0001654196947813034,-0.009421250752732157,-0.006528086594492197
1761379462970108700,5.719108642578125,0.004513093510270119,0.02253865260966122,-0.01781067423969507
1761379462980190700,5.729190673828125,0.03071662530303001,-0.03261186446510255,-0.037795916039496655
1761379462990272800,5.739272705078125,0.0032779987573623654,0.03200878400541842,-0.07454583015739917
1761379463000354600,5.7493544921875,0.015943419063091276,0.058525327270105475,-0.09971519659683108
1761379463010438000,5.75943798828125,0.0849538269251585,-0.03503547488283366,-0.11932678277865051
1761379463020520000,5.76952001953125,0.1011965211957693,-0.05786562125235795,-0.09513634437397121
1761379463030602000,5.77960205078125,0.007342763978242873,-0.045766456527262925,-0.06811404354423284
1761379463040684000,5.78968408203125,0.03035948242843151,-0.009393084104172885,-0.06381912282928824
1761379463050766000,5.79976611328125,0.12201368377506733,0.03663582275155931,-0.07335603585094214
1761379463060849000,5.809848876953125,0.15826748493909834,0.019770210809633135,-0.09459215449467301
1761379463070931000,5.819930908203125,0.09048983374238014,0.008313764434866608,-0.11218027202486991
1761379463081013000,5.830012939453125,-0.0751589936196804,0.03497252918183803,-0.11133256915435194
1761379463091095000,5.840094970703125,-0.16057108570635317,0.07313804571870713,-0.11676993790268897
1761379463101177000,5.850177001953125,-0.09479366841614245,0.08099003786072134,-0.06277239025533199
1761379463111260000,5.860260009765625,-0.07177578092217445,-0.004601465913467109,-0.02160290612950921
1761379463121342000,5.870342041015625,0.018293781581521035,-0.05219747595544904,-0.11644319016635417
1761379463131424000,5.880424072265625,0.06681552816629409,0.016264211982674897,-0.15272154124975204
1761379463141506000,5.890506103515625,-0.046264907568693156,0.016431166047416627,-0.15264175401180982
1761379463151588900,5.9005888671875,-0.27994039245247837,0.055500353425741195,-0.14564400407895445
1761379463161671000,5.9106708984375,-0.3632908758342266,0.09503587967418134,-0.07440759073048829
1761379463171753000,5.9207529296875,-0.19447920052707193,-0.01748688564542681,-0.007927578128874301
1761379463181835000,5.9308349609375,0.16552315515577792,-0.12153335291221737,-0.015666501817852257
1761379463191917000,5.9409169921875,0.405181806102395,-0.0928462972080335,-0.017599077315628528
1761379463202000000,5.950999755859375,0.5599146871745586,-0.08209657433051616,0.03972323084026575
1761379463212082000,5.96108203125,0.6470435200512409,-0.10602587758097796,0.04272562752664089
1761379463222164000,5.9711640625,0.43318858792483805,0.007152867429330944,0.024397943675518036
1761379463232246000,5.98124609375,0.028739772272109984,0.08467508304901421,0.025132979951798914
1761379463242328800,5.991328857421875,-0.14961480740606783,0.07176573445219546,0.012417144633084534
1761379463252411000,6.001410888671875,-0.20969372079372406,0.06626567573118955,-0.058619216098636386
1761379463262493000,6.011492919921875,-0.1759545327991247,0.006421411349624395,-0.08575549869686365
1761379463272575000,6.021574951171875,0.025484569868445394,-0.07039532288182526,-0.08941942803189158
1761379463282657000,6.031656982421875,0.180081257340312,-0.10865008860472589,-0.1155029867067933
1761379463292739800,6.04173974609375,0.1565752940684557,-0.06799516640491783,-0.09228373142182826
1761379463302822000,6.05182177734375,0.004221417087316512,0.06906458573471755,-0.0845703805655241
1761379463312904000,6.061904052734375,-0.0809276401489973,0.061729237877950066,-0.0531537902995944
1761379463322986000,6.071986083984375,0.08601590319871902,-0.02155545025859028,-0.038745179588347674
1761379463333067800,6.08206787109375,0.21700901224315164,-0.045688313257135446,-0.06100011988580226
1761379463343150800,6.09215087890625,0.23017244519889354,-0.012591770547628401,-0.04175400601550937
1761379463353233000,6.10223291015625,0.17201017908751964,0.004641761391237378,-0.024213527019321918
1761379463363315000,6.11231494140625,0.05924129351973533,0.0036958588432520626,-0.023365678018331525
1761379463373397000,6.12239697265625,-0.052145197778940194,-0.009055084321461617,-0.03235065624564886
1761379463383479800,6.132479736328125,-0.12729834617972374,0.03333542949929833,-0.07194368483498692
1761379463393561900,6.142561767578125,-0.21470833408534526,0.11647069922778755,-0.10582929556295274
1761379463403644000,6.152643798828125,-0.18998305815160274,0.06034625908695161,-0.07687734184488654
1761379463413726000,6.162725830078125,-0.07688800936937332,0.022970943079702554,-0.07635740962401032
1761379463423807700,6.172807861328125,0.03529693883061409,0.03803494895976037,-0.08174392496794462
1761379463433890800,6.182890869140625,0.13687281473278998,0.03166512166690081,-0.06118365975916385
1761379463443972900,6.192972900390625,0.14288403784632683,-0.02315945138912648,-0.0723176327139139
1761379463454055000,6.203054931640625,0.08580839792788028,-0.03437920293118805,-0.0793451932631433
1761379463464137000,6.213136962890625,0.02959258970916271,-0.030079277247563003,-0.07110211944431066
1761379463474218800,6.22321875,0.044317865154147144,0.002895940637215972,-0.07437880302742123
1761379463484301800,6.2333017578125,0.11575871503353118,0.054590143245644866,-0.08557678112909198
1761379463494383900,6.2433837890625,0.11277239269912243,0.061037456221506,-0.07708908489942551
1761379463504466000,6.2534658203125,0.1170259584903717,0.04999466868154704,-0.0698629330381751
1761379463514547700,6.263547607421875,0.1595031642138958,0.0563442569039762,-0.06968611516654491
1761379463524630800,6.273630859375,0.13569383408129215,0.06979092724788934,-0.08054945448637008
1761379463534712800,6.283712890625,0.0011252046376466751,0.04488876037728041,-0.046816550102084874
1761379463544795000,6.293794921875,-0.0780652364552021,0.044902825435250995,-0.0470867453455925
1761379463554877000,6.303876953125,-0.12589490912258625,0.06439359824899583,-0.07197583353891969
1761379463564958700,6.313958740234375,-0.03688040862977505,0.018887436625733972,-0.08252908399626613
1761379463575042000,6.3240419921875,0.04320551999807357,-0.04563409885186702,-0.11903408344238996
1761379463585124000,6.3341240234375,0.05894435639977455,-0.09889288389589637,-0.10171455372050404
1761379463595206000,6.344205810546875,0.0074801266223192215,-0.09857541544456035,-0.07502893749922514
1761379463605287700,6.35428759765625,-0.04676701187193393,-0.042006921330653126,-0.06822554109469056
1761379463615369700,6.36436962890625,-0.018232406783103942,0.025744426381029188,-0.05687105725705623
1761379463625453000,6.374453125,0.015493337208032608,0.06550999852567911,-0.03773424898013472
1761379463635535000,6.38453515625,-0.004500234028697013,0.062123936283960936,0.0003330313466489315
1761379463645617000,6.394616943359375,0.014342413607239722,0.013830445497110485,0.03850216461271047
1761379463655699000,6.404698974609375,0.13223404901623725,-0.04411474379748106,0.0601578238427639
1761379463665782000,6.414781982421875,0.21135259391665456,-0.06281812909319996,0.03656988137587905
1761379463675864000,6.424864013671875,0.16793664603829384,-0.02182750866562128,0.02320259641110897
1761379463685946000,6.434946044921875,0.045526656422019,0.030472514348849653,0.017814035240560768
1761379463696028000,6.44502783203125,-0.004139584022760391,0.037813890087604524,-0.000057721536606550215
1761379463706110000,6.45510986328125,0.012875848186016082,0.018157076524570583,-0.061986208313703536
1761379463716193000,6.465193115234375,0.00839081172645092,-0.007900397861003876,-0.09061725951433182
1761379463726275000,6.475275146484375,0.0157855981528759,-0.053106590157002205,-0.0901357596077025
1761379463736356900,6.48535693359375,0.04293780897259712,-0.08930639611147344,-0.12010931145846843
1761379463746439000,6.49543896484375,0.04895020112991333,-0.0641429479561746,-0.1243048634521663
1761379463756521000,6.50552099609375,0.06026128421723842,-0.03211429020650684,-0.12404811221212148
1761379463766604000,6.51560400390625,-0.010007599273324012,-0.011966770517081022,-0.12687705202773214
1761379463776686000,6.52568603515625,-0.13388941500782967,-0.011831161438673734,-0.09293459654599427
1761379463786768000,6.535767822265625,-0.1370464177340269,0.005983823649957776,-0.037704292233288285
1761379463796850000,6.545849853515625,-0.037133506608009334,-0.015568813597038387,-0.09834814602732658
1761379463806932000,6.555931884765625,0.05040916776657104,-0.003847250012680888,-0.08250175759792328
1761379463817015000,6.56601513671875,0.05929799214303493,-0.04335004303529858,-0.032370091598480935
1761379463827096800,6.576096923828125,0.17410393649637698,-0.08541983700171113,-0.057943801055103536
1761379463837179000,6.586178955078125,0.13812310705482958,-0.07425992588810622,-0.08135039560571312
1761379463847261000,6.596260986328125,0.03630816169977188,-0.043856312057003376,-0.06923486426770686
1761379463857343000,6.606343017578125,0.06854980461299419,-0.022398075095191598,-0.0256324539065361
1761379463867425800,6.61642578125,0.11715572234988211,-0.02743541167527437,-0.02764657020792365
1761379463877507800,6.6265078125,0.14053952054679392,-0.021171090583503246,-0.03823036193400621
1761379463887590000,6.63658984375,0.07014321128427982,-0.04247289487458765,-0.04706190316528082
1761379463897672000,6.646671875,0.08188684056997299,-0.07870813746862113,-0.027769758196175096
1761379463907755000,6.656755126953125,-0.04238192865550518,-0.05247143405862152,-0.03227379161715507
1761379463917836800,6.6668369140625,-0.06649170303940773,-0.04679894138015806,-0.04701470302268863
1761379463927918800,6.6769189453125,-0.06607961510717869,-0.07011113564558327,-0.059892889296263456
1761379463938001000,6.6870009765625,-0.010471125131845473,-0.07813187195062637,-0.08793401177972554
1761379463948083000,6.6970830078125,0.055581601968407626,-0.09532434122674166,-0.10388342219218612
1761379463958165800,6.707165771484375,0.06546177546977996,-0.11135602309517562,-0.0908507760092616
1761379463968247800,6.717247802734375,-0.011766425639390945,-0.08497457745224236,-0.041775341064482927
1761379463978329900,6.727329833984375,0.029829905596375463,-0.016146540419757365,-0.018887655821442605
1761379463988412000,6.737411865234375,0.08292904309928417,0.02920563621819019,-0.038500849438458676
1761379463998494000,6.747493896484375,0.06063946987986564,0.020587080150470137,-0.06299494696483016
1761379464008576800,6.75757666015625,0.0760392835855484,0.003694982060417533,-0.07122574582397938
1761379464018662000,6.767661865234375,0.09435644604265689,0.014718334247544406,-0.0786404059946537
1761379464028744000,6.777743896484375,0.09559621697068214,0.010303732675686478,-0.026748744585365056
1761379464038826000,6.787825927734375,0.031309915021061896,0.011060834653303027,0.02391045241951942
1761379464048908000,6.797907958984375,0.059710080075263974,-0.015982655094936488,-0.0023902561374008653
1761379464058990800,6.807990966796875,0.06580722790658473,-0.0453511537246406,-0.04877031451836228
1761379464069073000,6.818072998046875,0.18850246420502662,-0.005237535327300429,-0.06422405036836862
1761379464079155000,6.828155029296875,0.14001637345552442,0.10269275110289454,-0.011898089195042847
1761379464089237000,6.838237060546875,-0.048529929891228674,-0.04204093319810927,-0.09116437200307846
1761379464099319800,6.84831982421875,-0.10284019674956799,-0.1028417311195284,-0.10329992321580647
1761379464109401900,6.85840185546875,-0.40827801855206486,-0.04919190093129873,-0.12908084568232298
1761379464119484000,6.86848388671875,-0.34032150365710256,-0.061169338972866534,-0.1295449560627341
1761379464129566000,6.87856591796875,-0.21079086838066577,-0.026109350703284143,-0.13061273142471908
1761379464139648000,6.88864794921875,-0.06741290953755379,0.011483590110018848,-0.11073460326120256
1761379464149730800,6.898730712890625,0.054473348465561865,-0.022038228806853292,-0.03649009413793683
1761379464159812900,6.908812744140625,0.05476619393229484,-0.04841697103604674,0.06789762431457638
1761379464169895000,6.91889501953125,0.10094050060808658,-0.0698683398656547,0.13511895680278538
1761379464179977000,6.92897705078125,0.30434301230311395,-0.051247591352090234,0.15940481840595602
1761379464190059000,6.93905908203125,0.4990045836597681,0.01674706359617412,0.09420958491787314
1761379464200141800,6.949141845703125,0.5577396812230349,-0.0036347032405436037,0.02266717436015606
1761379464210223900,6.959223876953125,0.42338498679101466,-0.08271912667565047,-0.028448534240573642
