time,seconds_elapsed,z,y,x
1761392288001368600,0.08836865234375,-0.011552490627765654,0.4292322515144944,0.3609935586772859
1761392288011450600,0.09845068359375,0.06348726052641868,0.6105035954222082,0.3430247712664306
1761392288021532400,0.108532470703125,0.5579775816321373,0.712706371051073,0.29289975420348346
1761392288031614500,0.118614501953125,0.8154799323052168,0.7515782457590102,0.18491583788990973
1761392288041697500,0.128697509765625,0.9755319625735283,0.5878752917677164,0.20769721321426332
1761392288051779600,0.138779541015625,0.9150742790013551,0.5251514168292284,0.2592708216503262
1761392288061861600,0.148861572265625,0.5502852735638618,0.5162345354020595,0.30482385462261735
1761392288071943400,0.158943359375,0.6247364111751318,0.4307464554697275,0.3107385585591197
1761392288082026500,0.169026611328125,1.3547183266758918,0.1492696472302079,0.37344723592847584
1761392288092108500,0.179108642578125,1.9522347224920986,-0.2885693968489766,0.31901451173424716
1761392288102190600,0.189190673828125,1.8157015149772167,-0.7561477456316351,0.017667320246249438
1761392288112273700,0.199273681640625,1.2230156080573797,-0.9614642742544413,-0.28923195241093635
1761392288122355700,0.209355712890625,0.19879180302917956,-0.46186698539853094,-0.1257036243341863
1761392288132437500,0.2194375,-1.3793190994471312,-0.29796763205230237,0.569091680842638
1761392288142519600,0.22951953125,-2.380160275322199,-0.3943085299104452,1.0215049014583228
1761392288152601600,0.2396015625,-2.6862925091296432,0.31245237673968074,1.1305717176377772
1761392288162684700,0.2496845703125,-1.4774901353418826,0.9279287921383976,1.036154481318593
1761392288172766700,0.2597666015625,-0.9110551064878701,1.7212024455934762,0.7959215376153588
1761392288182848800,0.269848876953125,-0.7064093167334795,2.1339672541707753,0.5704440452996641
1761392288192931600,0.279931640625,-0.23576631968319414,2.2703411794707176,0.562649957357347
1761392288203013600,0.290013671875,0.15275018282234668,2.130066155079007,0.48396074378490445
1761392288213095700,0.300095703125,0.4767348841845989,1.8533605067640542,0.5553360176147892
1761392288223177700,0.310177734375,0.822823865327239,1.5470207676857708,0.2777801456786692
1761392288233260500,0.320260498046875,0.9946540116727351,1.331608669245243,-0.1883206778973341
1761392288243342600,0.330342529296875,1.2319488560974596,1.599900709480047,-0.8853456418223679
1761392288253424600,0.340424560546875,1.732903989303112,2.021351513338089,-1.7362551994271576
1761392288263506700,0.350506591796875,2.0086825859010218,2.309671611601114,-1.9953803289964793
1761392288273589500,0.360589599609375,2.0368080256670713,2.3240438358247277,-1.8568069939561187
1761392288283671600,0.370671630859375,1.806038199096918,2.170206442287564,-1.3999709884621203
1761392288293753600,0.380753662109375,1.8734627990722654,2.0738257969409224,-0.6456589338250458
1761392288303835600,0.390835693359375,2.529922966766357,2.0016426042616366,0.16605413849363101
1761392288313918500,0.40091845703125,2.7863883756071326,1.8252987798839806,0.895495352980122
1761392288324000500,0.41100048828125,2.008514828118682,1.2391226932495831,1.255950786192715
1761392288334082600,0.42108251953125,1.5093839877307413,0.4986673145294189,1.0948087687306105
1761392288344164600,0.43116455078125,1.3869243137538432,0.12964110991358757,0.680866513871774
1761392288354247700,0.44124755859375,1.0638725093275307,-0.06419160940349102,0.2275420601626858
1761392288364329500,0.45132958984375,1.1522703392267226,-0.003739478789269924,-0.16111481892792506
1761392288374411500,0.46141162109375,1.277840254178643,0.06731032594591378,-0.2583206813186407
1761392288384493600,0.47149365234375,1.0962819100230932,0.12044950319826603,-0.05831490852297283
1761392288394576600,0.48157666015625,0.9299743264913558,0.19067367076426744,0.45308078114632516
1761392288404658400,0.491658447265625,0.7228747138440609,0.28066315376907586,0.9909794878784567
1761392288414740500,0.501740478515625,0.5754337433457374,0.264541747790575,1.1930363571181892
1761392288424822500,0.511822509765625,0.248469149389863,0.048447804565727705,0.9646920771945268
1761392288434905600,0.521905517578125,-0.24832827961444853,0.3711404202908277,0.01679700368512422
1761392288444987600,0.531987548828125,-1.3129016306877135,0.8704331732422113,0.2671872938632965
1761392288455069400,0.5420693359375,-2.0119214216917753,1.2832368525251745,0.8998965836137532
1761392288465151500,0.5521513671875,-2.331642035868764,1.382694713360071,1.1209486607026309
1761392288475234600,0.562234619140625,-2.560526194822788,1.2165011115968227,1.2403871602274477
1761392288485316600,0.572316650390625,-2.306100182855129,0.8279471996903419,1.402352184510231
1761392288495398400,0.5823984375,-2.131390097159147,0.24088965404629706,2.1300359060712157
1761392288505481500,0.5924814453125,-2.202980000120401,-0.2240922485023737,3.184630737835169
1761392288515563500,0.6025634765625,-2.0141624786168335,-0.6007423721253872,3.9366313006594775
1761392288525645600,0.6126455078125,-1.6275252139866352,-1.0891916595011948,4.218123598729074
1761392288535727600,0.6227275390625,-0.8470815237492323,-1.4540882169663905,3.9857971903666853
1761392288545810700,0.632810791015625,-0.9325134895801543,-1.5789619663476944,4.119247921696305
1761392288555892500,0.642892578125,-0.6816407861799001,-1.0699433536738157,4.357085494695603
1761392288565974500,0.652974609375,-0.42414369620382786,-0.4341834441810846,4.297404056192934
1761392288576056600,0.663056640625,-0.656056847590208,-0.8441454702973366,4.458027456608415
1761392288586139600,0.6731396484375,-1.0497978067457676,-1.8934739059656858,4.503582170081138
1761392288596221700,0.6832216796875,-1.5990853014439343,-2.8720371990591285,4.526440483099222
1761392288606303700,0.6933037109375,-2.349488073682785,-3.4809307289361953,5.628835907566547
1761392288616385800,0.7033857421875,-3.1363667654037473,-3.9929222199410197,7.318963415938615
1761392288626468600,0.713468505859375,-2.56106337043941,-5.606684866034985,9.371108126947282
1761392288636550700,0.723550537109375,-1.7822832295000552,-8.644514100319146,10.88184177572131
1761392288646632700,0.7336328125,-2.1456828264057637,-11.004190390539168,11.536781017458438
1761392288656714800,0.74371484375,-3.927417189851403,-12.588857290530203,12.56338850275278
1761392288666797600,0.753797607421875,-6.415031877720356,-12.382778253102302,12.64130994682312
1761392288676879600,0.763879638671875,-8.648150995516776,-9.606548867937923,11.149219623720645
1761392288686961700,0.773961669921875,-10.568457378828525,-8.391134967055915,10.123251605373621
1761392288697044700,0.784044677734375,-12.156565943706035,-9.182399326515197,9.670406130820512
1761392288707126500,0.79412646484375,-14.037131852781771,-9.215210878270865,9.606996611705421
1761392288717208600,0.80420849609375,-15.695768828868864,-7.991433638191222,8.983068009781837
1761392288727290600,0.81429052734375,-16.042075836676357,-6.2768339518636465,7.750173397266864
1761392288737373700,0.824373779296875,-15.784454828059673,-4.705603456550836,6.504307074975967
1761392288747455500,0.83445556640625,-14.611671277636288,-2.9363953972011805,5.376786561602354
1761392288757537500,0.84453759765625,-12.778996416026352,-0.926036987042427,4.152788079987466
1761392288767619600,0.85461962890625,-11.016353122019767,0.8212772204071283,3.0764062176987528
1761392288777702700,0.86470263671875,-9.302246187645196,2.704683905866742,1.9348776372388004
1761392288787784700,0.87478466796875,-7.425476748242974,5.054931858006119,0.11910714867860078
1761392288797866500,0.884866455078125,-5.020357388231158,7.3366802744150155,-1.8910737129561601
1761392288807948500,0.894948486328125,-2.2729513619691133,9.41273894497454,-3.387509225656092
1761392288818031600,0.905031494140625,-0.10905717156827449,11.025476339673995,-3.836902221667766
1761392288828113700,0.91511376953125,1.8120616971701382,11.315041469562052,-3.4651106439918276
1761392288838192000,0.925192138671875,2.8690023614078757,10.773872399389743,-2.992424742937088
1761392288848275200,0.935275146484375,4.043621895086765,11.114704775178431,-3.13010449013859
1761392288858357200,0.945357177734375,5.159457815885544,11.935668107330798,-3.6801276056349277
1761392288868439300,0.955439208984375,5.692468714043498,12.20579320821166,-3.9251258640438316
1761392288878521000,0.96552099609375,6.101878951495886,12.099030285060405,-4.034700922006368
1761392288888604200,0.975604248046875,6.459140484037995,11.911323939669131,-4.177788957992195
1761392288898686200,0.985686279296875,6.703266051265597,11.621298206532002,-4.372073512730002
1761392288908768300,0.995768310546875,6.74169895003438,11.420271776318549,-4.853749360448122
1761392288918850300,1.005850341796875,7.18568131917417,10.945115101236105,-4.987941557794809
1761392288928933000,1.01593310546875,7.682844074359536,10.425808318781852,-4.952907653814554
1761392288939015200,1.02601513671875,7.704215363690257,10.306159026050567,-5.055656665149331
1761392288949097200,1.03609716796875,7.3034730013400315,10.056422048681974,-5.258729506498575
1761392288959180000,1.046179931640625,6.720564392068982,9.826787948143481,-5.5799342217534775
1761392288969262000,1.056261962890625,5.9723898172736165,9.717525024870037,-6.34631606889069
1761392288979344100,1.06634423828125,5.600197842103243,9.08160729446709,-7.022009344843029
1761392288989426200,1.07642626953125,5.016985865971446,8.317409221109747,-7.850937372264266
1761392288999509000,1.086509033203125,4.76803682411015,8.349730943521857,-9.032976242288946
1761392289009591000,1.096591064453125,4.598662838745117,7.869557317060232,-9.62347019212246
1761392289019673000,1.106673095703125,4.5797161462128155,7.268799747365713,-9.970705420690773
1761392289029755100,1.116755126953125,4.71609679351449,6.379587639373541,-9.89249522280693
1761392289039838200,1.126838134765625,4.051286146104336,4.03143519820869,-9.5775150811553
1761392289049920300,1.136920166015625,1.2862398337334393,1.866210928247869,-9.550497310370206
1761392289060002000,1.147001953125,-3.594666413709521,0.27230829013884067,-9.548371988779305
1761392289070085400,1.15708544921875,-9.922338572406769,-0.5066211961433291,-9.423345679184793
1761392289080167200,1.167167236328125,-15.887968978548049,-0.974639105387032,-9.104313047271967
1761392289090249200,1.177249267578125,-19.409720378172395,-2.1851967984095215,-7.550560340982675
1761392289100331300,1.187331298828125,-20.591347744786738,-4.791082476393878,-4.293708124284446
1761392289110414300,1.197414306640625,-21.402187157809735,-7.944843736451864,-0.9879352248117327
1761392289120496400,1.207496337890625,-21.209320653176306,-10.111051464492082,1.687806079687178
1761392289130578200,1.217578125,-21.465072360789776,-11.615081231713294,3.181910957482457
1761392289140661200,1.2276611328125,-20.659664325165746,-12.96574765264988,4.294367172715067
1761392289150743300,1.237743408203125,-18.89347999755144,-13.996749573510884,5.487368750780821
1761392289160825300,1.247825439453125,-16.730882276701927,-14.476995096164941,6.441611257088184
1761392289170907100,1.2579072265625,-14.564021053189038,-14.369425532805918,7.011787226036191
1761392289180990200,1.267990234375,-11.988919220525025,-13.921239866757393,7.41712919113636
1761392289191072300,1.278072265625,-8.922491668266057,-13.721293632996082,8.038682880622147
1761392289201154300,1.288154296875,-5.864543190538883,-13.960550132882593,9.218792828410864
1761392289211237000,1.298237060546875,-3.224205207854509,-14.039537744879722,10.750669218456745
1761392289221319200,1.308319091796875,-1.8719255065023899,-13.92909584095478,12.659666272246836
1761392289231401200,1.318401123046875,-2.0122084219396115,-13.528291519284247,14.564751705551146
1761392289241483300,1.328483154296875,-2.783485639902949,-12.27511516624093,15.729240890359877
1761392289251566000,1.338566162109375,-3.8937458063960073,-10.98273843718767,16.289461867004633
1761392289261648100,1.348648193359375,-4.92354010503292,-9.898279651427268,16.298389854347704
1761392289271730200,1.358730224609375,-5.575731509366631,-8.842979740133881,15.565143384093044
1761392289281812200,1.368812255859375,-5.83366465267241,-7.81319888550043,14.45657540847063
1761392289291895000,1.37889501953125,-5.735801075291633,-6.8181251871109,13.059065403294563
1761392289301977000,1.38897705078125,-6.083178927201033,-5.432208589094877,11.541391726124285
1761392289312059100,1.39905908203125,-7.225004444780946,-3.5679908804908393,9.690519529044627
1761392289322142200,1.40914208984375,-8.587767546224594,-1.2765607357621191,7.592740609586238
1761392289332224300,1.419224365234375,-9.571160743692516,1.4922972438514233,5.22694028352797
1761392289342306000,1.42930615234375,-10.255318481129407,4.3667052636951205,2.777771938431263
1761392289352388000,1.43938818359375,-10.504916342288254,6.489945956668257,0.8696852774843573
1761392289362471200,1.44947119140625,-10.22840007906556,6.423894398611783,0.6450289653584361
1761392289372553200,1.45955322265625,-9.907766441696882,5.66467645175457,1.0492331586003303
1761392289382635000,1.469635009765625,-11.480330231440067,4.240374301242828,0.5653660844482481
1761392289392718300,1.47971826171875,-15.209378812110423,3.9500440322011707,-1.2985771911285817
1761392289402800400,1.48980029296875,-19.780043052339554,6.012875556918979,-4.222266397622227
1761392289412882200,1.499882080078125,-24.098044198620318,7.942216895079612,-7.753285391807555
1761392289422964200,1.509964111328125,-26.160744790434837,9.59715384760499,-11.033919173848629
1761392289433047300,1.52004736328125,-25.75828977894783,12.722588884627818,-14.877607694655657
1761392289443129300,1.53012939453125,-21.602472414267062,15.070426268494128,-16.987977215617896
1761392289453211400,1.54021142578125,-15.992760893887281,15.43310924156308,-16.279254945766926
1761392289463294200,1.550294189453125,-10.87371224527955,15.849636033022403,-14.042951352715491
1761392289473376300,1.560376220703125,-6.806071176701784,16.581162839877603,-12.346764690434933
1761392289483458300,1.570458251953125,-4.080811515796184,17.243868039441107,-11.061847629737853
1761392289493540400,1.580540283203125,-2.3550299257189033,17.455074502885342,-10.037222842693328
1761392289503623200,1.590623046875,-1.2787369107574225,17.326485532373187,-9.462010633143782
1761392289513705200,1.600705322265625,0.41601241219639773,17.168173623770475,-9.18659151750803
1761392289523787300,1.610787353515625,2.8423990166425703,16.66766974146366,-8.850565665218234
1761392289533870300,1.620870361328125,5.264717348736524,15.394873326671123,-8.151386299738288
1761392289543952100,1.6309521484375,7.297528413721919,14.25204184691906,-7.340591894900799
1761392289554034200,1.6410341796875,8.51250509223044,13.419452374380826,-6.969443875825405
1761392289564117200,1.6511171875,9.364442823839187,12.243383810937404,-6.4809665313988924
1761392289574199300,1.66119921875,10.001340212929248,11.617891612958907,-6.257832898795605
1761392289584281000,1.671281005859375,10.379576144438982,10.929154146516323,-6.212804839545488
1761392289594363100,1.681363037109375,10.5350823479712,9.747761173179745,-5.921447565543652
1761392289604446200,1.6914462890625,10.717872864270209,8.31449654853344,-5.636973621314763
1761392289614528300,1.7015283203125,11.285918250930308,6.858600989884137,-5.6624178591728205
1761392289624610300,1.7116103515625,11.821239764118195,5.768273604351282,-5.767604911309481
1761392289634693000,1.721693115234375,11.798538102966546,4.913489835661649,-5.9563178033947946
1761392289644775200,1.731775146484375,10.769368073707819,4.041364471548795,-5.896053596568107
1761392289654857200,1.741857177734375,8.203551371261478,2.7886212492257356,-5.726410146611928
1761392289664940000,1.75193994140625,5.420873540610074,1.6018810696423054,-5.880633909118175
1761392289675022000,1.76202197265625,3.5809184588640925,0.21844576704800128,-5.890444524514675
1761392289685104000,1.772104248046875,2.0673703371912238,-2.2002923684716222,-3.880689340946078
1761392289695186200,1.782186279296875,-0.26849077767729757,-5.891961358818412,-0.3590276654317975
1761392289705269000,1.79226904296875,-6.138732472118735,-9.021367053037881,2.2088541528508068
1761392289715351000,1.80235107421875,-13.346658356326818,-11.735292834502458,3.6344141944691537
1761392289725433000,1.81243310546875,-20.475034903001784,-13.562663744485377,3.657307871061563
1761392289735516400,1.822516357421875,-26.361037061154843,-13.344904790657758,3.052712622900307
1761392289745598200,1.83259814453125,-30.277282284128663,-12.701300597405433,2.931640603889525
1761392289755680300,1.84268017578125,-30.111128429853913,-13.250711426222324,4.17957058071196
1761392289765762000,1.852761962890625,-27.388951537394522,-14.313012156188487,6.526322507429122
1761392289775845400,1.862845458984375,-23.46365323939323,-14.507625212228298,8.100477365756035
1761392289785927200,1.87292724609375,-20.232397528505324,-13.376396491986512,8.183935401165485
1761392289796009200,1.88300927734375,-18.006268123465777,-11.375526625663042,7.177291091969609
1761392289806092300,1.89309228515625,-15.81638725889325,-9.054463266953826,5.809986255443095
1761392289816174300,1.90317431640625,-13.239075933486223,-6.596765578442811,4.381582807092368
1761392289826256400,1.91325634765625,-10.33854855300188,-4.024726055958867,2.8584792138278483
1761392289836340000,1.923340087890625,-7.345902860790491,-1.8547820639997719,1.6015858860880134
1761392289846422000,1.933422119140625,-4.2602112206131215,0.5383183569163084,0.2222986430838704
1761392289856504000,1.943504150390625,-1.5028782590985297,2.6323522446274756,-0.8212804352775216
1761392289866585900,1.9535859375,1.0167197130084038,4.057785444995761,-1.2238009132161736
1761392289876669000,1.9636689453125,3.330660672491789,5.476472678235173,-1.3616113010600208
1761392289886751000,1.9737509765625,4.872859134587645,6.852257758337259,-1.3972120451427996
1761392289896833000,1.9838330078125,5.360714547723531,8.134926163324714,-1.6195209173597394
1761392289906915800,1.993915771484375,5.447655749073625,9.610569209495186,-2.070661049299687
1761392289916998000,2.003997802734375,5.502095779791474,11.10810435400009,-2.6028537629425523
1761392289927080000,2.014079833984375,5.544944156914949,12.617687079173326,-3.244896113705635
1761392289937163000,2.0241630859375,5.971882452273369,13.954322636669874,-3.8154394546613095
1761392289947244800,2.034244873046875,6.362478683662414,15.35811859024763,-4.55525975034833
1761392289957326800,2.044326904296875,6.865163417139649,16.334083099019526,-5.272585013371706
1761392289967409000,2.054408935546875,6.9084349881112574,17.278164276796577,-6.316934491583704
1761392289977492000,2.064491943359375,6.405463254386186,18.24243951681852,-7.613881597292423
1761392289987574000,2.074573974609375,5.467388623547554,19.24187959372401,-9.091497989362479
1761392289997656000,2.084656005859375,4.17278252800703,19.828436788630484,-10.223716889685392
1761392290007739100,2.0947392578125,1.7462018622934816,19.92449477789402,-11.458911011314392
1761392290017821200,2.1048212890625,-1.597533980348706,19.89720228182077,-12.790161953163146
1761392290027903000,2.114903076171875,-6.757506760019064,16.766095044380425,-12.896771731579303
1761392290037986000,2.124986083984375,-11.388480799782275,14.12083538738489,-14.04480077997446
1761392290048068000,2.135068115234375,-12.88443013640046,13.57096044818759,-16.18715183160901
1761392290058150100,2.145150146484375,-12.030980246663093,12.703355776369571,-15.423829372042416
1761392290068233000,2.15523291015625,-10.791225685250758,9.925159475046396,-10.681107606452702
1761392290078315000,2.16531494140625,-9.89158103057146,5.8928971783638,-5.185637382280826
1761392290088397000,2.17539697265625,-10.397293002915381,2.214978480949998,-1.9426257671475409
1761392290098479000,2.18547900390625,-11.788842053860424,-0.9996820689678192,-0.5470866236530244
1761392290108562000,2.19556201171875,-12.287936069369316,-3.271712516699731,-0.6969084979385137
1761392290118644000,2.20564404296875,-11.52616609994173,-4.7505678029149765,-1.7365870617300272
1761392290128726000,2.21572607421875,-10.624254669374228,-6.935922714495659,-2.6528657480850812
1761392290138809000,2.22580908203125,-10.415277572417258,-9.3073864731431,-3.35225524918437
1761392290148891000,2.235890869140625,-10.117119970750808,-10.307639035475253,-4.129391130048036
1761392290158973000,2.245972900390625,-9.485003386196494,-10.19195864637494,-4.112240088760853
1761392290169056000,2.256055908203125,-8.80070360994041,-9.979304906731844,-2.102946677485108
1761392290179138000,2.266137939453125,-6.878785699778795,-9.629541036468744,1.463203543575108
1761392290189219800,2.2762197265625,-4.382377464601397,-9.271900149220228,5.568144999760389
1761392290199303000,2.286302978515625,-2.3235762183129784,-8.56327023382783,9.1904698202461
1761392290209385000,2.296385009765625,-0.979868530473113,-7.977238524100184,11.88803424949646
1761392290219467000,2.306467041015625,-0.052445642030239104,-7.761579757422209,13.58891812968254
1761392290229549000,2.316549072265625,0.5150152227401733,-7.776707768449187,14.619493349564074
1761392290239632000,2.3266318359375,1.0582868181496858,-7.60146576783359,14.940310526806115
1761392290249714000,2.3367138671875,1.489274096637964,-7.216916415393352,14.78472249020934
1761392290259796000,2.3467958984375,1.778150659739971,-7.297994277667999,14.556914436054228
1761392290269879000,2.356879150390625,1.7514637283444403,-7.928146868672966,14.232185638326406
1761392290279961000,2.366961181640625,1.2450959224402904,-9.56981225169301,14.263961417293547
1761392290290043100,2.377043212890625,-0.12672259211838244,-11.896010635203123,14.544813663893937
1761392290300126000,2.3871259765625,-2.7847739261478184,-14.395172553002833,14.605262579637765
1761392290310208000,2.3972080078125,-6.736138393297791,-16.99714018076062,14.087484906446933
1761392290320290000,2.4072900390625,-10.087054502832888,-19.038156179511546,13.076182542312145
1761392290330372000,2.4173720703125,-12.95386315358877,-19.883856478035447,11.306313388705252
1761392290340455200,2.427455078125,-15.560635551279782,-18.82512951490283,9.463982809999585
1761392290350537000,2.437536865234375,-18.2784811365366,-17.70673923344612,8.15828131994903
1761392290360619000,2.447618896484375,-20.485387954711914,-16.35528253891468,7.052662257260084
1761392290370702000,2.4577021484375,-21.365878996109963,-13.71549751393795,5.678597425079345
1761392290380784000,2.4677841796875,-20.845612428712844,-10.617434467965364,4.7138878852933646
1761392290390866000,2.477865966796875,-19.257942255252598,-7.90322343981862,4.395471339452267
1761392290400949000,2.487948974609375,-16.77318763298988,-5.478733024382591,4.119619677618146
1761392290411031000,2.498031005859375,-14.164177685505152,-2.829395450423658,3.3465918165951964
1761392290421113000,2.508113037109375,-11.651806742042302,-0.3812234228879213,2.287703525421023
1761392290431196000,2.51819580078125,-9.136722447967529,1.8920412428140638,1.0054539303675294
1761392290441278000,2.52827783203125,-6.720777158036828,3.9639299342125653,-0.1410343183264136
1761392290451360000,2.538360107421875,-4.727557514205575,5.7229182128429406,-1.0787379238955677
1761392290461442000,2.548442138671875,-3.0075019005596637,7.03120445868969,-1.9785344081357121
1761392290471524900,2.55852490234375,-1.6698440142780542,8.169901615116,-2.671635622745752
1761392290481607000,2.56860693359375,-0.7564893986761569,8.962757043159007,-3.2154262735933066
1761392290491689000,2.57868896484375,-0.017860650861263275,9.757707397654652,-3.658073302476108
1761392290501772000,2.58877197265625,0.7166121463179588,10.404908154094219,-3.9372821657836434
1761392290511853800,2.598853759765625,1.5399270100325344,10.918036540174484,-4.15133525083065
1761392290521936000,2.608935791015625,2.3587129981458186,11.34149342315793,-4.2191941505700346
1761392290532019000,2.61901904296875,2.8486317735522984,12.1358925735116,-4.493493906787037
1761392290542101000,2.62910107421875,3.3338515774875876,12.945689199483393,-4.7857168577075
1761392290552183000,2.63918310546875,3.7040775132820007,14.187129522025584,-5.262404980140924
1761392290562266000,2.64926611328125,4.525652547591925,16.16130544269085,-5.842627126806974
1761392290572348000,2.659347900390625,6.206638133609294,18.09565437988043,-6.1001563654869795
1761392290582430000,2.669429931640625,8.063876943111419,19.021541729319093,-5.6135997599899765
1761392290592513000,2.679512939453125,7.579394805800915,18.137001120269296,-4.3292830032736065
1761392290602595000,2.689594970703125,4.302173462551832,16.9630450189352,-4.3622342557609075
1761392290612677000,2.699677001953125,0.27870763578712937,17.82459287493229,-7.77062172653377
1761392290622759200,2.70975927734375,-2.712986747048795,18.66362260965109,-11.454525928097963
1761392290632842000,2.719842041015625,-3.7667122486323117,18.915834452700615,-13.591412869107723
1761392290642924000,2.729924072265625,-3.0493548369050023,18.319177888584136,-13.313013276356457
1761392290653006000,2.740006103515625,-1.9520909301072358,16.375605195975304,-10.474483794623612
1761392290663089200,2.750089111328125,-0.4327420132011175,15.038449413996934,-7.175714636433124
1761392290673171000,2.7601708984375,0.5953764611780643,14.339902501201628,-4.800257131974399
1761392290683253000,2.7702529296875,0.25879706665873525,13.111734332686662,-3.440701009878516
1761392290693336000,2.780336181640625,-0.9861065480798482,11.991515666759014,-3.501033898027241
1761392290703418000,2.790418212890625,-2.8054432046890256,11.317816779494285,-5.216898197463155
1761392290713500000,2.8005,-4.894759416228532,10.145383942204713,-7.0089248223423954
1761392290723583000,2.8105830078125,-6.82758158224225,8.821021590825914,-8.911486290127039
1761392290733665000,2.8206650390625,-8.045437031057476,7.6284145650357,-11.280444787955284
1761392290743747000,2.8307470703125,-8.766000545349717,5.77437542835772,-13.550229794847965
1761392290753830000,2.840829833984375,-9.343016004928947,3.378484792201221,-14.701834948164224
1761392290763912000,2.850911865234375,-9.323454395368694,0.7965417153403163,-14.273624733173847
1761392290773994000,2.860993896484375,-9.625040217918157,-1.6132481207005678,-12.689642892837524
1761392290784077000,2.8710771484375,-9.654923899528384,-2.76328573243916,-11.429963149249552
1761392290794158800,2.881158935546875,-9.854825125104188,-3.977720559155941,-9.890000483381748
1761392290804241000,2.891240966796875,-10.413741448891162,-6.534390663072466,-8.2784075825423
1761392290814324000,2.901323974609375,-10.795936931681632,-9.824913970965147,-6.18922639555931
1761392290824406000,2.911406005859375,-12.485157262080907,-13.158414250797033,-4.773438975414633
1761392290834487300,2.9214873046875,-15.615259121870993,-15.819859318917988,-4.310938952809572
1761392290844569000,2.931569091796875,-20.383575931966302,-17.266944963645933,-4.2685546860665085
1761392290854652200,2.941652099609375,-24.24629064028263,-18.18962562599778,-4.3156893622070545
1761392290864734200,2.951734130859375,-25.389026258444783,-18.245411226105688,-4.369572928085923
1761392290874816300,2.961816162109375,-24.49545361715555,-18.30924803072214,-3.2180560375750065
1761392290884899000,2.971899169921875,-22.685345976662635,-18.77316785699725,-0.9937328051745891
1761392290894981000,2.981981201171875,-20.57604963788986,-19.02572924413681,1.537638022312522
1761392290905063200,2.992063232421875,-17.867569262349605,-18.150961841082573,3.9534237377673387
1761392290915146200,3.002146240234375,-14.734665204620361,-17.150785266596078,6.46092269127965
1761392290925228000,3.01222802734375,-11.48272910927534,-16.424779853510856,8.843514577662944
1761392290935310000,3.02231005859375,-8.211404422849416,-15.821803438723087,10.56483100502491
1761392290945393400,3.032393310546875,-5.423170127114653,-15.09164675117731,11.816575279438496
1761392290955475200,3.04247509765625,-3.424644778090715,-14.211895714491606,12.774165927129983
1761392290965557000,3.052556884765625,-2.315398757076263,-13.175405133086443,13.646121779894829
1761392290975640300,3.062640380859375,-1.7373779198467731,-12.087025374490022,14.412469724762438
1761392290985722400,3.072722412109375,-1.368996442875266,-10.865975513547658,15.055981563556193
1761392290995804400,3.082804443359375,-0.8279273259460925,-9.414096204802393,15.349551837432383
1761392291005886200,3.09288623046875,-0.26901158668100833,-7.760646860486268,15.209353093147277
1761392291015969300,3.10296923828125,0.4179197071224451,-6.300283801034093,15.033706603384017
1761392291026051300,3.11305126953125,0.9373755426585674,-5.11123534450829,14.821404745918512
1761392291036133400,3.12313330078125,1.2896002500772474,-4.1923929451450705,14.290674067652224
1761392291046216200,3.13321630859375,1.1530120975047349,-3.5175837585508822,13.482656726312637
1761392291056298200,3.14329833984375,0.2445475920319557,-2.9333699119001624,12.373860787153243
1761392291066380300,3.15338037109375,-0.783804106581211,-2.443352790685743,10.996275964152812
1761392291076463000,3.163463134765625,-1.8211422447264194,-2.089942526744306,9.241177678698302
1761392291086545200,3.173545166015625,-2.3443097942620517,-2.0273048687845465,7.25765174588561
1761392291096627200,3.183627197265625,-3.3435353516340256,-3.4918238788723945,6.523171349921822
1761392291106710300,3.193710205078125,-5.147631184491515,-6.248426772546768,6.992680374506116
1761392291116792300,3.203792236328125,-9.709321260148286,-9.71427566768527,7.690327708113193
1761392291126874000,3.2138740234375,-17.8408753166914,-11.17367952671647,5.7739826296478505
1761392291136957200,3.223957275390625,-26.00810508224964,-8.34554810487926,0.49594344252347944
1761392291147039200,3.234039306640625,-31.859005531883238,-5.436245881786943,-4.5057174285441635
1761392291157121300,3.244121337890625,-33.717167885971065,-3.1692917144060133,-8.432408642208575
1761392291167203000,3.254203125,-31.45641958749294,-1.494483355718851,-10.546571710234879
1761392291177286100,3.2642861328125,-26.828832267558575,-0.2714437822639942,-11.56432135081291
1761392291187368200,3.2743681640625,-21.995013934504986,2.0496949797689914,-11.619420722222328
1761392291197450200,3.2844501953125,-17.632189311635493,4.667127303162217,-10.522800374025106
1761392291207533000,3.294532958984375,-13.804135582333803,6.964973452413082,-8.666756327265501
1761392291217615000,3.304614990234375,-10.547290672159194,9.076453564965725,-6.485835014218091
1761392291227697200,3.314697265625,-7.938736651748418,10.330615421915054,-4.39346935198009
1761392291237780000,3.324780029296875,-5.895888176873326,11.044071150028705,-2.8377961990222333
1761392291247862000,3.334862060546875,-4.505970526522398,11.710060193568468,-1.7682585035398601
1761392291257944000,3.344944091796875,-3.6059354112207886,11.97037117192149,-0.8079553820192813
1761392291268027400,3.35502734375,-3.00042217143178,11.954141337132453,-0.10389788910895585
1761392291278109400,3.365109375,-2.2451047391444443,12.024036126613616,0.15779811386168002
1761392291288191200,3.375191162109375,-1.4381447979032993,12.098188573539256,0.2633651052266359
1761392291298274300,3.3852744140625,-0.6198766961842775,12.229771465170383,0.27256635655313727
1761392291308356400,3.3953564453125,0.29004502235949037,12.396195368558168,0.230557645124197
1761392291318438400,3.4054384765625,0.9842483529925345,12.517068650126456,0.4455734377235174
1761392291328521200,3.415521240234375,1.1453893475413321,12.631604545366763,0.6776186910569667
1761392291338603300,3.425603271484375,1.0857865272328258,12.761523887699841,0.875499224460125
1761392291348685300,3.435685302734375,1.2567182634338736,12.947228830140828,1.1413748512029647
1761392291358768000,3.44576806640625,1.7345792290389537,13.250257837235926,1.2067734983086584
1761392291368850200,3.45585009765625,2.2405723564118145,13.645041583442687,0.8420143034875393
1761392291378932200,3.46593212890625,2.279222112801671,14.435387659013271,0.015144377639889716
1761392291389014300,3.47601416015625,2.214714423186332,15.514347262835502,-0.9672007720798254
1761392291399097000,3.48609716796875,1.928614192929864,16.72222433847189,-2.445782209789753
1761392291409179100,3.49617919921875,2.2157862902015446,17.87421995241046,-4.011838517335057
1761392291419261200,3.50626123046875,3.3904642760694026,18.4488260127604,-5.4100224762499325
1761392291429344300,3.51634423828125,4.245397682362794,18.38941170076132,-6.358026380428671
1761392291439426300,3.52642626953125,5.054302912452816,18.21981618160009,-7.207554128286242
1761392291449508000,3.536508056640625,4.559190660056472,18.81095719716549,-9.181822403410077
1761392291459591200,3.546591064453125,3.51827817055583,18.769336900532245,-11.020825883519649
1761392291469673200,3.556673095703125,0.5127005160570144,17.393136225366593,-12.758334736269711
1761392291479755300,3.56675537109375,-3.445924882006645,16.258214495825765,-15.21044965621233
1761392291489838000,3.576838134765625,-6.6740534007847305,15.153834035021065,-17.747414942705632
1761392291499920100,3.586920166015625,-9.57984498540759,12.349053678154945,-19.811406158852577
1761392291510002200,3.597002197265625,-10.557381858062744,10.028756627643109,-21.384071655404565
1761392291520085000,3.6070849609375,-10.087812043201923,8.159936685940623,-20.441170042800902
1761392291530167000,3.6171669921875,-9.483213580170274,6.34577597066462,-16.970125917106866
1761392291540249000,3.6272490234375,-9.728172675612567,4.725965861099958,-12.489074727785587
1761392291550332400,3.63733251953125,-11.268265689861774,3.208395644304156,-8.57563170275092
1761392291560414200,3.647414306640625,-13.482207813501358,1.3237602938324213,-5.656341754129529
1761392291570496300,3.657496337890625,-15.537583176994323,-1.6857114454954862,-2.6925942396223546
1761392291580578000,3.667578125,-17.167108624887465,-5.3566404301524155,-0.03525339194983244
1761392291590661400,3.677661376953125,-18.22228403301835,-7.8871397355020045,1.7951687222972512
1761392291600743200,3.6877431640625,-18.38976007580757,-8.604191442281007,2.9873364798873663
1761392291610825200,3.6978251953125,-17.323958059722184,-9.127365421557426,4.235777621102333
1761392291620908300,3.707908203125,-15.2527655338943,-10.824448740416765,6.415472607225179
1761392291630990300,3.717990234375,-13.039135544943809,-13.580330334079266,9.772871649038791
1761392291641072400,3.728072265625,-11.501046856254339,-16.02066012368202,13.266646661978958
1761392291651155200,3.7381552734375,-11.23763323571086,-16.295627403897047,16.994950561761854
1761392291661237200,3.7482373046875,-12.366457232898473,-15.52095236018896,20.60861452140808
1761392291671319300,3.7583193359375,-12.450718401384353,-14.145644834470747,23.303765459775924
1761392291681402000,3.768402099609375,-11.198692387419939,-12.454995932573079,24.717868872356412
1761392291691484200,3.778484130859375,-9.544499531260133,-10.949987675708531,24.80103464682102
1761392291701566200,3.788566162109375,-7.470465060004591,-9.001518443229793,23.78628594162464
1761392291711649300,3.798649169921875,-5.601333568134904,-6.964213573956489,21.887097165143487
1761392291721731000,3.80873095703125,-4.413725373545288,-4.726823939234018,18.859487711578605
1761392291731813000,3.818813232421875,-3.8860295329302548,-2.280210539317131,15.123119747805594
1761392291741895200,3.828895263671875,-4.0295238116294145,-0.27717092773914337,11.790855147248505
1761392291751978200,3.838978271484375,-4.85582207506895,0.8676116860806942,9.180542300471663
1761392291762060300,3.849060302734375,-6.524639668908715,1.0203133535861968,7.188510989642142
1761392291772142000,3.85914208984375,-8.160640450295805,0.4112432980984449,6.154443251469731
1761392291782225200,3.86922509765625,-9.786742938002943,-0.7378864050149917,5.501072866484522
1761392291792307200,3.87930712890625,-13.671398844492435,-2.7007395521551367,4.33027406013757
1761392291802389200,3.88938916015625,-18.37280894100666,-2.568928112465143,0.6417027435451745
1761392291812472000,3.89947216796875,-21.757181329941748,0.926602219709754,-4.1287148382216685
1761392291822554000,3.90955419921875,-22.994602479970453,3.0031665017038582,-8.742274801847339
1761392291832637200,3.91963720703125,-21.388535064554212,4.313334323513508,-12.754500272673368
1761392291842720300,3.92972021484375,-19.53081110188365,5.890607021600007,-16.91825193748474
1761392291852802300,3.93980224609375,-17.1724114074707,8.079145823913812,-20.43713216558695
1761392291862884400,3.94988427734375,-14.292927984058856,9.45071240953803,-20.493325761973857
1761392291872966400,3.95996630859375,-10.890659872949122,10.911548347198963,-18.34339930664897
1761392291883049200,3.97004931640625,-8.079538038101791,13.528894745874403,-15.79803444060087
1761392291893131300,3.98013134765625,-6.004957038879394,15.384555346274375,-13.487913916188477
1761392291903213300,3.99021337890625,-4.12042368747741,16.62814670937061,-12.317061626088618
1761392291913296100,4.000296142578125,-1.7415742024928331,17.191508906650544,-11.928658520829677
1761392291923378200,4.010378173828125,1.9573375985890626,16.38948642181158,-10.997842482817171
1761392291933460200,4.020460205078125,6.381443496373295,15.3363170928061,-9.788139360797405
1761392291943542300,4.030542236328125,10.885123281610012,13.846076196962594,-8.913542053613066
1761392291953624300,4.040624267578125,13.716023583638668,13.304578625488281,-8.381080606031418
1761392291963707100,4.05070703125,14.916255112957954,13.050180670571326,-7.97668615091443
1761392291973789200,4.0607890625,13.852878862714766,12.296605698037148,-7.459281402689218
1761392291983871200,4.070871337890625,12.371342666852474,11.533563808977604,-6.998786874687672
1761392291993954300,4.080954345703125,11.081560045945643,9.944840327072143,-6.008474691611528
1761392292004036000,4.0910361328125,9.787297649276256,8.598879891869425,-5.435222383958101
1761392292014118100,4.1011181640625,8.74546044614613,6.722490391695499,-4.936262223961949
1761392292024201200,4.111201171875,7.4860758861124514,4.628777991023659,-4.608830597016215
1761392292034283300,4.121283203125,5.864541436973214,2.335962821677327,-4.17144046574831
1761392292044365000,4.131364990234375,3.9914404569506643,-0.37837680128514767,-2.919087119525671
1761392292054448000,4.1414482421875,1.9330244105875491,-4.072200923839211,-0.7666989502623677
1761392292064530200,4.1515302734375,-0.2912643350213766,-9.642934186527132,3.055493778051436
1761392292074612200,4.1616123046875,-3.5572084974527356,-16.677286295592783,8.066441825163364
1761392292084695000,4.171695068359375,-7.5200406995564695,-22.78632330214977,12.310946358078718
1761392292094777000,4.181777099609375,-12.789044347310066,-26.36195125339031,14.029856893342732
1761392292104859100,4.191859130859375,-19.197093526536225,-27.433178801655767,13.279285194277763
1761392292114941200,4.201941162109375,-23.719643431937694,-26.505439686870574,11.334347058534622
1761392292125024300,4.212024169921875,-24.450632478654384,-23.70872456303835,9.493196629524231
1761392292135106000,4.22210595703125,-22.221214553463458,-20.312556522369384,8.644157541966438
1761392292145188000,4.23218798828125,-18.72143650071621,-17.043666954135894,8.810621777364611
1761392292155271200,4.242271240234375,-14.869235003107786,-14.081698139739036,9.391727136605978
1761392292165353200,4.252353271484375,-12.097443892651796,-10.889563309884071,8.855221382069587
1761392292175435300,4.262435302734375,-10.202502252221107,-7.603843602880835,7.5513962072849266
1761392292185518300,4.272518310546875,-8.756682681906224,-4.41915090572536,5.621351689291
1761392292195600400,4.282600341796875,-7.096613627189398,-1.4999427901685236,3.5869948561683294
1761392292205682200,4.29268212890625,-5.6445151227355,0.9555518353402614,1.9308374219372868
1761392292215765200,4.30276513671875,-4.030197180846333,3.25462197342813,0.5286243536368012
1761392292225847300,4.312847412109375,-2.2194138330489395,4.995962951686978,-0.300251066814363
1761392292235929300,4.322929443359375,-0.8029030670657753,5.791615901494026,-0.6074655429005622
1761392292246012200,4.33301220703125,0.7005103218227624,6.236185715132951,-0.9197124601960182
1761392292256094200,4.34309423828125,1.9649939585611222,6.882184694567322,-1.3498928062155842
1761392292266176300,4.35317626953125,2.679019595517218,7.653167898020148,-1.696702941239625
1761392292276258300,4.36325830078125,3.1006510166391728,8.506623632976412,-2.0302353692784902
1761392292286341000,4.373341064453125,3.561650571553409,9.211776227647066,-2.283123796415329
1761392292296423200,4.383423095703125,3.6735944044739006,9.420650448751449,-2.027487824136019
1761392292306505200,4.393505126953125,3.3353298333466053,9.390159448897839,-1.7495489807642994
1761392292316588300,4.40358837890625,2.3416654172331093,9.74738123395145,-1.8974125605888663
1761392292326670000,4.413670166015625,1.1222107165277004,10.360699594533443,-2.894334371063113
1761392292336752000,4.423752197265625,0.21196005829051134,11.49457502989173,-4.439958131432533
1761392292346835200,4.433835205078125,-0.11789514254033565,11.574151839953661,-5.02227578907311
1761392292356917200,4.443917236328125,0.07141469252482056,11.193483128339052,-5.21686955589056
1761392292366999000,4.4539990234375,0.38525267840400335,11.02213170542121,-5.359882773074507
1761392292377082000,4.46408203125,0.2794435488462448,11.343725127732753,-5.649732565122842
1761392292387164200,4.4741640625,-0.6714601684272289,12.165194655841589,-6.461669710254669
1761392292397246200,4.48424609375,-2.138174934993684,12.80578505423069,-7.281858550903201
1761392292407329300,4.494329345703125,-4.049707937002181,13.030015834420919,-8.008790431183575
1761392292417411000,4.5044111328125,-5.752362918514013,12.88474694726467,-9.104145874011516
1761392292427493000,4.5144931640625,-6.603586948895454,12.553759089142083,-10.409591343474387
1761392292437575200,4.5245751953125,-6.320597105744481,11.918015546262264,-11.711388227301835
1761392292447658200,4.534658203125,-4.861225979939102,10.744368072485923,-11.93652150928974
1761392292457740300,4.544740234375,-2.676418180847168,9.483826743632555,-10.65006247984767
1761392292467822300,4.554822265625,-0.5745476081609726,8.656680338931084,-8.541340141570567
1761392292477905200,4.5649052734375,0.6913070246696472,8.255978893113136,-6.60935734899044
1761392292487987200,4.5749873046875,0.6284913797944783,8.01571993818581,-5.216491370227932
1761392292498069200,4.5850693359375,-0.6527028609871864,7.6533198737114665,-4.594304643535613
1761392292508152300,4.59515234375,-2.315897354248166,7.331458155852556,-4.7473491331294175
1761392292518234400,4.605234375,-3.4803111357331273,6.813489928525686,-5.27153287397027
1761392292528316200,4.615316162109375,-4.042933328300714,6.133679864904284,-5.765280852276087
1761392292538399200,4.625399169921875,-4.4848307078599925,5.330174448031187,-6.064890406316518
1761392292548481300,4.635481201171875,-4.887743984508514,4.684133967542648,-6.285076295030117
1761392292558563300,4.645563232421875,-5.146772521835565,4.3682352497413754,-6.232842249923944
1761392292568646100,4.655646240234375,-4.926761989688873,4.253324383708835,-5.839787519466877
1761392292578728200,4.665728271484375,-4.143976120239496,4.0649245030954475,-5.316697126820683
1761392292588810200,4.675810302734375,-3.3070611857175827,3.43307504504472,-4.723384612435102
1761392292598893000,4.68589306640625,-2.6309552373111247,2.1517647766679526,-3.9977445255309343
1761392292608975000,4.69597509765625,-2.5952567319422957,1.4229209252864121,-3.8025574689954516
1761392292619057200,4.70605712890625,-3.9331121866226195,1.08275271249488,-4.195492372465133
1761392292629140200,4.71614013671875,-5.843413893270492,0.655448944824934,-4.518947496995329
1761392292639222300,4.72622216796875,-7.439848387944698,-0.21285927215255795,-3.764016433677077
1761392292649304000,4.736303955078125,-8.938722672098875,-1.4541457923725247,-2.2019670236855746
1761392292659387100,4.74638720703125,-10.909628777313232,-3.1416052505791185,-0.21504151156246662
1761392292669469200,4.75646923828125,-14.179409156906605,-5.415413521638512,1.744838172724843
1761392292679551200,4.76655126953125,-19.012549444568155,-8.827841207712888,3.209949303486943
1761392292689634300,4.77663427734375,-23.208313035190105,-12.662938425785303,3.3573867668539283
1761392292699716000,4.786716064453125,-25.468079336893556,-15.634312197387217,1.8351520653784275
1761392292709798100,4.796798095703125,-26.476992175543305,-17.61363541781306,-0.6119225223094225
1761392292719880200,4.806880126953125,-27.010382428407667,-19.01651951724291,-2.0942460691571236
1761392292729963300,4.81696337890625,-27.797995279622075,-20.1990166524291,-1.3299836983919142
1761392292740045300,4.82704541015625,-27.30961555035114,-21.361001745462417,1.2575392244279384
1761392292750127400,4.83712744140625,-25.147857202935217,-22.0538425555706,4.917366384834051
1761392292760210200,4.847210205078125,-22.684988249266148,-22.653903375172614,9.065451693958044
1761392292770292200,4.857292236328125,-21.66752502441406,-22.84763029602766,12.650119860744475
1761392292780374300,4.867374267578125,-22.858848440134523,-23.20285126265287,15.507403142786025
1761392292790457300,4.877457275390625,-23.803784188914296,-23.303667260098457,16.641394313478468
1761392292800539100,4.8875390625,-23.24444116414785,-23.551757054781913,16.424648920607567
1761392292810621200,4.89762109375,-20.356867957782743,-23.977253919160365,15.060571229434013
1761392292820704300,4.907704345703125,-15.984214014816283,-23.736503381323814,13.347684776765107
1761392292830786300,4.917786376953125,-11.857438035702705,-23.299603663921356,11.79069966442585
1761392292840871200,4.92787109375,-8.802053270983695,-21.801892578327653,10.091047956383228
1761392292850953200,4.937953125,-7.130325342655182,-18.953540790760517,8.461057813587784
1761392292861036000,4.9480361328125,-7.047637707096338,-15.323673884332178,7.031369293862581
1761392292871118000,4.9581181640625,-8.037250801992416,-11.243408311980962,5.330315902328491
1761392292881200000,4.9682001953125,-8.824871251991391,-6.760351043534278,3.1584038251668214
1761392292891283000,4.978282958984375,-8.924680118221044,-2.4117013687506317,0.7873977471590041
1761392292901365000,4.988364990234375,-8.183208840456604,0.5054971605494618,-0.6535550939023494
1761392292911447000,4.998447021484375,-7.055338198471069,1.825536680293083,-0.8526485102266073
1761392292921530000,5.008530029296875,-6.927152548062801,1.118563592197001,-0.25870880385339257
1761392292931612000,5.01861181640625,-7.666316133406758,-0.2821244584932923,-0.01212473755776882
1761392292941694000,5.02869384765625,-8.747133932316302,-0.2965311695083976,-0.7027011098653078
1761392292951777000,5.038777099609375,-10.477351459014415,0.527362078616023,-2.3433050011336802
1761392292961859000,5.048859130859375,-13.492057007342575,1.7667974910765885,-4.854275137887895
1761392292971941000,5.058941162109375,-16.92727929354906,3.060168491864204,-7.348459559535979
1761392292982023000,5.06902294921875,-17.96643880190253,5.2489761742472645,-9.255663300168514
1761392292992106200,5.079106201171875,-16.42969334451556,7.53667619253695,-10.319366882669925
1761392293002188000,5.08918798828125,-13.314681501829623,9.24539208152294,-10.684518876200913
1761392293012270000,5.09927001953125,-9.453282552286982,11.20346325508356,-10.441247879976034
1761392293022353200,5.109353271484375,-6.296960794091224,13.078008588695525,-9.187999630740284
1761392293032435200,5.119435302734375,-4.170851852205396,14.862818121802807,-7.911073568797111
1761392293042517200,5.129517333984375,-2.7072151779100295,17.124405793714523,-7.199615736502409
1761392293052600000,5.13960009765625,-2.22886905913651,19.05905166802406,-6.878182473188638
1761392293062682000,5.14968212890625,-2.6058660965010523,21.246938143908977,-7.206862638890743
1761392293072764200,5.15976416015625,-2.4152456172287464,23.5942307533741,-7.934853088313341
1761392293082847200,5.16984716796875,-1.5204326204895973,25.444186420130727,-8.585564483222365
1761392293092929000,5.179928955078125,-0.10479776055812835,26.810730793678758,-9.009524639552831
1761392293103011000,5.190010986328125,2.265902320240438,27.008675624489783,-8.541020408096909
1761392293113094100,5.20009423828125,4.341926796269417,26.09302442238331,-7.353854696577787
1761392293123176200,5.21017626953125,5.261297311159968,24.40556350287199,-5.790026001954078
1761392293133258000,5.220258056640625,5.213668714022636,22.93185522415638,-4.523100525021553
1761392293143341000,5.230341064453125,4.136441048559546,21.432264316165448,-3.5988410690456627
1761392293153423000,5.240423095703125,3.0039164432883263,19.696891306400296,-3.0554885173544286
1761392293163505200,5.250505126953125,1.8216116158038376,18.255673092401025,-3.2031466377347706
1761392293173587200,5.260587158203125,0.8985241262167691,16.546305461508034,-4.087057716709375
1761392293183670000,5.270669921875,0.845067845839262,14.777531701922415,-5.570252785694599
1761392293193752000,5.280751953125,1.4508020349025725,13.708251780593395,-7.054887532094121
1761392293203834000,5.290834228515625,1.9393921920537947,12.218871300971507,-7.973878107756375
1761392293213917000,5.3009169921875,0.9042050944626331,10.481779796850681,-8.606715407800674
1761392293223999000,5.3109990234375,-2.213075862199068,8.12174694827795,-9.45300431986749
1761392293234081000,5.3210810546875,-7.300846744489669,5.551356362044811,-10.905389824569225
1761392293244164000,5.3311640625,-13.965644825673103,2.9421114367604253,-13.138545182722806
1761392293254246000,5.341245849609375,-20.392603288030624,0.21318448551893232,-15.668850426805019
1761392293264328000,5.351327880859375,-24.49086395127773,-2.1317846494346857,-17.521871326351164
1761392293274411000,5.361410888671875,-25.979384014678,-5.030150467970967,-17.125911522102356
1761392293284493000,5.3714931640625,-25.02159112241268,-8.288848897057772,-14.540765265285968
1761392293294574800,5.381574951171875,-22.800894263815877,-10.65161029381156,-10.63911204676628
1761392293304658200,5.391658203125,-20.897906095051763,-12.09657880025506,-6.3939037494957445
1761392293314740200,5.401740234375,-20.04859111316204,-13.285914841550587,-2.019095258843899
1761392293324822300,5.411822265625,-19.14478700071573,-14.157028982794284,1.4645599266201257
1761392293334904300,5.421904296875,-17.799444405150414,-14.75607624143958,3.6018846745252606
1761392293344987100,5.431987060546875,-16.238484543961285,-15.201202519917487,5.259499906349181
1761392293355069200,5.442069091796875,-13.958070591026544,-16.139056201481818,6.281331263282895
1761392293365151200,5.452151123046875,-11.655047331398725,-17.11462089728117,7.293568862441182
1761392293375234000,5.462234130859375,-10.021978511810302,-18.093808459752797,9.117209938246011
1761392293385316000,5.472316162109375,-8.5886513433218,-18.473055614131688,11.36249529465437
1761392293395398100,5.482398193359375,-7.282604985356331,-18.771069423413277,13.606755399668216
1761392293405481200,5.492481201171875,-5.899423365262151,-19.41538322623968,15.520794539278745
1761392293415563000,5.50256298828125,-4.354052118349075,-20.405072308981417,17.042112125909327
1761392293425645000,5.51264501953125,-3.301314166498184,-21.650290981018543,17.673573461425303
1761392293435728100,5.52272802734375,-3.0079923144251106,-21.928640304887292,17.001868962848185
1761392293445810200,5.53281005859375,-3.437921608293056,-20.571106920790672,15.312968950444459
1761392293455892000,5.54289208984375,-4.276398385304212,-17.80440699599385,12.90869480908513
1761392293465974000,5.55297412109375,-4.941359839361906,-13.876663058406114,10.4884947843194
1761392293476057000,5.56305712890625,-5.252265863442421,-9.238497061312199,8.274279688957334
1761392293486139100,5.57313916015625,-4.07421810888052,-4.7364396165803075,6.4160243958890435
1761392293496221200,5.58322119140625,-3.6118624631822107,-0.7495750892430544,3.090100104269385
1761392293506304000,5.593303955078125,-3.9447535245776173,2.731049057962,2.2145748685851694
1761392293516386000,5.603385986328125,-5.237486811983585,3.941100847288966,1.8934239293441175
1761392293526468000,5.613468017578125,-7.678772294875979,4.811540450271964,1.513788798560947
1761392293536551000,5.623551025390625,-9.351328490722178,5.7401884965956205,0.7335797938622534
1761392293546633000,5.633633056640625,-10.78189671589136,7.028470065289735,-0.40822241590730846
1761392293556715000,5.643715087890625,-12.285655264955759,8.279594161978363,-1.9469351547792553
1761392293566798000,5.653798095703125,-12.598459816133975,10.511928266876936,-4.489251739172637
1761392293576879900,5.6638798828125,-13.131782264459133,12.820802590620517,-7.7872753396928305
1761392293586962000,5.6739619140625,-14.422819269341229,13.917035985326766,-10.778051730901002
1761392293597045200,5.684045166015625,-15.972217287552356,15.456769518613815,-14.232266302347183
1761392293607127300,5.694127197265625,-16.024397556644676,18.46643298112154,-17.9546688691318
1761392293617209000,5.704208984375,-14.510775785213708,19.912738873648642,-19.77417211447954
1761392293627291000,5.714290771484375,-12.21743103903532,21.287099473905563,-20.588144564831257
1761392293637374200,5.724374267578125,-9.221937556177377,22.929332427680492,-20.800195077884197
1761392293647456300,5.734456298828125,-8.195648635312914,22.50213109747171,-19.82090580860376
1761392293657538000,5.7445380859375,-7.473680514919757,21.48999637416601,-18.201380361199377
1761392293667621000,5.75462109375,-5.306100329482555,20.193047514891624,-16.284314567244053
1761392293677703200,5.764703125,-2.067853152272105,18.131334765070676,-13.846862963426112
1761392293687785200,5.77478515625,0.8559586576879024,15.459419740861653,-11.19434471360445
1761392293697868000,5.784867919921875,3.2570693665802475,12.767124776446819,-8.970950286486744
1761392293707950000,5.7949501953125,5.00670237236619,10.163935497939587,-7.076645190393925
1761392293718032100,5.8050322265625,6.148465930625796,8.169291374263167,-5.53127218991518
1761392293728115200,5.815115234375,6.087586222249269,6.810697667458653,-4.563576620055735
1761392293738197000,5.825197021484375,4.999684602558612,5.596905230298638,-3.7121532677099105
1761392293748279000,5.835279052734375,3.637473874300718,4.070981611177325,-2.7242133667230606
1761392293758361000,5.845361083984375,2.7271605260908602,2.081523365706205,-1.5560342413552104
1761392293768444200,5.855444091796875,2.5045640691041946,-0.05477934567481279,0.026706805139780042
1761392293778526000,5.86552587890625,1.8523241494536398,-2.8978844647601245,2.6841265632674096
1761392293788608000,5.87560791015625,-0.05823299326002598,-7.468070273822546,6.096501934632658
1761392293798691000,5.885691162109375,-2.861336941346526,-12.553814034199714,9.039584262251854
1761392293808773000,5.895773193359375,-5.962555821001529,-16.056403637236357,10.392960526669025
1761392293818855200,5.905855224609375,-7.481759776479006,-17.688057913851736,10.388373198878764
1761392293828938000,5.91593798828125,-8.018433288797736,-17.97387976555824,9.963560225111246
1761392293839016200,5.92601611328125,-8.377351356375216,-17.34108221300244,9.232333862507343
1761392293849098200,5.93609814453125,-7.6103481624692675,-17.023974411672352,9.140928667485714
1761392293859181000,5.94618115234375,-6.704103671133518,-15.775110661131142,9.837573546051978
1761392293869263000,5.95626318359375,-5.893627830725908,-14.593516027742623,11.1598602602005
1761392293879345200,5.96634521484375,-6.261193899661302,-13.399533037424087,12.535316254478692
1761392293889428200,5.97642822265625,-6.944673007184266,-11.079736337649821,12.62096157079935
1761392293899510300,5.98651025390625,-7.8924080312937495,-8.591908883813023,11.771759986156225
1761392293909592000,5.996592041015625,-8.801611956956982,-5.700307737106084,10.300843383985757
1761392293919674000,6.006674072265625,-8.974734481200576,-3.1789737349867817,8.743565426179766
1761392293929757200,6.016757080078125,-8.639297242453694,-0.7300178635969757,7.187836451381444
1761392293939839200,6.026839111328125,-7.741226705223322,1.874551178830862,5.080177942943573
1761392293949921000,6.036921142578125,-6.1635232145041225,3.5018235871002075,2.6509020467966793
1761392293960004000,6.047004150390625,-4.890883451578021,5.030680044803023,0.22887962890937924
1761392293970086100,6.057086181640625,-3.7457016093075275,5.556242965042591,-1.7475307728096843
1761392293980168200,6.067168212890625,-1.8098755853027104,5.437558717951179,-3.5102246279597282
1761392293990251000,6.0772509765625,-0.7466033799558878,7.190460954666137,-4.711414773178101
1761392294000333000,6.0873330078125,0.2887678420305252,8.62968068832457,-5.22317362447083
1761392294010415000,6.0974150390625,1.0956208157658576,8.711345995098352,-5.0965866414308545
1761392294020497200,6.1074970703125,1.3961878166615962,7.575250545603036,-4.312031131960452
1761392294030580000,6.117580078125,1.6679858191907404,5.736573813229799,-3.380580595436692
1761392294040662000,6.127662109375,1.986910314553976,4.743398934198916,-2.8855080905288455
1761392294050744000,6.137744140625,2.277588374119997,5.0121688210785384,-2.9772143143236636
1761392294060827100,6.1478271484375,3.021958880457282,5.31815784702301,-3.7477407139196988
1761392294070909000,6.157908935546875,3.94172745475471,5.1860599916070695,-4.187428308475018
1761392294080991000,6.167990966796875,5.066152924722433,5.0764627218127245,-4.167106528197229
1761392294091074300,6.17807421875,6.0697851926207536,4.713534541811049,-4.268768328817188
1761392294101156400,6.18815625,6.434210040920973,4.116647968330979,-4.469959594203531
1761392294111238100,6.198238037109375,6.223643628945946,2.203547570875287,-5.361175735494494
1761392294121321200,6.2083212890625,5.032120306739211,1.8440514111489057,-5.3552855084121225
1761392294131403300,6.2184033203125,3.6895015831798315,2.96259045342654,-4.229193566536903
1761392294141485300,6.2284853515625,2.2693325869500636,3.918391002830863,-3.13695830155611
1761392294151567000,6.238567138671875,2.131716844895482,4.112506338481605,-2.5357056418210266
1761392294161650200,6.248650146484375,2.3395967942655087,3.4591397528886794,-2.53672504799664
1761392294171732200,6.258732177734375,1.5774942318826912,2.4834984847217796,-3.1502675727233287
1761392294181814300,6.268814208984375,0.08135317208468913,1.590040701983869,-4.267499624055624
1761392294191897000,6.27889697265625,-1.3623445837706327,1.2163482591226695,-5.421841508859396
1761392294201979100,6.288979248046875,-1.5248469298005103,0.9167237997740506,-6.004724983689188
1761392294212061200,6.299061279296875,-0.7515940278500318,0.4052911116957664,-5.425090281522274
1761392294222144000,6.30914404296875,-1.0306944623470307,-0.0894425166465342,-3.8828558713302015
1761392294232226000,6.31922607421875,-2.15395147305727,-0.3827534089341759,-2.6204090011164545
1761392294242308000,6.32930810546875,-3.099146165034175,-0.3649348436489701,-1.9106196865558622
1761392294252391200,6.33939111328125,-2.555572956329584,-0.18419585305228828,-1.126320928325504
1761392294262473200,6.34947314453125,-0.8281704870522022,0.19676979568228126,-0.48416331715229893
1761392294272555000,6.359554931640625,0.26831775919795037,0.683066873460263,-0.19586886478718368
1761392294282637000,6.369636962890625,0.5876619412779808,0.7333866093777119,-0.10399108381774276
1761392294292720000,6.37972021484375,0.8159855437397956,-0.21750680569745598,0.13418774036727846
1761392294302802200,6.38980224609375,0.7666735235601663,-1.9587747917853295,0.6081451226625592
1761392294312884000,6.399884033203125,-0.17237608979046343,-3.1035420619055625,1.2936381272912025
1761392294322967000,6.409967041015625,-0.6518143877148628,-3.212129570135474,1.862701897213608
1761392294333049000,6.420049072265625,-1.2974872039347887,-2.863880780610442,2.0650924553871155
1761392294343131100,6.430131103515625,-2.0153706853628157,-2.298914363004267,2.457830082719028
1761392294353214000,6.4402138671875,-2.0072885011941195,-1.9670605357021091,2.755857336004078
1761392294363296000,6.4502958984375,-1.7565344557374716,-1.8294611602604387,2.856889022026956
1761392294373378000,6.4603779296875,-1.3479916487693786,-1.716473809636384,2.7028043757304547
1761392294383460000,6.470460205078125,-1.1839981873989105,-1.7577108060404658,2.500695703238249
1761392294393543000,6.48054296875,-0.5922837558597326,-2.0055156463026997,2.5129317922160026
1761392294403625000,6.490625,1.4332809912592173,-2.1001072162754832,2.410526187491417
1761392294413707000,6.50070703125,1.8037194007605313,-1.0218779725544154,1.7190630954772232
1761392294423790300,6.510790283203125,1.6252397333979605,-0.22920981071181595,1.4339356557756662
1761392294433872100,6.5208720703125,2.3048557357519863,-0.465386099435389,2.0853326948612927
1761392294443954200,6.5309541015625,0.6038783320635557,-1.1452303575873375,3.4976740662053225
1761392294454037200,6.541037353515625,-1.8543185381412506,-2.1718074477434155,5.229079633644223
1761392294464119300,6.551119384765625,-2.027343447229266,-3.12545140363574,6.279039352953434
1761392294474201000,6.561201171875,-1.5085107120275496,-3.600341536736488,6.266759132573008
1761392294484284200,6.5712841796875,-3.1571985410302874,-3.8876822685733434,5.589919024673104
1761392294494366200,6.5813662109375,-3.6089813547879457,-3.653663961601257,4.5129880040690304
1761392294504448300,6.5914482421875,-3.1900282129645348,-2.571315299862623,3.5719647525578737
1761392294514530300,6.6015302734375,-3.103621849143505,-2.036510650155693,2.497677524460852
1761392294524613000,6.611613037109375,-2.9481501324027777,-1.9788703620918093,1.7722247768223285
1761392294534695200,6.621695068359375,-3.5447844846874474,-2.049667361109704,1.7303171876803038
1761392294544777200,6.631777099609375,-4.1567900091052055,-3.063089055486023,2.705420111186802
1761392294554860000,6.641860107421875,-4.062400829836726,-3.6832495370477436,3.8966991032436487
1761392294564942000,6.651942138671875,-3.9042812289357185,-4.012463955757021,5.069879836291075
1761392294575024000,6.662024169921875,-3.502531735369563,-4.548885246880352,6.075252225854992
1761392294585107200,6.672107177734375,-2.9003759893149135,-5.109876331114768,6.733035751107335
1761392294595189000,6.68218896484375,-2.228988301602006,-5.493177729320526,6.977364731952548
1761392294605271000,6.69227099609375,-1.518547537395358,-5.407829350119829,6.754386582171916
1761392294615353000,6.70235302734375,-1.0926251410812138,-4.620464628447592,6.252288708671927
1761392294625436200,6.712436279296875,-0.8391343641370534,-3.712327455233037,5.702178207153081
1761392294635518000,6.72251806640625,-0.03527414247691631,-3.2878818534731864,5.530319419234991
1761392294645600000,6.73260009765625,0.4097714719802141,-2.863532113303244,5.830077441835403
1761392294655683000,6.74268310546875,-0.035328503012657164,-2.713406726026535,6.10770721925795
1761392294665765000,6.75276513671875,-0.05670739112794399,-2.7022321288004516,6.197684427303075
1761392294675847200,6.76284716796875,0.2798883700042963,-1.9870190356254576,5.909409921747446
1761392294685930000,6.772929931640625,0.9209066384166479,-1.4369526655092835,5.54822566280365
1761392294696012000,6.783011962890625,1.66761347874701,-1.2501456070452928,5.180327585434913
1761392294706094000,6.793093994140625,2.3841373622596262,-1.1739230027820915,4.611008233316243
1761392294716177200,6.80317724609375,2.540882167676091,-1.2869566037006674,3.8672248792171477
1761392294726259200,6.81325927734375,3.104215138861537,-1.1395794191535562,3.357917220468819
1761392294736341200,6.82334130859375,3.60542921526432,-0.659694108114019,2.7983082382425666
1761392294746423000,6.833423095703125,2.8510686453104017,-0.7692825370147823,2.283272849497199
1761392294756506000,6.843506103515625,0.06960428210198878,-1.148936445563659,2.8456472047835586
1761392294766588200,6.853588134765625,-3.792469205701351,-1.7961745383389294,4.113758676630258
1761392294776670200,6.863670166015625,-2.6937036621689794,-1.6519614438459276,4.0830981654286385
1761392294786753300,6.873753173828125,-2.119607304906845,-0.4331396342165768,2.817712611414492
1761392294796835000,6.8838349609375,-1.4026947143375872,0.20551886452818288,1.2158394328176974
1761392294806917000,6.893917236328125,-1.0584399628847836,-0.0592350099094212,0.007441182851418852
1761392294817000200,6.904000244140625,-0.7785486702710389,-0.684794866296649,-0.29534170399550347
1761392294827082200,6.914082275390625,-0.2537158178716898,-1.2154475108906626,0.14455843733195214
1761392294837164300,6.924164306640625,0.41072307361662386,-1.4569921217143535,0.5547994630526751
1761392294847246000,6.93424609375,1.8649211806982755,-1.5711977620869875,0.35312888971678913
1761392294857329200,6.9443291015625,2.9940619887501,-1.9127268879681825,-0.3429202879786491
1761392294867411200,6.9544111328125,3.4307238057434555,-1.94326172696352,-1.0034126337982714
1761392294877493200,6.9644931640625,3.978772114035487,-1.6282412533015012,-1.39286130258739
1761392294887576300,6.974576416015625,3.325723216089606,-1.7245311516247688,-0.9095323539000004
1761392294897658400,6.984658447265625,1.9012527232736347,-2.076551714773476,0.14182345941010863
1761392294907740400,6.994740478515625,-1.5803431915730237,-2.957499852289259,1.797133738759905
1761392294917823200,7.0048232421875,-2.342586039209366,-3.518941310639679,2.4901795699208975
1761392294927905300,7.0149052734375,-2.391211830690503,-2.6233260576069353,1.36444798579067
1761392294937987300,7.0249873046875,-1.885564155754447,-1.5051510263361036,0.3267227480240166
1761392294948069400,7.0350693359375,-0.7109381923347711,-1.0197251784346997,-0.1322506713574752
1761392294958152200,7.045152099609375,0.10538462053537369,-0.341599122377485,-0.6762455030076205
