time,seconds_elapsed,z,y,x
1761380396320829700,0.05182958984375,0.128206108674407,0.03292403568681329,-0.05694464308307506
1761380396330911700,0.061911865234375,0.040844051563739776,0.002419811025448143,0.004242112815473228
1761380396340993500,0.07199365234375,-0.0074240125209093085,-0.012028145315498113,0.03681710673575289
1761380396351076600,0.08207666015625,0.07649170352816581,0.01566807272043079,-0.015472522748867049
1761380396361158700,0.09215869140625,0.10473989289104937,0.023892697567120192,-0.031093623655568805
1761380396371240700,0.10224072265625,0.01978840405344963,-0.009988054322637618,0.02152064380669035
1761380396381322500,0.112322509765625,0.016665888118743897,-0.007163863747380673,0.02103637655423954
1761380396391405600,0.122405517578125,0.08905074084997176,0.028181407736986873,-0.03039796954160556
1761380396401487600,0.132487548828125,0.06660685385167599,0.007029167984426021,-0.004690002713445574
1761380396411569700,0.142569580078125,0.013376198923587799,-0.015506525483168662,0.02284433929165825
1761380396421652500,0.152652587890625,0.046128713968396184,0.0017848010575398801,0.004772694294527173
1761380396431734500,0.162734619140625,0.08754968863725662,0.021874526145122943,-0.02183508918387815
1761380396441816600,0.172816650390625,0.04522095147371292,0.004709748593531548,0.00889463306274265
1761380396451899600,0.182899658203125,0.017408230918645858,-0.00582750057708472,0.01696931891157292
1761380396461981400,0.1929814453125,0.0794815329939127,0.0091555490212515,-0.010765112242894247
1761380396472063500,0.2030634765625,0.06990355730950831,0.018577347763255238,-0.007709341401467099
1761380396482145500,0.2131455078125,0.022484219008684157,-0.0019771818244829773,0.018474426244897767
1761380396492228900,0.223228759765625,0.04028232602775097,0.005715893428772687,0.0013525653864257037
1761380396502310700,0.233310546875,0.07647825952470302,0.014936251314543186,-0.011420863604731856
1761380396512392700,0.243392822265625,0.044324879416823386,0.0036666327487677335,0.007218397813057526
1761380396522475800,0.253475830078125,0.02728723537623882,-0.007182714578323065,0.007426432806858793
1761380396532557800,0.263557861328125,0.06228548352122307,0.007912270961888134,-0.010674346953211351
1761380396542639600,0.2736396484375,0.06541735180616379,0.013343684893473982,-0.007160603211214765
1761380396552722700,0.28372265625,0.0434399132758379,-0.004945530110783874,0.002726237492961809
1761380396562804700,0.2938046875,0.05032675018012523,0.00019760493133217096,-0.002659227538201958
1761380396572886800,0.30388671875,0.06528524985909462,0.01370828042216599,-0.007112864212505519
1761380396582968800,0.31396875,0.046592239826917646,0.006631912295147776,0.0008293543630745261
1761380396593051600,0.3240517578125,0.03986205478906631,-0.0017510449184104798,0.007084423569310456
1761380396603133700,0.3341337890625,0.0558574963003397,0.011273637153767049,-0.004013720020232722
1761380396613215700,0.3442158203125,0.051966334080696105,0.013703604247048496,0.0005380797989200801
1761380396623298600,0.354298583984375,0.03882511295676231,0.0025275091836228967,0.0041379400549456475
1761380396633380600,0.364380615234375,0.038222470888495445,0.007610913395136594,0.009922094680648296
1761380396643462700,0.374462646484375,0.05991115560531616,0.00392820629440248,-0.002579823892749846
1761380396653544700,0.384544677734375,0.04930032974183559,0.0030334128791466354,0.003568944527953863
1761380396663627500,0.39462744140625,0.04197743950784206,0.006316928061842918,0.003521689586434513
1761380396673709600,0.40470947265625,0.05424129327535629,0.010303148153796791,0.006778627289459109
1761380396683791600,0.41479150390625,0.054095162802934645,0.00854742706026882,0.005057712647831067
1761380396693874700,0.424874755859375,0.040192309656739235,0.0007394932556897401,0.0015625092095229774
1761380396703956500,0.43495654296875,0.040189387047290796,0.0007794599398970604,0.0016334372875746338
1761380396714038500,0.44503857421875,0.0542494765818119,0.0036146468332037326,-0.006602256942400709
1761380396724121600,0.45512158203125,0.05036065244972705,0.0007478957578539848,-0.005372523351199925
1761380396734203600,0.46520361328125,0.05051262814104557,-0.0016684081362560391,0.003874658609414473
1761380396744285700,0.47528564453125,0.05171089801490306,0.0039664559455588454,-0.0003832728296983987
1761380396754368500,0.485368408203125,0.06473170762956142,0.004264562109299003,-0.0003194412127137184
1761380396764450600,0.495450439453125,0.054261167019605636,0.0029299890372902152,-0.003243091840762645
1761380396774532600,0.50553271484375,0.046782209441065786,0.004955686178617179,-0.005444474342558532
1761380396784614700,0.51561474609375,0.05141396089494228,0.011211312507279216,-0.004603246878599748
1761380396794697500,0.525697509765625,0.054258828932046886,0.002609926770068705,-0.008528786291880532
1761380396804779500,0.535779541015625,0.04633563471734523,-0.0015261866539716719,-0.0010805435120128095
1761380396814861600,0.545861572265625,0.046025838115811346,0.009039557958766818,-0.00101513185929507
1761380396824944600,0.555944580078125,0.06592471680641174,0.008916516100987792,0.000008859159890562295
1761380396835026700,0.566026611328125,0.05171089801490306,0.00023910598549991844,-0.00208615862429142
1761380396845108700,0.576108642578125,0.03255786925554275,-0.002837561513483524,-0.009491566909430548
1761380396855190800,0.586190673828125,0.06068973876237869,0.0010134878914803266,0.005961292157741263
1761380396865273600,0.596273681640625,0.0554606059372425,0.0030307459980249405,0.0016053163047879933
1761380396875355600,0.606355712890625,0.052176761960983274,0.004545351812057197,-0.00341253925669007
1761380396885437700,0.616437744140625,0.045588031220436094,0.0031713965777307746,-0.004161120001133531
1761380396895520800,0.626520751953125,0.056365445822477336,0.007561046371422708,-0.00329416444087401
1761380396905602800,0.636602783203125,0.05292787258923053,0.0010483400091528892,0.0007035268931649625
1761380396915684600,0.6466845703125,0.04903320323824882,-0.00006400514692068099,-0.000279547593742609
1761380396925767700,0.656767578125,0.05680325271785259,0.0016675313534215092,-0.011397108269808814
1761380396935849700,0.666849609375,0.05559855310320854,0.0015043036157265305,0.0056477692291606214
1761380396945931800,0.676931884765625,0.04602700715959072,0.0027665786365047096,0.007419144549546763
1761380396956013600,0.687013671875,0.04946808752417564,0.009040069415420293,0.002286832295544445
1761380396966097000,0.697096923828125,0.048424715951085086,0.004481821589171886,0.00012644852441735566
1761380396976179000,0.707178955078125,0.03571721006929874,0.003911437822692096,-0.0000572192131076008
1761380396986261000,0.717260986328125,0.04514145649671554,0.0021777458978816866,-0.006097714086901396
1761380396996343800,0.72734375,0.058604749181866644,0.008347703237086534,-0.0012003157004714011
1761380397006425900,0.73742578125,0.059201546031236646,0.0015700623283162712,0.001072661599656567
1761380397016508000,0.7475078125,0.0394528894662857,0.00667973349224776,-0.0015788666892796754
1761380397026590700,0.7575908203125,0.05770984616875648,0.010286014355905353,-0.0003833915607072413
1761380397036672800,0.7676728515625,0.05396715250909328,0.0015580796295776962,-0.007656104243732988
1761380397046754800,0.7777548828125,0.04408697900772095,-0.0038499534264206884,-0.009720242832461371
1761380397056836900,0.7878369140625,0.045593291917443275,0.0019279723878949879,-0.007464782922714948
1761380397066919700,0.797919677734375,0.04978606743216514,0.00905943170301616,0.004603858799953013
1761380397077001700,0.808001708984375,0.05278232663869858,0.0006240136498585343,0.0006502349365036935
1761380397087083800,0.818083740234375,0.04649637823700904,0.007856777914986015,0.005656756253214552
1761380397097166800,0.828166748046875,0.050833530658483506,0.004651259871944785,0.0025789288436062633
1761380397107249000,0.838248779296875,0.04933189392387867,-0.002101977247931063,0.005377007730072364
1761380397117330700,0.84833056640625,0.06144961721897125,0.0068580126686021686,0.0013500994347035885
1761380397127414000,0.8584140625,0.058598903962969774,0.0009612462475895881,0.0002320003912784159
1761380397137496000,0.86849609375,0.04857259998917579,0.0022894261114299297,-0.003269979847688228
1761380397147578000,0.878578125,0.047827919101715084,0.005939546116814017,0.005407923458144068
1761380397157660000,0.888659912109375,0.05276946715712547,0.004665361462533474,0.011593982548778876
1761380397167743000,0.898742919921875,0.052017187485098836,0.00561221385858953,0.0025831483609974385
1761380397177825000,0.908824951171875,0.05829436805844307,0.0038094022203236815,-0.001468702579382807
1761380397187907000,0.918906982421875,0.04601823933124542,0.000207286075130105,0.0044819494533352554
1761380397197990000,0.928989990234375,0.05080839621722698,0.009457308446802199,0.005117973201395944
1761380397208072000,0.939072021484375,0.05289747745096683,0.005707929318025708,0.0010473536284640432
1761380397218154000,0.949154052734375,0.0566372485011816,0.00007481880187988281,-0.0014317772356327622
1761380397228236800,0.95923681640625,0.06097323187887668,0.00358377677090466,-0.0035963622578419744
1761380397238318800,0.96931884765625,0.058580199262499806,0.01087155915889889,-0.0012549867634661495
1761380397248401000,0.97940087890625,0.06560965950787068,0.005499035807698964,-0.008521333637787029
1761380397258484000,0.98948388671875,0.0517009611427784,-0.0000022284897044301033,-0.0036118155553005633
1761380397268566000,0.99956591796875,0.050661681222915644,0.0036386487632989882,0.001075355880241841
1761380397278647800,1.009647705078125,0.0530558828830719,0.0010388415284454822,0.002109512100415304
1761380397288729900,1.019729736328125,0.05291384406387806,0.003263458775356412,0.0018886724239680914
1761380397298813000,1.02981298828125,0.04663958609998226,-0.0016041107283905147,-0.007537619830062612
1761380397308895000,1.03989501953125,0.046346156111359595,0.008559738552570343,0.0002495634474325925
1761380397318976800,1.049976806640625,0.053689504611492155,0.007231120297312736,0.0010436638340353965
1761380397329059800,1.060059814453125,0.059680853980779644,0.0015756883515045045,-0.005003215114772319
1761380397339142000,1.070141845703125,0.048908115553855894,0.0008482143271714448,0.004573134868126362
1761380397349224000,1.080223876953125,0.05788812534511089,0.01161192919742316,0.001064460026891902
1761380397359306800,1.090306640625,0.0540010547786951,0.0009143018333241343,0.002922207589633763
1761380397369388800,1.100388916015625,0.04249298781454563,0.004609868415631354,0.003738958199461922
1761380397379470800,1.110470947265625,0.04848258361816406,0.008258709779381751,-0.0017119367507286369
1761380397389553000,1.120552978515625,0.05447217942178249,0.0011356894990429281,-0.0015272095672786235
1761380397399635700,1.1306357421875,0.053579614496231075,-0.0055152197575196625,0.002994971431745216
1761380397409717800,1.1407177734375,0.04819090719521046,0.006224865864217281,0.011596430234191938
1761380397419799800,1.1507998046875,0.06420388436317444,0.0005175941333174705,0.0017009952316060662
1761380397429883000,1.1608828125,0.04625730878412723,-0.0026144202820956707,0.0010368048349861055
1761380397439965000,1.17096484375,0.037730303457379336,0.0032164778284728525,-0.001198863528901711
1761380397450046700,1.181046630859375,0.05628478180170059,0.002156410848908126,0.009021337315486743
1761380397460130000,1.191130126953125,0.06496434734165668,0.009146744660288095,0.008973205591132865
1761380397470212000,1.201212158203125,0.04477262318432331,0.003720043436437845,-0.0010735292493365704
1761380397480294000,1.2112939453125,0.04731178627312183,-0.0024550650019198655,0.006362712565483525
1761380397490376000,1.2213759765625,0.06212006382644176,0.002747362479381263,0.0005750690747518092
1761380397500459000,1.231458984375,0.049555765807628625,-0.0015735694596543906,0.002556397351389751
1761380397510541000,1.241541015625,0.049258244165778155,0.002624284088984132,0.001939306632662192
1761380397520622800,1.251622802734375,0.055991351813077926,0.006493307542055845,0.0018581128889229147
1761380397530706000,1.261705810546875,0.053444589939713474,-0.009156243140995501,-0.0008922909309156239
1761380397540788000,1.2717880859375,0.04416939659416675,-0.004280088471993804,-0.0007298760439734905
1761380397550870000,1.2818701171875,0.046267245656251905,0.003328377237729728,0.0015126695852726696
1761380397560952800,1.291952880859375,0.06167641171216964,0.00028440643195062876,-0.001796884220978245
1761380397571035000,1.302034912109375,0.04627425991892815,-0.0015749576991423964,0.003654010729212314
1761380397581117000,1.312116943359375,0.04956804076731205,-0.0014795345006510614,-0.002223073743795976
1761380397591200000,1.322199951171875,0.06333353126943111,0.0006051262862980365,0.002482592329662293
1761380397601281800,1.33228173828125,0.053011459219455714,-0.0004808423195034265,0.0048393023904878645
1761380397611363800,1.34236376953125,0.05166179817616939,-0.004231463557295501,0.007222726928303017
1761380397621446000,1.35244580078125,0.04896130704581737,0.0033340763261541723,-0.003058200260531157
1761380397631529000,1.362529052734375,0.051505730831623076,0.00581555441096425,-0.005000064176460727
1761380397641610800,1.37261083984375,0.051961073383688924,0.000323313670232892,-0.004976509770937263
1761380397651692800,1.38269287109375,0.049264089384675025,0.0019436814136803149,-0.007600382867967709
1761380397661776000,1.39277587890625,0.05824176108837127,0.004048763934150338,-0.00026170140979811545
1761380397671858000,1.40285791015625,0.05150631535351276,-0.003950162397883832,-0.004818880656966939
1761380397681940000,1.41293994140625,0.05704290669262409,0.0051374359536916015,0.00362316806637682
1761380397692022800,1.423022705078125,0.05734451998770237,-0.004796805822476744,0.008280830279644578
1761380397702104800,1.433104736328125,0.04627016826570034,0.0018339374288916586,-0.0017320022912230343
1761380397712187000,1.443186767578125,0.04717617719471454,-0.004922770289704203,0.005578667782014235
1761380397722269700,1.453269775390625,0.0489689058303833,-0.007066540852747857,0.001457706261333078
1761380397732351700,1.463351806640625,0.05764671780467033,-0.002092661430314183,-0.004968015937227756
1761380397742433800,1.473433837890625,0.05271276853382587,-0.004440320535004138,0.007309574094694108
1761380397752515800,1.483515869140625,0.050314475220441815,-0.003424932947382331,-0.0019062354801222682
1761380397762599000,1.493598876953125,0.04687222581207752,0.006124985686317086,-0.006851957387151196
1761380397772681000,1.503680908203125,0.05091419467926025,-0.006961801836639642,0.007770880596665665
1761380397782763000,1.513762939453125,0.05345744942128658,-0.0015108794869855046,0.007918079648166895
1761380397792846000,1.52384619140625,0.05674830766022205,0.008942344661988318,0.0031341881061904132
1761380397802927900,1.533927978515625,0.05793780970573425,-0.008994440175406635,0.00454146108822897
1761380397813010000,1.544010009765625,0.047915597385168075,0.0014568112121894955,0.0026376824266742915
1761380397823093000,1.554093017578125,0.05270633879303932,0.006686492026597261,0.0008352452477440237
1761380397833175000,1.564175048828125,0.04522328956127167,0.0065339318133890625,-0.0034486882823053745
1761380397843256800,1.5742568359375,0.04837503159046173,-0.001343231302499771,0.0028502565982751545
1761380397853340000,1.58433984375,0.04987374571561813,-0.0007938172588124871,0.002591313401143998
1761380397863422000,1.594421875,0.05899345623850822,0.002938208876363933,-0.0009172609753906727
1761380397873504000,1.60450390625,0.05285831448435783,-0.0018718582864850758,-0.00201358657842502
1761380397883586800,1.6145869140625,0.043430560925602914,0.0017716127824038265,0.006749848719546571
1761380397893668900,1.6246689453125,0.049720016458630556,0.002843589395470917,0.0004730334723833948
1761380397903751000,1.6347509765625,0.05286065257191658,-0.001499737038463354,-0.0032715781497303395
1761380397913833000,1.6448330078125,0.04194003010690212,-0.0009291340762749313,0.009879104922292754
1761380397923915800,1.654915771484375,0.05152151292264461,0.0003754457162693143,-0.00006668116119690239
1761380397933997800,1.664997802734375,0.045675124981999396,0.00031739538609981536,0.00221635174206458
1761380397944080000,1.675079833984375,0.0603407791942358,-0.00336315629016608,-0.002420760873518884
1761380397954163000,1.685162841796875,0.058846741244196886,-0.004133921466954052,0.0020198427892755715
1761380397964244200,1.695244140625,0.04598316801786422,0.003793875857628882,0.005294791073026136
1761380397974326000,1.705325927734375,0.044186347728967665,0.002381853635236621,-0.002314469221141189
1761380397984409000,1.7154091796875,0.04867722940742969,-0.004539287397451699,0.003841678788419813
1761380397994491100,1.7254912109375,0.0642448008954525,0.0034147038143128154,0.0023904296673368662
1761380398004573200,1.7355732421875,0.04389934748113155,0.010938779176212847,0.002329785521281883
1761380398014656000,1.745656005859375,0.05856091004014015,-0.00024169980138540268,-0.002983682852750644
1761380398024738000,1.755738037109375,0.05197685547471046,0.0029141338810324668,0.003021439313562587
1761380398034820000,1.765820068359375,0.0476268435716629,-0.0070031202277168626,0.006844988790247589
1761380398044902100,1.775902099609375,0.054798342636227605,-0.0001727262184023857,-0.003020124139310792
1761380398054985000,1.78598486328125,0.057195466905832285,-0.0007075637474656105,0.009684833592362701
1761380398065067000,1.79606689453125,0.05375380201935768,0.00036437633298337457,0.0013786862083710728
1761380398075149000,1.806149169921875,0.04805938977003097,0.0022534780152142046,-0.002881455454137176
1761380398085232000,1.816232177734375,0.0459580335766077,0.0019316621823236345,0.005275958508392796
1761380398095314000,1.82631396484375,0.04954933606684207,-0.0004399988524615764,0.00950501091289334
1761380398105396000,1.83639599609375,0.038326515784859655,0.0035543314807116983,-0.0014047704976983368
1761380398115479000,1.84647900390625,0.058521747073531145,0.0077166753245517606,0.0034470351813361048
1761380398125561000,1.85656103515625,0.04775193125605583,-0.0011994754502549767,0.003982274569198489
1761380398135643000,1.866642822265625,0.04116904573440552,-0.0005979293605312705,0.0009066756492946297
1761380398145726000,1.876725830078125,0.05597615424394607,0.009106010791100561,-0.001962760573485866
1761380398155808000,1.88680810546875,0.05492752197384834,0.0023452844845131037,0.00509226337140426
1761380398165890000,1.89689013671875,0.05747603741288185,0.0028786972414702175,0.001216618381300941
1761380398175972900,1.906972900390625,0.056276598495244974,0.002599478441290557,-0.006090197500726207
1761380398186055000,1.917054931640625,0.05073942263424396,0.00004544657692313194,0.005933865294698626
1761380398196137000,1.927136962890625,0.049555765807628625,-0.0017360665449872611,-0.008083572408184409
1761380398206219000,1.937218994140625,0.0395312153995037,0.0005027253577485681,0.0009794303582515568
1761380398216301800,1.9473017578125,0.05029635504186153,0.005633658505417406,0.007152018045959994
1761380398226384000,1.9573837890625,0.05418576369583607,-0.0015159940535202621,-0.0072219780096318565
1761380398236466000,1.9674658203125,0.05793605614006519,-0.003220788677409291,0.004543251186516136
1761380398246549200,1.97754931640625,0.06182780288159847,0.0016410452052950859,-0.00020914923865348098
1761380398256630800,1.987630859375,0.04012918129265308,-0.005376688069663941,0.002921723532443866
1761380398266712800,1.997712890625,0.04192892419099808,0.001871164166741073,-0.005708888299250975
1761380398276796200,2.007796142578125,0.056149172723293304,0.004178308597952127,0.006514761322038248
1761380398286878200,2.017878173828125,0.06033376493155956,-0.0008288885721936821,0.00770475655789487
1761380398296960000,2.0279599609375,0.06198503926992416,-0.004240962038002908,0.004029849171126261
1761380398307043000,2.03804296875,0.04896715226471424,-0.001211750409938395,-0.0016990590028464793
1761380398317125000,2.048125,0.05778641853630542,0.0035961247958242893,-0.004748427502950653
1761380398327207200,2.058207275390625,0.05823474682569504,0.00031494770068675275,0.003625679683871567
1761380398337290000,2.0682900390625,0.05688508578240871,-0.00601483984272927,-0.000607701835874468
1761380398347372000,2.0783720703125,0.058228317084908485,-0.0097077760765329,-0.003595448942389339
1761380398357454000,2.0884541015625,0.050152562656998634,-0.002797485231421888,0.006584885682491585
1761380398367536000,2.0985361328125,0.04745967031121254,-0.00442399045471102,0.0006868497529998422
1761380398377619000,2.108618896484375,0.04671382037997245,-0.0032565175779163836,-0.004626892615668475
1761380398387701000,2.118700927734375,0.06152969671785831,0.0029295871784910557,0.007077445839252322
1761380398397783000,2.128782958984375,0.05600128868520259,0.003465812947042286,0.004086894854297861
1761380398407866000,2.1388662109375,0.04344049779772758,0.0006340601198375225,-0.001730732782743871
1761380398417948000,2.148947998046875,0.05660977597236633,0.001983392369560897,0.005063987124990671
1761380398428030000,2.159030029296875,0.05585632725656032,0.006146247670054435,-0.01069022950893268
1761380398438113000,2.169113037109375,0.05406301409900188,0.003847103882208466,0.010134102596668526
1761380398448195000,2.179195068359375,0.04807692542672157,0.0032004400091245767,0.001748898627096787
1761380398458276900,2.18927685546875,0.05135960035920143,0.004719575867801904,0.0004867971362546086
1761380398468360000,2.19935986328125,0.056150341767072676,-0.0010308043524622917,0.003936782326502726
1761380398478442000,2.20944189453125,0.04223462913930416,0.006324124987609684,-0.005118009734014049
1761380398488524000,2.21952392578125,0.05330430468618869,0.004147584666125476,-0.0022044786411803212
1761380398498606800,2.22960693359375,0.06018295828402042,0.0006220408884808421,0.0011121990256011485
1761380398508689000,2.23968896484375,0.051503977265954015,-0.0037695451339706774,0.0025616945810150353
1761380398518771000,2.24977099609375,0.05853928273022174,-0.009680376612953841,-0.00031576968459412453
1761380398528854000,2.25985400390625,0.06018237376213073,-0.0010662044594064355,-0.0026924356880597767
1761380398538935800,2.269935791015625,0.05135258609652519,0.003196604084223509,-0.0020034396437462417
1761380398549017900,2.280017822265625,0.04087210861444473,-0.009645597560517489,-0.0004203534370753914
1761380398559100000,2.290099853515625,0.05777823522984981,0.0004984510414302349,0.0007574673037976026
1761380398569183200,2.300183349609375,0.04805471359491348,-0.0027117066441103813,-0.002675064428150654
1761380398579265000,2.31026513671875,0.05225099624097347,-0.004187660948187112,0.0019010752478148788
1761380398589347000,2.32034716796875,0.044915246525406835,0.0022159224838018414,0.006479352081939577
1761380398599430100,2.33043017578125,0.053290860682725906,0.004817008360289037,0.0010985266932751984
1761380398609512200,2.34051220703125,0.0491039303869009,-0.0015107698891311883,0.007475085121020675
1761380398619594000,2.350593994140625,0.0353401934504509,0.004890037063881755,-0.006917295974632725
1761380398629677000,2.360677001953125,0.04311082745194435,0.0016673486903309822,-0.004980026035429909
1761380398639759000,2.370759033203125,0.055530748564004896,0.0010282470691949127,0.006753849041229113
1761380398649841200,2.380841064453125,0.045368250989913934,-0.01258190674073994,0.012540551817044615
1761380398659924000,2.390924072265625,0.057490065938234323,0.002348755083233118,-0.005575854770420119
1761380398670006000,2.401006103515625,0.059581485259532926,0.005736570890620351,-0.004827429289603605
1761380398680088000,2.411088134765625,0.045810734060406685,-0.00000646627340465784,0.005654198969947174
1761380398690171000,2.4211708984375,0.038628129079937935,0.004691482284478843,0.0002543948861770332
1761380398700253000,2.4312529296875,0.05448737699091434,0.007373707105778157,-0.003824828118318692
1761380398710335000,2.4413349609375,0.05688683934807777,-0.0018614464903250335,-0.0009146945589687675
1761380398720417000,2.4514169921875,0.03953881418406963,-0.0026704247856512665,0.0005689681275282054
1761380398730500000,2.4615,0.04163783228993415,0.004103197535127401,0.003879471781849861
1761380398740582000,2.471581787109375,0.05330547372996807,0.00836732125300914,-0.0013176950024440884
1761380398750664000,2.481663818359375,0.0483762006342411,-0.0056968234021216625,0.008214861504500732
1761380398760747000,2.4917470703125,0.047780572828650475,-0.005174406963214278,0.004763424142682925
1761380398770829000,2.5018291015625,0.056306993633508676,0.005202025622501969,-0.0008267514140345156
1761380398780910800,2.511910888671875,0.0474742833584547,0.003058328124694526,0.0027111677879933264
1761380398790994000,2.521993896484375,0.048519993019104,-0.004006422629766166,-0.00036813005949370563
1761380398801076000,2.532075927734375,0.054200961264967915,-0.0007042758118361235,0.0007079108073376119
1761380398811158000,2.542157958984375,0.04776011456251144,0.0013850246176123618,-0.0009818780436646193
1761380398821240800,2.55224072265625,0.04447159441113472,-0.00658785395771265,0.006195155712543055
1761380398831323000,2.562322998046875,0.050014615491032595,0.00011847528051584958,0.004689299460547045
1761380398841405000,2.572405029296875,0.06557575723826885,0.015746471718885005,0.0022595058972015975
1761380398851488000,2.582488037109375,0.05510989280343055,-0.001962239983677864,0.00937962183440104
1761380398861570000,2.592570068359375,0.04628419679105281,-0.003796469673514366,0.004716753723053261
1761380398871652000,2.602652099609375,0.07276829909086227,0.006725472330115735,-0.005304737078305334
1761380398881735200,2.612735107421875,0.05510697019398212,0.005277282815799117,0.005888939307583495
1761380398891817200,2.622817138671875,0.03266717484891415,0.001600749727524817,0.00860970604098402
1761380398901899000,2.63289892578125,0.04329027567207813,0.0011661577025428413,0.002158657604921609
1761380398911982000,2.642982177734375,0.061245034557580944,0.0073365534331649536,-0.005080728197237476
1761380398922064100,2.653064208984375,0.05496317780911922,-0.0015944661172106861,0.0004072838929481804
1761380398932146200,2.663146240234375,0.04583528397977352,-0.0032174276765435934,-0.0019188301002141088
1761380398942228000,2.67322802734375,0.04703238480985164,0.008314970011264085,-0.010739548543374985
1761380398952311000,2.68331103515625,0.05167231957018375,0.0026060908451676365,0.007984605545736849
1761380398962393000,2.69339306640625,0.049725861677527426,-0.003623926118202507,-0.0004828242140356451
1761380398972475400,2.703475341796875,0.05391513006091118,0.002651756617799401,-0.005025116419326514
1761380398982558500,2.713558349609375,0.048664369925856585,0.005857311193458736,-0.004246030938765034
1761380398992640500,2.723640625,0.05165244582593441,-0.00021525018587708472,0.004734335045516491
1761380399002722600,2.73372265625,0.05030395382642746,0.0006147343648597597,-0.0010019983830861746
1761380399012805400,2.743805419921875,0.04895312373936176,0.006671367522701621,-0.0018351064726710318
1761380399022887400,2.753887451171875,0.04941138890087604,-0.004923500942066311,0.004920715329935774
1761380399032969500,2.763969482421875,0.0452303038239479,-0.002458572133257985,-0.004036872566957027
1761380399043052500,2.774052490234375,0.053904608666896815,0.004086757856979966,-0.0015189257961232213
1761380399053134300,2.78413427734375,0.05030979904532432,0.0021837007146328687,-0.0032902463175822046
1761380399063216400,2.79421630859375,0.05435118339061737,-0.001069894253835082,0.0021142796070780603
1761380399073299500,2.804299560546875,0.047314708882570264,0.0031849867116659878,0.004269174352334812
1761380399083381500,2.814381591796875,0.053584875193238256,0.004985679458081722,0.0018474544975906608
1761380399093463300,2.82446337890625,0.053581368061900135,0.004742445286735892,0.006225852244906127
1761380399103546400,2.83454638671875,0.04430734376013279,-0.00010083002597093582,-0.0002818400155287236
1761380399113628400,2.84462841796875,0.057020694860816,-0.0011276523230597376,-0.003348853770177811
1761380399123710500,2.85471044921875,0.0517792870759964,0.004624591060727834,0.00041367710111662743
1761380399133793300,2.864793212890625,0.045351884377002716,0.0023750951008871196,-0.004295852296706289
1761380399143875300,2.874875244140625,0.05223872128129005,0.00532462908886373,-0.00043236353527754544
1761380399153957400,2.884957275390625,0.0710895522236824,0.00017338380552828312,-0.008344378768838942
1761380399164039400,2.895039306640625,0.05478489863276481,-0.005847008995153009,-0.002586865554889664
1761380399174122200,2.905122314453125,0.04640519282221794,-0.0013080138586461544,0.004116276212409138
1761380399184204300,2.915204345703125,0.06301730492711066,0.00505512796510011,-0.0015836250627879053
1761380399194286300,2.925286376953125,0.061218731072545045,-0.0026778774397447705,0.0023764924735296517
1761380399204369400,2.935369384765625,0.04116787669062614,-0.0024184227859601376,0.0014096932679880409
1761380399214451200,2.945451171875,0.05448737699091434,0.000710888215713203,0.0071957110572140656
1761380399224533200,2.955533203125,0.05358838232457638,0.009993315019644797,0.0073930419939104465
1761380399234616300,2.9656162109375,0.04580079718828201,-0.0006012538287788629,0.003255101938964799
1761380399244698400,2.975698486328125,0.04520692294836044,0.0017190058123320341,0.00757689239452593
1761380399254780400,2.985780517578125,0.05178863942623138,0.005962305937893688,-0.001749930673558265
1761380399264863500,2.995863525390625,0.05507715957760811,0.003920461379364133,-0.002762002926087007
1761380399274945500,3.005945556640625,0.03696691786944866,-0.0015345891561359165,-0.007006298565492034
1761380399285027600,3.016027587890625,0.05297346529662609,-0.0012448854945600032,0.007374949214793741
1761380399295110400,3.0261103515625,0.05446574968099594,0.0009409341119229793,0.002100415478507057
1761380399305192400,3.0361923828125,0.048776598128676414,0.004529460123181343,0.0030861842459999024
1761380399315274500,3.0462744140625,0.0478793570280075,0.0025174992462620137,-0.002883218152960762
1761380399325357300,3.056357421875,0.054906479185819625,0.0042618952281773086,-0.0043970202493947
1761380399335439400,3.066439453125,0.05580547385215759,0.003345949427038431,0.0014896631690207867
1761380399345521400,3.076521484375,0.04608545934855938,-0.00562025103457272,0.0018609898325987158
1761380399355604500,3.0866044921875,0.0463853190779686,-0.0038133842756971716,0.0028376985108014194
1761380399365686500,3.0966865234375,0.04668459428548813,0.002129340178892016,0.0003287113645579666
1761380399375768300,3.106768310546875,0.05566343503296375,0.011231332382000981,-0.0031342246388085184
1761380399385850400,3.116850341796875,0.058960723012685776,0.0014201324636116622,0.005997523381747305
1761380399395933400,3.126933349609375,0.05672141965329647,-0.0009297551307827234,-0.00349655514517799
1761380399406015500,3.137015380859375,0.053720484271645545,-0.003836071031540632,-0.004039128456125036
1761380399416097300,3.14709716796875,0.05731587841510773,0.00044102176576852795,-0.005705810426175594
1761380399426180400,3.157180419921875,0.04893441903889179,-0.006822539496421813,-0.0014435133391991256
1761380399436262400,3.167262451171875,0.051179567617177964,-0.0008687456585466861,-0.00702501239911653
1761380399446344400,3.177344482421875,0.04579202935993671,0.002753536491841078,0.004082081681862473
1761380399456427300,3.18742724609375,0.05417056612670421,-0.007021861460804939,-0.005174543960532173
1761380399466509300,3.19750927734375,0.049230771636962885,0.003477978308871388,-0.003121967945434153
1761380399476591400,3.20759130859375,0.057901569348573684,0.003975369904376566,-0.008426613692194223
1761380399486674400,3.21767431640625,0.042788171368837356,0.0046188919723033905,0.0003980228742584586
1761380399496756200,3.227756103515625,0.04578559961915016,0.003357128408178687,0.005195559349097312
1761380399506838300,3.23783837890625,0.04997252991497517,0.0048860184758901595,-0.004085159554937854
1761380399516921300,3.24792138671875,0.054010407128930085,0.000009973404742777346,-0.007079044141294434
1761380399527003400,3.25800341796875,0.04039572327435016,0.005936148583330214,0.007471532323909923
1761380399537085200,3.268085205078125,0.04698503853678703,0.0038459713710471987,-0.000918667481187731
1761380399547168500,3.27816845703125,0.06015197862386703,0.008333272852934897,-0.000257755887042731
1761380399557250600,3.28825048828125,0.05896130753457546,-0.003604015841335058,0.007793877879763021
1761380399567332600,3.29833251953125,0.045348377245664595,0.00160900609921664,0.003264856147998944
1761380399577415400,3.30841552734375,0.0523760839253664,-0.0003805237501859665,-0.0013500994347035885
1761380399587497500,3.31849755859375,0.04414835380613803,-0.0035649259399622678,0.0029175770802889016
1761380399597579500,3.32857958984375,0.04700140514969826,-0.002584536600485444,0.003964711513044312
1761380399607662300,3.338662353515625,0.05238718984127044,-0.0031209450321272015,0.00837889295979403
1761380399617744400,3.348744384765625,0.0686976886510849,0.0010728899285197258,0.0034562231347896157
1761380399627826400,3.358826416015625,0.05672901843786239,-0.004864683426916599,0.006002455285191536
1761380399637908500,3.368908447265625,0.04132043690383434,-0.005994637304916978,0.0027904618355911225
1761380399647991300,3.3789912109375,0.04430734376013279,0.002086195156909525,-0.0017139186452608554
1761380399658073300,3.3890732421875,0.05284077882766723,0.0011073767200112342,0.008217574051395058
1761380399668155400,3.3991552734375,0.046859366330504415,-0.013495989378355442,0.0019845340138766915
1761380399678238500,3.409238525390625,0.044161213287711144,-0.00581913460753858,-0.002698408771120012
1761380399688320500,3.419320556640625,0.05866670850217342,0.00006619710400700569,-0.0018027568393386899
1761380399698402300,3.42940234375,0.04908697925209999,-0.0005979658931493759,0.004631166931986809
1761380399708485400,3.4394853515625,0.05327098693847656,0.010330328421667218,0.007769802884431555
1761380399718567400,3.4495673828125,0.05850128880739212,0.007588409302383661,-0.0024678057524841275
1761380399728649500,3.4596494140625,0.046232758864760394,0.0015799261352047323,0.00012417436894029377
1761380399738732300,3.469732177734375,0.04758417347371578,-0.0034284035461023448,-0.0015138386290520429
1761380399748814300,3.479814453125,0.05386018500328064,0.006240976748801768,0.0004507394421845674
1761380399758896400,3.489896484375,0.052662499651312825,0.008000497234612703,-0.0019435809489805251
1761380399768979200,3.499979248046875,0.04652385076582431,0.00704367143381387,0.0038914179479703306
1761380399779061200,3.510061279296875,0.04982230778932571,0.004818615795485675,0.0029358890551142392
1761380399789143300,3.520143310546875,0.0496703320980072,0.0060818771969527,0.0014510938574559987
1761380399799226400,3.530226318359375,0.05864858832359313,0.007580335593782365,0.004904960638377815
1761380399809308400,3.540308349609375,0.044887773996591565,-0.0038828693153336643,0.0033067864604294298
1761380399819390200,3.55039013671875,0.0493786556750536,-0.0009289148805662989,-0.0008790478568524121
1761380399829473500,3.5604736328125,0.055362406259775156,0.005079349090903997,-0.0054281077296473084
1761380399839555600,3.5705556640625,0.043400165787339205,0.0012539455838501453,0.004922395830368623
1761380399849637600,3.5806376953125,0.045648236975073815,0.0017777867948636412,0.009429671521205454
1761380399859720400,3.590720458984375,0.05297463434040546,0.00024359949752688405,-0.005809325599577277
1761380399869802500,3.600802490234375,0.05806932713091373,0.0019158070260658858,0.010385748403333128
1761380399879884500,3.610884521484375,0.04655249233841896,-0.0014849413281306624,0.0016400953572243452
1761380399889966600,3.620966552734375,0.05762392145097255,0.0046412134019657965,-0.005820751175889745
1761380399900049400,3.63104931640625,0.06150865392982959,0.005762618647329509,0.0033821441184263674
1761380399910131500,3.64113134765625,0.044752749440073965,-0.004035466061159968,-0.004218028686987236
1761380399920213500,3.651213623046875,0.04325286627113819,0.004416464735381305,-0.008012041541934013
1761380399930296300,3.66129638671875,0.0679389792382717,0.00655099254604429,-0.0008592654441483318
1761380399940378400,3.67137841796875,0.056418637314438816,-0.007482245514169335,0.0029605851049534977
1761380399950460400,3.68146044921875,0.04833820671141147,-0.004470752205885947,0.0152597111152485
1761380399960543500,3.69154345703125,0.05866144780516624,0.003440824636258185,-0.005544317987840623
1761380399970625500,3.70162548828125,0.05656652135252952,0.0108912137074396,-0.0013027896942570804
1761380399980707600,3.71170751953125,0.04759235678017139,0.0022236308662220835,-0.00047129817302338776
1761380399990790700,3.721790771484375,0.04295125297605991,0.0009613193128257989,-0.005685178630100563
1761380400000872700,3.731872802734375,0.042945992279052735,0.004818761925958097,-0.0037942594501189884
1761380400010954500,3.74195458984375,0.04728606730997562,0.006737162767909467,-0.002322250668797642
1761380400021037600,3.75203759765625,0.05402092852294445,0.0000029591420665383336,0.006312608079751953
1761380400031119600,3.76211962890625,0.05551438195109367,0.0042387700809165835,-0.0054764860491734
1761380400041201700,3.77220166015625,0.05116963074505329,0.00015679799690842628,0.000883650966733694
1761380400051284500,3.782284423828125,0.0570119270324707,0.00406450949255377,0.0016065127480309456
1761380400061366500,3.792366455078125,0.05043430220782757,-0.006266147722676396,-0.00029669965794309973
1761380400071448600,3.802448486328125,0.05461304919719696,0.005030979904532432,-0.00019963249163702128
1761380400081531600,3.81253173828125,0.06045183835327625,0.0007607552394270896,0.00023821093635633588
1761380400091613400,3.822613525390625,0.04923194068074226,-0.0045431598549708725,-0.004511221213592216
1761380400101695500,3.832695556640625,0.05192950920164585,-0.00046568128298968075,-0.004542858460871503
1761380400111778800,3.84277880859375,0.06330138256549835,0.012100918290764092,0.001530844562780112
1761380400121860900,3.85286083984375,0.05462357059121131,-0.00003156418204307556,0.012669868151983246
1761380400131942700,3.862942626953125,0.050283495560288424,-0.004016140306182205,0.013513771630218252
1761380400142025700,3.873025634765625,0.05611643949747085,0.0072416051587089894,-0.0003414612482767552
1761380400152107800,3.883107666015625,0.05343114593625068,0.0034923356277868148,0.000725903121754527
1761380400162189800,3.89318994140625,0.04879705639481544,0.0008755041928961872,0.0028140984395053237
1761380400172272600,3.903272705078125,0.049996495312452316,0.00662822250071913,-0.003536832356639206
1761380400182354700,3.913354736328125,0.05567629451453685,0.0005228913629427552,0.0017262210044078528
1761380400192436700,3.923436767578125,0.04520283129513263,-0.004888100835122168,0.009345801763189956
1761380400202518800,3.933518798828125,0.04819850597977638,0.0017980623979121447,0.0012347476930357514
1761380400212601600,3.9436015625,0.05313479333817959,0.008370061199367045,0.0006152184220496565
1761380400222683600,3.95368359375,0.05238718984127044,-0.0022479615898802876,-0.005928951657563447
1761380400232765700,3.963765625,0.0452086765140295,-0.0005193476989865303,0.0006471022645011544
1761380400242848500,3.9738486328125,0.04430559019446373,0.00020487492233514784,-0.007481469196034595
1761380400252930600,3.9839306640625,0.05881517706215381,0.002663921979628503,0.0027990835334639995
1761380400263012600,3.9940126953125,0.05043196412026882,0.004546228594891726,0.006207987794652581
1761380400273095700,4.004095703125,0.047750177690386766,0.00037307109609246254,-0.0031222328069154173
1761380400283177700,4.014177734375,0.05762450597286224,0.007627133877575397,0.0015582440263591706
1761380400293259500,4.024259521484375,0.05746726958453655,-0.0013199965573847292,-0.004338622859353199
1761380400303342600,4.034342529296875,0.05597030902504921,-0.006943645125441253,0.0002908270395826548
1761380400313424600,4.044424560546875,0.05881225445270538,-0.00015040478873997926,-0.004122687686886639
1761380400323506700,4.054506591796875,0.04893032738566398,0.0037166459029540416,-0.0018063827016856521
1761380400333589500,4.064589599609375,0.04489186564981937,-0.010651377069577575,-0.0037882041686680165
1761380400343671600,4.074671630859375,0.0438490785986185,-0.0044717385865747925,-0.0038852256692014633
1761380400353753600,4.084753662109375,0.05402209756672382,0.000052205111272633074,0.004270580858131871
1761380400363836400,4.09483642578125,0.04788870937824249,0.009743030053004621,0.010865960535174236
1761380400373918500,4.10491845703125,0.03966331734657287,-0.003648402972333133,0.0017397472062613815
1761380400384000500,4.11500048828125,0.05148234995603561,-0.00421633905339986,0.0006063683953136205
1761380400394083800,4.125083740234375,0.053424131673574446,0.007506283976882696,-0.0002387497924733907
1761380400404165600,4.13516552734375,0.04833177697062492,0.002877235936746001,0.002677895706053823
1761380400414247700,4.14524755859375,0.05357727640867233,0.0021226912423968312,0.007500612287921831
1761380400424330800,4.155330810546875,0.057470776715874666,0.007236271396465599,-0.0001293620007112622
1761380400434412800,4.165412841796875,0.049987142962217325,0.0037783129623159763,0.005407110607391223
1761380400444494800,4.175494873046875,0.05702303294837475,0.0028289032829925415,0.011589626034069806
1761380400454577700,4.18557763671875,0.05178454777300358,0.010330364954285323,-0.004890932113025337
1761380400464659700,4.19565966796875,0.0556698647737503,0.009243190772086381,-0.006317092458624393
1761380400474741800,4.20574169921875,0.05043313316404819,0.004885762747563422,0.005972023614309728
1761380400484823800,4.21582373046875,0.05208265393674373,0.00422072296757251,0.0012371771121397613
1761380400494906600,4.22590673828125,0.057471945759654045,0.0021926512060686945,-0.000774454971216619
1761380400504988700,4.23598876953125,0.05149111778438091,0.001473360488191247,-0.00254545583226718
1761380400515070700,4.24607080078125,0.04146890546381473,-0.0068344125973060724,0.0007815696985926479
1761380400525153500,4.256153564453125,0.05463876816034317,-0.002415280980803072,-0.0013609222228173166
1761380400535235600,4.266235595703125,0.04730944818556308,0.0006763283589854836,-0.0004382087541744113
1761380400545317600,4.276317626953125,0.05359773467481136,0.0007641162402927875,0.001036841367604211
1761380400555400700,4.286400634765625,0.052854222831130025,0.002480966628156602,0.010418006705120206
1761380400565482500,4.296482421875,0.05075345115959644,-0.002664798762463033,0.0030781927357893435
1761380400575564500,4.306564453125,0.053445758983492846,0.006826448486559092,0.009426621047593653
1761380400585647600,4.316647705078125,0.0488075777888298,0.005656893250532448,0.008660102787660435
1761380400595729700,4.326729736328125,0.045671617850661275,-0.0028682854453101754,-0.004590524394344538
1761380400605811700,4.336811767578125,0.052550271448493,0.0030875542191788554,0.003467310784384608
1761380400615894500,4.34689453125,0.0589899491071701,-0.0019525223072618244,-0.005561333054723218
1761380400625976600,4.3569765625,0.051959319818019864,-0.0016402049550786613,0.004852919923886656
1761380400636058600,4.36705859375,0.04701777176260948,0.00020392507426440713,0.006377745737833902
1761380400646141400,4.377141357421875,0.04506663769483566,0.0025343407832086086,0.00005282616578042507
1761380400656223500,4.387223388671875,0.04312777858674526,-0.003897409297339618,0.004155786238890141
1761380400666305500,4.397305419921875,0.05091302563548088,0.0033084304282441734,0.0011013579711783676
1761380400676388900,4.407388916015625,0.04926467390656471,0.005859283954836428,-0.008321134890569374
1761380400686470700,4.417470703125,0.05390402414500713,0.004819784839265049,0.005955949262343347
1761380400696552700,4.427552734375,0.06347615461051463,-0.00763356361836195,-0.002886633952753618
1761380400706635800,4.4376357421875,0.05689034647941589,0.004384060303121805,-0.005435030660778284
1761380400716717800,4.4477177734375,0.059278118398785586,0.006594429828971624,0.007010107090929522
1761380400726799600,4.457799560546875,0.051498716568946834,0.0022493132967501875,-0.00024672303637489676
1761380400736882700,4.467882568359375,0.06048106444776058,0.009055888039059936,-0.0031651312337256966
1761380400746964700,4.47796484375,0.04820493572056293,0.0036736470114439724,0.008966291793156415
1761380400757046800,4.488046875,0.04805354455113411,-0.0027164924170821904,0.0034414182913023975
1761380400767129600,4.498129638671875,0.05030804547965526,-0.006494878444634378,0.0021403912958689033
1761380400777211600,4.508211669921875,0.052850715699791904,-0.00584039659127593,0.002371505771158263
1761380400787293700,4.518293701171875,0.047613984090089795,-0.002280037228576839,0.0005243161350488662
1761380400797375700,4.528375732421875,0.05046177473664284,0.006322846345975994,-0.0027939050348475573
1761380400807458600,4.53845849609375,0.04418167155385017,-0.002736987215839326,-0.003245950518129393
1761380400817540600,4.54854052734375,0.053904608666896815,0.004217836890742182,0.0113369390477892
1761380400827622700,4.55862255859375,0.05629647223949432,-0.00037442280296236274,0.0018488701365422457
1761380400837705700,4.568705810546875,0.046125206837058064,0.0011637465497478842,-0.001253653322905302
1761380400847787500,4.57878759765625,0.05241173976063728,-0.0012780936444178224,0.0021482914745341985
1761380400857869600,4.58886962890625,0.05151099152863026,0.0023627470759674907,-0.00017044292977079747
1761380400867952600,4.59895263671875,0.047777650219202036,-0.0021129370333626864,0.0018385862045455722
1761380400878034700,4.60903466796875,0.05046937352120876,0.002415792437456548,-0.004035803987877443
1761380400888116500,4.619116455078125,0.04792378069162369,0.0020504297237843275,0.005177548768371344
1761380400898199600,4.629199462890625,0.051664136263728136,-0.00276928205024451,0.008049670138582586
1761380400908281600,4.639281494140625,0.0512128853648901,0.004188574263639748,0.005082363031897693
1761380400918363600,4.64936376953125,0.050018122622370716,0.007538834539614617,0.01221374014862813
1761380400928446500,4.659446533203125,0.045831192326545714,-0.0001781330458819866,0.0018420385369565338
1761380400938528500,4.669528564453125,0.05226794737577438,-0.0011703224210068582,0.0013304722856264562
1761380400948610600,4.679610595703125,0.04643266535103321,-0.0067232073077932,0.005359170679282397
1761380400958693600,4.689693603515625,0.057060442349314684,0.0015429185930639505,-0.0036695370919071135
1761380400968775200,4.699775146484375,0.050477556827664374,0.004526829774677753,-0.0028608693238347765
1761380400978857200,4.709857177734375,0.04613514370918274,-0.0024304785499349234,0.0020864143526181577
1761380400988940500,4.7199404296875,0.051073184633255005,0.008191891620866953,0.003400428693788126
1761380400999022600,4.730022705078125,0.051072600111365316,0.004244067310541868,0.004423963055247441
1761380401009104400,4.7401044921875,0.055715457481145855,0.005614332750439643,0.00482729229228571
1761380401019187500,4.7501875,0.052878188228607174,-0.005870389870740473,0.015126403591781854
1761380401029269500,4.76026953125,0.04824000703394413,0.0020889716358855367,0.004891434436524286
1761380401039351600,4.7703515625,0.05182838691473007,-0.001455605635792017,0.006156677732523531
1761380401049434400,4.780434326171875,0.05332534747421741,-0.0038817368041723964,-0.002110854674130678
1761380401059516400,4.790516357421875,0.04196165741682052,-0.0019833193043246864,-0.00619809658830054
1761380401069598500,4.800598388671875,0.04301087420880794,0.005878719307668507,0.0027235066797584293
1761380401079681300,4.810681396484375,0.04660626835227012,0.0036918402552604673,-0.0004965056795161217
1761380401089763300,4.820763427734375,0.053338791477680204,-0.004612279568426311,-0.00905783340097405
1761380401099845400,4.830845458984375,0.04570668916404247,0.004539871919341385,-0.003373120561754331
1761380401109927400,4.840927490234375,0.05153612596988678,0.008095007117651402,-0.0023139394981786608
1761380401120010500,4.851010498046875,0.05273848749697208,0.004724909630045295,0.010731977158272638
1761380401130092300,4.86109228515625,0.050942836251854896,-0.002712218100763857,0.004850134311756119
1761380401140174300,4.87117431640625,0.04854278937280178,0.005957154838740825,0.0030071093941107393
1761380401150257400,4.88125732421875,0.04989069685041904,0.009063450291007757,0.006597306772647425
1761380401160339500,4.89133935546875,0.04241349283754825,-0.0025361674141138792,0.0037078141425270585
1761380401170421200,4.901421142578125,0.041807343637943264,0.0007406988320872187,0.0007013440692331641
1761380401180504300,4.91150439453125,0.05945698209702968,0.003153130268678069,0.0035873935000970956
1761380401190586400,4.92158642578125,0.04688976146876812,-0.006161189510859548,0.002143825361970812
1761380401200668400,4.93166845703125,0.04449322172105312,-0.0002656651988625526,0.0036369043307844548
1761380401210751200,4.941751220703125,0.0610989040851593,0.007860686905123293,0.00482962124668993
1761380401220833300,4.951833251953125,0.05600596486032009,0.004962152452021837,0.004234532297216356
1761380401230915300,4.961915283203125,0.04867430679798126,0.007768588174879551,0.004352980178268626
1761380401240998400,4.971998291015625,0.05195815077424049,0.0025234175303950903,0.004131510314159095
1761380401251080200,4.982080078125,0.06841770266592502,0.009713950088992715,0.006650644395081326
1761380401261162200,4.992162353515625,0.04897182843983173,-0.0041480961227789515,0.007366784174647182
1761380401271245600,5.00224560546875,0.053609425112605094,0.004941073131375015,0.00008658230490982533
1761380401281327400,5.012327392578125,0.05405599983632564,0.0027929186541587113,-0.0077546966468449675
1761380401291409400,5.022409423828125,0.04387187495231628,-0.0017854221120476722,-0.003163176738657057
1761380401301492500,5.032492431640625,0.051208209189772605,-0.003190320473909378,0.00563219720069319
1761380401311574500,5.042574462890625,0.059139586710929865,0.009382197383977471,-0.0007598693234380334
1761380401321656600,5.052656494140625,0.05330547372996807,0.00824972275532782,-0.0020541377845220265
1761380401331739400,5.062739501953125,0.04134206421375274,-0.005850844920054078,0.005349827462201938
1761380401341821400,5.072821533203125,0.053912207451462746,0.0031309915021061896,0.002256382358353585
1761380401351903500,5.082903564453125,0.05480594142079353,0.002160648632608354,0.00528118267278187
1761380401361986300,5.092986328125,0.05270166261792183,0.0040159576430916786,0.0004180792815983295
1761380401372068400,5.103068359375,0.05105623349845409,-0.001530278307199478,0.004304218266252428
1761380401382150400,5.113150390625,0.059739306169748305,0.008534311850368976,-0.001400971105415374
1761380401392233500,5.1232333984375,0.04462590819001198,-0.007672105530463159,-0.005569205833924934
1761380401402315300,5.133315185546875,0.04597732279896736,-0.004173084433563053,0.0023112908833660185
1761380401412397300,5.143397216796875,0.05660276170969009,-0.0005671323634684085,0.010077367440750822
1761380401422480400,5.15348046875,0.047923196169734,0.0013379340728744864,-0.00819024765305221
1761380401432562400,5.1635625,0.04462649271190166,0.0020182079546153544,-0.008463703432725742
1761380401442644500,5.17364453125,0.0488204372704029,0.00460289068557322,0.006367288275901228
1761380401452727300,5.183727294921875,0.05152151292264461,-0.0022896087745204567,0.001834850744344294
1761380401462809300,5.193809326171875,0.04927519530057907,0.008359028348699211,-0.0023918818389065564
1761380401472891400,5.203891357421875,0.04702887767851353,0.006180223004892468,0.009489475417044013
1761380401482973400,5.213973388671875,0.04957096337676048,0.0018791648101061582,0.00510846558753401
1761380401493056300,5.22405615234375,0.05136427653431892,0.003556779166124761,0.0012900854763109237
1761380401503138300,5.23413818359375,0.05645078601837158,-0.0018541399667039514,-0.005456904565868899
1761380401513220400,5.244220458984375,0.052715106621384615,0.003885499663837254,0.0030341435315087437
1761380401523303400,5.254303466796875,0.047933717563748354,-0.003918634748458862,0.003551262740790844
1761380401533385200,5.26438525390625,0.04852700728178024,-0.007691577415913343,-0.002044904165295884
1761380401543467300,5.27446728515625,0.05481354020535945,0.0016805369654670356,0.004200584361841902
1761380401553550600,5.284550537109375,0.04973229141831398,-0.0002475450202822685,-0.0003302366013638675
1761380401563632400,5.29463232421875,0.041054479444026945,0.0013369111595675348,-0.004882776206033304
1761380401573714400,5.30471435546875,0.05602817669212818,0.0048185427302494645,0.0021524561929982156
1761380401583797500,5.314797607421875,0.04899813192486763,0.00043367870952934023,0.006003761326288804
1761380401593879600,5.324879638671875,0.05514145698547363,-0.0053896571490913625,-0.002622137797670439
1761380401603961300,5.33496142578125,0.05334463669657707,-0.003930946240760386,0.000038870705664157864
1761380401614044400,5.34504443359375,0.0499012182444334,-0.0005947875553742051,-0.004006276499293744
1761380401624126500,5.35512646484375,0.05049976865947246,-0.0013884952163323758,0.0075197371135000135
1761380401634208500,5.36520849609375,0.0597743774831295,-0.001919716016203165,0.0012046722151804715
1761380401644291300,5.375291259765625,0.045105800661444664,0.006412095532007515,0.00373978931652382
1761380401654373400,5.385373291015625,0.05423310996890068,-0.0032580154152587054,0.0046133572806604205
1761380401664455400,5.395455322265625,0.05229366633892059,0.0031954350404441354,-0.0019234240769408642
1761380401674538500,5.40553857421875,0.05513327367901802,-0.0006282879661768674,-0.003943175534671172
1761380401684620300,5.415620361328125,0.05797872623801231,-0.004414309310913086,0.0011861319114919752
1761380401694702300,5.425702392578125,0.05469137513041496,-0.009041640317998825,0.007006536027509718
1761380401704785400,5.435785400390625,0.05424129327535629,-0.0015758344819769262,0.0012114490158390253
1761380401714867500,5.445867431640625,0.049905309897661204,0.0020936843436211348,-0.0057886024719569825
1761380401724949200,5.45594921875,0.048119011002779,0.0025771570116281508,0.0037691798077896235
1761380401735032300,5.4660322265625,0.05081716404557228,-0.001442198164947331,-0.00015334566449746488
1761380401745114400,5.4761142578125,0.050069560548663135,0.0006581716477870941,-0.008316595712769777
1761380401755196400,5.486196533203125,0.051716158711910244,-0.009672010643407702,0.0072608578484505415
1761380401765279200,5.496279296875,0.046481180667877195,-0.0028209026396274566,0.005715117110637947
1761380401775361300,5.506361328125,0.049313773745298384,0.01013436745814979,0.0030429113598540425
1761380401785443300,5.516443359375,0.05080898073911667,0.008940664161555468,0.008201463166810571
1761380401795526400,5.5265263671875,0.0461672924131155,-0.0019163915479555726,0.004429205485945567
1761380401805608200,5.536608154296875,0.05843699139952659,0.0049428632296621795,0.00043929559956304724
1761380401815690200,5.546690185546875,0.050505029356479644,0.00046557168513536453,-0.011571094863535835
1761380401825772300,5.556772216796875,0.06576221972107887,-0.0006725654993206263,-0.009657589392410591
1761380401835855400,5.56685546875,0.045858664855360984,-0.004803564356826245,0.006823361480329185
1761380401845937400,5.5769375,0.05094868147075176,-0.0006456409597769379,0.009297578707290814
1761380401856019500,5.58701953125,0.04945288995504379,0.0001914309188723564,-0.001858743076585233
1761380401866102500,5.5971025390625,0.03733692022562027,-0.0024757424637675282,0.004991616008523852
1761380401876184600,5.6071845703125,0.045267713224887846,-0.0031146614218130705,0.006706457102391868
1761380401886266400,5.617266357421875,0.05095335764586925,0.0029951266953721642,0.001658023739559576
1761380401896349400,5.627349365234375,0.0463110847979784,0.005469152126088738,-0.0005030541513115168
1761380401906431500,5.637431396484375,0.04481353971660137,0.006784582106210291,0.011852944012219086
1761380401916513500,5.647513427734375,0.04930383687317371,0.0013728592557832597,-0.0014100403278600423
1761380401926596400,5.657596435546875,0.048105566999316215,-0.0024616408731788397,0.00581991092567332
1761380401936678400,5.667678466796875,0.04361702340841293,0.002022518803551793,-0.0009031228521838784
1761380401946760400,5.677760498046875,0.04571428794860839,-0.006976268753409385,-0.004067450368311256
1761380401956843300,5.68784326171875,0.05737900677919387,-0.007292020171694457,-0.0016741620236076413
1761380401966929400,5.697929443359375,0.052284313988685605,0.0013940847069025038,-0.0022058942801319063
1761380401977011500,5.708011474609375,0.056329789987206454,0.00544350622817874,0.005900775875849649
1761380401987094500,5.718094482421875,0.061865796804428094,-0.0018322203958407043,0.00017471724608913064
1761380401997176300,5.72817626953125,0.051987961390614505,0.00399699721429497,0.006755913134152069
1761380402007258400,5.73825830078125,0.053338791477680204,0.004947831665724515,0.005902136715874076
1761380402017341400,5.748341552734375,0.055286418414115905,0.003235693985596299,0.0010841145754326134
1761380402027423500,5.758423583984375,0.051396425238251685,-0.003211217131465673,-0.0023317948152776807
1761380402037505300,5.76850537109375,0.04960428112447261,-0.005014394095912576,0.005389565817546099
1761380402047588400,5.77858837890625,0.05319324552714824,-0.00020816285796463487,-0.0022162056115921586
1761380402057670400,5.78867041015625,0.047648470881581306,-0.00597487315852195,-0.006102883452363312
1761380402067752400,5.79875244140625,0.05288754057884216,0.0007176102174445986,-0.004575235493667423
1761380402077835300,5.808835205078125,0.05483224490582943,-0.006276048062182962,-0.004978765660105273
1761380402087917300,5.818917236328125,0.05229074372947216,-0.003537672606855631,0.008554212994081899
1761380402097999400,5.828999267578125,0.0521405216038227,0.0024485621958971024,0.0075962364158127455
1761380402108081400,5.839081298828125,0.0442108976483345,-0.003882942380569875,0.00008226232281886041
1761380402118164200,5.849164306640625,0.05259235702455044,0.0008517945237457752,0.0032083401877898723
1761380402128246300,5.859246337890625,0.05079787482321262,-0.0010981339676305651,-0.003752502667624503
1761380402138328300,5.869328369140625,0.038671968221664424,-0.00019354981072247028,-0.006422470795549452
1761380402148411400,5.879411376953125,0.04165887507796287,-0.0045902138670906424,-0.0026726076095830646
1761380402158493200,5.8894931640625,0.05048749369978905,-0.0006948503963649272,0.0028744320583064106
1761380402168575200,5.8995751953125,0.043159927290678024,-0.0032009514657780525,0.0026091869845520704
1761380402178658600,5.909658447265625,0.048694765064120286,0.005229169357754289,-0.00291287350570783
1761380402188740600,5.91974072265625,0.04914367787539959,-0.000762472272478044,-0.00025494287544861434
1761380402198822400,5.929822509765625,0.049749242553114886,-0.0019193506900221109,-0.003347949587879702
1761380402208905500,5.939905517578125,0.05453881491720676,-0.00796173612680286,-0.002225146969873458
1761380402218987500,5.949987548828125,0.04990063372254371,-0.005905461184121668,0.0035632363063748925
1761380402229069600,5.960069580078125,0.052744917237758634,-0.001000299616344273,-0.0003228844119701534
1761380402239152400,5.97015234375,0.05588906048238277,-0.003241539204493165,0.003861433801660314
1761380402249234400,5.980234375,0.05618365951478481,-0.0014923939822241662,-0.0004018587991595268
1761380402259316500,5.99031640625,0.04270867639183998,-0.00237955208029598,-0.0044011301689315585
1761380402269399300,6.0003994140625,0.04315291302800178,-0.0024375658778473734,-0.00003289762260392308
1761380402279481300,6.0104814453125,0.032088498178124425,0.0004877104517072439,0.00990335344756022
1761380402289563400,6.0205634765625,0.04929448452293873,0.003971935838274657,0.0059737497805152084
1761380402299646500,6.030646484375,0.06306289763450622,-0.00457001132927835,-0.0026384039458818734
1761380402309728500,6.040728515625,0.051989130434393876,-0.0032273645486682653,0.008258371852664276
1761380402319810300,6.050810302734375,0.048094461083412164,0.0009224851397797465,0.0029978027096483856
1761380402329893400,6.060893310546875,0.04914192430973053,0.005301650072075426,-0.004667261158674955
1761380402339975400,6.070975341796875,0.05019231014549732,-0.0032790582032874225,-0.0020580924404319375
1761380402350057500,6.081057373046875,0.04211655571758747,0.0022764570320025087,0.002745444516930729
1761380402360140300,6.091140380859375,0.06036883624494076,0.0019369959445670246,0.006220326686417684
1761380402370222300,6.101222412109375,0.05542845723330974,-0.0014643369315192102,-0.005199897597497329
1761380402380304400,6.111304443359375,0.053933250239491456,-0.008141476607881486,-0.001971071744104847
1761380402390387200,6.12138720703125,0.04466097950339317,-0.0015638152506202458,0.011742862100712955
1761380402400469200,6.13146923828125,0.052145197778940194,-0.004451682179234921,0.0065382517954800275
1761380402410551300,6.14155126953125,0.04705868829488754,0.0021142522076144812,0.0019305022716987878
1761380402420633300,6.15163330078125,0.04719838902652263,0.010116356877423823,-0.0002857672719750553
1761380402430716200,6.161716064453125,0.05722177039086818,0.0018139540867879987,0.00020018961406312883
1761380402440798200,6.171798095703125,0.0504892472654581,0.002079765416122973,-0.0016024119616486132
1761380402450880300,6.18188037109375,0.04405541482567787,-0.008284940199181436,0.008246553550707176
1761380402460963600,6.191963623046875,0.04061374993920326,0.0023116014106199143,0.00471310046124272
1761380402471045400,6.20204541015625,0.051091304811835284,0.00024579145461320876,-0.0010875121089164168
1761380402481127400,6.21212744140625,0.04600713341534138,-0.0009329334685578941,0.0058616220423951745
1761380402491210500,6.22221044921875,0.05304653053283691,0.0034419571474194523,0.0010553177392110227
1761380402501292500,6.23229248046875,0.04930383687317371,0.00019840864893049,-0.0008635945593938231
1761380402511374600,6.24237451171875,0.04601122506856918,0.0038058585563674565,0.004066628384403884
1761380402521457400,6.25245751953125,0.03988309757709503,0.007672872715443372,0.0024396573702339082
1761380402531539500,6.26253955078125,0.05111000951230526,-0.005172251538746058,0.010030030300840735
1761380402541621500,6.27262158203125,0.051558337801694866,0.0014051175575703382,-0.000059657765366137026
1761380402551704300,6.282704345703125,0.05006137724220752,-0.000856836025044322,-0.008228616035217419
1761380402561786400,6.292786376953125,0.04497428323626518,-0.005508351625315845,-0.0007106964194681495
1761380402571868400,6.302868408203125,0.05110884046852588,0.0043952758168801665,0.008119940629508346
1761380402581951500,6.312951416015625,0.05634732564389705,0.0062723217351362106,-0.0035037338046357033
1761380402592033300,6.323033203125,0.055746437141299246,-0.006706256172992289,-0.0069866348837967955
1761380402602115300,6.333115234375,0.0461672924131155,-0.007122472291067242,0.006408323539188131
1761380402612198400,6.343198486328125,0.051554830670356745,0.0003299991393461823,0.004245994406146928
1761380402622280400,6.353280517578125,0.051259062594175335,-0.0029769699841737745,-0.0016179291911888867
1761380402632362200,6.3633623046875,0.049455812564492226,-0.0010392799198627471,-0.0050735312714707105
1761380402642445300,6.3734453125,0.05020107797384262,0.002210880982503295,0.003842272443464026
1761380402652527400,6.38352734375,0.057982817891240115,-0.0011680208660662173,-0.005993696590000763
1761380402662609400,6.393609375,0.05454173752665519,-0.0065578972108662125,0.000922110680444166
1761380402672691500,6.40369140625,0.05215338108539581,0.0034631095333024857,0.0005080317205283791
1761380402682774300,6.413774169921875,0.0436269602805376,0.0017607991274446247,-0.0052763421008829026
1761380402692856300,6.423856201171875,0.05394961685240268,-0.0028219620855525133,0.008041084973327815
1761380402702938400,6.4339384765625,0.0585848754376173,0.008285926579870283,0.0021951902230270205
1761380402713021200,6.444021240234375,0.04975684133768082,-0.0039939650069922205,0.008165551603212952
1761380402723103200,6.454103271484375,0.041679333344101906,-0.0024330358332023024,-0.0032089977749157695
1761380402733185300,6.464185302734375,0.050500937703251834,0.0030702012255787847,-0.003702416448201984
1761380402743268600,6.4742685546875,0.05259469511210918,0.0036096418645232913,0.0027317356519866733
1761380402753350400,6.484350341796875,0.040328503257036206,-0.0020035583747550845,-0.004676275582192466
1761380402763432400,6.494432373046875,0.04511456848978996,0.0022501170143485066,-0.00015220402018167078
1761380402773515500,6.504515625,0.05678454801738262,0.0034194895872846245,0.008549947810918092
1761380402783597600,6.51459765625,0.045566988432407377,-0.009106229986809194,0.0008637498230207711
1761380402793679400,6.524679443359375,0.052746670803427695,-0.008422047114931046,0.004054207294248044
1761380402803762400,6.534762451171875,0.053685997480154034,0.0021450492046773432,-0.0034587256191298365
1761380402813844500,6.544844482421875,0.15453823528289795,0.03248469442147761,-0.0648744223021902
1761380402823926500,6.554926513671875,0.11183949576318264,0.024792057559639213,-0.04921892593554221
1761380402834009300,6.56500927734375,0.030716040781140326,0.006046805883571506,-0.011287245554011314
1761380402844091400,6.57509130859375,0.01926642600595951,-0.0015157383251935242,0.004314666595030576
1761380402854173400,6.58517333984375,-0.005696750336885452,-0.019164426936209202,0.03046447717286646
1761380402864256300,6.59525634765625,-0.10343056385815143,-0.06945957640167326,0.10890124122104607
1761380402874338300,6.60533837890625,-0.23538696497678754,-0.10550305928327143,0.18412607575170695
1761380402884420400,6.61542041015625,0.07198036358356476,-0.004778028056770563,0.0052829910373780875
1761380402894503400,6.62550341796875,0.6453840624064207,0.2051763529671356,-0.3068398340875283
