time,seconds_elapsed,z,y,x
1761380396314528800,0.04552880859375,0.013088637962937355,0.01787273958325386,0.021214207634329796
1761380396324610800,0.05561083984375,0.012863067910075188,-0.011755725368857384,-0.000838895735796541
1761380396334692600,0.065692626953125,0.012536298483610153,-0.030818898230791092,-0.012773052789270878
1761380396344774700,0.075774658203125,0.01261060032993555,0.0029995182994753122,0.007877896539866924
1761380396354857700,0.085857666015625,0.012225506827235222,0.00620995881035924,0.01221831701695919
1761380396364939800,0.095939697265625,0.013456153683364391,-0.020475447177886963,-0.004573978949338198
1761380396375021800,0.106021728515625,0.015058311633765697,-0.017543040215969086,-0.0023217438720166683
1761380396385104600,0.116104736328125,0.0135054225102067,0.003887682454660535,0.009131979197263718
1761380396395186700,0.126186767578125,0.014785070903599262,-0.0046304380521178246,0.007426757365465164
1761380396405268700,0.136268798828125,0.014185327105224133,-0.01853666640818119,-0.004715392831712961
1761380396415350800,0.146350830078125,0.013274792581796646,-0.009460613131523132,0.005304750520735979
1761380396425433600,0.15643359375,0.015386146493256092,0.005017928313463926,0.010577542707324028
1761380396435515600,0.166515625,0.012613263912498951,-0.013127253390848637,0.0019824570044875145
1761380396445597700,0.17659765625,0.014246846549212933,-0.016514262184500694,-0.002373675350099802
1761380396455680500,0.186680419921875,0.017418405041098595,-0.002313754288479686,0.008382033556699753
1761380396465762600,0.196762451171875,0.013939783908426762,-0.004494084510952234,0.00216568261384964
1761380396475844600,0.2068447265625,0.012509666383266449,-0.014315289445221424,-0.0020325244404375553
1761380396485927700,0.216927734375,0.013096626847982407,-0.008146343752741814,0.0019683423452079296
1761380396496009500,0.227009521484375,0.017131315544247627,-0.003547064261510968,0.004611796233803034
1761380396506091500,0.237091552734375,0.010754909366369247,-0.008645952679216862,0.002283926820382476
1761380396516173600,0.247173583984375,0.012852681800723076,-0.012986638583242893,-0.001928128651343286
1761380396526256600,0.257256591796875,0.010905911214649677,-0.00424135010689497,0.005675462540239096
1761380396536338700,0.267338623046875,0.014358166605234146,-0.006656304933130741,0.004561462439596653
1761380396546420500,0.27742041015625,0.012824452482163906,-0.013078783638775349,0.002755306428298354
1761380396556503600,0.287503662109375,0.012327506206929684,-0.00956740602850914,0.0008093346259556711
1761380396566585600,0.297585693359375,0.012955745682120323,-0.005515672732144594,0.0033665020018815994
1761380396576667600,0.307667724609375,0.013312876224517822,-0.009895773604512215,0.001020523370243609
1761380396586750700,0.317750732421875,0.013888385146856308,-0.011292601935565472,0.0007880293414928019
1761380396596832800,0.327832763671875,0.012488894164562225,-0.005143895745277405,0.004778243601322174
1761380396606914800,0.337914794921875,0.013712350279092789,-0.00669465446844697,0.005263471510261297
1761380396616996600,0.34799658203125,0.011976235546171665,-0.013436713255941868,-0.0009195895399898291
1761380396627079700,0.35807958984375,0.013284114189445972,-0.010005496442317963,0.0010298443958163261
1761380396637161700,0.36816162109375,0.013333648443222046,-0.007738613523542881,0.003689543344080448
1761380396647243800,0.378243896484375,0.012263324111700058,-0.008555138483643532,0.004144144710153341
1761380396657326600,0.38832666015625,0.013391172513365746,-0.01059485413134098,-0.00304718897677958
1761380396667408600,0.39840869140625,0.013116600923240185,-0.011391405016183853,0.0033340114168822765
1761380396677490700,0.40849072265625,0.01426522247493267,-0.005596633069217205,0.0022442457266151905
1761380396687573800,0.41857373046875,0.015451394021511078,-0.010967429727315903,0.0011020160745829344
1761380396697655600,0.428655517578125,0.011833223514258862,-0.007860319688916206,-0.0006253102328628302
1761380396707737600,0.438737548828125,0.012121910229325294,-0.009326656349003315,0.0041404166258871555
1761380396717819600,0.448819580078125,0.012181831523776054,-0.006465356331318617,0.003599794814363122
1761380396727902700,0.45890283203125,0.015483618713915348,-0.011593272909522057,0.004269047174602747
1761380396737984800,0.46898486328125,0.012293950654566288,-0.007501858286559582,0.0044259075075387955
1761380396748066600,0.479066650390625,0.013403955847024918,-0.0054275221191346645,0.0012210593558847904
1761380396758149600,0.489149658203125,0.01263962872326374,-0.0075718993321061134,0.0008929579053074121
1761380396768231700,0.499231689453125,0.014303038828074932,-0.010297112166881561,0.0027531760279089212
1761380396778313700,0.509313720703125,0.010990066453814507,-0.007208644412457943,0.0017744642682373524
1761380396788395500,0.5193955078125,0.013427391648292542,-0.00842810608446598,0.003156378399580717
1761380396798478600,0.529478515625,0.013623933307826519,-0.0070890686474740505,0.00012303804396651685
1761380396808560600,0.539560546875,0.014036457054316998,-0.011037470772862434,0.0026788737159222364
1761380396818642700,0.549642578125,0.013876400887966156,-0.006292783189564943,0.00247540813870728
1761380396828725500,0.5597255859375,0.014068947173655033,-0.01221805065870285,0.0026549051981419325
1761380396838807600,0.5698076171875,0.01170432660728693,-0.006958040874451399,0.003231213428080082
1761380396848889600,0.5798896484375,0.011742675676941872,-0.009858756326138973,-0.00023382554354611784
1761380396858972700,0.58997265625,0.011542140506207943,-0.005557484459131956,0.0018189389957115054
1761380396869054500,0.600054443359375,0.014976552687585354,-0.010349576361477375,0.002347576431930065
1761380396879136500,0.610136474609375,0.013745373114943504,-0.011246795766055584,0.0032716933637857437
1761380396889218600,0.620218505859375,0.011800999753177166,-0.00993279181420803,0.0030301446095108986
1761380396899301600,0.630301513671875,0.011684086173772812,-0.010008958168327808,0.0003789678157772869
1761380396909383400,0.640383544921875,0.012628976255655289,-0.008103999309241772,0.0007779093575663865
1761380396919465500,0.650465576171875,0.016232233494520187,-0.008041414432227612,0.0062552327290177345
1761380396929548800,0.660548828125,0.013396232388913631,-0.007101851515471935,0.005637645721435547
1761380396939630800,0.670630859375,0.01320901233702898,-0.01065131276845932,0.00101173494476825
1761380396949712600,0.680712646484375,0.013117399998009205,-0.007903196848928928,0.0031672974582761526
1761380396959795700,0.690795654296875,0.014847389422357082,-0.008037686347961426,0.004503671545535326
1761380396969878000,0.7008779296875,0.011937619186937809,-0.00977619830518961,0.0006191849242895842
1761380396979960000,0.7109599609375,0.013830861076712608,-0.009771670214831829,0.00424214918166399
1761380396990041900,0.721041748046875,0.015421566553413868,-0.006156163290143013,0.00205276464112103
1761380397000125000,0.731125,0.013423130847513676,-0.009435313753783703,0.0027438548859208822
1761380397010207000,0.74120703125,0.013665478676557541,-0.007370298262685537,-0.00011132013605674729
1761380397020289000,0.7512890625,0.01278636883944273,-0.008167648687958717,0.002728408435359597
1761380397030371800,0.761371826171875,0.01528947427868843,-0.006099970545619726,0.0019382486352697015
1761380397040454000,0.771453857421875,0.014193849638104439,-0.00902385450899601,0.004098072182387114
1761380397050536000,0.781535888671875,0.015191469341516495,-0.00866139866411686,0.0019656792283058167
1761380397060618800,0.79161865234375,0.015204519033432007,-0.008237689733505249,0.0054240599274635315
1761380397070700800,0.80170068359375,0.013889450579881668,-0.009412942454218864,0.00373028963804245
1761380397080782800,0.811782958984375,0.013368269428610802,-0.010133594274520874,0.002481267089024186
1761380397090866000,0.821865966796875,0.014082529582083225,-0.007044860161840916,0.0032780850306153297
1761380397100948000,0.831947998046875,0.01296293642371893,-0.009159409441053867,0.004926315508782864
1761380397111029800,0.84202978515625,0.01363431941717863,-0.008586830459535122,0.0030037793330848217
1761380397121111800,0.85211181640625,0.01258130557835102,-0.010493920184671879,0.004018177278339863
1761380397131195000,0.86219482421875,0.013335779309272766,-0.007568703964352608,0.0027710190042853355
1761380397141277000,0.87227685546875,0.015499064698815346,-0.010451842099428177,0.0029201561119407415
1761380397151358700,0.882358642578125,0.012256133370101452,-0.009229185059666634,0.0007070692372508347
1761380397161441800,0.89244189453125,0.013712350279092789,-0.008431834168732166,0.005715143866837025
1761380397171523800,0.90252392578125,0.014003166928887367,-0.007526359520852566,0.0037886130157858133
1761380397181606000,0.91260595703125,0.01369370799511671,-0.00896659679710865,0.0021054951939731836
1761380397191688700,0.922688720703125,0.01341887004673481,-0.008381767198443413,0.0032679650466889143
1761380397201770800,0.932770751953125,0.01432541012763977,-0.0094520915299654,0.0030985879711806774
1761380397211852800,0.942852783203125,0.014860172756016254,-0.007060572504997253,0.0051878378726542
1761380397221934800,0.952934814453125,0.014432468451559544,-0.008777778595685959,0.004298874642699957
1761380397232018000,0.963017822265625,0.012522449716925621,-0.007779359817504883,0.0026069683954119682
1761380397242100000,0.973099853515625,0.013821006752550602,-0.006621417589485645,0.0028011128306388855
1761380397252182000,0.98318212890625,0.014428740367293358,-0.01005290076136589,0.002242914168164134
1761380397262265000,0.99326513671875,0.016343552619218826,-0.008871788159012794,-0.0012093414552509785
1761380397272347000,1.003346923828125,0.01480397954583168,-0.004081827122718096,0.005661880597472191
1761380397282429000,1.013428955078125,0.013725931756198406,-0.008362592197954655,0.003010703483596444
1761380397292512000,1.023511962890625,0.016151273623108864,-0.009011604823172092,0.0023070964962244034
1761380397302594000,1.033593994140625,0.014927816577255726,-0.007218764163553715,0.0011163970921188593
1761380397312675800,1.04367578125,0.012806342914700508,-0.007233412005007267,0.0008436894277110696
1761380397322758000,1.0537578125,0.012010590173304081,-0.007133809383958578,0.0027534421533346176
1761380397332841000,1.063841064453125,0.013795707374811172,-0.010437460616230965,0.0026911243330687284
1761380397342923000,1.073923095703125,0.013789582066237926,-0.006314088590443134,0.006274141371250153
1761380397353005000,1.084005126953125,0.012533634901046753,-0.008533567190170288,0.0017299894243478775
1761380397363088000,1.094087890625,0.012573848478496075,-0.00996208656579256,0.0020935109350830317
1761380397373170000,1.104169921875,0.014456436969339848,-0.009286176413297653,0.0019228023011237383
1761380397383252000,1.114251953125,0.012529906816780567,-0.006327404174953699,0.00330311874859035
1761380397393334800,1.124334716796875,0.013339241035282612,-0.011815113946795464,0.004540956113487482
1761380397403416800,1.134416748046875,0.012119513005018234,-0.008924518711864948,0.0044259075075387955
1761380397413499000,1.144498779296875,0.012360263615846634,-0.00762969022616744,0.002538258908316493
1761380397423582000,1.15458203125,0.013003150001168251,-0.006682137493044138,0.0017473000334575772
1761380397433663700,1.164663818359375,0.014328605495393276,-0.00917485635727644,0.002266349969431758
1761380397443745800,1.174745849609375,0.012370383366942406,-0.004782504867762327,0.004634965676814318
1761380397453827800,1.184827880859375,0.012628976255655289,-0.008715727366507053,0.005130046978592873
1761380397463911000,1.194910888671875,0.013140303082764149,-0.009532252326607704,0.00012357067316770554
1761380397473992700,1.20499267578125,0.013515275903046131,-0.008461661636829376,0.004067711997777224
1761380397484074800,1.21507470703125,0.013459882698953152,-0.005894374568015337,0.003917243797332048
1761380397494157800,1.22515771484375,0.012229235842823982,-0.009236641228199005,0.0008130630594678223
1761380397504239900,1.235239990234375,0.012564794160425663,-0.009862484410405159,0.0037561224307864904
1761380397514322000,1.245322021484375,0.01332778949290514,-0.008820123039186,0.0046690539456903934
1761380397524405000,1.255405029296875,0.013788250274956226,-0.007217699196189642,0.004185423720628023
1761380397534487000,1.265487060546875,0.012388492934405804,-0.010920291766524315,0.0030093719251453876
1761380397544568800,1.27556884765625,0.011487279087305069,-0.008627843111753464,0.003632019041106105
1761380397554651000,1.28565087890625,0.012352007441222668,-0.008816394954919815,0.0030250847339630127
1761380397564734000,1.29573388671875,0.014226339757442474,-0.009346364066004753,0.00041012681322172284
1761380397574816000,1.30581591796875,0.012431901879608631,-0.008085090667009354,0.0015776565996930003
1761380397584898000,1.31589794921875,0.013657755218446255,-0.00878869742155075,0.003055977402254939
1761380397594980900,1.32598095703125,0.011919509619474411,-0.008851548656821251,0.003055977402254939
1761380397605063000,1.33606298828125,0.013645770959556103,-0.010716027580201626,0.004484763368964195
1761380397615145000,1.34614501953125,0.015777098014950752,-0.0059753344394266605,0.0029521139804273844
1761380397625228000,1.35622802734375,0.012888900935649872,-0.0054879761300981045,0.001942776027135551
1761380397635309800,1.366309814453125,0.013377591036260128,-0.008529306389391422,0.000913197931367904
1761380397645392000,1.376391845703125,0.013363742269575596,-0.009943976998329163,0.003681021276861429
1761380397655475000,1.386474853515625,0.015075089409947395,-0.007880027405917645,0.0027515781112015247
1761380397665557000,1.396556884765625,0.012460663914680481,-0.007952997460961342,0.0006743124104104936
1761380397675639000,1.40663916015625,0.011946408078074455,-0.009177519008517265,0.001213336130604148
1761380397685720800,1.416720947265625,0.012510998174548149,-0.009616674855351448,0.003555319970473647
1761380397695804000,1.426803955078125,0.011270764283835888,-0.006691991351544857,0.004027764778584242
1761380397705886000,1.436885986328125,0.011301922611892223,-0.008437160402536392,0.001710548298433423
1761380397715968000,1.446968017578125,0.01218848954886198,-0.006174805108457804,0.005916744936257601
1761380397726050800,1.45705078125,0.01420476846396923,-0.007132744416594505,0.003546797903254628
1761380397736132900,1.4671328125,0.013733921572566032,-0.009395898319780827,-0.000609863898716867
1761380397746215000,1.47721484375,0.013074256479740143,-0.007834487594664097,0.0028900622855871916
1761380397756297700,1.487297607421875,0.014227671548724174,-0.0068059745244681835,0.003796069882810116
1761380397766379800,1.4973798828125,0.012715262360870838,-0.00820919405668974,0.00041039311327040195
1761380397776461800,1.5074619140625,0.01401888020336628,-0.010667824186384678,0.003899666713550687
1761380397786545000,1.517544921875,0.012026302516460419,-0.0070312777534127235,0.0011321097845211625
1761380397796626700,1.527626708984375,0.013372530229389668,-0.00896846130490303,0.004039749037474394
1761380397806708700,1.537708740234375,0.012813267298042774,-0.009856891818344593,0.0016322514275088906
1761380397816790800,1.547790771484375,0.012702745385468006,-0.010296845808625221,0.002560895634815097
1761380397826873900,1.557873779296875,0.012435630895197392,-0.010037986561655998,0.0029792783316224813
1761380397836956000,1.567955810546875,0.012407933361828327,-0.006915962789207697,0.0003195793251506984
1761380397847037700,1.57803759765625,0.015182681381702423,-0.00788775086402893,0.0025515747256577015
1761380397857121000,1.58812109375,0.011697402223944664,-0.005934588145464659,0.0021084246691316366
1761380397867203000,1.598203125,0.01203855313360691,-0.009337575174868107,0.0032565132714807987
1761380397877285000,1.60828515625,0.012355469167232513,-0.007171093951910734,0.004278101958334446
1761380397887368000,1.618367919921875,0.015280685387551785,-0.010479272343218327,0.0007323693134821951
1761380397897450000,1.628449951171875,0.012913402169942856,-0.007351655978709459,0.0018069547368213534
1761380397907532000,1.638531982421875,0.01411501970142126,-0.010892861522734165,0.0020690099336206913
1761380397917614800,1.64861474609375,0.013532852753996849,-0.012605274096131325,-0.0006034722900949419
1761380397927697000,1.65869677734375,0.011481420136988163,-0.00785366166383028,0.006101568229496479
1761380397937779000,1.668779052734375,0.012807141989469528,-0.006674148142337799,0.0020477045327425003
1761380397947862000,1.678862060546875,0.016221581026911736,-0.012082229368388653,0.002141447737812996
1761380397957943800,1.68894384765625,0.01330009289085865,-0.008374310098588467,0.0015869776252657175
1761380397968025000,1.699025146484375,0.0121852932497859,-0.00723500968888402,0.001773132593370974
1761380397978107000,1.70910693359375,0.012375975959002972,-0.0070190271362662315,0.0009648632840253413
1761380397988190000,1.71918994140625,0.012105931527912617,-0.00803475733846426,-0.00009507485083304346
1761380397998272000,1.72927197265625,0.013197294436395168,-0.009939449839293957,0.0007928230334073305
1761380398008354000,1.73935400390625,0.013063604012131691,-0.00771784083917737,0.0031489215325564146
1761380398018436900,1.749436767578125,0.012319250032305717,-0.006336725316941738,0.0017267935909330845
1761380398028519000,1.759518798828125,0.01137143187224865,-0.007448328658938408,0.004985969979315996
1761380398038601000,1.76960107421875,0.015085209161043167,-0.008509332314133644,0.003740143496543169
1761380398048684000,1.77968408203125,0.012378904968500137,-0.006735933478921652,0.00449754623696208
1761380398058766000,1.78976611328125,0.012775183655321598,-0.012763465754687786,0.004059189930558205
1761380398068848000,1.79984814453125,0.014398646540939808,-0.0032661007717251778,0.002519882982596755
1761380398078931200,1.80993115234375,0.01187876332551241,-0.009660616517066956,0.003233077470213175
1761380398089013000,1.820012939453125,0.011698734015226364,-0.008895223960280418,0.003597398055717349
1761380398099095000,1.830094970703125,0.014101171866059303,-0.008963401429355145,0.0030242856591939926
1761380398109178000,1.84017822265625,0.014285461977124214,-0.006172941066324711,0.004775580484420061
1761380398119260200,1.85026025390625,0.015194132924079895,-0.009407349862158298,-0.0005675196298398077
1761380398129342000,1.860342041015625,0.01438000425696373,-0.00815220270305872,0.004479437135159969
1761380398139424000,1.870424072265625,0.012982644140720367,-0.005825132131576538,0.003171558491885662
1761380398149507000,1.880507080078125,0.013454290106892586,-0.007960454560816288,0.003322559641674161
1761380398159589000,1.890589111328125,0.012461995705962181,-0.011716310866177082,0.0008780442294664681
1761380398169671200,1.900671142578125,0.013353356160223484,-0.0057681407779455185,0.0025478461757302284
1761380398179754000,1.91075390625,0.012597550638020039,-0.007006510626524687,0.0030362699180841446
1761380398189836000,1.9208359375,0.015736352652311325,-0.008853146806359291,0.0011065434664487839
1761380398199918000,1.93091796875,0.012035357765853405,-0.012386362068355083,0.00044314999831840396
1761380398210001000,1.9410009765625,0.010580472648143768,-0.005321794655174017,0.0009978864109143615
1761380398220083000,1.9510830078125,0.012507801875472069,-0.010129599831998348,0.005275189410895109
1761380398230165000,1.9611650390625,0.013526727445423603,-0.007851798087358475,0.0009763148264028132
1761380398240248000,1.971248046875,0.01552463136613369,-0.009104282595217228,0.0006796387024223804
1761380398250329900,1.981329833984375,0.01284629013389349,-0.005799033213406801,0.003349723992869258
1761380398260412000,1.991411865234375,0.014190386980772018,-0.011405520141124725,0.0025132251903414726
1761380398270495000,2.001494873046875,0.011718441732227802,-0.007129015866667032,0.00022450447431765497
1761380398280577000,2.011576904296875,0.012911804020404816,-0.006671218667179346,0.004791026934981346
1761380398290659000,2.0216591796875,0.013174657709896564,-0.008202536031603813,0.001984321279451251
1761380398300740900,2.031740966796875,0.01434991043061018,-0.01062095258384943,0.002356897573918104
1761380398310824000,2.041823974609375,0.01136956736445427,-0.006418484263122082,0.002804841147735715
1761380398320906000,2.051906005859375,0.012060125358402729,-0.010922422632575035,0.0022090920247137547
1761380398330988000,2.061988037109375,0.014475611969828606,-0.011520035564899445,0.002814961364492774
1761380398341071000,2.072071044921875,0.012858008034527302,-0.007492803502827883,0.0037702370900660753
1761380398351153200,2.082153076171875,0.011814581230282784,-0.008775115944445133,0.003885019337758422
1761380398361235000,2.09223486328125,0.012601546011865139,-0.00974290817975998,0.004058923572301865
1761380398371318000,2.102318115234375,0.014419419690966606,-0.008845689706504345,0.004036020487546921
1761380398381400000,2.112400146484375,0.014026336371898651,-0.008577242493629456,0.0021819279063493013
1761380398391482000,2.122482177734375,0.015075089409947395,-0.006888532545417547,0.0026205505710095167
1761380398401565200,2.132565185546875,0.012732306495308876,-0.009327189065515995,-0.00035952674807049334
1761380398411647000,2.14264697265625,0.012766394764184952,-0.008898952975869179,0.0028458540327847004
1761380398421729000,2.15272900390625,0.013213805854320526,-0.006100769154727459,0.0046357642859220505
1761380398431812000,2.16281201171875,0.012533901259303093,-0.012268117628991604,0.00031904669594950974
1761380398441894100,2.17289404296875,0.012971192598342896,-0.009487245231866837,0.001112935016863048
1761380398451976000,2.182975830078125,0.015088671818375587,-0.006363090593367815,0.004245078656822443
1761380398462058000,2.19305810546875,0.013141634874045849,-0.008145011961460114,0.0018453042721375823
1761380398472141000,2.20314111328125,0.014135526493191719,-0.009809487499296665,0.00145222176797688
1761380398482223000,2.21322314453125,0.01510145515203476,-0.004703408572822809,0.005339371506124735
1761380398492305200,2.22330517578125,0.013758156448602676,-0.00794207863509655,0.0021318604703992605
1761380398502388000,2.233387939453125,0.013056679628789425,-0.008892561309039593,0.0032205607276409864
1761380398512470000,2.243469970703125,0.0137227363884449,-0.01079565566033125,0.0018162758788093925
1761380398522552000,2.253552001953125,0.013609285466372967,-0.0062760054133832455,0.0026969832833856344
1761380398532635000,2.263634765625,0.010967163369059563,-0.008961270563304424,0.0006450176006183028
1761380398542717000,2.273717041015625,0.014012754894793034,-0.008591890335083008,0.0034048515371978283
1761380398552799000,2.283799072265625,0.013308880850672722,-0.010758105665445328,0.0018074874533340335
1761380398562882000,2.293882080078125,0.01353524997830391,-0.006470149848610163,0.0028666264843195677
1761380398572963800,2.3039638671875,0.013531787320971489,-0.01062228437513113,0.003973436541855335
1761380398583046000,2.3140458984375,0.01453153882175684,-0.009631588123738766,0.004219246096909046
1761380398593129000,2.32412890625,0.017903633415699005,-0.007085073739290237,0.0034384073223918676
1761380398603211000,2.3342109375,0.013340040110051632,-0.008687498047947884,0.004426972474902868
1761380398613293000,2.34429296875,0.011829229071736336,-0.011884888634085655,0.0022301310673356056
1761380398623376100,2.354376220703125,0.01432461105287075,-0.00700810831040144,0.005593437235802412
1761380398633458000,2.3644580078125,0.012467055581510067,-0.009410279802978039,0.003166232258081436
1761380398643540000,2.3745400390625,0.010354902595281601,-0.00814980547875166,-0.00010253170330543071
1761380398653622000,2.3846220703125,0.01369503978639841,-0.011375959031283855,0.002276470186188817
1761380398663705000,2.394705078125,0.012177570722997189,-0.007764712441712618,0.0015992282424122095
1761380398673787100,2.404787109375,0.011502991430461407,-0.011995410546660423,0.00401737866923213
1761380398683869200,2.414869140625,0.012144546955823898,-0.009701362811028957,0.0018900453578680754
1761380398693952000,2.424951904296875,0.014211426489055157,-0.008463526144623756,0.003120425855740905
1761380398704034000,2.435033935546875,0.01410756353288889,-0.007386011071503162,0.0015363775892183185
1761380398714116000,2.4451162109375,0.014331800863146782,-0.010981811210513115,0.0013454289874061942
1761380398724199200,2.45519921875,0.01528840884566307,-0.008449943736195564,0.0014732606941834092
1761380398734281000,2.465281005859375,0.013398895971477032,-0.007539941463619471,0.0041550640016794205
1761380398744363000,2.475363037109375,0.014032728038728237,-0.0108257494866848,0.0031936627347022295
1761380398754446000,2.485446044921875,0.014202105812728405,-0.009045693092048168,0.0034618431236594915
1761380398764528000,2.495528076171875,0.013709420338273048,-0.007010238710790873,0.0033100428991019726
1761380398774610000,2.50560986328125,0.015109976753592491,-0.006593454163521528,0.0036962011363357306
1761380398784693000,2.51569287109375,0.011945609003305435,-0.011055313982069492,0.002400839701294899
1761380398794775000,2.525775146484375,0.013915549032390118,-0.009512810967862606,0.0003779025573749095
1761380398804857000,2.535857177734375,0.012355202808976173,-0.008836900815367699,0.005210208240896463
1761380398814939100,2.545939208984375,0.013508884236216545,-0.008168447762727737,0.003710848744958639
1761380398825022000,2.55602197265625,0.01444125734269619,-0.010092315264046192,0.003462908323854208
1761380398835104000,2.56610400390625,0.014483335427939892,-0.006139651406556368,0.0015941682504490018
1761380398845186000,2.57618603515625,0.013421799056231976,-0.008810269646346569,0.0024109596852213144
1761380398855268900,2.586268798828125,0.013102219440042973,-0.009914682246744633,0.0013883059145882726
1761380398865351000,2.596350830078125,0.01252005249261856,-0.0075577846728265285,0.002749447477981448
1761380398875433000,2.606432861328125,0.012603143230080605,-0.007192398887127638,0.002127865795046091
1761380398885516000,2.61651611328125,0.012431102804839611,-0.011033209972083569,0.0008532768115401268
1761380398895597800,2.626597900390625,0.01392566878348589,-0.0073135728016495705,0.001568069215863943
1761380398905680000,2.636679931640625,0.013614611700177193,-0.008477373979985714,0.0046690539456903934
1761380398915763000,2.646762939453125,0.012370649725198746,-0.005863215308636427,0.001109739183448255
1761380398925845000,2.656844970703125,0.014493455179035664,-0.01239381916821003,0.0004966795677319169
1761380398935927000,2.666927001953125,0.01323777437210083,-0.007619570009410381,0.003996872343122959
1761380398946010000,2.677010009765625,0.01136743649840355,-0.007095726206898689,0.0037976677995175123
1761380398956092200,2.687092041015625,0.012799152173101902,-0.00857351440936327,0.0030000510159879923
1761380398966174500,2.697174560546875,0.012958941981196404,-0.009837450459599495,0.002779541304334998
1761380398976257300,2.70725732421875,0.01022680476307869,-0.0016735304379835725,0.003424292430281639
1761380398986339300,2.71733935546875,0.013135775923728943,-0.007474694401025772,0.0026823359075933695
1761380398996421400,2.72742138671875,0.013172793202102184,-0.01206731516867876,0.0028583707753568888
1761380399006504200,2.737504150390625,0.014034592546522617,-0.008304002694785595,0.0014990933705121279
1761380399016586200,2.747586181640625,0.012691027484834194,-0.0073567163199186325,0.0020514330826699734
1761380399026668300,2.757668212890625,0.011296330019831657,-0.009544769302010536,0.0026072347536683083
1761380399036751600,2.767751708984375,0.011638013646006584,-0.007054180838167667,0.0028037759475409985
1761380399046833200,2.777833251953125,0.011570369824767113,-0.006365753710269928,0.003090332029387355
1761380399056915200,2.787915283203125,0.011663846671581268,-0.009446498937904835,0.004147074185311794
1761380399066997200,2.797997314453125,0.01407746970653534,-0.007983357645571232,0.0024953819811344147
1761380399077080600,2.80808056640625,0.014812768436968327,-0.008255799300968647,0.006291984114795923
1761380399087162400,2.818162353515625,0.012462262064218521,-0.007700530346482992,0.004313255660235882
1761380399097244400,2.828244384765625,0.013637514784932137,-0.010178068652749062,0.0000500674286740832
1761380399107327500,2.838327392578125,0.01179327629506588,-0.00987153872847557,0.0038013961166143417
1761380399117409500,2.848409423828125,0.012647085823118687,-0.007188937161117792,0.0031992553267627954
1761380399127491600,2.85849169921875,0.013345899060368538,-0.009093630127608776,-0.0002692455891519785
1761380399137574400,2.868574462890625,0.011697668582201004,-0.010515225119888783,0.0013933659065514803
1761380399147656400,2.878656494140625,0.012914466671645641,-0.007515972945839167,0.003306048223748803
1761380399157738500,2.888738525390625,0.015261776745319366,-0.008111190050840378,0.0023816649336367846
1761380399167821300,2.8988212890625,0.016446085646748543,-0.006107427179813385,0.0028250813484191895
1761380399177903400,2.9089033203125,0.01302472222596407,-0.012043879367411137,0.00304638990201056
1761380399187985400,2.9189853515625,0.012588229961693287,-0.008647283539175987,0.006623814348131418
1761380399198068500,2.929068359375,0.012782108038663864,-0.009554356336593628,0.0017150756902992725
1761380399208150300,2.939150390625,0.01363245490938425,-0.007908789440989494,0.0024205471854656935
1761380399218232300,2.949232421875,0.012563196010887623,-0.0062363240867853165,-0.00014993596414569765
1761380399228315400,2.9593154296875,0.01392779964953661,-0.008697085082530975,0.0029206888284534216
1761380399238397400,2.9693974609375,0.014418354257941246,-0.013131780549883842,0.002323341788724065
1761380399248479500,2.9794794921875,0.012744024395942688,-0.007376689929515123,0.0006761765689589083
1761380399258561300,2.989561279296875,0.015782425180077553,-0.006855242885649204,0.00447011599317193
1761380399268644400,2.999644287109375,0.01613369584083557,-0.00646642129868269,0.0005632585380226374
1761380399278726400,3.009726318359375,0.01630786620080471,-0.011594071984291077,0.0032746228389441967
1761380399288808400,3.019808349609375,0.013615144416689873,-0.007379353046417236,0.003573163179680705
1761380399298891300,3.029891357421875,0.015058311633765697,-0.007700530346482992,0.0028543761000037193
1761380399308973300,3.039973388671875,0.01296586636453867,-0.007281348574906588,0.0013648699969053268
1761380399319055400,3.050055419921875,0.012290221638977528,-0.006761233322322369,0.001704689348116517
1761380399329138200,3.06013818359375,0.015356319025158882,-0.005884520709514618,-0.0013520868960767984
1761380399339220200,3.07022021484375,0.012968262657523155,-0.011026285588741302,0.0009448895580135286
1761380399349302300,3.08030224609375,0.01546524278819561,-0.010995925404131413,0.0003528688393998891
1761380399359385600,3.090385498046875,0.012259063310921192,-0.006237389519810677,0.004463724326342344
1761380399369467400,3.10046728515625,0.012513394467532635,-0.006724747829139233,0.0057404437102377415
1761380399379549400,3.110549560546875,0.01312352530658245,-0.010936005041003227,0.003204315435141325
1761380399389632500,3.120632568359375,0.013730992563068867,-0.008934106677770615,0.005146558862179518
1761380399399714600,3.130714599609375,0.013540842570364475,-0.009704026393592358,0.006715427152812481
1761380399409796400,3.14079638671875,0.01236132811754942,-0.008163387887179852,-0.000056459015468135476
1761380399419879400,3.15087939453125,0.011479821987450123,-0.009023056365549564,0.004347078036516905
1761380399429961500,3.16096142578125,0.015132879838347435,-0.008670985698699951,0.0010048106778413057
1761380399440043500,3.17104345703125,0.01420396938920021,-0.006910370197147131,-0.00019201391842216253
1761380399450126300,3.181126220703125,0.01546337828040123,-0.009617207571864128,0.0017422399250790477
1761380399460208400,3.19120849609375,0.012657471932470798,-0.009581787511706352,0.00034727618913166225
1761380399470290400,3.20129052734375,0.012724317610263824,-0.006170544307678938,0.004229632206261158
1761380399480373500,3.21137353515625,0.01188062783330679,-0.011094729416072369,0.003713778220117092
1761380399490455300,3.221455322265625,0.013743508607149124,-0.01038446370512247,0.0006697850185446441
1761380399500537300,3.231537353515625,0.015298794955015182,-0.006399576086550951,0.0016295883106067777
1761380399510620400,3.241620361328125,0.01251925341784954,-0.007689611054956913,0.0015036207623779774
1761380399520702500,3.251702392578125,0.013040434569120407,-0.01179087907075882,0.0029443909879773855
1761380399530784300,3.2617841796875,0.011286210268735886,-0.007964449934661388,-0.000013848437447450124
1761380399540866300,3.2718662109375,0.01441302802413702,-0.006733004003763199,0.004412857815623283
1761380399550949400,3.281949462890625,0.011889682151377201,-0.01056103128939867,0.0013986921403557062
1761380399561031400,3.292031494140625,0.014223677106201649,-0.010422280989587307,0.0008535431115888059
1761380399571113500,3.302113525390625,0.01276000402867794,-0.007836617529392242,0.0017779263434931636
1761380399581196300,3.3121962890625,0.013265471905469894,-0.008382033556699753,0.00430100504308939
1761380399591278300,3.3222783203125,0.013255617581307888,-0.01110511552542448,-0.0013201289111748338
1761380399601360400,3.3323603515625,0.014750716276466846,-0.007731422781944275,0.0021792647894471884
1761380399611443200,3.342443115234375,0.013890249654650688,-0.007468835450708866,0.003409645054489374
1761380399621525200,3.352525146484375,0.012561331503093243,-0.008902148343622684,0.0023635553661733866
1761380399631607300,3.362607177734375,0.014406103640794754,-0.010333864018321037,0.0019318570848554373
1761380399641690400,3.3726904296875,0.014185327105224133,-0.00603498937562108,0.0038693067617714405
1761380399651772400,3.3827724609375,0.012002600356936455,-0.007851798087358475,0.0015544871566817164
1761380399661854500,3.3928544921875,0.013687849044799805,-0.01004943810403347,0.0023491743486374617
1761380399671937500,3.4029375,0.015476427972316742,-0.009981261566281319,0.0033997914288192987
1761380399682019600,3.41301953125,0.01275600865483284,-0.005368133541196585,0.0034794199746102095
1761380399692101400,3.423101318359375,0.01344709936529398,-0.009648099541664124,0.003478088416159153
1761380399702184400,3.433184326171875,0.01142789050936699,-0.011273693293333054,0.002282062778249383
1761380399712266500,3.4432666015625,0.013030581176280975,-0.007102384231984615,0.0006479470757767558
1761380399722348500,3.4533486328125,0.012831109575927258,-0.006103432737290859,0.003742540255188942
1761380399732431400,3.463431396484375,0.011866512708365917,-0.011802596971392632,0.0020301276817917824
1761380399742513400,3.473513427734375,0.013704360462725163,-0.009636914357542992,0.006372678093612194
1761380399752595500,3.483595458984375,0.012586898170411587,-0.007246461231261492,0.0021646174136549234
1761380399762677500,3.493677490234375,0.011264905333518982,-0.008206796832382679,0.005200887098908424
1761380399772760300,3.50376025390625,0.014348845928907394,-0.010603642091155052,-0.0002258360618725419
1761380399782842400,3.51384228515625,0.016274843364953995,-0.005059739574790001,0.0027515781112015247
1761380399792924400,3.52392431640625,0.011867578141391277,-0.00657561095431447,0.004680505488067865
1761380399803007500,3.534007568359375,0.011442005634307861,-0.01050190906971693,0.0006157228490337729
1761380399813089300,3.54408935546875,0.01287771575152874,-0.007212639320641756,0.0008127967594191432
1761380399823171300,3.55417138671875,0.01266839075833559,-0.007142597809433937,0.0023254721891134977
1761380399833254400,3.56425439453125,0.012927250005304813,-0.009214537218213081,0.0009992180857807398
1761380399843336400,3.57433642578125,0.015045794658362865,-0.011383947916328907,0.001163002452813089
1761380399853418200,3.584418212890625,0.011260909959673882,-0.007521831896156073,0.0037982002831995487
1761380399863501300,3.594501220703125,0.012404471635818481,-0.008529838174581528,0.002302302746102214
1761380399873583400,3.604583251953125,0.012948023155331612,-0.009260609745979309,0.0016026903176680207
1761380399883665400,3.61466552734375,0.016524381935596466,-0.0073383403941988945,-0.00024714134633541107
1761380399893748200,3.624748291015625,0.013709420338273048,-0.005531651899218559,0.0054482948035001755
1761380399903830300,3.634830322265625,0.011866779066622257,-0.0094507597386837,0.002923884429037571
1761380399913912300,3.644912353515625,0.012458001263439655,-0.008653941564261913,0.0031188279390335083
1761380399923995400,3.654995361328125,0.0142343295738101,-0.00785685796290636,0.002916427794843912
1761380399934077400,3.665077392578125,0.011855327524244785,-0.009639311581850052,0.004624845460057259
1761380399944159500,3.675159423828125,0.01552596315741539,-0.008420648984611034,0.0016197345685213804
1761380399954242600,3.68524267578125,0.012222311459481716,-0.009307481348514557,0.0037433390971273184
1761380399964324600,3.69532470703125,0.01299489475786686,-0.008858739398419857,0.0005193164106458426
1761380399974406700,3.70540673828125,0.014389592222869396,-0.007529555354267359,0.00007323692989302799
1761380399984489700,3.71548974609375,0.013422598131000996,-0.010105098597705364,0.0027651600539684296
1761380399994571800,3.72557177734375,0.014506238512694836,-0.007173490710556507,0.0029284118209034204
1761380400004653600,3.735653564453125,0.01270034909248352,-0.009348494000732899,0.0015550197567790747
1761380400014735600,3.745735595703125,0.013492639176547527,-0.008234494365751743,0.0030248183757066727
1761380400024818700,3.755818603515625,0.013773336075246334,-0.00968325324356556,0.003518834710121155
1761380400034900700,3.765900634765625,0.013171462342143059,-0.006205698009580374,0.0018482337472960353
1761380400044983600,3.775983642578125,0.015365640632808208,-0.00875194650143385,-0.000040480048483004794
1761380400055065600,3.786065673828125,0.01128221582621336,-0.009248092770576477,0.0019648801535367966
1761380400065147600,3.796147705078125,0.013460947200655937,-0.006821953225880861,0.005024319514632225
1761380400075229700,3.806229736328125,0.01673796772956848,-0.009388175792992115,0.002810700098052621
1761380400085312500,3.8163125,0.01465617399662733,-0.007257646415382624,0.0034053840208798647
1761380400095394600,3.82639453125,0.01261060032993555,-0.007166299968957901,0.0025827335193753242
1761380400105476600,3.8364765625,0.012868127785623074,-0.006864830385893583,0.0027981833554804325
1761380400115559700,3.8465595703125,0.010918959975242615,-0.008028099313378334,0.005179315805435181
1761380400125641500,3.856641357421875,0.013939517550170422,-0.010969560593366623,0.00561154680326581
1761380400135723500,3.8667236328125,0.013879329897463322,-0.007376423571258783,0.0027891285717487335
1761380400145806600,3.876806640625,0.014465758576989174,-0.009047556668519974,0.002436526119709015
1761380400155888600,3.886888671875,0.012223909609019756,-0.009873935952782631,0.0004548678989522159
1761380400165970700,3.896970703125,0.01164280716329813,-0.008671252056956291,0.0019182749092578888
1761380400176053500,3.907053466796875,0.013510748744010925,-0.00782703049480915,0.005933789070695639
1761380400186135600,3.917135498046875,0.012567989528179169,-0.007641408126801252,-0.0003249056462664157
1761380400196217600,3.927217529296875,0.014431137591600418,-0.00965449120849371,0.0018559569725766778
1761380400206300700,3.93730078125,0.015205850824713707,-0.007300257217139006,0.0016498282784596086
1761380400216382700,3.9473828125,0.011740013025701046,-0.008610266260802746,0.0036645096261054277
1761380400226464800,3.95746484375,0.01272991020232439,-0.008785502053797245,0.0019294602097943425
1761380400236547600,3.967547607421875,0.012252671644091606,-0.011639878153800964,0.005921804811805487
1761380400246629600,3.977629638671875,0.012863600626587868,-0.006314088590443134,0.0043737092055380344
1761380400256711700,3.987711669921875,0.011989551596343517,-0.00812104344367981,0.0035534559283405542
1761380400266794800,3.997794677734375,0.012118981219828129,-0.009123723953962326,0.00018375810759607702
1761380400276876800,4.007876708984375,0.012663863599300385,-0.01128194946795702,0.0013960290234535933
1761380400286958600,4.01795849609375,0.013742444105446339,-0.008044344373047352,0.006091448478400707
1761380400297041700,4.028041748046875,0.012410863302648067,-0.011063303798437119,0.0031465247739106417
1761380400307123700,4.038123779296875,0.013102485798299313,-0.008753277361392975,0.0021435783710330725
1761380400317205800,4.048205810546875,0.013974937610328197,-0.009756224229931831,0.004814994987100363
1761380400327287600,4.05828759765625,0.015323562547564507,-0.008657936938107014,0.0049012815579771996
1761380400337370600,4.06837060546875,0.013795441016554832,-0.010419617407023907,0.0014066817238926888
1761380400347452700,4.07845263671875,0.013586915098130703,-0.004700745455920696,0.002110022585839033
1761380400357534700,4.08853466796875,0.01489292923361063,-0.009343700483441353,0.004405667539685965
1761380400367617500,4.098617431640625,0.01393019687384367,-0.010726680047810078,0.002189118415117264
1761380400377699600,4.108699462890625,0.012977317906916142,-0.008649148046970367,0.00339153571985662
1761380400387781600,4.11878173828125,0.014347514137625694,-0.0049460227601230145,0.005152684170752764
1761380400397864700,4.12886474609375,0.012763998471200466,-0.009982060641050339,0.0016596820205450058
1761380400407946500,4.138946533203125,0.012503008358180523,-0.008873386308550835,0.0005105279851704836
1761380400418028500,4.149028564453125,0.015171229839324951,-0.008625179529190063,0.0028426581993699074
1761380400428111600,4.159111572265625,0.01410703081637621,-0.007543670013546944,0.002441852353513241
1761380400438193700,4.169193603515625,0.012621785514056683,-0.01080045010894537,0.004077565856277943
1761380400448275500,4.179275390625,0.013625796884298325,-0.00863343570381403,0.000985103310085833
1761380400458358500,4.189358642578125,0.01477681566029787,-0.00762862479314208,0.0026104305870831013
1761380400468440600,4.199440673828125,0.01432541012763977,-0.008221711032092571,0.0036597158759832382
1761380400478522600,4.209522705078125,0.012940299697220325,-0.010906443931162357,0.0030181603506207466
1761380400488605700,4.219605712890625,0.01065344363451004,-0.007999603636562824,0.004613127559423447
1761380400498687700,4.229687744140625,0.010764230974018574,-0.008902414701879025,0.0023401195649057627
1761380400508769800,4.239769775390625,0.011505122296512127,-0.008582036942243576,0.0012500877492129803
1761380400518852600,4.2498525390625,0.011742410250008106,-0.009363940916955471,0.0010982876410707831
1761380400528934700,4.2599345703125,0.013653228059411049,-0.005567071959376335,0.0021947110071778297
1761380400539016700,4.2700166015625,0.013800234533846378,-0.008641424588859081,0.002513757674023509
1761380400549099800,4.280099853515625,0.015592807903885841,-0.010567689314484596,0.004099670331925154
1761380400559181600,4.290181640625,0.015261510387063026,-0.0059969061985611916,0.003299922915175557
1761380400569263600,4.300263671875,0.01242098305374384,-0.008732771500945091,0.004549211822450161
1761380400579346700,4.3103466796875,0.014394652098417282,-0.008820123039186,0.0010873686987906694
1761380400589428700,4.3204287109375,0.013078783638775349,-0.008007059805095196,0.0001608549355296418
1761380400599510800,4.3305107421875,0.014060159213840961,-0.007832356728613377,0.0035891421139240265
1761380400609593600,4.340593505859375,0.011802064254879951,-0.009557019919157028,-0.0002069276088150218
1761380400619675600,4.350675537109375,0.014985873363912106,-0.01064891554415226,0.001794171635992825
1761380400629757700,4.3607578125,0.012806609272956848,-0.008710401132702827,0.003096457337960601
1761380400639840500,4.370840576171875,0.01275867223739624,-0.008588960394263268,0.004745220299810171
1761380400649922600,4.380922607421875,0.01315122190862894,-0.011857458390295506,0.0030956584960222244
1761380400660004600,4.391004638671875,0.01429611537605524,-0.007033142261207104,0.002046639332547784
1761380400670086700,4.401086669921875,0.01375043299049139,-0.007850999012589455,0.0032871398143470287
1761380400680169500,4.41116943359375,0.012981845065951347,-0.008169513195753098,0.004355067387223244
1761380400690251500,4.42125146484375,0.014131531119346619,-0.009134376421570778,0.000660463934764266
1761380400700333600,4.43133349609375,0.013890781439840794,-0.010823086835443974,0.003573163179680705
1761380400710416600,4.441416748046875,0.011362642981112003,-0.006306099239736795,0.0026439863722771406
1761380400720498700,4.451498779296875,0.013040700927376747,-0.00717508839443326,0.0009227853151969612
1761380400730580500,4.46158056640625,0.014428207650780678,-0.012140286155045033,0.0018245317041873932
1761380400740663600,4.47166357421875,0.014817561954259872,-0.005615541245788336,0.0028003137558698654
1761380400750745600,4.48174560546875,0.012024705298244953,-0.009795106016099453,0.0033278861083090305
1761380400760827600,4.49182763671875,0.014693192206323147,-0.007608384825289249,-0.00022077605535741895
1761380400770910700,4.50191064453125,0.014450844377279282,-0.009222260676324368,0.0044381581246852875
1761380400780992800,4.51199267578125,0.015320366248488426,-0.007764978799968958,0.0023393207229673862
1761380400791074800,4.52207470703125,0.01607137732207775,-0.01197809912264347,0.0006114617572166026
1761380400801157600,4.53215771484375,0.014968030154705048,-0.007750597782433033,0.000008255799002654385
1761380400811239700,4.54223974609375,0.013035907410085201,-0.008530370891094208,0.0010218549286946654
1761380400821321700,4.55232177734375,0.014639396220445633,-0.007781756576150656,0.00196434766985476
1761380400831404800,4.56240478515625,0.013077985495328903,-0.009157279506325722,0.003257312346249819
1761380400841486600,4.572486572265625,0.015035142190754414,-0.006952980998903513,0.0013930995482951403
1761380400851568600,4.582568603515625,0.012497682124376297,-0.007133010774850845,0.005428853910416365
1761380400861651700,4.592651611328125,0.01236425805836916,-0.010217484086751938,-0.0006657902849838138
1761380400871733800,4.602733642578125,0.013881727121770382,-0.005726861767470837,0.0006146575906313956
1761380400881815600,4.612815673828125,0.014064686372876167,-0.008764995262026787,0.0011867046123370528
1761380400891898600,4.622898681640625,0.013186375610530376,-0.006058957893401384,0.0028698223177343607
1761380400901980700,4.632980712890625,0.012387161143124104,-0.009077916853129864,0.000004793690095539205
1761380400912062700,4.643062744140625,0.012406336143612862,-0.008024903014302254,0.0016141419764608145
1761380400922145500,4.6531455078125,0.014189056120812893,-0.007509315386414528,0.004265318624675274
1761380400932227600,4.6632275390625,0.011928831227123737,-0.007257113698869944,0.00048709215479902923
1761380400942309600,4.6733095703125,0.013471334241330624,-0.008607336319983006,0.0028426581993699074
1761380400952392700,4.683392822265625,0.013725931756198406,-0.007766310125589371,0.002341983839869499
1761380400962474500,4.693474609375,0.012938701547682285,-0.010465689934790134,0.0018154769204556942
1761380400972556300,4.703556396484375,0.014160826802253723,-0.008176969364285469,0.005031776614487171
1761380400982639400,4.713639404296875,0.012558136135339737,-0.010628143325448036,0.0016399745363742113
1761380400992721400,4.723721435546875,0.015350193716585636,-0.005813147872686386,0.0023188143968582153
1761380401002803200,4.73380322265625,0.01236265990883112,-0.01050297450274229,0.0033012544736266136
1761380401012885200,4.74388525390625,0.013304087333381176,-0.008325840346515179,0.0007898935582488775
1761380401022968300,4.75396826171875,0.013876134529709816,-0.010684335604310036,0.0001227717293659225
1761380401033050400,4.76405029296875,0.012343218550086021,-0.007378553971648216,0.0029494508635252714
1761380401043132400,4.77413232421875,0.015501994639635086,-0.008350075222551823,0.002918025478720665
1761380401053215500,4.784215576171875,0.01278556976467371,-0.008567655459046364,0.0014405038673430681
1761380401063297500,4.794297607421875,0.01347319781780243,-0.0070403325371444225,0.004129497334361076
1761380401073379300,4.80437939453125,0.012353339232504368,-0.009912285953760147,0.0012934972764924169
1761380401083462400,4.81446240234375,0.013490241952240467,-0.011065701022744179,0.002959304489195347
1761380401093544400,4.82454443359375,0.013618607074022293,-0.008474444970488548,-0.00009161273919744417
1761380401103626500,4.83462646484375,0.013686517253518105,-0.007816378027200699,0.0005669869715347886
1761380401113709600,4.84470947265625,0.015169631689786911,-0.009133310988545418,0.0029915287159383297
1761380401123791400,4.854791259765625,0.014843394979834557,-0.011480354703962803,0.002552373567596078
1761380401133873400,4.864873291015625,0.015086540952324867,-0.0068115671165287495,0.00407463638111949
1761380401143956500,4.87495654296875,0.014903315342962742,-0.007589210290461779,0.00290417717769742
1761380401154038500,4.88503857421875,0.012555738911032677,-0.008493886329233646,0.0014913701452314854
1761380401164120300,4.895120361328125,0.012282232753932476,-0.010306433774530888,0.0020125508308410645
1761380401174203400,4.905203369140625,0.01187876332551241,-0.007873103022575378,0.002156894188374281
1761380401184285400,4.915285400390625,0.013165603391826153,-0.009229185059666634,0.0009448895580135286
1761380401194367500,4.925367431640625,0.012460663914680481,-0.009272327646613121,0.005346295889467001
1761380401204450300,4.9354501953125,0.01302259135991335,-0.00815220270305872,0.0015195996966212988
1761380401214532400,4.945532470703125,0.011839082464575768,-0.007812116760760546,0.00008388957212446257
1761380401224614400,4.955614501953125,0.011998339556157589,-0.00956820510327816,0.004437625408172607
1761380401234697200,4.965697265625,0.016411198303103447,-0.005145759787410498,0.004187021870166063
1761380401244779300,4.975779296875,0.014368286356329918,-0.006591856479644775,0.0041057956404984
1761380401254861300,4.985861328125,0.013139770366251469,-0.010092315264046192,0.0038570561446249485
1761380401264944400,4.9959443359375,0.012775982730090618,-0.009671003557741642,0.0007566040731035173
1761380401275026400,5.0060263671875,0.011925368569791317,-0.006945257540792227,0.00469621829688549
1761380401285108200,5.016108154296875,0.013613812625408173,-0.007877630181610584,0.003040797309949994
1761380401295191300,5.02619140625,0.01278903242200613,-0.009266468696296215,0.000693220819812268
1761380401305273300,5.0362734375,0.011711783707141876,-0.009815080091357231,0.00384453940205276
1761380401315355400,5.04635546875,0.012592757120728493,-0.006302903406322002,0.0016359798610210419
1761380401325438500,5.0564384765625,0.013192767277359962,-0.008799350820481777,0.0004956142511218786
1761380401335520500,5.0665205078125,0.012428972870111465,-0.009326389990746975,0.002240517409518361
1761380401345602300,5.076602294921875,0.011964784003794193,-0.0060152821242809296,0.004463457968086004
1761380401355684400,5.086684326171875,0.015206916257739067,-0.007740477565675974,0.0044317664578557014
1761380401365767400,5.096767333984375,0.01275920495390892,-0.008973254822194576,0.0015094797126948833
1761380401375849500,5.106849365234375,0.014227138832211494,-0.009798035956919193,0.0008452873444184661
1761380401385931500,5.116931640625,0.013265738263726234,-0.00649704784154892,0.0021555626299232244
1761380401396014300,5.127014404296875,0.013135509565472603,-0.008981510996818542,0.0016258598770946264
1761380401406096400,5.137096435546875,0.012659869156777859,-0.009309345856308937,0.0026162895374000072
1761380401416178400,5.147178466796875,0.01329902745783329,-0.008115184493362904,0.0007888282998465002
1761380401426261500,5.157261474609375,0.012369850650429726,-0.0035981968976557255,0.0029467877466231585
1761380401436343600,5.167343505859375,0.012676646932959557,-0.008019310422241688,0.0014927018200978637
1761380401446425300,5.17742529296875,0.015219433233141899,-0.008716526441276073,0.002413356676697731
1761380401456508400,5.18750830078125,0.013396232388913631,-0.0076270271092653275,0.002266616327688098
1761380401466590500,5.197590576171875,0.014901984483003616,-0.00872211903333664,0.003069825703278184
1761380401476672500,5.207672607421875,0.012913135811686516,-0.00987153872847557,0.00344559783115983
1761380401486755300,5.21775537109375,0.011832424439489841,-0.008714129216969013,0.0052118063904345036
1761380401496837400,5.22783740234375,0.012438826262950897,-0.00911679957062006,-0.0002490055630914867
1761380401506919400,5.23791943359375,0.01022600568830967,-0.008348210714757442,0.0014950985787436366
1761380401517002200,5.248002197265625,0.011543205007910728,-0.010425742715597153,0.00236328924074769
1761380401527084300,5.258084228515625,0.01423619408160448,-0.006817159708589315,0.004379302263259888
1761380401537166300,5.268166259765625,0.014039119705557823,-0.007494934368878603,0.002912965603172779
1761380401547249400,5.27824951171875,0.014688665047287941,-0.008788165636360645,0.0028826056513935328
1761380401557331200,5.288331298828125,0.013676131144165993,-0.006902114488184452,0.001412806916050613
1761380401567413200,5.298413330078125,0.013846040703356266,-0.007499994244426489,0.000264718197286129
1761380401577496300,5.308496337890625,0.014435931108891964,-0.009749566204845905,0.0035116442013531923
1761380401587578400,5.318578369140625,0.01251312904059887,-0.007866178639233112,-0.000070307454734575
1761380401597660400,5.328660400390625,0.012348544783890247,-0.007162305526435375,0.0020839234348386526
1761380401607743500,5.338743408203125,0.0165568720549345,-0.008905344642698765,0.0049550775438547134
1761380401617825500,5.348825439453125,0.01329769566655159,-0.010453173890709877,0.0015334481140598655
1761380401627907300,5.3589072265625,0.013382118195295334,-0.0070070428773760796,0.0046267095021903515
1761380401637989400,5.3689892578125,0.013396498747169971,-0.00881186779588461,0.0010644654976204038
1761380401648072400,5.379072509765625,0.015518772415816784,-0.009335977025330067,-0.00003302319601061754
1761380401658154500,5.389154541015625,0.013825800269842148,-0.010819624178111553,0.0006082659820094705
1761380401668236500,5.399236572265625,0.01194081548601389,-0.007439806591719389,0.00424188282340765
1761380401678319400,5.4093193359375,0.011154916137456894,-0.011098990216851234,0.005008873529732227
1761380401688401400,5.4194013671875,0.013427924364805222,-0.00962679460644722,0.0007709851488471031
1761380401698483500,5.4294833984375,0.012190086767077446,-0.007530886679887772,0.0005392901366576552
1761380401708566500,5.43956640625,0.013066799379885197,-0.008989766240119934,0.001657018787227571
1761380401718648300,5.4496484375,0.013689979910850525,-0.008465656079351902,0.0021528995130211115
1761380401728730400,5.45973046875,0.01420423574745655,-0.008904811926186085,0.0033358754590153694
1761380401738813400,5.4698134765625,0.013596502132713795,-0.008194279856979847,0.004307929426431656
1761380401748895500,5.4798955078125,0.015241537243127823,-0.007486944552510977,0.003064765827730298
1761380401758977500,5.4899775390625,0.014147777110338211,-0.009861951693892479,0.0037028591614216566
1761380401769060400,5.500060302734375,0.012966398149728775,-0.010583934374153614,0.002776079112663865
1761380401779142400,5.510142333984375,0.0135054225102067,-0.007782822009176016,0.0007398261222988367
1761380401789224400,5.520224365234375,0.013689713552594185,-0.012014850974082947,0.0034969968255609274
1761380401799307300,5.530307373046875,0.013846307061612606,-0.008577242493629456,0.0022916500456631184
1761380401809389300,5.540389404296875,0.012467854656279087,-0.009447298012673855,0.002906307578086853
1761380401819471400,5.550471435546875,0.011724567040801048,-0.00839987676590681,0.0037201696541160345
1761380401829554400,5.560554443359375,0.012782374396920204,-0.00887791346758604,0.002703374717384577
1761380401839636200,5.57063623046875,0.015422898344695568,-0.009124522097408772,0.0034786208998411894
1761380401849718300,5.58071826171875,0.012381568551063538,-0.007516772020608187,0.0018695390317589045
1761380401859801300,5.59080126953125,0.012353339232504368,-0.006690659560263157,0.004297542851418257
1761380401869883400,5.60088330078125,0.01447055209428072,-0.009881126694381237,0.000984836951829493
1761380401879965200,5.610965087890625,0.012621785514056683,-0.005886651109904051,0.003457049373537302
1761380401890048500,5.621048583984375,0.014772022143006325,-0.007662447169423103,0.004244279582053423
1761380401900130600,5.631130615234375,0.013555489480495453,-0.009043295867741108,0.005100752227008343
1761380401910212400,5.64121240234375,0.014503308571875095,-0.007922904565930367,0.0018245317041873932
1761380401920295400,5.65129541015625,0.014227138832211494,-0.008955145254731178,0.002772883279249072
1761380401930377500,5.66137744140625,0.012407667003571987,-0.006091714836657047,0.0004982774262316525
1761380401940459500,5.67145947265625,0.014164821244776249,-0.0101415840908885,0.0003904194163624197
1761380401950542300,5.681542236328125,0.015586948953568935,-0.009130913764238358,0.002834934974089265
1761380401960624400,5.691624267578125,0.013247095979750156,-0.007185474969446659,0.002597647253423929
1761380401970710300,5.701710205078125,0.015502260997891426,-0.008165517821907997,0.00216488353908062
1761380401980792300,5.711792236328125,0.015797073021531105,-0.006433397997170687,0.004924451000988483
1761380401990875400,5.72187548828125,0.014427142217755318,-0.009761017747223377,0.004284227266907692
1761380402000957400,5.73195751953125,0.013887319713830948,-0.006459231022745371,0.003442934714257717
1761380402011039500,5.74203955078125,0.015090003609657288,-0.009462211281061172,0.001330249011516571
1761380402021122600,5.75212255859375,0.015680959448218346,-0.007642739452421665,0.00042051312630064785
1761380402031204400,5.762204345703125,0.014357900246977806,-0.008897354826331139,0.0008932242053560913
1761380402041286400,5.772286376953125,0.012950419448316097,-0.0088789789006114,0.002935868687927723
1761380402051369500,5.782369384765625,0.012407667003571987,-0.007207046262919903,0.002910568844527006
1761380402061451500,5.792451416015625,0.015225025825202465,-0.009006544016301632,0.0014908375451341271
1761380402071533600,5.802533447265625,0.013814082369208336,-0.009033176116645336,0.00321843009442091
1761380402081616400,5.812616455078125,0.013247095979750156,-0.009034774266183376,-0.0014969628537073731
1761380402091698400,5.822698486328125,0.013733388856053352,-0.006539125461131334,0.001094825565814972
1761380402101780500,5.832780517578125,0.01056262943893671,-0.009020126424729824,0.004606203176081181
1761380402111863300,5.84286328125,0.013306484557688236,-0.008589759469032288,0.0019795275293290615
1761380402121945300,5.8529453125,0.013294766657054424,-0.012255334295332432,-0.0016373114194720984
1761380402132027400,5.86302734375,0.011935489252209663,-0.007050186395645142,0.0046149916015565395
1761380402142110500,5.8731103515625,0.012016981840133667,-0.009938917122781277,0.00290391081944108
1761380402152192300,5.883192138671875,0.01164573710411787,-0.005821403581649065,0.0028330706991255283
1761380402162274300,5.8932744140625,0.012956811115145683,-0.011632687412202358,0.003168895374983549
1761380402172357400,5.903357421875,0.014463094994425774,-0.009394034743309021,0.001790975802578032
1761380402182439400,5.913439453125,0.014244182966649532,-0.007221694104373455,0.003111637430265546
1761380402192521200,5.923521240234375,0.01309236604720354,-0.007933290675282478,0.0023062974214553833
1761380402202604300,5.933604248046875,0.012398346327245235,-0.008443019352853298,-0.0016764599131420255
1761380402212686300,5.943686279296875,0.015247129835188389,-0.007920240983366966,0.002645584288984537
1761380402222768400,5.953768310546875,0.011833489872515202,-0.010694189928472042,0.002484196564182639
1761380402232851500,5.9638515625,0.013993313536047935,-0.010270747356116772,0.0025619608350098133
1761380402242933200,5.973933349609375,0.01221884973347187,-0.009072324261069298,-0.000019707391402334906
1761380402253015300,5.984015380859375,0.01236558984965086,-0.007715976797044277,0.0036618465092033148
1761380402263098400,5.994098388671875,0.01227717287838459,-0.007397462613880634,0.0016578177455812693
1761380402273180400,6.004180419921875,0.014428740367293358,-0.010847854427993298,-0.0006314354832284153
1761380402283262500,6.014262451171875,0.01142975501716137,-0.008608668111264706,0.0028551749419420958
1761380402293344500,6.024344482421875,0.014629010111093521,-0.008039018139243126,0.004181695636361837
1761380402303427600,6.034427490234375,0.011346397921442986,-0.007591607049107552,0.001663410454057157
1761380402313509400,6.04450927734375,0.012607404962182045,-0.007678159512579441,0.0031555795576423407
1761380402323591400,6.05459130859375,0.015515309758484364,-0.009295763447880745,0.004280232358723879
1761380402333674500,6.064674560546875,0.014399978332221508,-0.010297378525137901,0.0038658445701003075
1761380402343756500,6.074756591796875,0.013651629909873009,-0.009556753560900688,0.00038748994120396674
1761380402353838300,6.08483837890625,0.014779744669795036,-0.008801747113466263,0.00185063062235713
1761380402363921400,6.09492138671875,0.013795174658298492,-0.005789445713162422,0.0018756643403321505
1761380402374003500,6.10500341796875,0.012645754031836987,-0.01079805288463831,0.0012170645641162992
1761380402384085500,6.11508544921875,0.013671337626874447,-0.007231813855469227,0.0007025419035926461
1761380402394168300,6.125168212890625,0.012407667003571987,-0.010541590861976147,0.0025457157753407955
1761380402404250400,6.13525048828125,0.013676131144165993,-0.007021158002316952,0.0019172097090631723
1761380402414332400,6.14533251953125,0.01290541235357523,-0.007652859669178724,0.001942243310622871
1761380402424415200,6.155415283203125,0.013228986412286758,-0.00875034835189581,0.00449807895347476
1761380402434497300,6.165497314453125,0.011299259960651398,-0.007722900714725256,0.003090332029387355
1761380402444579300,6.175579345703125,0.014752580784261227,-0.007387608755379915,0.00196408131159842
1761380402454662400,6.185662353515625,0.012929647229611874,-0.009769806638360023,0.0013792511308565736
1761380402464744400,6.195744384765625,0.012470784597098827,-0.008766593411564827,0.003213636577129364
1761380402474826200,6.205826171875,0.014033260755240917,-0.005970540922135115,0.0037971350830048323
1761380402484909300,6.215909423828125,0.013744840398430824,-0.009371663443744183,0.001574194524437189
1761380402494991400,6.225991455078125,0.014027668163180351,-0.00878124125301838,0.0033875408116728067
1761380402505073400,6.236073486328125,0.012760535813868046,-0.007188670802861452,0.004534564446657896
1761380402515156500,6.246156494140625,0.013430055230855942,-0.00926407240331173,0.005437642335891724
1761380402525238300,6.25623828125,0.013185310177505016,-0.007949535734951496,0.004608600400388241
1761380402535320300,6.2663203125,0.011330152861773968,-0.006836600601673126,0.0019803266040980816
1761380402545402400,6.27640234375,0.014749385416507721,-0.0052442969754338264,0.0025563682429492474
1761380402555485400,6.2864853515625,0.014223144389688969,-0.009647566825151443,0.0033840788528323174
1761380402565567500,6.2965673828125,0.01383964903652668,-0.004688494838774204,0.0008133294177241623
1761380402575649500,6.3066494140625,0.011972240172326565,-0.007186007685959339,0.0008476841612718999
1761380402585732400,6.316732421875,0.013776532374322414,-0.006881608162075281,0.003343332326039672
1761380402595814400,6.326814453125,0.013876933604478836,-0.008791627362370491,0.0025041704066097736
1761380402605896400,6.336896484375,0.012946957722306252,-0.007216367404907942,0.0008492820779792964
1761380402615979500,6.3469794921875,0.013377591036260128,-0.010101635940372944,-0.0014176006661728024
1761380402626061300,6.357061279296875,0.015025555156171322,-0.007434480357915163,0.0043590618297457695
1761380402636143400,6.367143310546875,0.013064669445157051,-0.008490423671901226,0.0028913940768688917
1761380402646226400,6.377226318359375,0.014620221219956875,-0.008163920603692532,0.00440992834046483
1761380402656308500,6.38730859375,0.016345683485269547,-0.007850732654333115,0.0016506272368133068
1761380402666390500,6.397390625,0.014605307951569557,-0.007476025726646185,0.0016330503858625889
1761380402676473300,6.407473388671875,0.012280368246138096,-0.00818096473813057,0.0017502295086160302
1761380402686555400,6.417555419921875,0.011802064254879951,-0.007725031115114689,0.004485561978071928
1761380402696637400,6.427637451171875,0.013170130550861359,-0.0054301852360367775,0.0007843009079806507
1761380402706720300,6.43772021484375,0.01407773606479168,-0.009634518064558506,0.0026676885318011045
1761380402716802300,6.44780224609375,0.012162656523287296,-0.010570619255304337,0.002977414056658745
1761380402726884400,6.45788427734375,0.013266004621982574,-0.006640858482569456,0.004855209030210972
1761380402736967400,6.467967529296875,0.01254908088594675,-0.009531453251838684,0.0018964370246976614
1761380402747049200,6.47804931640625,0.010779676958918571,-0.010365023277699947,0.002865028567612171
1761380402757131300,6.48813134765625,0.013380520045757294,-0.006928213406354189,0.0031425300985574722
1761380402767214300,6.49821435546875,0.015362444333732128,-0.008979113772511482,0.002317482838407159
1761380402777296400,6.50829638671875,0.013948839157819748,-0.009908290579915047,0.001395230065099895
1761380402787378400,6.51837841796875,0.01293177716434002,-0.011352789588272572,0.003421629313379526
1761380402797461500,6.52846142578125,0.013456952758133411,0.008645419962704182,0.013889450579881668
1761380402807543300,6.538543212890625,0.013531787320971489,0.07302787154912949,0.054730888456106186
1761380402817625300,6.548625244140625,0.014824486337602139,0.08268395811319351,0.06051580607891083
1761380402827707400,6.558707275390625,0.013822871260344982,0.07270083576440811,0.0548989363014698
1761380402837790500,6.56879052734375,0.012856143526732922,0.05173590034246445,0.04086301103234291
1761380402847872500,6.57887255859375,0.01318397931754589,0.0036016590893268585,0.008809736929833889
1761380402857954600,6.58895458984375,0.015022625215351582,-0.12434592097997665,-0.07225368916988373
1761380402868037400,6.599037353515625,0.012245480902493,-0.27356523275375366,-0.1729765683412552
1761380402878119400,6.609119384765625,0.01414351537823677,-0.09889808297157288,-0.056900832802057266
1761380402888201500,6.619201416015625,0.014407435432076454,0.17743231356143951,0.1236814633011818
1761380402898284500,6.629284423828125,0.01384204626083374,0.06494224816560745,0.04855901375412941
