time,seconds_elapsed,z,y,x
1761378900758082000,0.12008203125,-0.5864718547105788,-0.9661462945908308,-0.1860354895696044
1761378900768138200,0.13013818359375,-0.6739817958593368,-0.8331354159832001,-0.1436515150874853
1761378900778193000,0.14019287109375,-0.6748829824827611,-0.7634288425505161,-0.049469238301645964
1761378900788249000,0.1502490234375,-0.6079160631470382,-0.833260503667593,0.033828053588140755
1761378900798305000,0.160304931640625,-0.4503862448327243,-0.8558136962592602,0.1058090016935952
1761378900808360200,0.170360107421875,-0.27224048559963704,-0.7487824775606393,0.06920563817322253
1761378900818415400,0.180415283203125,-0.17887188155055045,-0.6983692181408405,-0.007094634436070919
1761378900828471300,0.19047119140625,-0.2028513075530529,-0.684925214678049,-0.1229492110595107
1761378900838527500,0.200527587890625,-0.25770284168124197,-0.5682277574896812,-0.2599552967831492
1761378900848582100,0.21058203125,-0.329493381781131,-0.4385679428756237,-0.4493038564234972
1761378900858638300,0.220638427734375,-0.3682636958107352,-0.2894698528200388,-0.6751464557245374
1761378900868694300,0.2306943359375,-0.5418668431781232,-0.08319616960287093,-0.8214867715045809
1761378900878749400,0.24074951171875,-0.6966418098263442,0.024115035080909727,-0.8797785092145204
1761378900888805400,0.250805419921875,-0.7520511239677667,0.1865811407536268,-0.7850748571693896
1761378900898861300,0.260861328125,-0.7303733990363777,0.36928807042241096,-0.6617384003579616
1761378900908916500,0.27091650390625,-0.5764690777428448,0.5661912832260132,-0.5419169659301638
1761378900918972200,0.28097216796875,-0.4876660280436277,0.7111959664881229,-0.43656127922832966
1761378900929028400,0.2910283203125,-0.3535251224927604,0.8411421968281269,-0.3731804016858339
1761378900939084300,0.301084228515625,-0.24129414319396017,1.0433189661204814,-0.4563789093762636
1761378900949139500,0.311139404296875,-0.24679040252268314,1.131620349907875,-0.5870780039101838
1761378900959195400,0.3211953125,-0.27775822610780593,1.160128651511669,-0.6779989225462079
1761378900969251300,0.331251220703125,-0.31002354215756056,1.2226894448429346,-0.7359507607772946
1761378900979306500,0.341306396484375,-0.392962375998497,1.2005436640083789,-0.7367883806452155
1761378900989362200,0.351362060546875,-0.4254746525466442,1.1240776794433593,-0.6765420017361641
1761378900999418400,0.36141845703125,-0.40299394066929817,1.0515133784919977,-0.6319099560663104
1761378901009473300,0.371473388671875,-0.27250059784054753,0.950748234450817,-0.5809150973662733
1761378901019529200,0.381529296875,-0.2164396879225969,0.7796464023798704,-0.5487079412445426
1761378901029585400,0.39158544921875,-0.0722777390949428,0.5714502266675233,-0.5653817204087972
1761378901039640300,0.401640380859375,-0.05806216673776507,0.3460673538327217,-0.6273550692409277
1761378901049696500,0.411696533203125,-0.05905658460259437,0.15455577093958853,-0.6453226876080036
1761378901059752400,0.42175244140625,-0.07371069450750947,0.1691974597543478,-0.6931301484435797
1761378901069807400,0.431807373046875,-0.020653350319713354,0.22909926300942896,-0.7786819412618875
1761378901079863300,0.44186328125,0.01043795351460576,0.3763976101666689,-0.8426669221773743
1761378901089919200,0.451919189453125,0.08323898583129048,0.5293097055524587,-0.8200231286928057
1761378901099975400,0.461975341796875,0.15578209786415098,0.577348052534461,-0.6908253786325455
1761378901110030300,0.4720302734375,-0.341288595123589,0.3768681502878666,-0.7968389447212219
1761378901120086500,0.48208642578125,-0.706208825725317,0.12430734767019748,-0.7253358432605862
1761378901130142500,0.492142578125,-1.0274743312567471,-0.03826747907400131,-0.5758201123148202
1761378901140197400,0.502197265625,-1.1176672278791666,0.01021861167550087,-0.4125894520103931
1761378901150253300,0.51225341796875,-0.8125789501667022,0.1371948862940073,-0.35667934873998164
1761378901160309200,0.522309326171875,-0.3417360466301441,0.24011107088923453,-0.25708354073911904
1761378901170364400,0.532364501953125,0.15795885738134383,0.26317981178760524,-0.14260492864400148
1761378901180420400,0.54242041015625,0.5448834145203233,0.22634733395278453,-0.10051880459729581
1761378901190476500,0.5524765625,0.8223270217210054,0.2593348267972469,-0.06194324595481157
1761378901200531200,0.56253125,0.8850175789117812,0.2687222483456135,-0.07298281862437725
1761378901210587100,0.572587158203125,0.8085702990472317,0.25635201159417625,-0.13579261828064917
1761378901220643300,0.582643310546875,0.5920996314644813,0.2597024910658598,-0.17609744840115307
1761378901230699300,0.59269921875,0.42181744521334763,0.21320961996018886,-0.2378004375929944
1761378901240754400,0.60275439453125,0.3273883723258972,0.1534071854263544,-0.29498189423978327
1761378901250810400,0.612810302734375,0.24786270792931317,0.14328501986265182,-0.275704106589593
1761378901260866300,0.6228662109375,0.13237930270582438,0.08401917642354964,-0.26301238279882816
1761378901270921500,0.63292138671875,0.17032412569671868,-0.005465279668569564,-0.2190312022531405
1761378901280977200,0.64297705078125,0.2971086771354079,-0.022903905725479123,-0.16647676608618348
1761378901291033300,0.653033447265625,0.4334767572164535,0.04230769437551498,-0.1911824970692396
1761378901301088300,0.663088134765625,0.6504829929806292,0.1831523353487253,-0.2424193295652978
1761378901311144400,0.67314453125,0.776942696379125,0.3085919019192457,-0.3120412021229043
1761378901321200400,0.683200439453125,0.8229340477034449,0.344902986228466,-0.3907171908875927
1761378901331255600,0.693255615234375,0.7918383599549531,0.37100539573431013,-0.43367140300571916
1761378901341311500,0.7033115234375,0.8300707677155733,0.4036415909230709,-0.3835349147006869
1761378901351367400,0.713367431640625,0.7640526735372841,0.36746670021414757,-0.32630700682997704
1761378901361423400,0.72342333984375,0.620343729174137,0.19624504115581512,-0.2646732652157545
1761378901371478300,0.733478271484375,0.4512617124930024,-0.023458032476902008,-0.17288875202033668
1761378901381534500,0.743534423828125,0.39814503933340306,-0.15022095660567283,-0.1911596641829237
1761378901391590400,0.75359033203125,0.5410246932655572,-0.19406945068240164,-0.29153409187346696
1761378901401645300,0.763645263671875,0.6162976686537266,-0.3103752782046795,-0.44145431196689605
1761378901411701500,0.773701416015625,0.78782050261572,-0.38259588028490543,-0.5222989500075579
1761378901421757400,0.78375732421875,0.8366719195462763,-0.40140287208557124,-0.5570002610325813
1761378901431812400,0.793812255859375,0.832452986676991,-0.3811725694835186,-0.5637681111996993
1761378901441868300,0.803868408203125,0.7788444383472204,-0.37084874386787414,-0.5183516736865044
1761378901451924200,0.81392431640625,0.6839975784391165,-0.42185646204948424,-0.496513059104979
1761378901461979400,0.8239794921875,0.6057604925483465,-0.45886312740743157,-0.4415615717336535
1761378901472035300,0.834035400390625,0.5085898658677935,-0.5333779779046773,-0.3885030219694599
1761378901482091500,0.844091552734375,0.44723260310739277,-0.6140297237217426,-0.3857578879797831
1761378901492147500,0.8541474609375,0.5058811914309859,-0.6188596280962229,-0.3975383421445265
1761378901502202400,0.864202392578125,0.6695768388986587,-0.5936486144721508,-0.4897890115469694
1761378901512258300,0.87425830078125,0.8182172483146191,-0.6381073494017124,-0.5288640076115727
1761378901522314200,0.884314208984375,0.9557365442574024,-0.7422177122175693,-0.5186415965437888
1761378901532369400,0.894369384765625,0.8308709781825542,-0.8700859672397374,-0.47015112188011404
1761378901542425300,0.90442529296875,0.5247264694154262,-1.0838958911806345,-0.4042109152436256
1761378901552481500,0.9144814453125,0.201248110140115,-1.3017618125140666,-0.35549539965242144
1761378901562536200,0.9245361328125,-0.18566957886666058,-1.3948463389247654,-0.25704434123989195
1761378901572592400,0.93459228515625,-0.5337269374728203,-1.4456740243643522,-0.18076193308085203
1761378901582648300,0.9446484375,-0.686273706677556,-1.4684598566681146,-0.15464169565737246
1761378901592703200,0.954703125,-0.7192769816130399,-1.3930284758478402,-0.1397594760850072
1761378901602759400,0.964759521484375,-0.7427391057431697,-1.3075947564512491,-0.1227946050196886
1761378901612815400,0.9748154296875,-0.706097620435804,-1.1827771211713551,-0.12643352777762337
1761378901622871300,0.984871337890625,-0.5801394368186593,-0.9229314222425222,-0.17612954230615868
1761378901632926500,0.994926513671875,-0.5702829364538192,-0.6405202557623386,-0.19539982250332832
1761378901642982100,1.004982177734375,-0.6563368335753679,-0.43372459449768064,-0.17702070072591303
1761378901653038300,1.015038330078125,-0.7842454206079245,-0.2679559401482344,-0.10806991409659385
1761378901663093200,1.02509326171875,-0.9059735654398798,-0.019147768062353132,0.0442304425990209
1761378901673149400,1.0351494140625,-1.0127376576349139,0.17181845590770242,0.12105298551674931
1761378901683205400,1.045205322265625,-1.0271744715273379,0.3008312047898769,0.04160480680316686
1761378901693260500,1.055260498046875,-1.1880436633974314,0.3653729428052902,-0.11644143660068511
1761378901703316500,1.06531640625,-1.2326444371461867,0.4406967715978622,-0.17116291460841893
1761378901713372400,1.075372314453125,-1.2320002940237522,0.5879957032769918,-0.16714491113871335
1761378901723428400,1.085428466796875,-1.1483699707873165,0.7681868507325649,-0.10576021238211541
1761378901733483300,1.095483154296875,-1.1098900180064142,0.8994558541089296,0.05080024944338947
1761378901743539500,1.10553955078125,-1.0504805283129215,0.9716507372260094,0.234054547329247
1761378901753595400,1.115595458984375,-1.0643483101457356,1.076459019178152,0.3443877301827073
1761378901763650300,1.125650390625,-1.0803840836673975,1.1584580879509447,0.3780632052913308
1761378901773706500,1.13570654296875,-1.0649468605607748,1.2126795074820518,0.33604309568554164
1761378901783762400,1.145762451171875,-1.000449984600395,1.3100795590043066,0.28429774741176517
1761378901793817300,1.1558173828125,-0.8276163603007793,1.352834412625432,0.2426581250235438
1761378901803873300,1.165873291015625,-0.6586063859425485,1.3134481586545705,0.22050185932759195
1761378901813932800,1.175932861328125,-0.49933250043988225,1.1835855149447918,0.214499952031672
1761378901823988000,1.185988037109375,-0.3303255948215723,1.0536018752038478,0.16095862371921538
1761378901834044000,1.1960439453125,-0.2385905833236873,0.9480313767075538,0.026551066588796673
1761378901844100000,1.20610009765625,-0.13446166193783282,0.8348141628503799,-0.09828881705552339
1761378901854156000,1.216156005859375,-0.12556421586349606,0.6939508171766996,-0.16012542429808527
1761378901864211200,1.226211181640625,-0.19083529106676578,0.4897568628430366,-0.1686392413496971
1761378901874267000,1.236266845703125,-0.2641127087235451,0.2828904744297266,-0.09364479064196347
1761378901884322800,1.24632275390625,-0.4603197559565305,0.13709201044142244,0.034869361068308354
1761378901894378000,1.2563779296875,-0.5228051459640264,0.025479893693327902,0.18324381302446127
1761378901904434000,1.266433837890625,-0.5742486252143979,0.027667174604535102,0.31847828596569594
1761378901914490000,1.276489990234375,-0.6074328096747398,0.02670738966166973,0.39304800845533605
1761378901924545000,1.286544921875,-0.5486908439792693,0.1162064588010311,0.3875710018163547
1761378901934601000,1.29660107421875,-0.4624865786015987,0.18835165755748748,0.27699937056452034
1761378901944657200,1.3066572265625,-0.35760055523812767,0.3103442985445261,0.16433160728365181
1761378901954712800,1.316712890625,-0.3171661073885858,0.3584457738906145,0.07057520949337631
1761378901964768000,1.32676806640625,-0.2738708632804453,0.3634557110071182,0.04181022971477359
1761378901974824000,1.336823974609375,-0.2940764698326587,0.333964828106761,-0.0050888475716114046
1761378901984879900,1.3468798828125,-0.1954861856125295,0.3637953182250261,-0.007006042837165296
1761378901994935000,1.35693505859375,-0.006559943037480116,0.42570320060551164,-0.02721559491213411
1761378902004991000,1.366990966796875,0.12457988100126385,0.38445465989410876,-0.0643292277758941
1761378902015047200,1.377047119140625,0.2765070570029318,0.3315612740963697,-0.01473049960937351
1761378902025101800,1.387101806640625,0.41305195495560765,0.3521890515834093,0.035423232091404494
1761378902035158000,1.397157958984375,0.45789355172291396,0.3240431535512209,0.11748952088151127
1761378902045214000,1.4072138671875,0.40680750760808587,0.2064145529925823,0.20369217882398516
1761378902055269000,1.41726904296875,0.42722544173672794,0.14937281534373759,0.26045305370483546
1761378902065325000,1.427324951171875,0.3416853393562138,0.10789280396401882,0.3303037117833271
1761378902075381000,1.437381103515625,0.35190921172872186,0.10512450829446315,0.36388566338960077
1761378902085437200,1.447437255859375,0.41121071100309486,0.18395663746893404,0.34386198927555234
1761378902095491800,1.457491943359375,0.42279038189873097,0.15758768598139286,0.378126004861854
1761378902105548000,1.467548095703125,0.47388373253718014,0.12438392003774643,0.399822069167532
1761378902115604000,1.47760400390625,0.4567449662096798,0.11291618508398532,0.3240890750521794
1761378902125659000,1.487658935546875,0.4022564201749861,0.09848200154006481,0.26937957974318416
1761378902135715000,1.497715087890625,0.27608795480802656,0.08446867375671863,0.3024676103526726
1761378902145771000,1.50777099609375,0.2371722409583628,0.09642916066348552,0.3867758328506723
1761378902155826200,1.517826171875,0.2739290232084691,0.15446809265613556,0.4319476114204153
1761378902165881900,1.5278818359375,0.43212125095427034,0.20613982770442962,0.4197863777771592
1761378902175937800,1.537937744140625,0.5703408041208982,0.2585679340779781,0.3708753396138549
1761378902185993000,1.547992919921875,0.7527753465890884,0.34338556740283965,0.3211211286246776
1761378902196049000,1.558048828125,0.8567997846871614,0.35243045912384985,0.2617743289038539
1761378902206105000,1.56810498046875,0.8393179040104151,0.22546938207447528,0.28998481660485265
1761378902216161000,1.5781611328125,0.7348208799645304,0.06568798544108867,0.3673843556929379
1761378902226216200,1.58821630859375,0.6986440895594656,-0.04230126463472843,0.37840577165130523
1761378902236272000,1.598272216796875,0.6692004068017006,-0.133321844252944,0.33970307949781414
1761378902246327800,1.608327880859375,0.6823154705710709,-0.21110943281054495,0.2917252670640126
1761378902256383000,1.618383056640625,0.6307236688911915,-0.28475276117026804,0.2414914193317294
1761378902266439000,1.62843896484375,0.5538865129262208,-0.4468319133520126,0.19678806199133395
1761378902276495000,1.6384951171875,0.4093786732703447,-0.6152694946497679,0.171414551281929
1761378902286550000,1.648550048828125,0.2615766143746674,-0.7089210072934627,0.16720778377447276
1761378902296606000,1.65860595703125,0.1063670557014644,-0.8064812178134918,0.19342673233207314
1761378902306662100,1.668662109375,-0.022879794197529554,-0.8440759121924638,0.20975776247326283
1761378902316717800,1.6787177734375,-0.038504941091686486,-0.796105954271555,0.2752174190511927
1761378902326773000,1.68877294921875,0.033356326156854625,-0.7312222709506749,0.32800767326802016
1761378902336829000,1.698828857421875,0.12508549243584274,-0.8015659732431173,0.3339414837637916
1761378902346884900,1.708884765625,0.21253449717760084,-0.909220292276144,0.31734687078297136
1761378902356940000,1.71893994140625,0.1922526105187833,-0.9065747462034225,0.30048045512344684
1761378902366996000,1.728995849609375,0.07273088968992233,-0.9414707030177116,0.295189399510622
1761378902377052200,1.73905224609375,-0.06977613153755664,-0.960942296206951,0.2811465533718467
1761378902387106800,1.74910693359375,-0.2206244262613356,-0.920667568963766,0.2561652203178033
1761378902397163000,1.7591630859375,-0.31768706252276896,-0.8997042759120464,0.20251754555404186
1761378902407219000,1.769218994140625,-0.3677705054663121,-0.796971046668291,0.156929258605279
1761378902417274000,1.779274169921875,-0.31904198426306246,-0.5792389808475971,0.08900397909879684
1761378902427330000,1.789330078125,-0.29214754759669304,-0.37025136249661444,0.042158056771755215
1761378902437386000,1.799385986328125,-0.3275228123605251,-0.20145780736804006,0.07327829443961381
1761378902447442200,1.809442138671875,-0.3346786754645407,-0.0262467864125967,0.1058586312552914
1761378902457496800,1.819496826171875,-0.2902800001591444,0.12203998726010322,0.14042612330019474
1761378902467553000,1.829552978515625,-0.24528803513571618,0.25200550682246686,0.12759997774111106
1761378902477609000,1.83960888671875,-0.2931679766856134,0.3743436002463102,0.08205695470618084
1761378902487663900,1.849663818359375,-0.3410473337136209,0.4819277766525745,-0.015351261856220662
1761378902497720000,1.859719970703125,-0.349392114341259,0.5530442168831825,-0.17310644989162682
1761378902507776000,1.86977587890625,-0.5499789840936661,0.532418192961812,-0.3224965086311102
1761378902517831200,1.8798310546875,-0.6979751042567193,0.471456651520729,-0.3908533844878897
1761378902527886800,1.889886962890625,-0.7678110031574964,0.46612347379922864,-0.37927784177809953
1761378902537942800,1.89994287109375,-0.8088068842820823,0.41806525307297704,-0.3707534667998552
1761378902547999000,1.9099990234375,-0.6877716901503503,0.37672085077166556,-0.3231251619234681
1761378902558054000,1.920053955078125,-0.671279989554733,0.38663317297697064,-0.2728504159252159
1761378902568110000,1.930110107421875,-0.6911205621868372,0.3429676342517137,-0.2284709019780159
1761378902578166000,1.940166015625,-0.6932219183802604,0.36302784098386764,-0.17357172931581735
1761378902588221200,1.95022119140625,-0.7233733110159635,0.39904666434824465,-0.13136603401005267
1761378902598277000,1.960277099609375,-0.7308166127592325,0.41140754874944685,-0.12112082658857107
1761378902608332800,1.970332763671875,-0.7112579258084297,0.40802316700816155,-0.17517478059828281
1761378902618388000,1.980387939453125,-0.7012080948285758,0.3753594992905855,-0.21347526689274235
1761378902628444000,1.99044384765625,-0.7339584179162979,0.327666604745388,-0.20734248149245976
1761378902638500000,2.0005,-0.8332564120143652,0.2807061161279678,-0.21043957072496414
1761378902648555000,2.010554931640625,-0.8205908455781639,0.264571558406949,-0.282509055630397
1761378902658611000,2.02061083984375,-0.7712491609126328,0.2679594472795725,-0.3655757719010114
1761378902668667100,2.030667236328125,-0.7023210245065391,0.2687035436451435,-0.42218057943731546
1761378902678723000,2.04072314453125,-0.5624957897089421,0.26695406962931156,-0.4448316794455051
1761378902688778000,2.050778076171875,-0.4010040820263326,0.2651853063911199,-0.44107817213088274
1761378902698834000,2.060833984375,-0.22649390281662343,0.25427988149523734,-0.49249476337432857
1761378902708889900,2.070889892578125,-0.13034838140010832,0.22715222059488296,-0.5596183345764875
1761378902718945000,2.080945068359375,-0.281169203595072,0.13343290341198444,-0.5530503543630242
1761378902729001000,2.0910009765625,-0.4740367311418056,0.12235972073376178,-0.5133212783038615
1761378902739057200,2.10105712890625,-0.512729157629609,0.2131020679324865,-0.5367144288510084
1761378902749111800,2.11111181640625,-0.4380184922993183,0.3156850750505924,-0.6020505321145058
1761378902759168000,2.12116796875,-0.3214809018477797,0.3121691758841276,-0.6533771069869398
1761378902769224000,2.131223876953125,-0.19057590947821734,0.3118243079692125,-0.7201037878260016
1761378902779280000,2.14127978515625,-0.09132087773904204,0.3236632143229246,-0.7447986686214805
1761378902789335000,2.1513349609375,-0.020295622923225162,0.35713176868259905,-0.7311579735428094
1761378902799391000,2.161390869140625,0.09601824177503586,0.40461540439128874,-0.6613906098335981
1761378902809447200,2.171447265625,0.27409575807750225,0.40296003839969635,-0.553033987750113
1761378902819498800,2.181498779296875,0.45234161668419837,0.3566799332618713,-0.4057195662409067
1761378902829554700,2.1915546875,0.6310561157159507,0.3059305737555027,-0.3134153765529394
1761378902839611000,2.20161083984375,0.8104396000504493,0.31653730796575547,-0.2482221888914704
1761378902849665800,2.211665771484375,0.8607295253515242,0.366139835524559,-0.2032996358424425
1761378902859722000,2.221721923828125,0.8120826910823583,0.3403536523610353,-0.19924889914691446
1761378902869778000,2.23177783203125,0.7212713703006506,0.24829729995429514,-0.2099552943393588
1761378902879832800,2.241832763671875,0.6023340252310038,0.21927637265324593,-0.21723639125823974
1761378902889888800,2.251888671875,0.5221285618767142,0.16542027930319309,-0.17353755305157972
1761378902899944700,2.26194482421875,0.501071160800755,0.09009761955440043,-0.1479521531571634
1761378902910001000,2.2720009765625,0.5153033920317888,0.06974106022417545,-0.179592597040534
1761378902920055800,2.282055908203125,0.5992299217358231,0.11140227338969706,-0.20043725041495636
1761378902930112000,2.292112060546875,0.6662709292210638,0.17124679349958896,-0.2233613038793206
1761378902940168000,2.30216796875,0.6629105128772557,0.19362170691490171,-0.22243686424447223
1761378902950222800,2.312222900390625,0.6748429427333176,0.0560837062716484,-0.20535538106216117
1761378902960278800,2.32227880859375,0.6686299134373664,0.13186463118195532,-0.22368542126715182
1761378902970334700,2.332334716796875,0.7421015384919941,0.1874842270731926,-0.2578787645037286
1761378902980390000,2.342389892578125,0.8268396768398583,0.1324111591488123,-0.20986438291920348
1761378902990445800,2.35244580078125,0.8184072179287671,0.057059857827425,-0.16275222913771867
1761378903000501800,2.362501708984375,0.7670575544416904,-0.04566752619743347,-0.16357465143650768
1761378903010558000,2.372557861328125,0.7335381466776132,-0.19226444708704948,-0.2033408446356654
1761378903020612600,2.382612548828125,0.6333657078325748,-0.23395371730327605,-0.2790209395200014
1761378903030668800,2.392668701171875,0.5434067660965025,-0.22259821055233478,-0.32245793018639085
1761378903040724700,2.402724853515625,0.4659330657936632,-0.29929508126378057,-0.33319442825615403
1761378903050780000,2.41277978515625,0.387307711237669,-0.32732524396181106,-0.27023002256006
1761378903060835800,2.4228359375,0.3248316735804081,-0.3080921357035637,-0.1892071053430438
1761378903070891800,2.432891845703125,0.41509763543903827,-0.291138662815094,-0.11795885542631149
1761378903080947000,2.442947021484375,0.5481513302750886,-0.26146833169460293,-0.06807661587698385
1761378903091002600,2.453002685546875,0.5975830313116312,-0.44280338848829265,-0.08422171325832604
1761378903101058800,2.463058837890625,0.565050296497345,-0.7779653174251318,-0.13717442802786825
1761378903111114800,2.47311474609375,0.4005881947018206,-0.9260083454698324,-0.18985181472105905
1761378903121170000,2.483169921875,0.13642448644340038,-0.9682061497300862,-0.2532961311548948
1761378903131225900,2.493225830078125,-0.068969783590734,-0.9915496159166097,-0.27452388382907955
1761378903141281800,2.50328173828125,-0.31545711151361466,-1.0400701934576033,-0.22210428955554962
1761378903151337000,2.5133369140625,-0.5791304059065878,-1.0831441960304975,-0.16357702605668453
1761378903161393000,2.523392822265625,-0.6982927919037639,-1.0572294180512427,-0.13748104629162697
1761378903171448800,2.53344873046875,-0.854770470816642,-0.9235878403246403,-0.15417031528595834
1761378903181503700,2.543503662109375,-0.8641378724902867,-0.6114788701951503,-0.19733838935047388
1761378903191559700,2.5535595703125,-0.7628384754419326,-0.33556992521584034,-0.23475363550931214
1761378903201616000,2.563615966796875,-0.6229403215385974,-0.19089841943085192,-0.2192986210176721
1761378903211671800,2.573671875,-0.444933532384783,-0.10250994188189506,-0.12425740758124738
1761378903221727000,2.58372705078125,-0.3935504050195217,-0.08779401878714561,0.04024871601909399
1761378903231783000,2.593782958984375,-0.4002269601739943,-0.15234277106523514,0.23690610083546487
1761378903241838800,2.6038388671875,-0.49725803225338455,-0.1730740089267492,0.36395839983224865
1761378903251893800,2.613893798828125,-0.6507616637915372,-0.17567863846719264,0.41858576981574297
1761378903261949700,2.62394970703125,-0.8609123345725238,-0.1873527096480131,0.45637452546209095
1761378903272006000,2.634005859375,-1.0265361736238001,-0.12217676538228987,0.4494903189063072
1761378903282060800,2.644060791015625,-1.0743031563185155,-0.008212532550096512,0.36234544821027664
1761378903292117000,2.654116943359375,-1.0492400267325341,0.10522387701570987,0.30491500350479034
1761378903302173000,2.6641728515625,-1.0172263473562895,0.15469839428067206,0.2622782233053818
1761378903312228900,2.674228759765625,-0.9142775756657123,0.20792028138041496,0.2713362302362919
1761378903322283800,2.68428369140625,-0.8291179970353841,0.2438555181145668,0.28351795867830515
1761378903332339700,2.694339599609375,-0.8267949609152973,0.22570085274279117,0.3019158216888085
1761378903342396000,2.70439599609375,-0.8194703171156347,0.3844143278837204,0.3276318622255698
1761378903352450800,2.714450927734375,-0.7621906790576874,0.6132704297870397,0.29747144603319464
1761378903362506800,2.7245068359375,-0.6668585198506712,0.7269903324693441,0.23380038990508764
1761378903372563000,2.73456298828125,-0.628266338866949,0.7580828053474425,0.21147885064482688
1761378903382617600,2.74461767578125,-0.7134286939762532,0.7627765161216259,0.2432979207644239
1761378903392673800,2.754673828125,-0.8952559182010591,0.742072750788927,0.35360100074056533
1761378903402729700,2.764729736328125,-0.7972913646638393,0.6825280904084443,0.4784042787015438
1761378903412785700,2.77478564453125,-0.5108323840975761,0.6811012724757194,0.5774965210944414
1761378903422840800,2.7848408203125,-0.3348078548021614,0.620026918309927,0.7014609736111015
1761378903432896800,2.794896728515625,-0.17799553710743785,0.5157476286679507,0.8256663952767849
1761378903442953000,2.804952880859375,-0.10109422986507414,0.4766127191096544,0.8520061206698417
1761378903453007600,2.815007568359375,-0.15120485307648776,0.41860593582093714,0.8166433500614017
1761378903463063800,2.825063720703125,-0.2524981126450002,0.3325812647938728,0.7616448817431927
1761378903473119700,2.83511962890625,-0.3105753308214247,0.3360381272494793,0.6546831480842084
1761378903483175000,2.8451748046875,-0.3943086760409176,0.23913550385534763,0.5752317179676145
1761378903493230800,2.85523095703125,-0.4780915594905615,0.06025836160778999,0.519855356247723
1761378903503286800,2.865286865234375,-0.4993874454975128,0.035812487137317654,0.40652620644867415
1761378903513343000,2.875343017578125,-0.4813485154598951,0.12881342691779135,0.30196956117004153
1761378903523398000,2.88539794921875,-0.4245006929479539,0.19709844311475752,0.2417919366482645
1761378903533453800,2.895453857421875,-0.34944179870188236,0.3001829700142145,0.23066110549867153
1761378903543509800,2.905509765625,-0.25456629722118373,0.38870004237890243,0.22700082942545413
1761378903553564700,2.915564697265625,-0.11634221400991082,0.4226800533920526,0.23643786226920782
1761378903563620900,2.925620849609375,-0.07063947036862372,0.36774317906796933,0.3061573682487011
1761378903573676800,2.9356767578125,-0.031221652215719223,0.35625089419484135,0.37951544992625713
1761378903583732000,2.94573193359375,0.03953603770509362,0.4048024513959884,0.38611389834322035
1761378903593788000,2.955787841796875,0.06276128433942794,0.41003626039624214,0.3658446519702673
1761378903603843800,2.96584375,0.08822539594173431,0.3865665374815464,0.3408759226694703
1761378903613899800,2.975899658203125,0.1625531994342804,0.3484451888799667,0.3349807271510362
1761378903623954700,2.98595458984375,0.25253435300216076,0.2766197235971689,0.3568233603205532
1761378903634011000,2.996010986328125,0.4174795621395111,0.29635493615865705,0.38069238475114103
1761378903644066800,3.00606689453125,0.5999713877528906,0.33284371512234207,0.36821810310333963
1761378903654122000,3.0161220703125,0.7000533718355,0.31945933289229866,0.38595428733471776
1761378903664178000,3.026177978515625,0.7177743219651281,0.24561375995874404,0.4309957905882969
1761378903674233900,3.03623388671875,0.5705963863171637,0.19445815773904324,0.4713377378487959
1761378903684288800,3.046288818359375,0.35385844610035416,0.11851473574340343,0.521886569814384
1761378903694344700,3.0563447265625,0.28268662242069836,0.0312748437076807,0.555518242313899
1761378903704401000,3.06640087890625,0.2852661175198853,-0.034173487758636475,0.4771893864864483
1761378903714456800,3.076456787109375,0.2829303680486977,-0.08800444666743278,0.3879566036004573
1761378903724511700,3.08651171875,0.3242052122451365,-0.11651274827122687,0.32370274261571463
1761378903734568000,3.09656787109375,0.42723347891271113,-0.03569850536882877,0.2915791000589728
1761378903744623900,3.106623779296875,0.5604566850967705,0.10702011278271674,0.271802751769498
1761378903754678800,3.1166787109375,0.6151661804057658,0.10788403613567352,0.358993543966487
1761378903764734700,3.126734619140625,0.7140881807982922,0.043508302336931225,0.4342594320267439
1761378903774790700,3.136790771484375,0.8619548293627798,0.09887713833749294,0.43423374959621575
1761378903784845800,3.146845703125,0.953495487332344,0.1826467239141464,0.4472559839829802
1761378903794901800,3.15690185546875,0.9908511122584343,0.11475801355838774,0.48564241326153273
1761378903804958000,3.1669580078125,1.0047019429564474,0.03845920225381851,0.5112181685447692
1761378903815017500,3.177017578125,0.9664104984849691,-0.006153261932730674,0.5057172330409289
1761378903825072400,3.187072265625,0.8580278651773929,-0.08160510101914405,0.5252288659796118
1761378903835128300,3.19712841796875,0.7043463928543031,-0.19294658413231372,0.5520019412886351
1761378903845184300,3.207184326171875,0.5182581501841544,-0.3219809603244066,0.5923775716230273
1761378903855239400,3.217239501953125,0.4452466899871826,-0.4358300423443317,0.5968216915503144
1761378903865295400,3.22729541015625,0.36188290873244405,-0.5232324314653873,0.5412518165523186
1761378903875351600,3.2373515625,0.346543300781399,-0.5874187801718711,0.49882546423319724
1761378903885407500,3.247407470703125,0.41430750797465443,-0.5720932007461786,0.4503361586133018
1761378903895462400,3.25746240234375,0.3603386018998921,-0.5852016886442899,0.40042441897485404
1761378903905518300,3.267518310546875,0.26100655940175055,-0.7354121238559485,0.4493912424460053
1761378903915574300,3.27757421875,0.20227379992604255,-0.9197147982835769,0.5001847333550453
1761378903925629400,3.28762939453125,0.11924962588921188,-1.109656355381012,0.448263736253418
1761378903935685400,3.297685302734375,-0.04130976937934756,-1.2200023977160452,0.3581453661719337
1761378903945741300,3.3077412109375,-0.1982008513987064,-1.174438916414976,0.2205819022938609
1761378903955796200,3.317796142578125,-0.3706621352545917,-1.0836994918256997,0.06709553241776302
1761378903965852200,3.32785205078125,-0.4833678924582898,-1.0196703795075417,-0.03613569120969623
1761378903975908400,3.337908447265625,-0.528729275316,-0.8838315839976072,-0.1164049039825797
1761378903985963300,3.34796337890625,-0.6183947870634496,-0.6838140385657548,-0.12458877669377252
1761378903996019500,3.35801953125,-0.6300000307917595,-0.4393821818679571,0.002849544212222099
1761378904006075400,3.368075439453125,-0.5979289221398532,-0.2734521994769573,0.19687254367070273
1761378904016131300,3.37813134765625,-0.5205003761529923,-0.1396820269346237,0.3301104907661676
1761378904026186500,3.3881865234375,-0.39106443342268465,0.013740356060862541,0.37204905956834555
1761378904036242200,3.3982421875,-0.3432704165905714,0.17769582350850105,0.3074061992660165
1761378904046298400,3.40829833984375,-0.38830198297202584,0.2798223190307617,0.23228344600349662
1761378904056353300,3.418353271484375,-0.4897323129236698,0.3113186965346336,0.1337418232306838
1761378904066409500,3.428409423828125,-0.5893130694858729,0.33523440965116025,0.015994281600648537
1761378904076465400,3.43846533203125,-0.6034427171252668,0.3942600145936012,-0.1329556230227463
1761378904086521300,3.448521240234375,-0.6758638102136552,0.38443478614985943,-0.27739830675423144
1761378904096576500,3.458576416015625,-0.7697438709162175,0.3384393431723118,-0.3551385490387678
1761378904106632400,3.468632568359375,-0.7614239324688911,0.33458675939738747,-0.4288257165402174
1761378904116688100,3.478688232421875,-0.7600828931234777,0.40654958732426166,-0.4777154196545481
1761378904126743300,3.488743408203125,-0.8350549858689308,0.3982259956151247,-0.4725818561583757
1761378904136799200,3.49879931640625,-0.9851717514477669,0.3105354372024536,-0.41026802332550283
1761378904146855400,3.50885546875,-1.012987979134172,0.2933861494809389,-0.3217290313899517
1761378904156910300,3.518910400390625,-0.9903332258641719,0.3822346457570791,-0.28802637601345776
1761378904166966500,3.528966552734375,-0.9152266930840909,0.49410862831175323,-0.2945025862902403
1761378904177022500,3.5390224609375,-0.7464519887864589,0.5955342820882797,-0.3194835905507207
1761378904187078100,3.549078125,-0.6700210755348205,0.6786077020943164,-0.4127116170853376
1761378904197133300,3.55913330078125,-0.5551696846045553,0.7405588390946388,-0.5125444487124681
1761378904207189200,3.569189208984375,-0.45016704912409183,0.7999550309151411,-0.6315396614491939
1761378904217245400,3.579245361328125,-0.38617432329356666,0.8242723105698824,-0.6778910782575607
1761378904227300400,3.58930029296875,-0.3631242870956659,0.7791548194706439,-0.5978875672161579
1761378904237356500,3.5993564453125,-0.3016413521289825,0.6754384244084358,-0.47777357958257194
1761378904247412500,3.60941259765625,-0.2184175638668239,0.58234805277884,-0.40002632303535934
1761378904257468400,3.619468505859375,-0.11636895588636398,0.5343517913728952,-0.35174130781590934
1761378904267523300,3.6295234375,-0.04215338059663772,0.4586567911803722,-0.3448901267468929
1761378904277579300,3.639579345703125,-0.03602919862791896,0.30888474738597865,-0.41154140426218505
1761378904287635200,3.64963525390625,-0.12358312504887581,0.1219710136771202,-0.5193994291737676
1761378904297690400,3.6596904296875,-0.19729411181733011,0.053283261898159975,-0.5975687105253339
1761378904307746300,3.669746337890625,-0.24419030302688477,0.11509645173251629,-0.6570058188781142
1761378904317802500,3.679802490234375,-0.23896292376741765,0.15598492695987223,-0.6948264309674501
1761378904327857200,3.689857177734375,-0.14729308646023273,0.09132453100085258,-0.6768202341556548
1761378904337913300,3.699913330078125,-0.0272445652782917,0.005103460618853569,-0.6595011428251862
1761378904347969300,3.70996923828125,0.1100010282896459,-0.046581718432903284,-0.6268705005943774
1761378904358025200,3.720025146484375,0.2647831553310156,-0.05874561895728111,-0.6219719148978591
1761378904368080400,3.730080322265625,0.3705063601709902,-0.0022223522245883942,-0.6233803203910588
1761378904378136300,3.74013623046875,0.46290392723083496,0.09572247369885444,-0.5846615904182195
1761378904388192500,3.750192626953125,0.49441170291155573,0.17965630992650986,-0.4867150109291076
1761378904398247200,3.7602470703125,0.4964890937075019,0.1575590444087982,-0.3538876721948385
1761378904408303400,3.770303466796875,0.47045375808849926,0.08562719614207744,-0.2172051193371415
1761378904418359300,3.780359375,0.4396775115527212,0.06718728408813476,-0.12495646836184895
1761378904428415200,3.790415283203125,0.5111205533891916,0.1114133793056011,-0.002008417212963104
1761378904438470400,3.800470458984375,0.5916428276076913,0.1398912857711315,0.11864332142597996
1761378904448526300,3.8105263671875,0.6826574158765375,0.13419395091235636,0.14612199685424565
1761378904458582500,3.82058251953125,0.7755565027177334,0.11795301020741462,0.09098463152199983
1761378904468637400,3.830637451171875,0.8136223217397928,0.14090543124973773,-0.025268004508316514
1761378904478693000,3.840693115234375,0.8018488818377256,0.12837386645674706,-0.19571517206281422
1761378904488749300,3.850749267578125,0.632412352630496,0.05438859279155731,-0.33138854787796734
1761378904498804200,3.86080419921875,0.510868039932847,0.03348550549447536,-0.42704818547368045
1761378904508860400,3.8708603515625,0.4174403991729021,0.04292670305669308,-0.4549091290846467
1761378904518916400,3.880916259765625,0.3941445715203881,0.038808746343851085,-0.4184311637759208
1761378904528972300,3.89097216796875,0.4809960487604141,0.04312134884595871,-0.40523178272396326
1761378904539027500,3.90102734375,0.6121604227185249,0.060252516388893125,-0.35583763721883294
1761378904549083400,3.91108349609375,0.7717360676467419,0.058768999832868575,-0.2884592144727707
1761378904559139300,3.921139404296875,0.9372007706135511,0.07114566632509231,-0.24596330404877662
1761378904569194200,3.9311943359375,1.042786174418032,0.0882347482919693,-0.23265227931588886
1761378904579250400,3.94125048828125,1.087488654975593,0.1142196688979864,-0.23300240792781113
1761378904589306400,3.951306396484375,1.0833721595674752,0.17731354619264603,-0.2055766408637166
1761378904599362300,3.9613623046875,1.0531500397831202,0.20109891092777252,-0.1998898273989558
1761378904609417500,3.97141748046875,0.9157928025342523,0.12846914352476596,-0.19236907650530338
1761378904619473400,3.981473388671875,0.782183519642055,0.046725510817766186,-0.13173660262180492
1761378904629529300,3.991529296875,0.6546005113020539,-0.08017711404263973,-0.06815495094335637
1761378904639584300,4.001584228515625,0.5460604954756796,-0.21452070255875585,0.018757901095086706
1761378904649640400,4.011640380859375,0.5006482592135667,-0.291539644831419,0.06122779116183519
1761378904659696400,4.0216962890625,0.5661711172208189,-0.31271570385098457,-0.01936461655027233
1761378904669751300,4.031751220703125,0.6161451084405184,-0.3583826455265283,-0.1554696709141135
1761378904679806500,4.041806396484375,0.5398948124527931,-0.4173778553307056,-0.28239626117199657
1761378904689862100,4.051862060546875,0.49330198810398573,-0.383131886857748,-0.35051965706646443
1761378904699918300,4.06191845703125,0.4767497894927859,-0.2775789240181446,-0.3839008254036307
1761378904709973200,4.07197314453125,0.5106885917127132,-0.2242307801902294,-0.3986757852092385
1761378904720029400,4.082029541015625,0.5150597925342619,-0.33892391181886194,-0.3443357077345252
1761378904730085400,4.09208544921875,0.4864110595464706,-0.5999094284325838,-0.282833775806427
1761378904740141300,4.102141357421875,0.4326122493416071,-0.8145780150294304,-0.19206220251321793
1761378904750196500,4.112196533203125,0.2855233071513474,-0.9324094446837902,-0.12954290110296568
1761378904760252200,4.122252197265625,0.15227861978784202,-0.9749784203439951,-0.07575607359684072
1761378904770308400,4.132308349609375,-0.03663695526272058,-0.9892425080180167,-0.05807603086633607
1761378904780363300,4.14236328125,-0.27373919972479344,-1.031523314386606,-0.107394499053061
1761378904790419500,4.15241943359375,-0.4599284185513854,-1.083711766785383,-0.12039512439621612
1761378904800475400,4.162475341796875,-0.6588941168427467,-1.0342080234259365,-0.12445347814261913
1761378904810531300,4.17253125,-0.8020189777076244,-0.9217407511532306,-0.12112637954652308
1761378904820586500,4.18258642578125,-0.89882106333673,-0.8472165483057499,-0.10737257948219775
1761378904830642400,4.192642333984375,-0.8232102342963218,-0.7552525503575801,-0.11793459776788949
1761378904840698400,4.202698486328125,-0.6670441055506467,-0.66875383207798,-0.20717180110067127
1761378904850753500,4.21275341796875,-0.48476826077550644,-0.5591448718458414,-0.3063467716072686
1761378904860809500,4.2228095703125,-0.2867855821721256,-0.46247664172947406,-0.41356589582711456
1761378904870865700,4.23286572265625,-0.18873978009223938,-0.4133306257665157,-0.5149000719279051
1761378904880921300,4.24292138671875,-0.3592284487009048,-0.5283937597513199,-0.5620011380597949
1761378904890976500,4.2529765625,-0.5741971872881054,-0.5802174704909324,-0.502769744879566
1761378904901032400,4.263032470703125,-0.7476546425744891,-0.47865679215788837,-0.3909115444159135
1761378904911088400,4.27308837890625,-0.9253926977895199,-0.39121699363589285,-0.2877051629687659
1761378904921143600,4.2831435546875,-1.0122782234296201,-0.28135961160063744,-0.21004761226531116
1761378904931199500,4.293199462890625,-1.0395112444005905,-0.095846392339468,-0.1630970787863247
1761378904941255700,4.303255615234375,-0.9549887946300208,0.17722352982163428,-0.11777237467719241
1761378904951311600,4.3133115234375,-0.837661953496933,0.4282096304684877,-0.07927695033252238
1761378904961366500,4.323366455078125,-0.6883614727370441,0.6474170295387506,-0.007378693808149546
1761378904971422500,4.33342236328125,-0.5822817095443606,0.8478174368083476,0.05427252866383642
1761378904981478400,4.343478515625,-0.5885434002876282,0.958131914961338,0.10796440789550542
1761378904991533600,4.353533447265625,-0.5606219586610793,0.9948545026808977,0.16655951246619224
1761378905001589500,4.363589599609375,-0.5043533973418176,1.071209428086877,0.22424102758960798
1761378905011645400,4.3736455078125,-0.5074840965829789,1.1398574323773383,0.22904901239322498
1761378905021701600,4.38370166015625,-0.4683125082761049,1.066139869737625,0.20760084016770122
1761378905031756300,4.39375634765625,-0.555525512304902,0.8787848220020532,0.1733601323917508
1761378905041812500,4.4038125,-0.7728640487633645,0.7121440609931945,0.15790774824861437
1761378905051868400,4.413868408203125,-0.8383890987277031,0.6693184802234172,0.16753858663141727
1761378905061923600,4.423923583984375,-0.6958261095292866,0.7407014624357223,0.133066079393588
1761378905071979500,4.4339794921875,-0.5878859592922031,0.7929197254508733,0.06151533939894288
1761378905082035500,4.444035400390625,-0.4750355329208076,0.7168687514275311,0.021799488147534428
1761378905092091600,4.454091552734375,-0.45985155392289156,0.6411059466958046,0.029217618916928766
1761378905102146300,4.464146240234375,-0.5777133787155151,0.5381126052111387,0.05437105713486671
1761378905112202500,4.474202392578125,-0.6867115135729313,0.3688099315166473,0.08694149361103773
1761378905122258400,4.484258544921875,-0.7903156804323196,0.24297172101736067,0.12339081734716892
1761378905132313600,4.494313720703125,-0.9330570949375628,0.18939502913057804,0.18008651803731918
1761378905142369500,4.50436962890625,-0.9846624867513776,0.18977672192454337,0.1966644904105924
1761378905152425500,4.514425537109375,-0.8140981225579976,0.31288872233033177,0.24271073199361562
1761378905162480600,4.524480712890625,-0.5917132624953985,0.4717418982028961,0.30366818178147076
1761378905172536300,4.534536376953125,-0.2998879325903952,0.5595101980268955,0.36952447299417107
1761378905182592500,4.544592529296875,-0.04322364017665386,0.5688064341604709,0.41361499566584825
1761378905192648400,4.5546484375,0.13954934046566486,0.5439338587105274,0.44309564943313595
1761378905202703400,4.564703369140625,0.3235525935553014,0.44416357092559333,0.39511162645425646
1761378905212759600,4.574759521484375,0.2966010198742151,0.3674251991599798,0.3212134830832481
1761378905222815500,4.5848154296875,0.2111434812106192,0.33184418269097804,0.3089510906204581
1761378905232870700,4.59487060546875,0.2054652894437313,0.3378922306835651,0.31178952891677614
1761378905242926600,4.604926513671875,0.2603587630175054,0.44423371355235575,0.3087134459396824
1761378905252982300,4.614982177734375,0.3646276773959398,0.48282852488458156,0.3284609699934721
1761378905263038500,4.62503857421875,0.507765543872863,0.4171405394434929,0.3197647455796599
1761378905273093400,4.63509326171875,0.5231389079630374,0.3063467533409595,0.31008155595511194
1761378905283149600,4.645149658203125,0.46480713050365446,0.20484277363121509,0.3006327596083283
1761378905293205500,4.65520556640625,0.4091859271772206,0.1607359208792448,0.24226682415101675
1761378905303261400,4.665261474609375,0.3457102109581232,0.0969961468964815,0.2397220715716481
1761378905313316600,4.675316650390625,0.39697102711796756,0.004489128112792969,0.23383505935966967
1761378905323372300,4.685372314453125,0.5209874290175736,-0.020393384209275243,0.18044369744453578
1761378905333428500,4.695428466796875,0.6595616408407687,0.03145312288403511,0.14653583835214376
1761378905343483400,4.7054833984375,0.7940222798652946,0.022578911554813383,0.14212741079274563
1761378905353539600,4.71553955078125,0.8119622795730829,-0.05573182409405708,0.15598551148176193
1761378905363595500,4.725595458984375,0.7076311136133968,-0.12063479663729668,0.19877167355660347
1761378905373651500,4.7356513671875,0.6180846982009709,-0.1299620124310255,0.20494714732114225
1761378905383706600,4.74570654296875,0.5011586929537356,-0.15215455501675604,0.19230189302060752
1761378905393762600,4.755762451171875,0.46739890056252476,-0.18427812450826167,0.22050240731686352
1761378905403818500,4.765818603515625,0.45555429512038825,-0.21344050610661505,0.2491095113863237
1761378905413873400,4.775873291015625,0.40296413005292414,-0.2893213842600584,0.33461218609958887
1761378905423929300,4.785929443359375,0.4591233857788145,-0.25960487591028214,0.43040597146898507
1761378905433985500,4.795985595703125,0.4875112758733332,-0.2099573401659727,0.49586836799327283
1761378905444041500,4.80604150390625,0.3793634742349386,-0.30194121185839173,0.5382695493385196
1761378905454096600,4.8160966796875,0.3662674074269831,-0.3630336862027645,0.4776458980822935
1761378905464152600,4.826152587890625,0.35215456479191776,-0.27870529769957064,0.360225935305655
1761378905474208500,4.83620849609375,0.36815643604397774,-0.19288404029011724,0.2621174432530999
1761378905484263400,4.846263427734375,0.3215630271732807,-0.38040743032991886,0.18697423172444105
1761378905494319400,4.8563193359375,0.21186565800532697,-0.7560019074201584,0.11513092025769874
1761378905504375600,4.86637548828125,0.01782324146032333,-1.1172586470782757,0.09942658891379832
1761378905514431500,4.876431396484375,-0.228601250359416,-1.3080454228281975,0.14758067122995852
1761378905524486700,4.886486572265625,-0.5348549185894429,-1.341245097118616,0.23872721531540153
1761378905534542600,4.89654248046875,-0.7326580028422176,-1.3004291026055812,0.27039133233530444
1761378905544598500,4.9065986328125,-0.8878063328474759,-1.1590133837461472,0.25227321784794327
1761378905554654700,4.91665478515625,-0.9140746004395186,-0.9644248776257037,0.22896628427952526
1761378905564709400,4.92670947265625,-0.6194404967240988,-0.689345369207859,0.07222704095416702
1761378905574765600,4.936765625,-0.4302582335613668,-0.2793471027344465,0.022690856629842892
1761378905584821500,4.946821533203125,-0.4551859001994133,-0.22550036173462867,0.033361294592916965
1761378905594876400,4.95687646484375,-0.3186310653746128,-0.2701753697633743,0.046204409553110594
1761378905604932600,4.9669326171875,-0.31556232545375823,-0.20075404301285743,0.028869243870675562
1761378905614988500,4.976988525390625,-0.49988838075697417,-0.20497779818773268,0.01995703861862421
1761378905625044500,4.98704443359375,-0.6005839666932821,-0.19390695359706878,-0.01271773501485586
1761378905635099400,4.997099365234375,-0.8300373038373887,-0.10495558146834373,-0.08403992695063352
1761378905645155300,5.0071552734375,-0.9996353072166442,0.04876198508143425,-0.18517390430420635
1761378905655211500,5.01721142578125,-0.9835229613274336,0.2225835975050926,-0.3131953040614724
1761378905665266400,5.027266357421875,-0.8006861216686666,0.4515232860386371,-0.37669776215702294
