time,seconds_elapsed,z,y,x
1761378900710319000,0.072319091796875,-0.1589813232421875,-1.147003173828125,0.06011962890625
1761378900720375000,0.082375,-0.1771392822265625,-1.128814697265625,0.033416748046875
1761378900730431000,0.092430908203125,-0.196746826171875,-1.11260986328125,0.0035400390625
1761378900740487200,0.102487060546875,-0.2123870849609375,-1.0988311767578125,-0.0197601318359375
1761378900750542000,0.1125419921875,-0.23065185546875,-1.0864715576171875,-0.0374755859375
1761378900760598300,0.122598388671875,-0.2421417236328125,-1.0744476318359375,-0.0381317138671875
1761378900770654000,0.132654052734375,-0.2450103759765625,-1.0630645751953125,-0.0270843505859375
1761378900780709000,0.142709228515625,-0.2386474609375,-1.0659942626953125,-0.0170745849609375
1761378900790765000,0.15276513671875,-0.2257843017578125,-1.07330322265625,-0.0073699951171875
1761378900800821000,0.162821044921875,-0.206298828125,-1.065673828125,-0.0058135986328125
1761378900810875400,0.17287548828125,-0.1933441162109375,-1.0566253662109375,-0.0140838623046875
1761378900820931300,0.182931396484375,-0.1927337646484375,-1.0560455322265625,-0.023681640625
1761378900830987500,0.192987548828125,-0.19854736328125,-1.0477752685546875,-0.038848876953125
1761378900841042200,0.203042236328125,-0.2076416015625,-1.0333709716796875,-0.0555419921875
1761378900851098400,0.213098388671875,-0.2124176025390625,-1.0204010009765625,-0.0792236328125
1761378900861154300,0.223154296875,-0.224639892578125,-0.9996185302734375,-0.09710693359375
1761378900871209500,0.23320947265625,-0.243743896484375,-0.9857330322265625,-0.106842041015625
1761378900881265400,0.243265380859375,-0.2490997314453125,-0.97265625,-0.10150146484375
1761378900891321300,0.2533212890625,-0.2504425048828125,-0.95391845703125,-0.0882720947265625
1761378900901377500,0.26337744140625,-0.2338409423828125,-0.9351806640625,-0.075469970703125
1761378900911432200,0.27343212890625,-0.2193603515625,-0.9178619384765625,-0.06451416015625
1761378900921488400,0.28348828125,-0.206695556640625,-0.9059295654296875,-0.0556640625
1761378900931544300,0.29354443359375,-0.1901092529296875,-0.888092041015625,-0.05987548828125
1761378900941599500,0.303599609375,-0.18548583984375,-0.8723602294921875,-0.0748443603515625
1761378900951655400,0.313655517578125,-0.18853759765625,-0.8702392578125,-0.08758544921875
1761378900961711400,0.32371142578125,-0.18975830078125,-0.8646392822265625,-0.09625244140625
1761378900971766500,0.3337666015625,-0.1970367431640625,-0.8621673583984375,-0.100982666015625
1761378900981822200,0.343822265625,-0.2023773193359375,-0.8693695068359375,-0.0962371826171875
1761378900991878100,0.353878173828125,-0.2028656005859375,-0.8768768310546875,-0.09210205078125
1761378901001933300,0.363933349609375,-0.19219970703125,-0.8853607177734375,-0.087554931640625
1761378901011989200,0.3739892578125,-0.184478759765625,-0.9001007080078125,-0.08331298828125
1761378901022045400,0.38404541015625,-0.1746673583984375,-0.919921875,-0.083465576171875
1761378901032101400,0.394101318359375,-0.1682281494140625,-0.942138671875,-0.0904693603515625
1761378901042156500,0.404156494140625,-0.17279052734375,-0.9646148681640625,-0.095733642578125
1761378901052212200,0.414212158203125,-0.17620849609375,-0.9694671630859375,-0.0995941162109375
1761378901062268200,0.42426806640625,-0.1779327392578125,-0.9639739990234375,-0.1098175048828125
1761378901072323300,0.4343232421875,-0.1764678955078125,-0.9521026611328125,-0.1197662353515625
1761378901082379300,0.444379150390625,-0.1774139404296875,-0.9329833984375,-0.1214599609375
1761378901092435500,0.454435546875,-0.166534423828125,-0.92449951171875,-0.1149444580078125
1761378901102490400,0.464490478515625,-0.203399658203125,-0.9310455322265625,-0.1118927001953125
1761378901112546600,0.474546630859375,-0.2544097900390625,-0.9590606689453125,-0.11798095703125
1761378901122602500,0.4846025390625,-0.2876129150390625,-0.980010986328125,-0.1010589599609375
1761378901132657400,0.494657470703125,-0.3140869140625,-0.98211669921875,-0.08380126953125
1761378901142713300,0.50471337890625,-0.2933807373046875,-0.9709930419921875,-0.0722808837890625
1761378901152769300,0.514769287109375,-0.250244140625,-0.95892333984375,-0.06561279296875
1761378901162825500,0.524825439453125,-0.1953125,-0.952850341796875,-0.0501251220703125
1761378901172880400,0.53488037109375,-0.15155029296875,-0.9571685791015625,-0.0437774658203125
1761378901182936300,0.544936279296875,-0.1170654296875,-0.9555206298828125,-0.038665771484375
1761378901192992500,0.554992431640625,-0.1049346923828125,-0.9531707763671875,-0.036834716796875
1761378901203047200,0.565047119140625,-0.1083526611328125,-0.95355224609375,-0.04266357421875
1761378901213103400,0.575103271484375,-0.1292572021484375,-0.9534149169921875,-0.0473480224609375
1761378901223159300,0.5851591796875,-0.15130615234375,-0.9554443359375,-0.0525970458984375
1761378901233214500,0.59521435546875,-0.1650390625,-0.9612579345703125,-0.0594024658203125
1761378901243270400,0.6052705078125,-0.173431396484375,-0.9647369384765625,-0.060150146484375
1761378901253326300,0.615326416015625,-0.1851806640625,-0.96661376953125,-0.056182861328125
1761378901263381200,0.62538134765625,-0.1896209716796875,-0.9765472412109375,-0.0543060302734375
1761378901273437200,0.635437255859375,-0.177001953125,-0.9816436767578125,-0.046630859375
1761378901283493400,0.645493408203125,-0.1648712158203125,-0.9779815673828125,-0.046905517578125
1761378901293549300,0.65554931640625,-0.1437530517578125,-0.9662933349609375,-0.0518798828125
1761378901303604500,0.6656044921875,-0.1276397705078125,-0.9506378173828125,-0.058837890625
1761378901313660400,0.675660400390625,-0.119781494140625,-0.9441375732421875,-0.066680908203125
1761378901323716400,0.68571630859375,-0.1236419677734375,-0.9416656494140625,-0.074127197265625
1761378901333771500,0.695771484375,-0.1222686767578125,-0.93798828125,-0.071807861328125
1761378901343827200,0.7058271484375,-0.1252288818359375,-0.9375457763671875,-0.06500244140625
1761378901353883400,0.71588330078125,-0.1401519775390625,-0.949798583984375,-0.060699462890625
1761378901363938300,0.725938232421875,-0.156341552734375,-0.97174072265625,-0.0500946044921875
1761378901373994200,0.735994140625,-0.171875,-0.9892120361328125,-0.048095703125
1761378901384050400,0.746050537109375,-0.16021728515625,-0.995147705078125,-0.0552520751953125
1761378901394105300,0.756105224609375,-0.15118408203125,-1.0035858154296875,-0.069915771484375
1761378901404161500,0.76616162109375,-0.1357269287109375,-1.01483154296875,-0.081695556640625
1761378901414217500,0.776217529296875,-0.1245269775390625,-1.0176849365234375,-0.0858917236328125
1761378901424273200,0.786273193359375,-0.123199462890625,-1.0179443359375,-0.0886077880859375
1761378901434328300,0.796328369140625,-0.1263885498046875,-1.0145111083984375,-0.0844268798828125
1761378901444384300,0.80638427734375,-0.1345367431640625,-1.0188140869140625,-0.0808563232421875
1761378901454440400,0.8164404296875,-0.1424102783203125,-1.0232391357421875,-0.07635498046875
1761378901464495400,0.826495361328125,-0.151123046875,-1.02874755859375,-0.0692138671875
1761378901474551600,0.836551513671875,-0.1578369140625,-1.038330078125,-0.06768798828125
1761378901484607500,0.846607421875,-0.1558685302734375,-1.04205322265625,-0.0672607421875
1761378901494662400,0.856662353515625,-0.1404266357421875,-1.0405426025390625,-0.07379150390625
1761378901504718300,0.86671826171875,-0.1210784912109375,-1.0413665771484375,-0.08197021484375
1761378901514774300,0.876774169921875,-0.1034698486328125,-1.051361083984375,-0.0811920166015625
1761378901524829400,0.886829345703125,-0.1031036376953125,-1.063323974609375,-0.078216552734375
1761378901534885400,0.896885498046875,-0.130157470703125,-1.0814361572265625,-0.0708770751953125
1761378901544941300,0.90694140625,-0.1615753173828125,-1.1059112548828125,-0.066314697265625
1761378901554997500,0.91699755859375,-0.1993560791015625,-1.1201934814453125,-0.0580291748046875
1761378901565052200,0.92705224609375,-0.2378387451171875,-1.1260986328125,-0.0487823486328125
1761378901575108400,0.9371083984375,-0.2596893310546875,-1.13055419921875,-0.044525146484375
1761378901585164300,0.947164306640625,-0.266021728515625,-1.1263275146484375,-0.0438995361328125
1761378901595219500,0.957219482421875,-0.2662353515625,-1.1173553466796875,-0.042755126953125
1761378901605275400,0.967275390625,-0.2663116455078125,-1.1075897216796875,-0.0419921875
1761378901615331300,0.977331298828125,-0.2542877197265625,-1.0869293212890625,-0.046722412109375
1761378901625386200,0.98738623046875,-0.2470245361328125,-1.056488037109375,-0.051239013671875
1761378901635442200,0.997442138671875,-0.2527313232421875,-1.032379150390625,-0.0505828857421875
1761378901645498400,1.007498291015625,-0.2643280029296875,-1.0157318115234375,-0.0479583740234375
1761378901655554300,1.01755419921875,-0.2763824462890625,-0.99310302734375,-0.0347900390625
1761378901665609500,1.027609375,-0.2890625,-0.970245361328125,-0.024169921875
1761378901675665400,1.03766552734375,-0.290283203125,-0.955230712890625,-0.0272064208984375
1761378901685721300,1.047721435546875,-0.29986572265625,-0.9462738037109375,-0.044281005859375
1761378901695776500,1.057776611328125,-0.309295654296875,-0.9415283203125,-0.0547637939453125
1761378901705832200,1.067832275390625,-0.306427001953125,-0.928741455078125,-0.05694580078125
1761378901715888400,1.077888427734375,-0.298065185546875,-0.912353515625,-0.0530242919921875
1761378901725943300,1.087943359375,-0.2881011962890625,-0.8959808349609375,-0.0406494140625
1761378901735999200,1.097999267578125,-0.2798919677734375,-0.8881072998046875,-0.021728515625
1761378901746055400,1.108055419921875,-0.274505615234375,-0.8797607421875,-0.0073699951171875
1761378901756110300,1.1181103515625,-0.2749786376953125,-0.8697967529296875,-0.001251220703125
1761378901766166500,1.12816650390625,-0.270782470703125,-0.864837646484375,-0.0040435791015625
1761378901776222500,1.138222412109375,-0.264801025390625,-0.8565216064453125,-0.0104217529296875
1761378901786278100,1.148278076171875,-0.2473907470703125,-0.849639892578125,-0.0152435302734375
1761378901796333300,1.158333251953125,-0.22515869140625,-0.85076904296875,-0.019134521484375
1761378901806389200,1.16838916015625,-0.2079315185546875,-0.8614501953125,-0.0200958251953125
1761378901816449000,1.178448974609375,-0.18695068359375,-0.875823974609375,-0.0229339599609375
1761378901826504000,1.18850390625,-0.17388916015625,-0.8880615234375,-0.0345001220703125
1761378901836560100,1.19856005859375,-0.16290283203125,-0.898651123046875,-0.048431396484375
1761378901846616000,1.208615966796875,-0.1556396484375,-0.9123687744140625,-0.0569305419921875
1761378901856671000,1.2186708984375,-0.163482666015625,-0.9287567138671875,-0.05859375
1761378901866727000,1.228726806640625,-0.167572021484375,-0.9532623291015625,-0.0538177490234375
1761378901876782800,1.238782958984375,-0.18701171875,-0.9685211181640625,-0.040374755859375
1761378901886838000,1.248838134765625,-0.200164794921875,-0.982757568359375,-0.0245361328125
1761378901896894000,1.25889404296875,-0.206298828125,-0.985992431640625,-0.0084991455078125
1761378901906950000,1.268949951171875,-0.212066650390625,-0.9849090576171875,0.002166748046875
1761378901917006000,1.279006103515625,-0.2113189697265625,-0.980804443359375,0.0053863525390625
1761378901927061000,1.28906103515625,-0.2029571533203125,-0.9715576171875,-0.003509521484375
1761378901937117200,1.2991171875,-0.1934967041015625,-0.9600982666015625,-0.01458740234375
1761378901947172900,1.3091728515625,-0.1886138916015625,-0.9517059326171875,-0.02679443359375
1761378901957228000,1.31922802734375,-0.1840972900390625,-0.949951171875,-0.030609130859375
1761378901967284000,1.329283935546875,-0.1856689453125,-0.9521026611328125,-0.0353546142578125
1761378901977340000,1.33933984375,-0.18231201171875,-0.95208740234375,-0.0366058349609375
1761378901987395000,1.34939501953125,-0.1649932861328125,-0.945343017578125,-0.036590576171875
1761378901997451000,1.359450927734375,-0.149078369140625,-0.945037841796875,-0.04052734375
1761378902007507200,1.369507080078125,-0.1359710693359375,-0.951690673828125,-0.038238525390625
1761378902017563000,1.37956298828125,-0.120849609375,-0.952239990234375,-0.0321197509765625
1761378902027618000,1.3896181640625,-0.1129150390625,-0.9506988525390625,-0.0246124267578125
1761378902037674000,1.399674072265625,-0.1174774169921875,-0.9612884521484375,-0.014923095703125
1761378902047730000,1.40972998046875,-0.1190643310546875,-0.96966552734375,-0.0085296630859375
1761378902057785000,1.41978515625,-0.1243438720703125,-0.97320556640625,-0.0016632080078125
1761378902067841000,1.429841064453125,-0.1309967041015625,-0.9762725830078125,0.00372314453125
1761378902077897000,1.43989697265625,-0.1253662109375,-0.969940185546875,0.002227783203125
1761378902087952000,1.449951904296875,-0.1242828369140625,-0.966522216796875,0.002197265625
1761378902098007800,1.4600078125,-0.1216888427734375,-0.97222900390625,0.006500244140625
1761378902108064000,1.47006396484375,-0.121795654296875,-0.9727783203125,0.0004730224609375
1761378902118119000,1.480118896484375,-0.1268463134765625,-0.9742279052734375,-0.007232666015625
1761378902128175000,1.490175048828125,-0.1387786865234375,-0.9755401611328125,-0.00836181640625
1761378902138231000,1.50023095703125,-0.14678955078125,-0.975555419921875,-0.0005035400390625
1761378902148287000,1.510286865234375,-0.1465301513671875,-0.9716033935546875,0.00543212890625
1761378902158342000,1.520341796875,-0.132293701171875,-0.9652557373046875,0.0060882568359375
1761378902168397800,1.530397705078125,-0.1166229248046875,-0.9609527587890625,0.0005340576171875
1761378902178454000,1.5404541015625,-0.0975341796875,-0.953216552734375,-0.004486083984375
1761378902188509000,1.550509033203125,-0.08203125,-0.9479217529296875,-0.011871337890625
1761378902198565000,1.560565185546875,-0.0779876708984375,-0.95623779296875,-0.0131988525390625
1761378902208621000,1.57062109375,-0.0868072509765625,-0.9729766845703125,-0.0061187744140625
1761378902218676000,1.580676025390625,-0.0924835205078125,-0.986175537109375,-0.001556396484375
1761378902228732000,1.59073193359375,-0.0953216552734375,-0.99578857421875,-0.0045928955078125
1761378902238787800,1.600787841796875,-0.093658447265625,-1.0043487548828125,-0.0086212158203125
1761378902248843000,1.610843017578125,-0.0965576171875,-1.01171875,-0.0131378173828125
1761378902258899000,1.62089892578125,-0.10223388671875,-1.0240631103515625,-0.01727294921875
1761378902268955000,1.630954833984375,-0.1150970458984375,-1.043304443359375,-0.020050048828125
1761378902279011000,1.641010986328125,-0.130523681640625,-1.054779052734375,-0.02056884765625
1761378902289066000,1.65106591796875,-0.1450653076171875,-1.0649566650390625,-0.0172271728515625
1761378902299122200,1.6611220703125,-0.1607208251953125,-1.0717926025390625,-0.01507568359375
1761378902309177900,1.671177734375,-0.1657867431640625,-1.0702362060546875,-0.0086669921875
1761378902319233000,1.68123291015625,-0.1594390869140625,-1.0626983642578125,-0.0013275146484375
1761378902329289000,1.6912890625,-0.1502227783203125,-1.0644073486328125,0.001953125
1761378902339345000,1.701344970703125,-0.1393280029296875,-1.076507568359375,0.001312255859375
1761378902349400000,1.711400146484375,-0.136505126953125,-1.08001708984375,-0.0001220703125
1761378902359456000,1.7214560546875,-0.146209716796875,-1.080780029296875,-0.0005340576171875
1761378902369512200,1.73151220703125,-0.1602020263671875,-1.08502197265625,-0.001251220703125
1761378902379568000,1.741568115234375,-0.1772613525390625,-1.0821685791015625,-0.0024871826171875
1761378902389623000,1.751623046875,-0.1884765625,-1.07928466796875,-0.006744384765625
1761378902399679000,1.761678955078125,-0.1964874267578125,-1.0739288330078125,-0.0113983154296875
1761378902409735000,1.77173486328125,-0.194580078125,-1.0545806884765625,-0.0166168212890625
1761378902419790000,1.7817900390625,-0.1891937255859375,-1.0320587158203125,-0.0232391357421875
1761378902429846000,1.791845947265625,-0.19195556640625,-1.01385498046875,-0.021881103515625
1761378902439902000,1.80190185546875,-0.194488525390625,-0.9957427978515625,-0.0181884765625
1761378902449956900,1.811956787109375,-0.1923370361328125,-0.9798736572265625,-0.0152740478515625
1761378902460012800,1.8220126953125,-0.187591552734375,-0.9652252197265625,-0.0153656005859375
1761378902470069000,1.832069091796875,-0.1897430419921875,-0.952972412109375,-0.0200347900390625
1761378902480124000,1.8421240234375,-0.1986541748046875,-0.940216064453125,-0.0286102294921875
1761378902490180000,1.85218017578125,-0.2002410888671875,-0.931488037109375,-0.0439605712890625
1761378902500236000,1.862236083984375,-0.2146759033203125,-0.9288177490234375,-0.0604400634765625
1761378902510292000,1.8722919921875,-0.237945556640625,-0.93463134765625,-0.07122802734375
1761378902520347000,1.882346923828125,-0.2455596923828125,-0.9376373291015625,-0.070587158203125
1761378902530402800,1.89240283203125,-0.255279541015625,-0.9391021728515625,-0.0688323974609375
1761378902540459000,1.902458984375,-0.246826171875,-0.9458465576171875,-0.063934326171875
1761378902550514000,1.912513916015625,-0.2393798828125,-0.9452362060546875,-0.0570068359375
1761378902560570000,1.922570068359375,-0.24334716796875,-0.947998046875,-0.0510711669921875
1761378902570626000,1.9326259765625,-0.2425384521484375,-0.9493560791015625,-0.0451202392578125
1761378902580681000,1.942680908203125,-0.246429443359375,-0.94512939453125,-0.0391082763671875
1761378902590737000,1.95273681640625,-0.247283935546875,-0.9426727294921875,-0.036102294921875
1761378902600792800,1.962792724609375,-0.24676513671875,-0.942779541015625,-0.038970947265625
1761378902610849000,1.97284912109375,-0.2440185546875,-0.945068359375,-0.0447235107421875
1761378902620904000,1.982904052734375,-0.24560546875,-0.9493560791015625,-0.04498291015625
1761378902630959900,1.9929599609375,-0.25390625,-0.954620361328125,-0.0445098876953125
1761378902641016000,2.00301611328125,-0.258148193359375,-0.957275390625,-0.0485076904296875
1761378902651071000,2.013071044921875,-0.252166748046875,-0.957672119140625,-0.0582275390625
1761378902661127200,2.023127197265625,-0.2471466064453125,-0.9574737548828125,-0.064453125
1761378902671182800,2.033182861328125,-0.234832763671875,-0.9578857421875,-0.0680999755859375
1761378902681238000,2.043238037109375,-0.21905517578125,-0.9577178955078125,-0.0678253173828125
1761378902691294000,2.0532939453125,-0.2022857666015625,-0.958404541015625,-0.0703582763671875
1761378902701350000,2.063349853515625,-0.1879730224609375,-0.959625244140625,-0.07781982421875
1761378902711406000,2.073406005859375,-0.196746826171875,-0.96649169921875,-0.0806427001953125
1761378902721461000,2.0834609375,-0.220367431640625,-0.972686767578125,-0.0763092041015625
1761378902731517200,2.09351708984375,-0.2335662841796875,-0.9659576416015625,-0.07672119140625
1761378902741573000,2.103572998046875,-0.2298126220703125,-0.9534454345703125,-0.082489013671875
1761378902751628000,2.1136279296875,-0.220611572265625,-0.9503021240234375,-0.088775634765625
1761378902761684000,2.12368408203125,-0.2084808349609375,-0.951202392578125,-0.093994140625
1761378902771740000,2.133739990234375,-0.1962738037109375,-0.9500885009765625,-0.09820556640625
1761378902781795000,2.143795166015625,-0.1895294189453125,-0.9480743408203125,-0.096771240234375
1761378902791851000,2.15385107421875,-0.1788787841796875,-0.94287109375,-0.0902252197265625
1761378902801907000,2.163906982421875,-0.1631622314453125,-0.9412384033203125,-0.079559326171875
1761378902811958800,2.173958740234375,-0.142852783203125,-0.9441375732421875,-0.06365966796875
1761378902822014700,2.1840146484375,-0.1256866455078125,-0.9506072998046875,-0.0507049560546875
1761378902832071000,2.19407080078125,-0.1068878173828125,-0.952117919921875,-0.0432891845703125
1761378902842126800,2.204126953125,-0.0965728759765625,-0.9465179443359375,-0.036346435546875
1761378902852182000,2.21418212890625,-0.0999298095703125,-0.9459228515625,-0.0345916748046875
1761378902862238000,2.224238037109375,-0.108489990234375,-0.9537811279296875,-0.0343780517578125
1761378902872293600,2.234293701171875,-0.1215972900390625,-0.959381103515625,-0.0360870361328125
1761378902882348800,2.244348876953125,-0.1319732666015625,-0.96234130859375,-0.0331878662109375
1761378902892404700,2.25440478515625,-0.1368865966796875,-0.970062255859375,-0.0289459228515625
1761378902902461000,2.2644609375,-0.1371307373046875,-0.9752349853515625,-0.030792236328125
1761378902912515800,2.274515869140625,-0.1301422119140625,-0.9725341796875,-0.03436279296875
1761378902922571800,2.28457177734375,-0.1222686767578125,-0.9671173095703125,-0.0366973876953125
1761378902932628000,2.2946279296875,-0.11981201171875,-0.9606170654296875,-0.0382080078125
1761378902942683600,2.30468359375,-0.11785888671875,-0.9727783203125,-0.0381317138671875
1761378902952738800,2.31473876953125,-0.1191558837890625,-0.9734039306640625,-0.0372161865234375
1761378902962794800,2.324794677734375,-0.1143035888671875,-0.96380615234375,-0.04296875
1761378902972850700,2.3348505859375,-0.10369873046875,-0.96612548828125,-0.040252685546875
1761378902982905900,2.34490576171875,-0.100311279296875,-0.974090576171875,-0.0346832275390625
1761378902992961800,2.3549619140625,-0.104888916015625,-0.9827423095703125,-0.03277587890625
1761378903003018000,2.36501806640625,-0.107025146484375,-0.997039794921875,-0.0358123779296875
1761378903013072600,2.37507275390625,-0.1145477294921875,-1.006988525390625,-0.04327392578125
1761378903023128800,2.38512890625,-0.1233978271484375,-1.005523681640625,-0.0498199462890625
1761378903033184800,2.395184814453125,-0.129730224609375,-1.0105438232421875,-0.0521087646484375
1761378903043240700,2.40524072265625,-0.136474609375,-1.017425537109375,-0.0485992431640625
1761378903053295900,2.4152958984375,-0.14141845703125,-1.0159912109375,-0.0401763916015625
1761378903063351800,2.425351806640625,-0.1375885009765625,-1.0157318115234375,-0.032989501953125
1761378903073408000,2.435407958984375,-0.11962890625,-1.0116729736328125,-0.0260009765625
1761378903083462700,2.445462646484375,-0.109710693359375,-1.01995849609375,-0.02593994140625
1761378903093518800,2.455518798828125,-0.1090087890625,-1.0528564453125,-0.0313720703125
1761378903103574800,2.46557470703125,-0.119659423828125,-1.0767822265625,-0.0378265380859375
1761378903113629700,2.475629638671875,-0.1453399658203125,-1.0827484130859375,-0.0449066162109375
1761378903123686000,2.485685791015625,-0.1688232421875,-1.0856781005859375,-0.0501861572265625
1761378903133741800,2.495741943359375,-0.1903076171875,-1.0887451171875,-0.048095703125
1761378903143797800,2.5057978515625,-0.2189483642578125,-1.0955657958984375,-0.041839599609375
1761378903153852700,2.515852783203125,-0.2350921630859375,-1.094879150390625,-0.0386199951171875
1761378903163908600,2.52590869140625,-0.24749755859375,-1.087493896484375,-0.039764404296875
1761378903173964800,2.53596484375,-0.25567626953125,-1.0610809326171875,-0.043670654296875
1761378903184019700,2.546019775390625,-0.245025634765625,-1.0294342041015625,-0.048553466796875
1761378903194076000,2.556075927734375,-0.232391357421875,-1.0103912353515625,-0.05029296875
1761378903204131800,2.5661318359375,-0.212158203125,-0.9996490478515625,-0.0436248779296875
1761378903214187000,2.57618701171875,-0.2008209228515625,-0.9951629638671875,-0.0291290283203125
1761378903224243000,2.586242919921875,-0.20001220703125,-0.9996795654296875,-0.0097808837890625
1761378903234298600,2.596298583984375,-0.20611572265625,-1.0045166015625,0.005950927734375
1761378903244353800,2.606353759765625,-0.221038818359375,-1.003662109375,0.0125274658203125
1761378903254409700,2.61640966796875,-0.24072265625,-1.00616455078125,0.0148468017578125
1761378903264466000,2.6264658203125,-0.2621612548828125,-1.0018463134765625,0.0152740478515625
1761378903274521900,2.63652197265625,-0.2707061767578125,-0.9919281005859375,0.00567626953125
1761378903284576800,2.64657666015625,-0.27069091796875,-0.9788665771484375,-0.0042266845703125
1761378903294633000,2.656633056640625,-0.26708984375,-0.97174072265625,-0.0114593505859375
1761378903304689000,2.66668896484375,-0.259490966796875,-0.9670562744140625,-0.0148773193359375
1761378903314743800,2.676743896484375,-0.2477264404296875,-0.9612579345703125,-0.015380859375
1761378903324799700,2.6867998046875,-0.24444580078125,-0.9630584716796875,-0.01629638671875
1761378903334855700,2.696855712890625,-0.2444610595703125,-0.955474853515625,-0.0155029296875
1761378903344910800,2.706910888671875,-0.240692138671875,-0.930908203125,-0.0176544189453125
1761378903354966800,2.716966796875,-0.231231689453125,-0.9147491455078125,-0.025848388671875
1761378903365023000,2.72702294921875,-0.2248077392578125,-0.90875244140625,-0.031463623046875
1761378903375079000,2.737078857421875,-0.2277679443359375,-0.9081573486328125,-0.0307159423828125
1761378903385133800,2.7471337890625,-0.246185302734375,-0.908172607421875,-0.023223876953125
1761378903395189800,2.757189697265625,-0.249755859375,-0.9140625,-0.0100860595703125
1761378903405245700,2.76724560546875,-0.222412109375,-0.916595458984375,0.0006103515625
1761378903415300900,2.77730078125,-0.19873046875,-0.9188232421875,0.010955810546875
1761378903425356800,2.787356689453125,-0.183349609375,-0.929901123046875,0.024078369140625
1761378903435413000,2.7974130859375,-0.17095947265625,-0.936065673828125,0.0304412841796875
1761378903445467600,2.807467529296875,-0.1729736328125,-0.9391937255859375,0.0262603759765625
1761378903455523800,2.81752392578125,-0.1843414306640625,-0.948455810546875,0.0209503173828125
1761378903465579800,2.827579833984375,-0.1937713623046875,-0.9511566162109375,0.009979248046875
1761378903475635700,2.8376357421875,-0.20111083984375,-0.953765869140625,-0.00115966796875
1761378903485691000,2.84769091796875,-0.213134765625,-0.9718475341796875,-0.0072479248046875
1761378903495746800,2.857746826171875,-0.217376708984375,-0.9817962646484375,-0.0173492431640625
1761378903505802800,2.867802734375,-0.2190093994140625,-0.9739837646484375,-0.0301361083984375
1761378903515857700,2.877857666015625,-0.214263916015625,-0.966339111328125,-0.0380706787109375
1761378903525913600,2.88791357421875,-0.20770263671875,-0.95697021484375,-0.0410919189453125
1761378903535969800,2.8979697265625,-0.1996612548828125,-0.946990966796875,-0.0408172607421875
1761378903546024700,2.908024658203125,-0.1859588623046875,-0.940521240234375,-0.040802001953125
1761378903556081000,2.918080810546875,-0.1783905029296875,-0.9434814453125,-0.03619384765625
1761378903566136800,2.92813671875,-0.1760101318359375,-0.9473419189453125,-0.027008056640625
1761378903576192800,2.93819287109375,-0.170074462890625,-0.9435577392578125,-0.024017333984375
1761378903586248000,2.948248046875,-0.1658935546875,-0.9408111572265625,-0.0250701904296875
1761378903596303600,2.9583037109375,-0.1664886474609375,-0.94281005859375,-0.028045654296875
1761378903606359800,2.96835986328125,-0.15875244140625,-0.945281982421875,-0.028900146484375
1761378903616414700,2.978414794921875,-0.1518707275390625,-0.9522552490234375,-0.0282440185546875
1761378903626471000,2.988470947265625,-0.1389312744140625,-0.95404052734375,-0.02410888671875
1761378903636526800,2.99852685546875,-0.119049072265625,-0.9498291015625,-0.024505615234375
1761378903646582800,3.008582763671875,-0.10626220703125,-0.9483489990234375,-0.0240020751953125
1761378903656638000,3.018637939453125,-0.1019287109375,-0.9546051025390625,-0.0191650390625
1761378903666694000,3.02869384765625,-0.1114654541015625,-0.9606170654296875,-0.0143280029296875
1761378903676749800,3.038749755859375,-0.1349029541015625,-0.96710205078125,-0.00921630859375
1761378903686804700,3.0488046875,-0.149261474609375,-0.9752655029296875,-0.003326416015625
1761378903696860700,3.058860595703125,-0.1503753662109375,-0.9832763671875,-0.0072784423828125
1761378903706916900,3.068916748046875,-0.151611328125,-0.9884033203125,-0.016754150390625
1761378903716971800,3.0789716796875,-0.1490478515625,-0.99371337890625,-0.025238037109375
1761378903727028000,3.089028076171875,-0.1412353515625,-0.9898834228515625,-0.0281829833984375
1761378903737084000,3.099083984375,-0.126617431640625,-0.976165771484375,-0.0318145751953125
1761378903747139800,3.109139892578125,-0.1173248291015625,-0.968780517578125,-0.02581787109375
1761378903757194800,3.11919482421875,-0.1108856201171875,-0.976470947265625,-0.0149383544921875
1761378903767250700,3.129250732421875,-0.0938720703125,-0.9762420654296875,-0.0117950439453125
1761378903777307000,3.139306884765625,-0.082977294921875,-0.9658203125,-0.010772705078125
1761378903787361800,3.14936181640625,-0.075408935546875,-0.9673309326171875,-0.0063018798828125
1761378903797418000,3.15941796875,-0.0747833251953125,-0.9767303466796875,-0.0014190673828125
1761378903807474000,3.169473876953125,-0.074615478515625,-0.981842041015625,-0.0002593994140625
1761378903817532400,3.179532470703125,-0.0849456787109375,-0.98809814453125,0.0017852783203125
1761378903827588400,3.18958837890625,-0.09735107421875,-0.9978179931640625,0.0055084228515625
1761378903837644300,3.199644287109375,-0.1173095703125,-1.011077880859375,0.010833740234375
1761378903847700500,3.209700439453125,-0.12847900390625,-1.0240631103515625,0.0144805908203125
1761378903857755400,3.21975537109375,-0.1345977783203125,-1.033294677734375,0.0122528076171875
1761378903867811300,3.229811279296875,-0.140533447265625,-1.04193115234375,0.0079498291015625
1761378903877867500,3.239867431640625,-0.132232666015625,-1.0438385009765625,0.005767822265625
1761378903887922200,3.249922119140625,-0.132293701171875,-1.041595458984375,0.0009918212890625
1761378903897978400,3.259978271484375,-0.140411376953125,-1.0529632568359375,0.00408935546875
1761378903908034300,3.270034423828125,-0.1480712890625,-1.0713348388671875,0.0127105712890625
1761378903918089500,3.28008935546875,-0.153778076171875,-1.0908355712890625,0.013824462890625
1761378903928145400,3.2901455078125,-0.167938232421875,-1.107147216796875,0.00653076171875
1761378903938201300,3.300201416015625,-0.1851348876953125,-1.107940673828125,-0.003082275390625
1761378903948257500,3.310257568359375,-0.201995849609375,-1.09814453125,-0.0174560546875
1761378903958312200,3.320312255859375,-0.2172393798828125,-1.0917205810546875,-0.0283203125
1761378903968368400,3.330368408203125,-0.2223358154296875,-1.0812225341796875,-0.0345306396484375
1761378903978424300,3.34042431640625,-0.2284698486328125,-1.0635986328125,-0.0369720458984375
1761378903988479500,3.3504794921875,-0.23272705078125,-1.0394287109375,-0.026611328125
1761378903998535400,3.360535400390625,-0.2278289794921875,-1.019195556640625,-0.0054473876953125
1761378904008591400,3.37059130859375,-0.220245361328125,-1.0059661865234375,0.0128936767578125
1761378904018646300,3.380646240234375,-0.2068328857421875,-0.991424560546875,0.02252197265625
1761378904028702200,3.3907021484375,-0.196197509765625,-0.9746856689453125,0.0201263427734375
1761378904038758400,3.40075830078125,-0.1985321044921875,-0.961273193359375,0.0126495361328125
1761378904048814300,3.410814453125,-0.20654296875,-0.9557037353515625,0.00482177734375
1761378904058869200,3.420869140625,-0.2194671630859375,-0.9537353515625,-0.0067596435546875
1761378904068925400,3.430925537109375,-0.22491455078125,-0.948394775390625,-0.01922607421875
1761378904078981400,3.4409814453125,-0.2284698486328125,-0.946258544921875,-0.034637451171875
1761378904089036500,3.45103662109375,-0.2406768798828125,-0.950042724609375,-0.043731689453125
1761378904099092200,3.46109228515625,-0.244171142578125,-0.953155517578125,-0.0492706298828125
1761378904109148200,3.471148193359375,-0.2424774169921875,-0.947509765625,-0.0544891357421875
1761378904119204400,3.481204345703125,-0.2469024658203125,-0.943572998046875,-0.054168701171875
1761378904129259300,3.49125927734375,-0.262664794921875,-0.9506683349609375,-0.0484466552734375
1761378904139315500,3.5013154296875,-0.2702789306640625,-0.95703125,-0.03790283203125
1761378904149371400,3.511371337890625,-0.2705841064453125,-0.9510650634765625,-0.0310821533203125
1761378904159426600,3.521426513671875,-0.265380859375,-0.9396820068359375,-0.02960205078125
1761378904169482500,3.531482421875,-0.2508087158203125,-0.9288177490234375,-0.0307159423828125
1761378904179538200,3.5415380859375,-0.2389678955078125,-0.919403076171875,-0.03692626953125
1761378904189593300,3.55159326171875,-0.230224609375,-0.9124603271484375,-0.0473175048828125
1761378904199649300,3.561649169921875,-0.21795654296875,-0.906158447265625,-0.05780029296875
1761378904209705500,3.57170556640625,-0.21002197265625,-0.90167236328125,-0.066192626953125
1761378904219761400,3.581761474609375,-0.206939697265625,-0.903656005859375,-0.0611572265625
1761378904229816300,3.59181640625,-0.2024688720703125,-0.912078857421875,-0.0481414794921875
1761378904239872500,3.60187255859375,-0.195526123046875,-0.923095703125,-0.0370941162109375
1761378904249928400,3.611928466796875,-0.1866302490234375,-0.929168701171875,-0.03125
1761378904259983400,3.6219833984375,-0.178863525390625,-0.9345550537109375,-0.027801513671875
1761378904270039300,3.632039306640625,-0.1773681640625,-0.946624755859375,-0.03192138671875
1761378904280095200,3.64209521484375,-0.185638427734375,-0.964935302734375,-0.042724609375
1761378904290150400,3.652150390625,-0.1972198486328125,-0.9781646728515625,-0.0532379150390625
1761378904300206300,3.662206298828125,-0.2044677734375,-0.974517822265625,-0.0597076416015625
1761378904310262500,3.672262451171875,-0.2078399658203125,-0.96783447265625,-0.065521240234375
1761378904320318500,3.682318359375,-0.202972412109375,-0.9700164794921875,-0.0654296875
1761378904330373400,3.692373291015625,-0.191619873046875,-0.9795074462890625,-0.063568115234375
1761378904340429300,3.70242919921875,-0.179779052734375,-0.9859161376953125,-0.0602264404296875
1761378904350485200,3.7124853515625,-0.1643524169921875,-0.9887237548828125,-0.058685302734375
1761378904360540400,3.72254052734375,-0.15350341796875,-0.9854583740234375,-0.058319091796875
1761378904370596400,3.732596435546875,-0.1440887451171875,-0.9763946533203125,-0.055908203125
1761378904380652500,3.742652587890625,-0.1385040283203125,-0.9663543701171875,-0.0469818115234375
1761378904390708500,3.75270849609375,-0.139495849609375,-0.963287353515625,-0.034332275390625
1761378904400763400,3.762763427734375,-0.1406402587890625,-0.9707489013671875,-0.018463134765625
1761378904410819300,3.7728193359375,-0.1454620361328125,-0.9748077392578125,-0.007598876953125
1761378904420875300,3.782875244140625,-0.14288330078125,-0.972412109375,0.0028839111328125
1761378904430930400,3.792930419921875,-0.133636474609375,-0.9677581787109375,0.0163421630859375
1761378904440986400,3.802986328125,-0.126556396484375,-0.96734619140625,0.02166748046875
1761378904451042300,3.813042236328125,-0.1166229248046875,-0.9685211181640625,0.0177764892578125
1761378904461097200,3.82309716796875,-0.112762451171875,-0.968170166015625,0.00604248046875
1761378904471153200,3.833153076171875,-0.1111602783203125,-0.9654541015625,-0.0112152099609375
1761378904481209300,3.843209228515625,-0.1263275146484375,-0.972259521484375,-0.029327392578125
1761378904491265300,3.853265380859375,-0.143280029296875,-0.9764556884765625,-0.0413818359375
1761378904501320400,3.863320556640625,-0.15374755859375,-0.9755706787109375,-0.048828125
1761378904511376400,3.87337646484375,-0.1611328125,-0.9755096435546875,-0.04705810546875
1761378904521432300,3.883432373046875,-0.155548095703125,-0.975616455078125,-0.045654296875
1761378904531488500,3.893488525390625,-0.14324951171875,-0.9743194580078125,-0.0431365966796875
1761378904541543200,3.903543212890625,-0.12738037109375,-0.973724365234375,-0.0363922119140625
1761378904551599400,3.913599365234375,-0.1096649169921875,-0.9732208251953125,-0.0318450927734375
1761378904561655300,3.9236552734375,-0.0966644287109375,-0.9712982177734375,-0.02984619140625
1761378904571710500,3.93371044921875,-0.0889434814453125,-0.9698333740234375,-0.0307464599609375
1761378904581766400,3.943766357421875,-0.08978271484375,-0.9641571044921875,-0.0293731689453125
1761378904591822300,3.953822265625,-0.0908050537109375,-0.95904541015625,-0.02825927734375
1761378904601877500,3.96387744140625,-0.101715087890625,-0.962982177734375,-0.0288848876953125
1761378904611933400,3.973933349609375,-0.1165924072265625,-0.9712066650390625,-0.025115966796875
1761378904621989400,3.9839892578125,-0.1302490234375,-0.9821929931640625,-0.01806640625
1761378904632045300,3.99404541015625,-0.1414947509765625,-0.9965057373046875,-0.0110321044921875
1761378904642100200,4.004100341796875,-0.150146484375,-1.006927490234375,-0.00396728515625
1761378904652156400,4.014156494140625,-0.145843505859375,-1.011077880859375,-0.0088958740234375
1761378904662212400,4.02421240234375,-0.1372528076171875,-1.0138092041015625,-0.02227783203125
1761378904672265200,4.03426513671875,-0.1412811279296875,-1.02093505859375,-0.0372314453125
1761378904682320400,4.0443203125,-0.1470184326171875,-1.02154541015625,-0.0475006103515625
1761378904692376300,4.054376220703125,-0.1487884521484375,-1.0127410888671875,-0.0518646240234375
1761378904702432500,4.0644326171875,-0.1464691162109375,-1.003631591796875,-0.0550689697265625
1761378904712487400,4.0744873046875,-0.1424560546875,-1.0083770751953125,-0.05133056640625
1761378904722543400,4.08454345703125,-0.1450958251953125,-1.031280517578125,-0.045013427734375
1761378904732599300,4.094599365234375,-0.14813232421875,-1.0569610595703125,-0.0366973876953125
1761378904742655200,4.1046552734375,-0.1619110107421875,-1.072021484375,-0.02862548828125
1761378904752710400,4.11471044921875,-0.1760406494140625,-1.0787506103515625,-0.0236968994140625
1761378904762766300,4.124766357421875,-0.1942596435546875,-1.0804901123046875,-0.01922607421875
1761378904772822300,4.134822265625,-0.21795654296875,-1.0829925537109375,-0.0234527587890625
1761378904782877400,4.14487744140625,-0.24005126953125,-1.0887908935546875,-0.0269927978515625
1761378904792933400,4.154933349609375,-0.260894775390625,-1.088348388671875,-0.02789306640625
1761378904802989300,4.1649892578125,-0.277587890625,-1.0773162841796875,-0.0286865234375
1761378904813044200,4.175044189453125,-0.290863037109375,-1.0684814453125,-0.02911376953125
1761378904823100700,4.1851005859375,-0.2892913818359375,-1.0602874755859375,-0.0283660888671875
1761378904833156600,4.195156494140625,-0.273895263671875,-1.051239013671875,-0.0370941162109375
1761378904843212300,4.20521240234375,-0.2564849853515625,-1.0410308837890625,-0.04779052734375
1761378904853267500,4.215267333984375,-0.2361297607421875,-1.03045654296875,-0.0598907470703125
1761378904863323400,4.225323486328125,-0.2208709716796875,-1.02191162109375,-0.07177734375
1761378904873379600,4.235379638671875,-0.2290496826171875,-1.02728271484375,-0.080322265625
1761378904883434500,4.2454345703125,-0.254180908203125,-1.0385894775390625,-0.0789031982421875
1761378904893490400,4.255490478515625,-0.2729644775390625,-1.031951904296875,-0.0690155029296875
1761378904903546600,4.265546630859375,-0.2915802001953125,-1.0216522216796875,-0.0588836669921875
1761378904913602600,4.2756025390625,-0.3036041259765625,-1.01251220703125,-0.0494537353515625
1761378904923657500,4.285657470703125,-0.3064422607421875,-0.9975433349609375,-0.044677734375
1761378904933713400,4.29571337890625,-0.300384521484375,-0.9722900390625,-0.0402679443359375
1761378904943769300,4.305769287109375,-0.285888671875,-0.9457855224609375,-0.03704833984375
1761378904953824500,4.315824462890625,-0.2694091796875,-0.922943115234375,-0.03131103515625
1761378904963880400,4.32588037109375,-0.2533416748046875,-0.9018707275390625,-0.02459716796875
1761378904973936600,4.3359365234375,-0.2486114501953125,-0.886566162109375,-0.019805908203125
1761378904983992600,4.34599267578125,-0.2473297119140625,-0.8816375732421875,-0.01458740234375
1761378904994047500,4.356047607421875,-0.2392425537109375,-0.8761444091796875,-0.0090484619140625
1761378905004103400,4.366103515625,-0.238433837890625,-0.8673858642578125,-0.006439208984375
1761378905014159400,4.376159423828125,-0.2338714599609375,-0.8689117431640625,-0.0090484619140625
1761378905024214500,4.386214599609375,-0.2364959716796875,-0.88494873046875,-0.0127716064453125
1761378905034270500,4.3962705078125,-0.2544403076171875,-0.9045257568359375,-0.016387939453125
1761378905044326700,4.40632666015625,-0.270660400390625,-0.9139251708984375,-0.01641845703125
1761378905054382600,4.416382568359375,-0.260223388671875,-0.91033935546875,-0.0186767578125
1761378905064437500,4.4264375,-0.24676513671875,-0.902069091796875,-0.0256500244140625
1761378905074495500,4.43649560546875,-0.2352447509765625,-0.9054412841796875,-0.0317230224609375
1761378905084551700,4.4465517578125,-0.22918701171875,-0.9149017333984375,-0.0316314697265625
1761378905094606300,4.4566064453125,-0.2387237548828125,-0.9222869873046875,-0.0292816162109375
1761378905104662500,4.46666259765625,-0.252197265625,-0.938140869140625,-0.02484130859375
1761378905114718500,4.476718505859375,-0.2636566162109375,-0.9532318115234375,-0.0208587646484375
1761378905124774400,4.4867744140625,-0.2775115966796875,-0.9609222412109375,-0.0143890380859375
1761378905134829600,4.49682958984375,-0.2905731201171875,-0.9631500244140625,-0.0107269287109375
1761378905144885500,4.506885498046875,-0.2786102294921875,-0.95599365234375,-0.007293701171875
1761378905154941400,4.51694140625,-0.2572784423828125,-0.939300537109375,-0.0005035400390625
1761378905164996400,4.526996337890625,-0.2275848388671875,-0.9268798828125,0.0064697265625
1761378905175052300,4.53705224609375,-0.19818115234375,-0.92462158203125,0.012420654296875
1761378905185108500,4.5471083984375,-0.17730712890625,-0.9253082275390625,0.0163116455078125
1761378905195164400,4.557164306640625,-0.155853271484375,-0.9330902099609375,0.014801025390625
1761378905205219600,4.567219482421875,-0.1508636474609375,-0.9430084228515625,0.005859375
1761378905215275500,4.577275634765625,-0.1596221923828125,-0.9474639892578125,0.001373291015625
1761378905225331500,4.58733154296875,-0.1634063720703125,-0.9493408203125,0.0020599365234375
1761378905235386400,4.597386474609375,-0.159698486328125,-0.9415283203125,0.000518798828125
1761378905245442300,4.6074423828125,-0.1508026123046875,-0.9332427978515625,0.002105712890625
1761378905255498500,4.61749853515625,-0.1361541748046875,-0.936492919921875,0.002288818359375
1761378905265554400,4.627554443359375,-0.128265380859375,-0.947021484375,-0.000091552734375
1761378905275609600,4.637609619140625,-0.1346893310546875,-0.95806884765625,0.0007781982421875
1761378905285665500,4.64766552734375,-0.139801025390625,-0.964935302734375,-0.0052642822265625
1761378905295721500,4.657721435546875,-0.1478729248046875,-0.9690399169921875,-0.0081024169921875
1761378905305776600,4.667776611328125,-0.1475067138671875,-0.97869873046875,-0.007232666015625
1761378905315832300,4.677832275390625,-0.1363372802734375,-0.984954833984375,-0.0120697021484375
1761378905325888500,4.687888427734375,-0.1224365234375,-0.9808807373046875,-0.0162353515625
1761378905335944400,4.6979443359375,-0.107452392578125,-0.9787750244140625,-0.017913818359375
1761378905345999400,4.707999267578125,-0.10040283203125,-0.98468017578125,-0.0172882080078125
1761378905356055600,4.7180556640625,-0.1075439453125,-0.9926910400390625,-0.013641357421875
1761378905366111500,4.728111572265625,-0.11749267578125,-0.995635986328125,-0.010711669921875
1761378905376166700,4.738166748046875,-0.12744140625,-0.996734619140625,-0.012115478515625
1761378905386222300,4.748222412109375,-0.134735107421875,-1.00091552734375,-0.0101776123046875
1761378905396278300,4.7582783203125,-0.132904052734375,-1.002960205078125,-0.006622314453125
1761378905406334500,4.76833447265625,-0.136199951171875,-1.0102691650390625,0.0003204345703125
1761378905416389400,4.778389404296875,-0.133056640625,-1.013397216796875,0.011993408203125
1761378905426445600,4.788445556640625,-0.1240081787109375,-1.0056610107421875,0.0201263427734375
1761378905436501500,4.79850146484375,-0.130218505859375,-1.011505126953125,0.027099609375
1761378905446556700,4.808556640625,-0.1349029541015625,-1.0207672119140625,0.0259552001953125
1761378905456612600,4.818612548828125,-0.132293701171875,-1.018646240234375,0.01568603515625
1761378905466668300,4.828668212890625,-0.131134033203125,-1.0063018798828125,0.005126953125
1761378905476724500,4.838724365234375,-0.1291046142578125,-1.014068603515625,-0.001556396484375
1761378905486779400,4.848779296875,-0.138214111328125,-1.0479888916015625,-0.007843017578125
1761378905496835600,4.858835693359375,-0.1539306640625,-1.087860107421875,-0.0104827880859375
1761378905506891500,4.8688916015625,-0.175994873046875,-1.1147613525390625,-0.0050048828125
1761378905516946400,4.878946533203125,-0.206695556640625,-1.1234588623046875,0.004302978515625
1761378905527002600,4.889002685546875,-0.2295684814453125,-1.12158203125,0.01348876953125
1761378905537058600,4.89905859375,-0.2454071044921875,-1.1124420166015625,0.0124053955078125
1761378905547114500,4.909114501953125,-0.2510833740234375,-1.0933074951171875,0.0128326416015625
1761378905557169400,4.91916943359375,-0.23406982421875,-1.0712127685546875,0.002593994140625
1761378905567225300,4.929225341796875,-0.195037841796875,-1.030792236328125,-0.0095367431640625
1761378905577281500,4.939281494140625,-0.196441650390625,-1.0093994140625,-0.0069580078125
1761378905587337500,4.94933740234375,-0.1858062744140625,-1.0171356201171875,-0.004913330078125
1761378905597392600,4.959392578125,-0.1757659912109375,-1.01190185546875,-0.00445556640625
1761378905607448600,4.969448486328125,-0.1919097900390625,-1.0090179443359375,-0.0059051513671875
1761378905617504500,4.97950439453125,-0.2068939208984375,-1.0100555419921875,-0.0071258544921875
1761378905627559400,4.989559326171875,-0.223358154296875,-1.0036468505859375,-0.01324462890625
1761378905637615400,4.999615478515625,-0.24822998046875,-0.9903106689453125,-0.022003173828125
1761378905647671600,5.009671630859375,-0.2525177001953125,-0.9730987548828125,-0.0346527099609375
1761378905657727500,5.0197275390625,-0.23681640625,-0.952117919921875,-0.043914794921875
1761378905667782700,5.02978271484375,-0.2193756103515625,-0.9302978515625,-0.0433197021484375
