time,seconds_elapsed,z,y,x
1761378900758082000,0.12008203125,-0.10334371030330658,0.17838095128536224,0.08071483671665192
1761378900768138200,0.13013818359375,-0.13988040387630463,0.1723049432039261,0.12496059387922287
1761378900778193000,0.14019287109375,-0.12781929969787598,0.14268942177295685,0.12891080975532532
1761378900788249000,0.1502490234375,-0.09047885239124298,0.09788040816783905,0.09610359370708466
1761378900798305000,0.160304931640625,-0.03981246054172516,0.04139796644449234,0.03318721801042557
1761378900808360200,0.170360107421875,0.009650163352489471,-0.01630793884396553,-0.027961352840065956
1761378900818415400,0.180415283203125,0.05263766273856163,-0.07613341510295868,-0.08880870789289474
1761378900828471300,0.19047119140625,0.06285408139228821,-0.1364569365978241,-0.12528283894062042
1761378900838527500,0.200527587890625,0.04915410652756691,-0.15668798983097076,-0.13663393259048462
1761378900848582100,0.21058203125,0.012032835744321346,-0.12814688682556152,-0.0998024046421051
1761378900858638300,0.220638427734375,-0.03665544465184212,-0.07903991639614105,-0.029705800116062164
1761378900868694300,0.2306943359375,-0.05942147597670555,-0.01806124672293663,0.06538529694080353
1761378900878749400,0.24074951171875,-0.06941751390695572,0.04282794147729874,0.16703176498413086
1761378900888805400,0.250805419921875,-0.05919789522886276,0.08245071768760681,0.2458789050579071
1761378900898861300,0.260861328125,-0.027478521689772606,0.10744458436965942,0.2861552834510803
1761378900908916500,0.27091650390625,0.023384924978017807,0.11025581508874893,0.2796696722507477
1761378900918972200,0.28097216796875,0.08910350501537323,0.11664894223213196,0.241826131939888
1761378900929028400,0.2910283203125,0.1425318419933319,0.12202427536249161,0.1988629549741745
1761378900939084300,0.301084228515625,0.1856144219636917,0.1281132996082306,0.14126555621623993
1761378900949139500,0.311139404296875,0.2075868397951126,0.12925472855567932,0.0854789987206459
1761378900959195400,0.3211953125,0.18517211079597473,0.13669435679912567,0.04550618678331375
1761378900969251300,0.331251220703125,0.15375426411628723,0.12656022608280182,0.03237786889076233
1761378900979306500,0.341306396484375,0.10929179936647415,0.11375872045755386,0.03532973304390907
1761378900989362200,0.351362060546875,0.07646407932043076,0.08136962354183197,0.035698048770427704
1761378900999418400,0.36141845703125,0.04403624311089516,0.04508012533187866,0.006176811642944813
1761378901009473300,0.371473388671875,0.03653198853135109,-0.009883523918688297,-0.05292645841836929
1761378901019529200,0.381529296875,0.05904778465628624,-0.04133673384785652,-0.12699267268180847
1761378901029585400,0.39158544921875,0.09702446311712265,-0.0801062360405922,-0.20637936890125275
1761378901039640300,0.401640380859375,0.13699060678482056,-0.0899309292435646,-0.2689984440803528
1761378901049696500,0.411696533203125,0.1605531871318817,-0.08485201746225357,-0.31029102206230164
1761378901059752400,0.42175244140625,0.16998444497585297,-0.0483044870197773,-0.34466552734375
1761378901069807400,0.431807373046875,0.16435906291007996,-0.013712422922253609,-0.3903845548629761
1761378901079863300,0.44186328125,0.15703275799751282,0.0012541073374450207,-0.42675769329071045
1761378901089919200,0.451919189453125,0.10968494415283203,0.08083335310220718,-0.44401392340660095
1761378901099975400,0.461975341796875,0.05077408254146576,0.09613128006458282,-0.43524906039237976
1761378901110030300,0.4720302734375,-0.017061425372958183,0.11232729256153107,-0.38063696026802063
1761378901120086500,0.48208642578125,-0.04111255332827568,0.10274910926818848,-0.26965445280075073
1761378901130142500,0.492142578125,-0.06076561287045479,0.09697084873914719,-0.1279015839099884
1761378901140197400,0.502197265625,-0.07599762827157974,0.12372266501188278,0.02388693019747734
1761378901150253300,0.51225341796875,-0.08527635037899017,0.15629179775714874,0.13374125957489014
1761378901160309200,0.522309326171875,-0.0846853107213974,0.18679721653461456,0.1648777276277542
1761378901170364400,0.532364501953125,-0.05821721628308296,0.19663572311401367,0.11308829486370087
1761378901180420400,0.54242041015625,-0.0265534408390522,0.19792962074279785,0.009724028408527374
1761378901190476500,0.5524765625,0.006592792458832264,0.18617016077041626,-0.09782853722572327
1761378901200531200,0.56253125,0.03322092071175575,0.1902756243944168,-0.17591792345046997
1761378901210587100,0.572587158203125,0.04465307295322418,0.18896880745887756,-0.20433570444583893
1761378901220643300,0.582643310546875,0.04116892069578171,0.20890772342681885,-0.18675054609775543
1761378901230699300,0.59269921875,0.03391100838780403,0.23279760777950287,-0.14682923257350922
1761378901240754400,0.60275439453125,0.006800887640565634,0.2631060779094696,-0.09982650727033615
1761378901250810400,0.612810302734375,-0.013881487771868706,0.2720881402492523,-0.04836944490671158
1761378901260866300,0.6228662109375,-0.00499820476397872,0.27951836585998535,-0.002227108459919691
1761378901270921500,0.63292138671875,0.03236114978790283,0.2917419970035553,0.02791161835193634
1761378901280977200,0.64297705078125,0.06724350154399872,0.29969632625579834,0.030120976269245148
1761378901291033300,0.653033447265625,0.10019931942224503,0.32164663076400757,0.009272687137126923
1761378901301088300,0.663088134765625,0.11718719452619553,0.3429790735244751,-0.03008337691426277
1761378901311144400,0.67314453125,0.11546412855386734,0.37058645486831665,-0.06565255671739578
1761378901321200400,0.683200439453125,0.10032355040311813,0.3718641996383667,-0.08699729293584824
1761378901331255600,0.693255615234375,0.08325907588005066,0.3556061387062073,-0.1042252853512764
1761378901341311500,0.7033115234375,0.05566207692027092,0.3171651363372803,-0.12427295744419098
1761378901351367400,0.713367431640625,0.03719891607761383,0.24486005306243896,-0.13287870585918427
1761378901361423400,0.72342333984375,0.02998538687825203,0.1632935106754303,-0.1182374581694603
1761378901371478300,0.733478271484375,0.029106542468070984,0.09040837734937668,-0.07430701702833176
1761378901381534500,0.743534423828125,0.028274795040488243,0.06635835766792297,-0.020186033099889755
1761378901391590400,0.75359033203125,0.026313377544283867,0.06646700948476791,0.025043228641152382
1761378901401645300,0.763645263671875,0.024908997118473053,0.0931525006890297,0.048624493181705475
1761378901411701500,0.773701416015625,0.02255050092935562,0.11898303031921387,0.048090528696775436
1761378901421757400,0.78375732421875,0.008688189089298248,0.14489378035068512,0.040514666587114334
1761378901431812400,0.793812255859375,-0.009442877024412155,0.16076329350471497,0.039927706122398376
1761378901441868300,0.803868408203125,-0.02492254041135311,0.16701723635196686,0.04174773022532463
1761378901451924200,0.81392431640625,-0.025957444682717323,0.16172713041305542,0.059959493577480316
1761378901461979400,0.8239794921875,-0.015762291848659515,0.1482778638601303,0.08225492388010025
1761378901472035300,0.834035400390625,-0.002639832440763712,0.1358499526977539,0.10929372906684875
1761378901482091500,0.844091552734375,0.011352229863405228,0.13966964185237885,0.15728358924388885
1761378901492147500,0.8541474609375,0.02815810777246952,0.17799359560012817,0.20963041484355927
1761378901502202400,0.864202392578125,0.037922605872154236,0.23151953518390656,0.2259439378976822
1761378901512258300,0.87425830078125,0.04837418347597122,0.3050802946090698,0.19053615629673004
1761378901522314200,0.884314208984375,0.045479658991098404,0.3497145175933838,0.1345982551574707
1761378901532369400,0.894369384765625,0.05353119224309921,0.3664647340774536,0.06695424020290375
1761378901542425300,0.90442529296875,0.06624878942966461,0.36039653420448303,0.02797147072851658
1761378901552481500,0.9144814453125,0.07797601819038391,0.33309221267700195,0.02532961405813694
1761378901562536200,0.9245361328125,0.08424446731805801,0.2849557399749756,0.046974264085292816
1761378901572592400,0.93459228515625,0.08842189610004425,0.2507692873477936,0.0896008163690567
1761378901582648300,0.9446484375,0.09048699587583542,0.21477636694908142,0.11886508762836456
1761378901592703200,0.954703125,0.08832477033138275,0.1690823882818222,0.11192489415407181
1761378901602759400,0.964759521484375,0.08780662715435028,0.12206704914569855,0.08655927330255508
1761378901612815400,0.9748154296875,0.08218469470739365,0.09786690771579742,0.056223731487989426
1761378901622871300,0.984871337890625,0.07166732102632523,0.08301670849323273,0.04464317485690117
1761378901632926500,0.994926513671875,0.07823041826486588,0.08627375960350037,0.037827346473932266
1761378901642982100,1.004982177734375,0.09813633561134338,0.09783826768398285,0.0442010834813118
1761378901653038300,1.015038330078125,0.1255549192428589,0.099358931183815,0.053695518523454666
1761378901663093200,1.02509326171875,0.15469825267791748,0.10134909301996231,0.07533569633960724
1761378901673149400,1.0351494140625,0.16883857548236847,0.13410624861717224,0.10571517050266266
1761378901683205400,1.045205322265625,0.1542230099439621,0.16798226535320282,0.15618623793125153
1761378901693260500,1.055260498046875,0.12830592691898346,0.21291698515415192,0.22194474935531616
1761378901703316500,1.06531640625,0.09413714706897736,0.24140086770057678,0.29382508993148804
1761378901713372400,1.075372314453125,0.056749291718006134,0.26053062081336975,0.3444371521472931
1761378901723428400,1.085428466796875,0.033454954624176025,0.24318566918373108,0.3595999479293823
1761378901733483300,1.095483154296875,0.03654129058122635,0.19926828145980835,0.34110909700393677
1761378901743539500,1.10553955078125,0.046702295541763306,0.1319274604320526,0.31104937195777893
1761378901753595400,1.115595458984375,0.061016786843538284,0.06991414725780487,0.28957098722457886
1761378901763650300,1.125650390625,0.0676371231675148,0.009424098767340183,0.2961629331111908
1761378901773706500,1.13570654296875,0.06243596598505974,-0.044450584799051285,0.3039841055870056
1761378901783762400,1.145762451171875,0.038572706282138824,-0.08447909355163574,0.31285637617111206
1761378901793817300,1.1558173828125,0.020163606852293015,-0.11363191902637482,0.29849499464035034
1761378901803873300,1.165873291015625,0.012829670682549477,-0.12149157375097275,0.2602560520172119
1761378901813932800,1.175932861328125,0.01134788803756237,-0.09958547353744507,0.2155807465314865
1761378901823988000,1.185988037109375,0.011321299709379673,-0.04955663904547691,0.16902005672454834
1761378901834044000,1.1960439453125,0.005161407869309187,0.032626114785671234,0.11534483730792999
1761378901844100000,1.20610009765625,-0.022459980100393295,0.11707135289907455,0.05477330461144447
1761378901854156000,1.216156005859375,-0.052428264170885086,0.18791517615318298,-0.006238650064915419
1761378901864211200,1.226211181640625,-0.07544215768575668,0.24875745177268982,-0.05860453471541405
1761378901874267000,1.236266845703125,-0.09488455951213837,0.27202311158180237,-0.09970723092556
1761378901884322800,1.24632275390625,-0.09615235030651093,0.2699600160121918,-0.12059343606233597
1761378901894378000,1.2563779296875,-0.07254289835691452,0.23685692250728607,-0.1219543069601059
1761378901904434000,1.266433837890625,-0.030992377549409866,0.18322086334228516,-0.11461702734231949
1761378901914490000,1.276489990234375,-0.004599920939654112,0.12199585884809494,-0.09855177998542786
1761378901924545000,1.286544921875,0.028397465124726295,0.07607963681221008,-0.09076195955276489
1761378901934601000,1.29660107421875,0.03359462320804596,0.039937082678079605,-0.08836644142866135
1761378901944657200,1.3066572265625,0.019122660160064697,0.010481012985110283,-0.09105965495109558
1761378901954712800,1.316712890625,-0.008752914145588875,-0.019970636814832687,-0.09133822470903397
1761378901964768000,1.32676806640625,-0.030450034886598587,-0.05300552770495415,-0.0774422362446785
1761378901974824000,1.336823974609375,-0.044338684529066086,-0.08228857815265656,-0.05242449790239334
1761378901984879900,1.3468798828125,-0.057831406593322754,-0.09709253162145615,-0.03335745260119438
1761378901994935000,1.35693505859375,-0.06189379841089249,-0.09850453585386276,-0.028314488008618355
1761378902004991000,1.366990966796875,-0.06042942404747009,-0.07777487486600876,-0.03951859846711159
1761378902015047200,1.377047119140625,-0.05830049514770508,-0.05599075183272362,-0.058212392032146454
1761378902025101800,1.387101806640625,-0.05341469869017601,-0.03835126385092735,-0.08904404938220978
1761378902035158000,1.397157958984375,-0.0446169488132,-0.030708255246281624,-0.11398881673812866
1761378902045214000,1.4072138671875,-0.026097280904650688,-0.024990694597363472,-0.1207597628235817
1761378902055269000,1.41726904296875,0.001985484268516302,-0.03413945063948631,-0.12427939474582672
1761378902065325000,1.427324951171875,0.023150669410824776,-0.042555782943964005,-0.12830393016338348
1761378902075381000,1.437381103515625,0.03376895934343338,-0.05897364020347595,-0.12817662954330444
1761378902085437200,1.447437255859375,0.05156756192445755,-0.07543820887804031,-0.13381101191043854
1761378902095491800,1.457491943359375,0.06173790618777275,-0.09120918810367584,-0.1439659148454666
1761378902105548000,1.467548095703125,0.06036408245563507,-0.1096561923623085,-0.14252184331417084
1761378902115604000,1.47760400390625,0.041611965745687485,-0.11530742049217224,-0.12615326046943665
1761378902125659000,1.487658935546875,0.02376309409737587,-0.13499827682971954,-0.0878971740603447
1761378902135715000,1.497715087890625,0.010391893796622753,-0.16315588355064392,-0.03196253627538681
1761378902145771000,1.50777099609375,0.013578755781054497,-0.20377422869205475,0.024166850373148918
1761378902155826200,1.517826171875,0.028774753212928772,-0.22617781162261963,0.07529342174530029
1761378902165881900,1.5278818359375,0.04085454344749451,-0.23969484865665436,0.10820112377405167
1761378902175937800,1.537937744140625,0.041253749281167984,-0.23594191670417786,0.1152941882610321
1761378902185993000,1.547992919921875,0.02691410295665264,-0.22773796319961548,0.09784641116857529
1761378902196049000,1.558048828125,0.009309808723628521,-0.23141124844551086,0.06939931958913803
1761378902206105000,1.56810498046875,-0.0061386702582240105,-0.2529742419719696,0.042576052248477936
1761378902216161000,1.5781611328125,-0.03379479795694351,-0.2704898416996002,0.039916351437568665
1761378902226216200,1.58821630859375,-0.059448689222335815,-0.28081655502319336,0.04711136221885681
1761378902236272000,1.598272216796875,-0.07603458315134048,-0.27742475271224976,0.05149199813604355
1761378902246327800,1.608327880859375,-0.09807130694389343,-0.2801162898540497,0.04040411859750748
1761378902256383000,1.618383056640625,-0.11304226517677307,-0.2867933511734009,0.012688868679106236
1761378902266439000,1.62843896484375,-0.11994218081235886,-0.29653510451316833,-0.017137227579951286
1761378902276495000,1.6384951171875,-0.13390833139419556,-0.30332696437835693,-0.02932118996977806
1761378902286550000,1.648550048828125,-0.14964190125465393,-0.30376386642456055,-0.017931515350937843
1761378902296606000,1.65860595703125,-0.15770195424556732,-0.305525541305542,0.027019444853067398
1761378902306662100,1.668662109375,-0.16309060156345367,-0.3098110854625702,0.08482469618320465
1761378902316717800,1.6787177734375,-0.15247417986392975,-0.3212280571460724,0.11653707921504974
1761378902326773000,1.68877294921875,-0.1351996660232544,-0.33875060081481934,0.09422602504491806
1761378902336829000,1.698828857421875,-0.1207946166396141,-0.34265559911727905,0.038786470890045166
1761378902346884900,1.708884765625,-0.10926289111375809,-0.3521113693714142,-0.015852339565753937
1761378902356940000,1.71893994140625,-0.10102413594722748,-0.3531270921230316,-0.04693462699651718
1761378902366996000,1.728995849609375,-0.09796285629272461,-0.3423333466053009,-0.05202508717775345
1761378902377052200,1.73905224609375,-0.10068327933549881,-0.3399176001548767,-0.043149299919605255
1761378902387106800,1.74910693359375,-0.09824907034635544,-0.3360044062137604,-0.026610853150486946
1761378902397163000,1.7591630859375,-0.08886755257844925,-0.3168022036552429,-0.0057817380875349045
1761378902407219000,1.769218994140625,-0.09180901944637299,-0.28549888730049133,0.0011555301025509834
1761378902417274000,1.779274169921875,-0.0872182622551918,-0.24379348754882812,0.0029739364981651306
1761378902427330000,1.789330078125,-0.06703457236289978,-0.20847555994987488,-0.01899280771613121
1761378902437386000,1.799385986328125,-0.03431044891476631,-0.19482126832008362,-0.038454923778772354
1761378902447442200,1.809442138671875,0.011022002436220646,-0.19583122432231903,-0.06295992434024811
1761378902457496800,1.819496826171875,0.05711306631565094,-0.2056146115064621,-0.09553704410791397
1761378902467553000,1.829552978515625,0.07932148873806,-0.2293553650379181,-0.1304517239332199
1761378902477609000,1.83960888671875,0.07913799583911896,-0.24702170491218567,-0.16643555462360382
1761378902487663900,1.849663818359375,0.05307970196008682,-0.22635401785373688,-0.19505825638771057
1761378902497720000,1.859719970703125,-0.005417695734649897,-0.20612704753875732,-0.20645178854465485
1761378902507776000,1.86977587890625,-0.06410916149616241,-0.18266883492469788,-0.18040457367897034
1761378902517831200,1.8798310546875,-0.11222342401742935,-0.16354121267795563,-0.12807773053646088
1761378902527886800,1.889886962890625,-0.14747104048728943,-0.16344967484474182,-0.07656072825193405
1761378902537942800,1.89994287109375,-0.1701103001832962,-0.16371677815914154,-0.03778110444545746
1761378902547999000,1.9099990234375,-0.17836186289787292,-0.17513683438301086,-0.02909006178379059
1761378902558054000,1.920053955078125,-0.16736221313476562,-0.1874513030052185,-0.03379267081618309
1761378902568110000,1.930110107421875,-0.14216239750385284,-0.1949937641620636,-0.033593177795410156
1761378902578166000,1.940166015625,-0.10457826405763626,-0.1876162737607956,-0.017338575795292854
1761378902588221200,1.95022119140625,-0.07907700538635254,-0.16313381493091583,0.005434161517769098
1761378902598277000,1.960277099609375,-0.05801673233509064,-0.12361409515142441,0.021388359367847443
1761378902608332800,1.970332763671875,-0.037677377462387085,-0.07974769175052643,0.02300705760717392
1761378902618388000,1.980387939453125,-0.019614489749073982,-0.04893944412469864,0.01861470565199852
1761378902628444000,1.99044384765625,-0.015734989196062088,-0.04667741805315018,0.013842863962054253
1761378902638500000,2.0005,-0.01232081837952137,-0.05086790397763252,0.023166855797171593
1761378902648555000,2.010554931640625,-0.014916353859007359,-0.05964507907629013,0.03693847358226776
1761378902658611000,2.02061083984375,-0.026295777410268784,-0.06998533010482788,0.04633517190814018
1761378902668667100,2.030667236328125,-0.03759864717721939,-0.08737865090370178,0.041123732924461365
1761378902678723000,2.04072314453125,-0.036906756460666656,-0.10344284027814865,0.016706805676221848
1761378902688778000,2.050778076171875,-0.03195533528923988,-0.10303327441215515,-0.044694285839796066
1761378902698834000,2.060833984375,-0.029857298359274864,-0.0965530052781105,-0.12469884008169174
1761378902708889900,2.070889892578125,-0.01946525275707245,-0.09682899713516235,-0.20211978256702423
1761378902718945000,2.080945068359375,-0.0041542076505720615,-0.11563944071531296,-0.22818760573863983
1761378902729001000,2.0910009765625,0.006734327878803015,-0.129937544465065,-0.2044609636068344
1761378902739057200,2.10105712890625,0.004566248506307602,-0.12543733417987823,-0.1536550372838974
1761378902749111800,2.11111181640625,-0.01919904351234436,-0.09423137456178665,-0.10411855578422546
1761378902759168000,2.12116796875,-0.0537991002202034,-0.03493901714682579,-0.06807905435562134
1761378902769224000,2.131223876953125,-0.09017609804868698,0.038865916430950165,-0.03585756942629814
1761378902779280000,2.14127978515625,-0.12305441498756409,0.10308751463890076,0.006327432580292225
1761378902789335000,2.1513349609375,-0.13539794087409973,0.155244380235672,0.04646576568484306
1761378902799391000,2.161390869140625,-0.13510365784168243,0.18355058133602142,0.06880542635917664
1761378902809447200,2.171447265625,-0.1077139601111412,0.18981778621673584,0.052153851836919785
1761378902819498800,2.181498779296875,-0.07278793305158615,0.18944494426250458,0.008932609111070633
1761378902829554700,2.1915546875,-0.04554780572652817,0.1959271878004074,-0.03913602605462074
1761378902839611000,2.20161083984375,-0.02906070649623871,0.21151334047317505,-0.07412303984165192
1761378902849665800,2.211665771484375,-0.016168469563126564,0.22378261387348175,-0.0961700975894928
1761378902859722000,2.221721923828125,-0.0028313579969108105,0.2392270714044571,-0.10364639014005661
1761378902869778000,2.23177783203125,0.01076918188482523,0.24560657143592834,-0.0920124500989914
1761378902879832800,2.241832763671875,0.03023768775165081,0.2371094971895218,-0.0666719377040863
1761378902889888800,2.251888671875,0.054499901831150055,0.23353518545627594,-0.041944101452827454
1761378902899944700,2.26194482421875,0.08035706728696823,0.2325066775083542,-0.01129564456641674
1761378902910001000,2.2720009765625,0.09385093301534653,0.2507759928703308,0.012876052409410477
1761378902920055800,2.282055908203125,0.09794341772794724,0.25587329268455505,0.029717881232500076
1761378902930112000,2.292112060546875,0.09131082892417908,0.24005429446697235,0.035256315022706985
1761378902940168000,2.30216796875,0.10408122092485428,0.23606275022029877,0.029064197093248367
1761378902950222800,2.312222900390625,0.08674471825361252,0.2244802713394165,0.04143897816538811
1761378902960278800,2.32227880859375,0.06339039653539658,0.2276930958032608,0.05222371593117714
1761378902970334700,2.332334716796875,0.04632961377501488,0.2422575056552887,0.05754160135984421
1761378902980390000,2.342389892578125,0.039447471499443054,0.24118532240390778,0.05368853732943535
1761378902990445800,2.35244580078125,0.055648136883974075,0.23369641602039337,0.05012582987546921
1761378903000501800,2.362501708984375,0.08170051127672195,0.2459954172372818,0.058782968670129776
1761378903010558000,2.372557861328125,0.08948767185211182,0.2665310800075531,0.08005805313587189
1761378903020612600,2.382612548828125,0.07715350389480591,0.29108142852783203,0.10854482650756836
1761378903030668800,2.392668701171875,0.06762582808732986,0.3142358958721161,0.145504891872406
1761378903040724700,2.402724853515625,0.055823493748903275,0.3251180946826935,0.18154944479465485
1761378903050780000,2.41277978515625,0.04965721070766449,0.30393773317337036,0.21536865830421448
1761378903060835800,2.4228359375,0.04911259561777115,0.28498533368110657,0.25003582239151
1761378903070891800,2.432891845703125,0.06287657469511032,0.2708491384983063,0.2648957669734955
1761378903080947000,2.442947021484375,0.09740392118692398,0.2616087794303894,0.2094745635986328
1761378903091002600,2.453002685546875,0.13109630346298218,0.26408061385154724,0.10318651050329208
1761378903101058800,2.463058837890625,0.14792321622371674,0.2748813331127167,0.010296514257788658
1761378903111114800,2.47311474609375,0.14193709194660187,0.299176961183548,-0.027027616277337074
1761378903121170000,2.483169921875,0.12762899696826935,0.3309817612171173,-0.0033103018067777157
1761378903131225900,2.493225830078125,0.12285339087247849,0.35190707445144653,0.03684930503368378
1761378903141281800,2.50328173828125,0.12253008782863617,0.34110793471336365,0.06353684514760971
1761378903151337000,2.5133369140625,0.12655523419380188,0.32467910647392273,0.08444997668266296
1761378903161393000,2.523392822265625,0.1305726170539856,0.30214744806289673,0.10441409051418304
1761378903171448800,2.53344873046875,0.11373388767242432,0.2896347641944885,0.1357421576976776
1761378903181503700,2.543503662109375,0.09294099360704422,0.294940322637558,0.16505743563175201
1761378903191559700,2.5535595703125,0.07872625440359116,0.31535524129867554,0.17158883810043335
1761378903201616000,2.563615966796875,0.06705788522958755,0.33927521109580994,0.14685393869876862
1761378903211671800,2.573671875,0.061753049492836,0.34550777077674866,0.09481034427881241
1761378903221727000,2.58372705078125,0.08267989754676819,0.3449671268463135,0.028841981664299965
1761378903231783000,2.593782958984375,0.12051306664943695,0.33686456084251404,-0.021436601877212524
1761378903241838800,2.6038388671875,0.16344775259494781,0.3301110565662384,-0.051164936274290085
1761378903251893800,2.613893798828125,0.21442511677742004,0.31750595569610596,-0.05381561815738678
1761378903261949700,2.62394970703125,0.2601092457771301,0.2989397346973419,-0.04450573772192001
1761378903272006000,2.634005859375,0.2834242880344391,0.28359946608543396,-0.02222633920609951
1761378903282060800,2.644060791015625,0.2876832187175751,0.275825172662735,0.004913136828690767
1761378903292117000,2.654116943359375,0.28142184019088745,0.27042102813720703,0.03300732374191284
1761378903302173000,2.6641728515625,0.26939740777015686,0.26738423109054565,0.05746819078922272
1761378903312228900,2.674228759765625,0.2638285160064697,0.2554874122142792,0.06816966831684113
1761378903322283800,2.68428369140625,0.25997334718704224,0.23115487396717072,0.057389721274375916
1761378903332339700,2.694339599609375,0.24975574016571045,0.19788455963134766,0.044457726180553436
1761378903342396000,2.70439599609375,0.2276696264743805,0.1723664253950119,0.03369669243693352
1761378903352450800,2.714450927734375,0.1976158618927002,0.17618750035762787,0.01208813302218914
1761378903362506800,2.7245068359375,0.15832066535949707,0.1972605586051941,-0.007874656468629837
1761378903372563000,2.73456298828125,0.11683190613985062,0.21929043531417847,-0.01624096743762493
1761378903382617600,2.74461767578125,0.07870262861251831,0.2056875377893448,-0.003658862551674247
1761378903392673800,2.754673828125,0.05986867472529411,0.21151694655418396,0.02817688323557377
1761378903402729700,2.764729736328125,0.06520804762840271,0.2327178418636322,0.07070676982402802
1761378903412785700,2.77478564453125,0.09058301150798798,0.2585677206516266,0.07913414388895035
1761378903422840800,2.7848408203125,0.12296625226736069,0.2774551212787628,0.04248771071434021
1761378903432896800,2.794896728515625,0.1516532450914383,0.27874264121055603,-0.023881962522864342
1761378903442953000,2.804952880859375,0.1730235069990158,0.2689099907875061,-0.09699691832065582
1761378903453007600,2.815007568359375,0.17725402116775513,0.253763347864151,-0.13946259021759033
1761378903463063800,2.825063720703125,0.1620582789182663,0.24545800685882568,-0.14332550764083862
1761378903473119700,2.83511962890625,0.14734011888504028,0.2354040890932083,-0.12608888745307922
1761378903483175000,2.8451748046875,0.13843663036823273,0.22347338497638702,-0.1097344234585762
1761378903493230800,2.85523095703125,0.12203201651573181,0.22098234295845032,-0.09183186292648315
1761378903503286800,2.865286865234375,0.09140992909669876,0.22332964837551117,-0.0690716877579689
1761378903513343000,2.875343017578125,0.0665658637881279,0.22683711349964142,-0.04115240275859833
1761378903523398000,2.88539794921875,0.044952183961868286,0.2267383188009262,-0.019224736839532852
1761378903533453800,2.895453857421875,0.024244997650384903,0.21534302830696106,-0.010327031835913658
1761378903543509800,2.905509765625,0.009085220284759998,0.1942310780286789,-0.021968774497509003
1761378903553564700,2.915564697265625,0.005091093014925718,0.16458317637443542,-0.04363982379436493
1761378903563620900,2.925620849609375,0.0059278579428792,0.12433163076639175,-0.061415091156959534
1761378903573676800,2.9356767578125,0.007474049925804138,0.0889974907040596,-0.07101443409919739
1761378903583732000,2.94573193359375,0.005080134607851505,0.07107175886631012,-0.0676543191075325
1761378903593788000,2.955787841796875,-0.0006637517362833023,0.058160409331321716,-0.04989384487271309
1761378903603843800,2.96584375,-0.0025162464007735252,0.04867822304368019,-0.028669249266386032
1761378903613899800,2.975899658203125,-0.004626998212188482,0.03242138400673866,-0.019276894629001617
1761378903623954700,2.98595458984375,-0.01618298701941967,0.017829924821853638,-0.020638834685087204
1761378903634011000,2.996010986328125,-0.03279794380068779,-0.0028628394939005375,-0.03453255072236061
1761378903644066800,3.00606689453125,-0.046964626759290695,-0.015899546444416046,-0.0658838152885437
1761378903654122000,3.0161220703125,-0.06621696799993515,-0.026199866086244583,-0.10461245477199554
1761378903664178000,3.026177978515625,-0.07704351842403412,-0.04246698319911957,-0.12907280027866364
1761378903674233900,3.03623388671875,-0.07130633294582367,-0.0776248350739479,-0.12318878620862961
1761378903684288800,3.046288818359375,-0.052512671798467636,-0.10084999352693558,-0.09722722321748734
1761378903694344700,3.0563447265625,-0.033844608813524246,-0.11524146795272827,-0.06955543160438538
1761378903704401000,3.06640087890625,-0.021854789927601814,-0.1287945657968521,-0.04485141858458519
1761378903714456800,3.076456787109375,-0.017649289220571518,-0.13809461891651154,-0.02299383282661438
1761378903724511700,3.08651171875,-0.03433293104171753,-0.13721098005771637,0.003608481027185917
1761378903734568000,3.09656787109375,-0.06362057477235794,-0.13371597230434418,0.03161696717143059
1761378903744623900,3.106623779296875,-0.09176699072122574,-0.1314735859632492,0.04575888440012932
1761378903754678800,3.1166787109375,-0.10587873309850693,-0.1359466165304184,0.055210866034030914
1761378903764734700,3.126734619140625,-0.12058497965335846,-0.12599411606788635,0.057564299553632736
1761378903774790700,3.136790771484375,-0.12643757462501526,-0.11055239289999008,0.0560942068696022
1761378903784845800,3.146845703125,-0.12974415719509125,-0.0970405787229538,0.03906915336847305
1761378903794901800,3.15690185546875,-0.1260387897491455,-0.09378845989704132,0.0137263722717762
1761378903804958000,3.1669580078125,-0.12547819316387177,-0.08199651539325714,-0.012860496528446674
1761378903815017500,3.177017578125,-0.12672492861747742,-0.09226632863283157,-0.02498306892812252
1761378903825072400,3.187072265625,-0.13615171611309052,-0.0996323674917221,-0.020145170390605927
1761378903835128300,3.19712841796875,-0.14745940268039703,-0.1258547157049179,-0.009210754185914993
1761378903845184300,3.207184326171875,-0.1555548757314682,-0.1471051424741745,0.015809375792741776
1761378903855239400,3.217239501953125,-0.16237547993659973,-0.16956202685832977,0.03788384795188904
1761378903865295400,3.22729541015625,-0.16124363243579865,-0.1810823231935501,0.05970526114106178
1761378903875351600,3.2373515625,-0.17522625625133514,-0.1706370860338211,0.08551110327243805
1761378903885407500,3.247407470703125,-0.1949392408132553,-0.15817561745643616,0.10131563246250153
1761378903895462400,3.25746240234375,-0.21907766163349152,-0.17868672311306,0.08797752112150192
1761378903905518300,3.267518310546875,-0.23271623253822327,-0.2233402132987976,0.048768866807222366
1761378903915574300,3.27757421875,-0.23072640597820282,-0.27383682131767273,0.0005843075923621655
1761378903925629400,3.28762939453125,-0.226714625954628,-0.32083573937416077,-0.0381803996860981
1761378903935685400,3.297685302734375,-0.23130860924720764,-0.34482407569885254,-0.04685097187757492
1761378903945741300,3.3077412109375,-0.2395297884941101,-0.35130247473716736,-0.03457752615213394
1761378903955796200,3.317796142578125,-0.25147467851638794,-0.3237400949001312,-0.005396418273448944
1761378903965852200,3.32785205078125,-0.27004915475845337,-0.2574699819087982,0.04312451183795929
1761378903975908400,3.337908447265625,-0.2845761477947235,-0.1829233467578888,0.10164008289575577
1761378903985963300,3.34796337890625,-0.28288209438323975,-0.12371382117271423,0.16871285438537598
1761378903996019500,3.35801953125,-0.25271332263946533,-0.0830952525138855,0.2028649002313614
1761378904006075400,3.368075439453125,-0.19913078844547272,-0.0839272290468216,0.19634175300598145
1761378904016131300,3.37813134765625,-0.15043708682060242,-0.0886564776301384,0.15141354501247406
1761378904026186500,3.3881865234375,-0.10690797865390778,-0.10431666672229767,0.09062236547470093
1761378904036242200,3.3982421875,-0.08177946507930756,-0.12984789907932281,0.017807604745030403
1761378904046298400,3.40829833984375,-0.07458679378032684,-0.1634356826543808,-0.03925754502415657
1761378904056353300,3.418353271484375,-0.07998942583799362,-0.20226702094078064,-0.07645922899246216
1761378904066409500,3.428409423828125,-0.10045821964740753,-0.21612930297851562,-0.08734063804149628
1761378904076465400,3.43846533203125,-0.13092350959777832,-0.20813219249248505,-0.0852450355887413
1761378904086521300,3.448521240234375,-0.1534019112586975,-0.18403057754039764,-0.0755029246211052
1761378904096576500,3.458576416015625,-0.17136479914188385,-0.14580243825912476,-0.06035621091723442
1761378904106632400,3.468632568359375,-0.1799236685037613,-0.11577051132917404,-0.045757029205560684
1761378904116688100,3.478688232421875,-0.18843096494674683,-0.10141676664352417,-0.0487760528922081
1761378904126743300,3.488743408203125,-0.1855936348438263,-0.12359078228473663,-0.06104257330298424
1761378904136799200,3.49879931640625,-0.17060744762420654,-0.147495299577713,-0.060170236974954605
1761378904146855400,3.50885546875,-0.1551656424999237,-0.17617008090019226,-0.03896375373005867
1761378904156910300,3.518910400390625,-0.13198384642601013,-0.20373012125492096,-0.01708102785050869
1761378904166966500,3.528966552734375,-0.10428911447525024,-0.21352389454841614,-0.0011971360072493553
1761378904177022500,3.5390224609375,-0.08402898907661438,-0.20825891196727753,0.0037902388721704483
1761378904187078100,3.549078125,-0.08198367804288864,-0.19056114554405212,0.0008833990432322025
1761378904197133300,3.55913330078125,-0.0896824523806572,-0.1600160002708435,-0.00001537194475531578
1761378904207189200,3.569189208984375,-0.11204128712415695,-0.1271989345550537,-0.0014902306720614433
1761378904217245400,3.579245361328125,-0.13144296407699585,-0.11397463083267212,-0.007003683131188154
1761378904227300400,3.58930029296875,-0.1353602111339569,-0.12549945712089539,-0.02167450450360775
1761378904237356500,3.5993564453125,-0.11811766028404236,-0.15037450194358826,-0.05039067193865776
1761378904247412500,3.60941259765625,-0.09795007109642029,-0.18290448188781738,-0.09618958830833435
1761378904257468400,3.619468505859375,-0.07055483013391495,-0.2166563719511032,-0.1521734744310379
1761378904267523300,3.6295234375,-0.037679437547922134,-0.24574102461338043,-0.2026747316122055
1761378904277579300,3.639579345703125,-0.005401084199547768,-0.25826913118362427,-0.23756201565265656
1761378904287635200,3.64963525390625,0.012269522063434124,-0.2602798044681549,-0.2365444302558899
1761378904297690400,3.6596904296875,0.009929832071065903,-0.2512218952178955,-0.2004217505455017
1761378904307746300,3.669746337890625,-0.008626542054116726,-0.2410760521888733,-0.1436021327972412
1761378904317802500,3.679802490234375,-0.03239549696445465,-0.2243623584508896,-0.10207220166921616
1761378904327857200,3.689857177734375,-0.042117901146411896,-0.20924705266952515,-0.08064041286706924
1761378904337913300,3.699913330078125,-0.05185040086507797,-0.18824969232082367,-0.08763349056243896
1761378904347969300,3.70996923828125,-0.055240608751773834,-0.14654618501663208,-0.09672339260578156
1761378904358025200,3.720025146484375,-0.05640023201704025,-0.08632680028676987,-0.10006581246852875
1761378904368080400,3.730080322265625,-0.06554632633924484,-0.012479744851589203,-0.0949070081114769
1761378904378136300,3.74013623046875,-0.07851502299308777,0.049752406775951385,-0.08192754536867142
1761378904388192500,3.750192626953125,-0.08053502440452576,0.09771300852298737,-0.06977260857820511
1761378904398247200,3.7602470703125,-0.06542109698057175,0.12256231904029846,-0.05572361499071121
1761378904408303400,3.770303466796875,-0.03161466121673584,0.12308987975120544,-0.04444459453225136
1761378904418359300,3.780359375,0.006485319696366787,0.11750097572803497,-0.04067675396800041
1761378904428415200,3.790415283203125,0.05150020122528076,0.09308857470750809,-0.040394991636276245
1761378904438470400,3.800470458984375,0.10664471238851547,0.06349565088748932,-0.05783579498529434
1761378904448526300,3.8105263671875,0.1478334367275238,0.0382307767868042,-0.09141212701797485
1761378904458582500,3.82058251953125,0.1716027706861496,0.021930113434791565,-0.12934844195842743
1761378904468637400,3.830637451171875,0.1824309080839157,0.01889277808368206,-0.16429656744003296
1761378904478693000,3.840693115234375,0.17524626851081848,0.018216757103800774,-0.18658117949962616
1761378904488749300,3.850749267578125,0.14779919385910034,0.02138964831829071,-0.1713915765285492
1761378904498804200,3.86080419921875,0.11833041906356812,0.031822074204683304,-0.12532976269721985
1761378904508860400,3.8708603515625,0.0988166406750679,0.03681337088346481,-0.0721064880490303
1761378904518916400,3.880916259765625,0.08441676944494247,0.04636793211102486,-0.017096757888793945
1761378904528972300,3.89097216796875,0.0648244246840477,0.06033168360590935,0.020761940628290176
1761378904539027500,3.90102734375,0.06274619698524475,0.07376784086227417,0.03753208741545677
1761378904549083400,3.91108349609375,0.06884989142417908,0.08982083946466446,0.029608916491270065
1761378904559139300,3.921139404296875,0.0813143327832222,0.10282764583826065,0.0033470788039267063
1761378904569194200,3.9311943359375,0.0922308936715126,0.10892761498689651,-0.026098961010575294
1761378904579250400,3.94125048828125,0.09182914346456528,0.11451849341392517,-0.047180622816085815
1761378904589306400,3.951306396484375,0.08498828858137131,0.11972630023956299,-0.05375969782471657
1761378904599362300,3.9613623046875,0.06777803599834442,0.12305508553981781,-0.05574914440512657
1761378904609417500,3.97141748046875,0.046307895332574844,0.1117534264922142,-0.04611648991703987
1761378904619473400,3.981473388671875,0.035206735134124756,0.08246325701475143,-0.027882752940058708
1761378904629529300,3.991529296875,0.04183880239725113,0.04312597215175629,-0.007337797433137894
1761378904639584300,4.001584228515625,0.06577834486961365,0.004144954029470682,0.013001048006117344
1761378904649640400,4.011640380859375,0.08583541214466095,-0.01802053488790989,0.028513692319393158
1761378904659696400,4.0216962890625,0.09198475629091263,-0.012113206088542938,0.030412327498197556
1761378904669751300,4.031751220703125,0.08645683526992798,-0.0005369782447814941,0.0315961018204689
1761378904679806500,4.041806396484375,0.07622453570365906,0.01631171815097332,0.04003646597266197
1761378904689862100,4.051862060546875,0.05132930725812912,0.04596175625920296,0.07166150212287903
1761378904699918300,4.06191845703125,0.023201407864689827,0.06143967807292938,0.0995856299996376
1761378904709973200,4.07197314453125,0.0013291318900883198,0.07412165403366089,0.08852818608283997
1761378904720029400,4.082029541015625,-0.006144640501588583,0.07322673499584198,0.029802359640598297
1761378904730085400,4.09208544921875,-0.0016236579976975918,0.07392820715904236,-0.03554655238986015
1761378904740141300,4.102141357421875,0.012759031727910042,0.07559238374233246,-0.08205194026231766
1761378904750196500,4.112196533203125,0.0200228039175272,0.07729574292898178,-0.09259539842605591
1761378904760252200,4.122252197265625,0.03275066614151001,0.06614715605974197,-0.0917234718799591
1761378904770308400,4.132308349609375,0.05011527240276337,0.05283321812748909,-0.09923598170280457
1761378904780363300,4.14236328125,0.05971201881766319,0.034268178045749664,-0.10188319534063339
1761378904790419500,4.15241943359375,0.06301460415124893,0.002451659645885229,-0.0848671942949295
1761378904800475400,4.162475341796875,0.06734909862279892,-0.02347826026380062,-0.04523385316133499
1761378904810531300,4.17253125,0.07103198766708374,-0.05923306196928024,0.004571252036839724
1761378904820586500,4.18258642578125,0.08470035344362259,-0.09424819052219391,0.04914599284529686
1761378904830642400,4.192642333984375,0.09365842491388321,-0.1250324696302414,0.06328551471233368
1761378904840698400,4.202698486328125,0.0991162434220314,-0.15357229113578796,0.04460388049483299
1761378904850753500,4.21275341796875,0.09602165222167969,-0.14931149780750275,-0.0034264952410012484
1761378904860809500,4.2228095703125,0.082962766289711,-0.12013471126556396,-0.0692080557346344
1761378904870865700,4.23286572265625,0.06614729762077332,-0.07547509670257568,-0.12969458103179932
1761378904880921300,4.24292138671875,0.060095589607954025,-0.01928471401333809,-0.13015632331371307
1761378904890976500,4.2529765625,0.06463974714279175,0.029652999714016914,-0.07821723073720932
1761378904901032400,4.263032470703125,0.07209116965532303,0.07746879011392593,0.006229731719940901
1761378904911088400,4.27308837890625,0.06787458062171936,0.10693027824163437,0.09015392512083054
1761378904921143600,4.2831435546875,0.06936951726675034,0.12741734087467194,0.169048011302948
1761378904931199500,4.293199462890625,0.06965341418981552,0.13581162691116333,0.2354225069284439
1761378904941255700,4.303255615234375,0.07568280398845673,0.13146191835403442,0.26811113953590393
1761378904951311600,4.3133115234375,0.07193360477685928,0.1074652373790741,0.2662253677845001
1761378904961366500,4.323366455078125,0.062054164707660675,0.07698594033718109,0.2361178994178772
1761378904971422500,4.33342236328125,0.0581185445189476,0.0400921069085598,0.18759402632713318
1761378904981478400,4.343478515625,0.06341554969549179,0.011933477595448494,0.1435317099094391
1761378904991533600,4.353533447265625,0.06263657659292221,0.003148774616420269,0.10346871614456177
1761378905001589500,4.363589599609375,0.05814917013049126,0.00839855708181858,0.0908883810043335
1761378905011645400,4.3736455078125,0.05782373249530792,0.0289166159927845,0.07855422049760818
1761378905021701600,4.38370166015625,0.0754493772983551,0.04384831711649895,0.06644526869058609
1761378905031756300,4.39375634765625,0.091288261115551,0.02629329077899456,0.05145007744431496
1761378905041812500,4.4038125,0.09384230524301529,-0.005414487794041634,0.04652940109372139
1761378905051868400,4.413868408203125,0.0794103741645813,-0.017877548933029175,0.05876742675900459
1761378905061923600,4.423923583984375,0.04994421824812889,-0.02794233337044716,0.05097946152091026
1761378905071979500,4.4339794921875,0.0022009294480085373,-0.026303958147764206,0.009991281665861607
1761378905082035500,4.444035400390625,-0.044347889721393585,-0.028869256377220154,-0.05000283941626549
1761378905092091600,4.454091552734375,-0.08062466233968735,-0.04581655189394951,-0.10732737928628922
1761378905102146300,4.464146240234375,-0.09442107379436493,-0.05373711511492729,-0.1396685391664505
1761378905112202500,4.474202392578125,-0.10383108258247375,-0.06725744903087616,-0.13916680216789246
1761378905122258400,4.484258544921875,-0.09758353978395462,-0.09392425417900085,-0.11398014426231384
1761378905132313600,4.494313720703125,-0.0897517129778862,-0.11809670180082321,-0.05647770315408707
1761378905142369500,4.50436962890625,-0.08747027814388275,-0.12813153862953186,0.027367020025849342
1761378905152425500,4.514425537109375,-0.08798933029174805,-0.14134295284748077,0.10440214723348618
1761378905162480600,4.524480712890625,-0.08756435662508011,-0.1519479751586914,0.13745641708374023
1761378905172536300,4.534536376953125,-0.0667450949549675,-0.17170755565166473,0.12633664906024933
1761378905182592500,4.544592529296875,-0.03543400019407272,-0.18450206518173218,0.08067725598812103
1761378905192648400,4.5546484375,-0.00734217744320631,-0.1807536780834198,0.03325115516781807
1761378905202703400,4.564703369140625,0.010144872590899467,-0.17551474273204803,-0.0006773420609533787
1761378905212759600,4.574759521484375,0.02003505453467369,-0.18441955745220184,-0.012139853090047836
1761378905222815500,4.5848154296875,0.01778130605816841,-0.1982152909040451,0.0049093798734247684
1761378905232870700,4.59487060546875,0.008889012038707733,-0.21909980475902557,0.02847968600690365
1761378905242926600,4.604926513671875,-0.006309325806796551,-0.246891051530838,0.03650877997279167
1761378905252982300,4.614982177734375,-0.02185872383415699,-0.27812570333480835,0.009166638366878033
1761378905263038500,4.62503857421875,-0.03202825039625168,-0.3005428910255432,-0.03521455451846123
1761378905273093400,4.63509326171875,-0.03775005042552948,-0.3170747458934784,-0.06581561267375946
1761378905283149600,4.645149658203125,-0.04091962054371834,-0.3228273093700409,-0.06746344268321991
1761378905293205500,4.65520556640625,-0.036449506878852844,-0.3372619152069092,-0.04533097892999649
1761378905303261400,4.665261474609375,-0.03616001829504967,-0.3441888391971588,-0.01830063760280609
1761378905313316600,4.675316650390625,-0.04627044498920441,-0.3413344621658325,-0.0014782482758164406
1761378905323372300,4.685372314453125,-0.058216776698827744,-0.3362879455089569,0.009303607046604156
1761378905333428500,4.695428466796875,-0.06736819446086884,-0.3195132315158844,0.007311029825359583
1761378905343483400,4.7054833984375,-0.06137317046523094,-0.30299943685531616,-0.0018021054565906525
1761378905353539600,4.71553955078125,-0.05919363722205162,-0.2951449751853943,-0.005993654485791922
1761378905363595500,4.725595458984375,-0.061609044671058655,-0.29037949442863464,0.009273018687963486
1761378905373651500,4.7356513671875,-0.07470380514860153,-0.2844204008579254,0.046754613518714905
1761378905383706600,4.74570654296875,-0.10184203088283539,-0.2838156819343567,0.10003110021352768
1761378905393762600,4.755762451171875,-0.12747494876384735,-0.2921939790248871,0.14772672951221466
1761378905403818500,4.765818603515625,-0.15010635554790497,-0.31814154982566833,0.1769569218158722
1761378905413873400,4.775873291015625,-0.16472472250461578,-0.3522891402244568,0.1932205706834793
1761378905423929300,4.785929443359375,-0.16726981103420258,-0.394398957490921,0.18834145367145538
1761378905433985500,4.795985595703125,-0.16089500486850739,-0.4385051727294922,0.16982236504554749
1761378905444041500,4.80604150390625,-0.13846157491207123,-0.45265012979507446,0.15787026286125183
1761378905454096600,4.8160966796875,-0.13320955634117126,-0.4468929171562195,0.16933012008666992
1761378905464152600,4.826152587890625,-0.15503601729869843,-0.40879032015800476,0.18878835439682007
1761378905474208500,4.83620849609375,-0.18703337013721466,-0.37026503682136536,0.1779540777206421
1761378905484263400,4.846263427734375,-0.2168261855840683,-0.3343690037727356,0.12261632829904556
1761378905494319400,4.8563193359375,-0.2473129779100418,-0.31498783826828003,0.05770284682512283
1761378905504375600,4.86637548828125,-0.2546646296977997,-0.30624526739120483,0.029969288036227226
1761378905514431500,4.876431396484375,-0.2441784143447876,-0.3124552071094513,0.05248977616429329
1761378905524486700,4.886486572265625,-0.21565420925617218,-0.31187859177589417,0.1128610223531723
1761378905534542600,4.89654248046875,-0.17600026726722717,-0.32709911465644836,0.18515412509441376
1761378905544598500,4.9065986328125,-0.1400744616985321,-0.3477802872657776,0.24044904112815857
1761378905554654700,4.91665478515625,-0.11203961819410324,-0.3371308445930481,0.2889593243598938
1761378905564709400,4.92670947265625,-0.13120660185813904,-0.3171434998512268,0.3162645399570465
1761378905574765600,4.936765625,-0.1572352647781372,-0.3354436755180359,0.25581052899360657
1761378905584821500,4.946821533203125,-0.15615585446357727,-0.35296177864074707,0.14773370325565338
1761378905594876400,4.95687646484375,-0.1364428699016571,-0.37406599521636963,0.031202035024762154
1761378905604932600,4.9669326171875,-0.1066652461886406,-0.4050354063510895,-0.06196991726756096
1761378905614988500,4.976988525390625,-0.07974361628293991,-0.4079155921936035,-0.1087062656879425
1761378905625044500,4.98704443359375,-0.07281574606895447,-0.4195065200328827,-0.09727182239294052
1761378905635099400,4.997099365234375,-0.06785427778959274,-0.41578927636146545,-0.03972676768898964
1761378905645155300,5.0071552734375,-0.07831999659538269,-0.39114218950271606,0.037318360060453415
1761378905655211500,5.01721142578125,-0.11024384200572968,-0.35326430201530457,0.1061626747250557
1761378905665266400,5.027266357421875,-0.1598736047744751,-0.3294961750507355,0.12244099378585815
