time,seconds_elapsed,z,y,x
1761378900710319000,0.072319091796875,0.0964365229010582,-0.043424706906080246,-0.09160555154085159
1761378900720375000,0.082375,0.10899892449378967,-0.010552509687840939,-0.08772771805524826
1761378900730431000,0.092430908203125,0.08262857049703598,0.0376211442053318,-0.05873308703303337
1761378900740487200,0.102487060546875,0.017238108441233635,0.1042795330286026,-0.012257198803126812
1761378900750542000,0.1125419921875,-0.06163353845477104,0.1561989188194275,0.043828438967466354
1761378900760598300,0.122598388671875,-0.12381808459758759,0.18211467564105988,0.09873536229133606
1761378900770654000,0.132654052734375,-0.15026088058948517,0.17520910501480103,0.13640019297599792
1761378900780709000,0.142709228515625,-0.1269877701997757,0.139701709151268,0.1275491714477539
1761378900790765000,0.15276513671875,-0.0873173251748085,0.09066492319107056,0.08669973909854889
1761378900800821000,0.162821044921875,-0.03521870821714401,0.03335875645279884,0.024939438328146935
1761378900810875400,0.17287548828125,0.015909723937511444,-0.02991315722465515,-0.039253395050764084
1761378900820931300,0.182931396484375,0.049140915274620056,-0.08821534365415573,-0.09271582216024399
1761378900830987500,0.192987548828125,0.052447762340307236,-0.13943591713905334,-0.12570439279079437
1761378900841042200,0.203042236328125,0.032283637672662735,-0.1499122679233551,-0.1268594115972519
1761378900851098400,0.213098388671875,-0.009678459726274014,-0.11399208009243011,-0.07724311947822571
1761378900861154300,0.223154296875,-0.049724411219358444,-0.06198933348059654,-0.000672181835398078
1761378900871209500,0.23320947265625,-0.07134289294481277,0.00261868629604578,0.09582453221082687
1761378900881265400,0.243265380859375,-0.07803700864315033,0.056957826018333435,0.1950235515832901
1761378900891321300,0.2533212890625,-0.05967558175325394,0.09411877393722534,0.2637767791748047
1761378900901377500,0.26337744140625,-0.02369893714785576,0.11367010325193405,0.2942183017730713
1761378900911432200,0.27343212890625,0.032649822533130646,0.11896073818206787,0.27597540616989136
1761378900921488400,0.28348828125,0.09510094672441483,0.12527775764465332,0.23568975925445557
1761378900931544300,0.29354443359375,0.1508699357509613,0.12654489278793335,0.19064611196517944
1761378900941599500,0.303599609375,0.18903996050357819,0.13277748227119446,0.13048769533634186
1761378900951655400,0.313655517578125,0.19632583856582642,0.1390007585287094,0.07632726430892944
1761378900961711400,0.32371142578125,0.16973896324634552,0.1408572494983673,0.04802851378917694
1761378900971766500,0.3337666015625,0.13454076647758484,0.13006265461444855,0.04061666876077652
1761378900981822200,0.343822265625,0.09629670530557632,0.1106191873550415,0.045344579964876175
1761378900991878100,0.353878173828125,0.060016732662916183,0.07694990932941437,0.038011033087968826
1761378901001933300,0.363933349609375,0.0345582440495491,0.03791329264640808,0.0005400890368036926
1761378901011989200,0.3739892578125,0.034748125821352005,-0.016411198303103447,-0.06490682810544968
1761378901022045400,0.38404541015625,0.06172648072242737,-0.04753689095377922,-0.13816799223423004
1761378901032101400,0.394101318359375,0.10035856068134308,-0.08184666186571121,-0.21597011387348175
1761378901042156500,0.404156494140625,0.13930223882198334,-0.08461102098226547,-0.27376285195350647
1761378901052212200,0.414212158203125,0.15537413954734802,-0.07487956434488297,-0.31295204162597656
1761378901062268200,0.42426806640625,0.16309598088264465,-0.031080154702067375,-0.35028690099716187
1761378901072323300,0.4343232421875,0.15595658123493195,-0.0013225257862359285,-0.39393559098243713
1761378901082379300,0.444379150390625,0.14275182783603668,0.014071078039705753,-0.41966545581817627
1761378901092435500,0.454435546875,0.08679002523422241,0.09706582874059677,-0.43964022397994995
1761378901102490400,0.464490478515625,0.024261929094791412,0.10296685993671417,-0.4191141724586487
1761378901112546600,0.474546630859375,-0.031681232154369354,0.12041855603456497,-0.3489129841327667
1761378901122602500,0.4846025390625,-0.05634210258722305,0.1033567488193512,-0.22852319478988647
1761378901132657400,0.494657470703125,-0.06881208717823029,0.10764230787754059,-0.07969509810209274
1761378901142713300,0.50471337890625,-0.0828235074877739,0.1327415406703949,0.06558965891599655
1761378901152769300,0.514769287109375,-0.0930124968290329,0.17272384464740753,0.15556642413139343
1761378901162825500,0.524825439453125,-0.08655832707881927,0.1918320208787918,0.16555939614772797
1761378901172880400,0.53488037109375,-0.055747952312231064,0.2014486938714981,0.09697208553552628
1761378901182936300,0.544936279296875,-0.021530060097575188,0.19968275725841522,-0.011531753465533257
1761378901192992500,0.554992431640625,0.0070547135546803474,0.1905241459608078,-0.11451432853937149
1761378901203047200,0.565047119140625,0.0331406444311142,0.1945396512746811,-0.18129415810108185
1761378901213103400,0.575103271484375,0.036854155361652374,0.19560039043426514,-0.19527068734169006
1761378901223159300,0.5851591796875,0.03135605901479721,0.21827881038188934,-0.16903643310070038
1761378901233214500,0.59521435546875,0.01974148117005825,0.24725160002708435,-0.1284293383359909
1761378901243270400,0.6052705078125,-0.007863249629735947,0.27063602209091187,-0.0784926787018776
1761378901253326300,0.615326416015625,-0.021285846829414368,0.2794329822063446,-0.027699004858732224
1761378901263381200,0.62538134765625,-0.004073038697242737,0.28822460770606995,0.013233779929578304
1761378901273437200,0.635437255859375,0.035226430743932724,0.29880160093307495,0.0362141951918602
1761378901283493400,0.645493408203125,0.07301562279462814,0.3086545169353485,0.034499652683734894
1761378901293549300,0.65554931640625,0.10079611837863922,0.32744258642196655,0.00957033596932888
1761378901303604500,0.6656044921875,0.11034994572401047,0.3566145896911621,-0.033730264753103256
1761378901313660400,0.675660400390625,0.10249868035316467,0.3778591454029083,-0.06626743823289871
1761378901323716400,0.68571630859375,0.09099861234426498,0.375941663980484,-0.08250712603330612
1761378901333771500,0.695771484375,0.07094394415616989,0.3543950915336609,-0.10357512533664703
1761378901343827200,0.7058271484375,0.044433243572711945,0.3007696866989136,-0.12073200941085815
1761378901353883400,0.71588330078125,0.026614833623170853,0.23102469742298126,-0.12575820088386536
1761378901363938300,0.725938232421875,0.022961774840950966,0.1456160545349121,-0.10165738314390182
1761378901373994200,0.735994140625,0.02117186412215233,0.08642170578241348,-0.05318838730454445
1761378901384050400,0.746050537109375,0.018926819786429405,0.07031038403511047,-0.00017710021347738802
1761378901394105300,0.756105224609375,0.018556639552116394,0.07850626111030579,0.03869280219078064
1761378901404161500,0.76616162109375,0.018077004700899124,0.10397140681743622,0.05829526484012604
1761378901414217500,0.776217529296875,0.012169580906629562,0.12878914177417755,0.05283818021416664
1761378901424273200,0.786273193359375,-0.0027454528026282787,0.15535257756710052,0.04635551571846008
1761378901434328300,0.796328369140625,-0.024025442078709602,0.17095869779586792,0.04361991584300995
1761378901444384300,0.80638427734375,-0.03640461340546608,0.1718420684337616,0.05060139298439026
1761378901454440400,0.8164404296875,-0.03242585062980652,0.16202858090400696,0.06981396675109863
1761378901464495400,0.826495361328125,-0.02202088013291359,0.1441206932067871,0.09374114125967026
1761378901474551600,0.836551513671875,-0.0031971249263733625,0.13805453479290009,0.12846583127975464
1761378901484607500,0.846607421875,0.008655273355543613,0.14789864420890808,0.17510123550891876
1761378901494662400,0.856662353515625,0.026068884879350662,0.19442060589790344,0.22487758100032806
1761378901504718300,0.86671826171875,0.03416995331645012,0.25509220361709595,0.22794927656650543
1761378901514774300,0.876774169921875,0.040771663188934326,0.32198575139045715,0.18693020939826965
1761378901524829400,0.886829345703125,0.03997617959976196,0.35861408710479736,0.1216912791132927
1761378901534885400,0.896885498046875,0.05181872099637985,0.3736446797847748,0.060022324323654175
1761378901544941300,0.90694140625,0.06362424790859222,0.35906070470809937,0.030438333749771118
1761378901554997500,0.91699755859375,0.0713101327419281,0.33028948307037354,0.03039252758026123
1761378901565052200,0.92705224609375,0.0808759406208992,0.2819768190383911,0.06425008922815323
1761378901575108400,0.9371083984375,0.08426880836486816,0.24891340732574463,0.10590033233165741
1761378901585164300,0.947164306640625,0.08402885496616364,0.20948079228401184,0.12621013820171356
1761378901595219500,0.957219482421875,0.08029084652662277,0.16074147820472717,0.11497638374567032
1761378901605275400,0.967275390625,0.07875633239746094,0.11859668791294098,0.08224853128194809
1761378901615331300,0.977331298828125,0.07268112897872925,0.09909994900226593,0.05753759667277336
1761378901625386200,0.98738623046875,0.06352997571229935,0.08915544301271439,0.04705193266272545
1761378901635442200,0.997442138671875,0.07431764155626297,0.09333580732345581,0.042684346437454224
1761378901645498400,1.007498291015625,0.09508497267961502,0.10344729572534561,0.051531367003917694
1761378901655554300,1.01755419921875,0.12410783022642136,0.10394583642482758,0.062433551996946335
1761378901665609500,1.027609375,0.15348462760448456,0.11317741870880127,0.0867958813905716
1761378901675665400,1.03766552734375,0.1568082571029663,0.14906617999076843,0.12405696511268616
1761378901685721300,1.047721435546875,0.1416442096233368,0.18017695844173431,0.1749824583530426
1761378901695776500,1.057776611328125,0.11386797577142715,0.22609038650989532,0.24606463313102722
1761378901705832200,1.067832275390625,0.0776500552892685,0.2535638213157654,0.31630125641822815
1761378901715888400,1.077888427734375,0.04333708807826042,0.264204740524292,0.35781699419021606
1761378901725943300,1.087943359375,0.02449016273021698,0.2389739602804184,0.3620831072330475
1761378901735999200,1.097999267578125,0.03164074942469597,0.1882343590259552,0.3403916656970978
1761378901746055400,1.108055419921875,0.042820967733860016,0.11929656565189362,0.3083280026912689
1761378901756110300,1.1181103515625,0.0575687550008297,0.06000208482146263,0.29512032866477966
1761378901766166500,1.12816650390625,0.05838527902960777,-0.0004966795677319169,0.30421900749206543
1761378901776222500,1.138222412109375,0.0521705262362957,-0.052928194403648376,0.3131653666496277
1761378901786278100,1.148278076171875,0.025463281199336052,-0.08919166028499603,0.31891459226608276
1761378901796333300,1.158333251953125,0.00896899402141571,-0.11475907266139984,0.29732248187065125
1761378901806389200,1.16838916015625,0.006544984877109528,-0.11530661582946777,0.25477689504623413
1761378901816449000,1.178448974609375,0.0070091737434268,-0.08683715760707855,0.2088211178779602
1761378901826504000,1.18850390625,0.004944424610584974,-0.024933045729994774,0.16499188542366028
1761378901836560100,1.19856005859375,-0.008845423348248005,0.06339575350284576,0.10422787070274353
1761378901846616000,1.208615966796875,-0.042761046439409256,0.13714906573295593,0.04724740609526634
1761378901856671000,1.2186708984375,-0.06589166820049286,0.21180546283721924,-0.014482802711427212
1761378901866727000,1.228726806640625,-0.08536256849765778,0.2623802125453949,-0.06269906461238861
1761378901876782800,1.238782958984375,-0.10424597561359406,0.28048038482666016,-0.09886559098958969
1761378901886838000,1.248838134765625,-0.09932871907949448,0.26967889070510864,-0.11495587974786758
1761378901896894000,1.25889404296875,-0.07068855315446854,0.2296888530254364,-0.11584244668483734
1761378901906950000,1.268949951171875,-0.025610022246837616,0.17560485005378723,-0.10354796051979065
1761378901917006000,1.279006103515625,0.0006964165950194001,0.11736258119344711,-0.08771254122257233
1761378901927061000,1.28906103515625,0.025899240747094154,0.06748156994581223,-0.08507441729307175
1761378901937117200,1.2991171875,0.023925306275486946,0.03945846110582352,-0.08085224032402039
1761378901947172900,1.3091728515625,0.0065130265429615974,0.008674714714288712,-0.08514232188463211
1761378901957228000,1.31922802734375,-0.02341051772236824,-0.024453144520521164,-0.08313296735286713
1761378901967284000,1.329283935546875,-0.04372271150350571,-0.05691974237561226,-0.06339149177074432
1761378901977340000,1.33933984375,-0.05519534647464752,-0.08195798099040985,-0.03967444226145744
1761378901987395000,1.34939501953125,-0.06610152125358582,-0.09131287038326263,-0.024989506229758263
1761378901997451000,1.359450927734375,-0.06934711337089539,-0.08931762725114822,-0.02149384096264839
1761378902007507200,1.369507080078125,-0.06529458612203598,-0.06920969486236572,-0.03734657168388367
1761378902017563000,1.37956298828125,-0.06507833302021027,-0.04675818234682083,-0.06172248721122742
1761378902027618000,1.3896181640625,-0.05839113891124725,-0.03373825550079346,-0.08836448192596436
1761378902037674000,1.399674072265625,-0.04863305017352104,-0.023433420807123184,-0.10871396213769913
1761378902047730000,1.40972998046875,-0.025731196627020836,-0.020741764456033707,-0.11620064079761505
1761378902057785000,1.41978515625,0.0012897689593955874,-0.03434678912162781,-0.11966541409492493
1761378902067841000,1.429841064453125,0.016450079157948494,-0.04228833317756653,-0.12296880036592484
1761378902077897000,1.43989697265625,0.027249464765191078,-0.05631973221898079,-0.1214369460940361
1761378902087952000,1.449951904296875,0.04490089416503906,-0.07433068752288818,-0.13097666203975677
1761378902098007800,1.4600078125,0.05705716088414192,-0.09313394129276276,-0.1370965987443924
1761378902108064000,1.47006396484375,0.04905596002936363,-0.10692698508501053,-0.13527153432369232
1761378902118119000,1.480118896484375,0.02917785942554474,-0.11159257590770721,-0.11228632926940918
1761378902128175000,1.490175048828125,0.010882741771638393,-0.13659299910068512,-0.06957721710205078
1761378902138231000,1.50023095703125,0.004859736189246178,-0.16905507445335388,-0.011199657805263996
1761378902148287000,1.510286865234375,0.012079033069312572,-0.20858676731586456,0.04409155994653702
1761378902158342000,1.520341796875,0.027050793170928955,-0.22852158546447754,0.09184816479682922
1761378902168397800,1.530397705078125,0.03436649590730667,-0.23684583604335785,0.12053254246711731
1761378902178454000,1.5404541015625,0.032411202788352966,-0.22993385791778564,0.1206691563129425
1761378902188509000,1.550509033203125,0.014239389449357986,-0.22135022282600403,0.09667514264583588
1761378902198565000,1.560565185546875,-0.00039867521263659,-0.23527775704860687,0.06567195057868958
1761378902208621000,1.57062109375,-0.02177826687693596,-0.25129321217536926,0.04454642906785011
1761378902218676000,1.580676025390625,-0.046309709548950195,-0.2671387493610382,0.047088947147130966
1761378902228732000,1.59073193359375,-0.07209283858537674,-0.27693334221839905,0.0562419667840004
1761378902238787800,1.600787841796875,-0.09147319197654724,-0.2685782015323639,0.05780550837516785
1761378902248843000,1.610843017578125,-0.11025646328926086,-0.2748669981956482,0.040221188217401505
1761378902258899000,1.62089892578125,-0.12179594486951828,-0.2855486571788788,0.013448962941765785
1761378902268955000,1.630954833984375,-0.12894226610660553,-0.2979810833930969,-0.014667359180748463
1761378902279011000,1.641010986328125,-0.1454956829547882,-0.2999773919582367,-0.024227574467658997
1761378902289066000,1.65106591796875,-0.16025091707706451,-0.30083414912223816,-0.0028104339726269245
1761378902299122200,1.6611220703125,-0.16587099432945251,-0.3019593358039856,0.047756072133779526
1761378902309177900,1.671177734375,-0.16608378291130066,-0.30381661653518677,0.10409338027238846
1761378902319233000,1.68123291015625,-0.15210723876953125,-0.3227066695690155,0.12229661643505096
1761378902329289000,1.6912890625,-0.13559991121292114,-0.33423763513565063,0.09082018584012985
1761378902339345000,1.701344970703125,-0.12378505617380142,-0.34085798263549805,0.032102808356285095
1761378902349400000,1.711400146484375,-0.1143537387251854,-0.34955400228500366,-0.01954813487827778
1761378902359456000,1.7214560546875,-0.10467847436666489,-0.3491651713848114,-0.0426795519888401
1761378902369512200,1.73151220703125,-0.10299349576234818,-0.3391205370426178,-0.04416506364941597
1761378902379568000,1.741568115234375,-0.10961943864822388,-0.33434948325157166,-0.03261813148856163
1761378902389623000,1.751623046875,-0.10394983738660812,-0.3274361789226532,-0.015503059141337872
1761378902399679000,1.761678955078125,-0.0969635620713234,-0.3078009784221649,0.002124137245118618
1761378902409735000,1.77173486328125,-0.09772229939699173,-0.2698221504688263,0.009344233199954033
1761378902419790000,1.7817900390625,-0.09058289974927902,-0.2351110428571701,0.003172357566654682
1761378902429846000,1.791845947265625,-0.06654307246208191,-0.20146360993385315,-0.016700949519872665
1761378902439902000,1.80190185546875,-0.03315715491771698,-0.18771131336688995,-0.03681713715195656
1761378902449956900,1.811956787109375,0.015501461923122406,-0.19209007918834686,-0.06302663683891296
1761378902460012800,1.8220126953125,0.05831976607441902,-0.2051803171634674,-0.09753295034170151
1761378902470069000,1.832069091796875,0.07574748992919922,-0.22907952964305878,-0.13239479064941406
1761378902480124000,1.8421240234375,0.06765920668840408,-0.24270878732204437,-0.16845372319221497
1761378902490180000,1.85218017578125,0.031689487397670746,-0.21154527366161346,-0.193183034658432
1761378902500236000,1.862236083984375,-0.029986927285790443,-0.19749896228313446,-0.1968957483768463
1761378902510292000,1.8722919921875,-0.08750215172767639,-0.1710423231124878,-0.16258518397808075
1761378902520347000,1.882346923828125,-0.13229359686374664,-0.16266347467899323,-0.10897548496723175
1761378902530402800,1.89240283203125,-0.1605963408946991,-0.1590290665626526,-0.05813866853713989
1761378902540459000,1.902458984375,-0.1810358315706253,-0.16103336215019226,-0.028179707005620003
1761378902550514000,1.912513916015625,-0.1838657110929489,-0.17700034379959106,-0.026336265727877617
1761378902560570000,1.922570068359375,-0.17049956321716309,-0.18741489946842194,-0.03136191889643669
1761378902570626000,1.9326259765625,-0.13836853206157684,-0.19110257923603058,-0.025053953751921654
1761378902580681000,1.942680908203125,-0.10120491683483124,-0.17802752554416656,-0.005197691265493631
1761378902590737000,1.95273681640625,-0.07965834438800812,-0.1500084102153778,0.019991017878055573
1761378902600792800,1.962792724609375,-0.06075948849320412,-0.10569420456886292,0.028019649907946587
1761378902610849000,1.97284912109375,-0.0397343635559082,-0.06370840221643448,0.02965536341071129
1761378902620904000,1.982904052734375,-0.025197764858603477,-0.04340419918298721,0.025052621960639954
1761378902630959900,1.9929599609375,-0.02250903658568859,-0.04376239329576492,0.021638981997966766
1761378902641016000,2.00301611328125,-0.02213379740715027,-0.043054260313510895,0.0311062540858984
1761378902651071000,2.013071044921875,-0.022829148918390274,-0.05613357573747635,0.04706631228327751
1761378902661127200,2.023127197265625,-0.036550555378198624,-0.0723642110824585,0.05357081815600395
1761378902671182800,2.033182861328125,-0.04380900040268898,-0.08686991780996323,0.04598134011030197
1761378902681238000,2.043238037109375,-0.04331205412745476,-0.1000102236866951,0.008972189389169216
1761378902691294000,2.0532939453125,-0.03809651732444763,-0.09748927503824234,-0.056892577558755875
1761378902701350000,2.063349853515625,-0.039203327149152756,-0.08813917636871338,-0.14064925909042358
1761378902711406000,2.073406005859375,-0.02172846533358097,-0.09659790992736816,-0.20775559544563293
1761378902721461000,2.0834609375,-0.008375641889870167,-0.11678706854581833,-0.21839945018291473
1761378902731517200,2.09351708984375,0.0008058725506998599,-0.12155172973871231,-0.18568891286849976
1761378902741573000,2.103572998046875,-0.00754952896386385,-0.11423656344413757,-0.13501614332199097
1761378902751628000,2.1136279296875,-0.03160666301846504,-0.0765317901968956,-0.08834637701511383
1761378902761684000,2.12368408203125,-0.06881102174520493,-0.012518721632659435,-0.05239689350128174
1761378902771740000,2.133739990234375,-0.10762739181518555,0.061409033834934235,-0.01696220599114895
1761378902781795000,2.143795166015625,-0.13427019119262695,0.12265081703662872,0.02268533781170845
1761378902791851000,2.15385107421875,-0.14292412996292114,0.16874933242797852,0.06105989217758179
1761378902801907000,2.163906982421875,-0.13476021587848663,0.19241072237491608,0.07503669708967209
1761378902811958800,2.173958740234375,-0.1080351248383522,0.19354256987571716,0.045817289501428604
1761378902822014700,2.1840146484375,-0.07270403206348419,0.191740944981575,0.0027174896094948053
1761378902832071000,2.19407080078125,-0.043711792677640915,0.20967572927474976,-0.04306704178452492
1761378902842126800,2.204126953125,-0.03303677961230278,0.2203211784362793,-0.075921930372715
1761378902852182000,2.21418212890625,-0.021639781072735786,0.23509134352207184,-0.09337202459573746
1761378902862238000,2.224238037109375,-0.006335660349577665,0.24790647625923157,-0.09651961177587509
1761378902872293600,2.234293701171875,0.008176171220839024,0.2468433380126953,-0.08111189305782318
1761378902882348800,2.244348876953125,0.03007667511701584,0.23790310323238373,-0.0514589287340641
1761378902892404700,2.25440478515625,0.05612718313932419,0.23725596070289612,-0.02677249163389206
1761378902902461000,2.2644609375,0.07815898209810257,0.24158386886119843,0.0032948628067970276
1761378902912515800,2.274515869140625,0.08695593476295471,0.2557247281074524,0.025681927800178528
1761378902922571800,2.28457177734375,0.0906342938542366,0.2595234513282776,0.03742513433098793
1761378902932628000,2.2946279296875,0.08989953249692917,0.24658234417438507,0.040039561688899994
1761378902942683600,2.30468359375,0.09518270939588547,0.2349051833152771,0.03719237446784973
1761378902952738800,2.31473876953125,0.07510647177696228,0.22874316573143005,0.05029033496975899
1761378902962794800,2.324794677734375,0.05085945129394531,0.2379063069820404,0.06263089179992676
1761378902972850700,2.3348505859375,0.0360831692814827,0.24478018283843994,0.06606317311525345
1761378902982905900,2.34490576171875,0.03321467712521553,0.24354287981987,0.05992725118994713
1761378902992961800,2.3549619140625,0.054854195564985275,0.2404853105545044,0.055566322058439255
1761378903003018000,2.36501806640625,0.08177103102207184,0.25527170300483704,0.06969305872917175
1761378903013072600,2.37507275390625,0.08132734894752502,0.2784159183502197,0.09348920732736588
1761378903023128800,2.38512890625,0.06547168642282486,0.29959550499916077,0.12507109344005585
1761378903033184800,2.395184814453125,0.058522164821624756,0.3216171860694885,0.1581590175628662
1761378903043240700,2.40524072265625,0.04899230971932411,0.3284761607646942,0.19555139541625977
1761378903053295900,2.4152958984375,0.039387885481119156,0.3028930127620697,0.23028220236301422
1761378903063351800,2.425351806640625,0.04182254895567894,0.2850533127784729,0.26624128222465515
1761378903073408000,2.435407958984375,0.0626271590590477,0.26760560274124146,0.2623983323574066
1761378903083462700,2.445462646484375,0.09934709221124649,0.2688130736351013,0.1906019002199173
1761378903093518800,2.455518798828125,0.1275305300951004,0.2689550220966339,0.08337904512882233
1761378903103574800,2.46557470703125,0.13856080174446106,0.2852908670902252,0.0031523837242275476
1761378903113629700,2.475629638671875,0.13264966011047363,0.3120276629924774,-0.019406188279390335
1761378903123686000,2.485685791015625,0.12161378562450409,0.34278398752212524,0.013215404003858566
1761378903133741800,2.495741943359375,0.11675724387168884,0.35531601309776306,0.048039164394140244
1761378903143797800,2.5057978515625,0.11592820286750793,0.3423821032047272,0.07531579583883286
1761378903153852700,2.515852783203125,0.12385536730289459,0.3237924575805664,0.09536673128604889
1761378903163908600,2.52590869140625,0.1222313717007637,0.3002959191799164,0.11618732661008835
1761378903173964800,2.53596484375,0.10410589724779129,0.2935469150543213,0.15025687217712402
1761378903184019700,2.546019775390625,0.08362458646297455,0.30426350235939026,0.1766786277294159
1761378903194076000,2.556075927734375,0.06790634989738464,0.32471948862075806,0.17297497391700745
1761378903204131800,2.5661318359375,0.056418001651763916,0.3490560054779053,0.14109987020492554
1761378903214187000,2.57618701171875,0.060014333575963974,0.3504253923892975,0.08564406633377075
1761378903224243000,2.586242919921875,0.08672770112752914,0.3477393388748169,0.02238626591861248
1761378903234298600,2.596298583984375,0.12296560406684875,0.34119993448257446,-0.021463746204972267
1761378903244353800,2.606353759765625,0.1681746244430542,0.3332037925720215,-0.048287902027368546
1761378903254409700,2.61640966796875,0.22003303468227386,0.3161872625350952,-0.046422358602285385
1761378903264466000,2.6264658203125,0.2630707919597626,0.30034783482551575,-0.033604033291339874
1761378903274521900,2.63652197265625,0.2771160304546356,0.2828311622142792,-0.008100003935396671
1761378903284576800,2.64657666015625,0.27859994769096375,0.278660386800766,0.018135327845811844
1761378903294633000,2.656633056640625,0.2723708152770996,0.2753838896751404,0.047080427408218384
1761378903304689000,2.66668896484375,0.2608877718448639,0.27126452326774597,0.07135407626628876
1761378903314743800,2.676743896484375,0.25555187463760376,0.2577143609523773,0.07217086851596832
1761378903324799700,2.6867998046875,0.24979065358638763,0.2279364913702011,0.06205777823925018
1761378903334855700,2.696855712890625,0.23878541588783264,0.19334842264652252,0.04893052577972412
1761378903344910800,2.706910888671875,0.21334849298000336,0.1742170751094818,0.03231053426861763
1761378903354966800,2.716966796875,0.18257354199886322,0.1845533400774002,0.010661965236067772
1761378903365023000,2.72702294921875,0.14243784546852112,0.2074786275625229,-0.005490372888743877
1761378903375079000,2.737078857421875,0.10061981528997421,0.220005065202713,-0.006700247060507536
1761378903385133800,2.7471337890625,0.06683016568422318,0.21034365892410278,0.006776413414627314
1761378903395189800,2.757189697265625,0.04975184425711632,0.22281470894813538,0.04458557814359665
1761378903405245700,2.76724560546875,0.06061940640211105,0.242216095328331,0.08272018283605576
1761378903415300900,2.77730078125,0.09140714257955551,0.2692740857601166,0.08479291945695877
1761378903425356800,2.787356689453125,0.1235634833574295,0.2835334539413452,0.035228028893470764
1761378903435413000,2.7974130859375,0.15132427215576172,0.2804718613624573,-0.03494333475828171
1761378903445467600,2.807467529296875,0.16658072173595428,0.2702762186527252,-0.10480550676584244
1761378903455523800,2.81752392578125,0.1671394556760788,0.25592899322509766,-0.1355985701084137
1761378903465579800,2.827579833984375,0.1500273197889328,0.24617116153240204,-0.13336284458637238
1761378903475635700,2.8376357421875,0.13619431853294373,0.23410438001155853,-0.11642993986606598
1761378903485691000,2.84769091796875,0.1285414695739746,0.22726857662200928,-0.09843229502439499
1761378903495746800,2.857746826171875,0.10915312170982361,0.2271660417318344,-0.08258063346147537
1761378903505802800,2.867802734375,0.07852862775325775,0.22853916883468628,-0.05532291159033775
1761378903515857700,2.877857666015625,0.05090126395225525,0.23374751210212708,-0.027169834822416306
1761378903525913600,2.88791357421875,0.0347617082297802,0.22943797707557678,-0.0075873457826673985
1761378903535969800,2.8979697265625,0.012354138307273388,0.2162417620420456,-0.006705306936055422
1761378903546024700,2.908024658203125,-0.0007121292874217033,0.1922253668308258,-0.02095002308487892
1761378903556081000,2.918080810546875,-0.003976099658757448,0.15727244317531586,-0.04098951071500778
1761378903566136800,2.92813671875,-0.0009454221581108868,0.11900148540735245,-0.05745450407266617
1761378903576192800,2.93819287109375,0.0007901599165052176,0.08796261250972748,-0.0645129457116127
1761378903586248000,2.948248046875,-0.006616090890020132,0.07395438849925995,-0.058454789221286774
1761378903596303600,2.9583037109375,-0.0096861831843853,0.06479550898075104,-0.036800626665353775
1761378903606359800,2.96835986328125,-0.011502725072205067,0.04879576712846756,-0.015540610067546368
1761378903616414700,2.978414794921875,-0.01697525568306446,0.03266207128763199,-0.011952533386647701
1761378903626471000,2.988470947265625,-0.025075525045394897,0.014874553307890892,-0.01480291411280632
1761378903636526800,2.99852685546875,-0.04092825949192047,-0.003620301140472293,-0.03446609899401665
1761378903646582800,3.008582763671875,-0.0567394457757473,-0.014871091581881046,-0.06966083496809006
1761378903656638000,3.018637939453125,-0.07759439200162888,-0.026105370372533798,-0.10661991685628891
1761378903666694000,3.02869384765625,-0.08472181111574173,-0.04748709127306938,-0.12409451603889465
1761378903676749800,3.038749755859375,-0.07268432527780533,-0.08104478567838669,-0.11226209253072739
1761378903686804700,3.0488046875,-0.05630801245570183,-0.10209307819604874,-0.0850624293088913
1761378903696860700,3.058860595703125,-0.03934421017765999,-0.11643259972333908,-0.05722653865814209
1761378903706916900,3.068916748046875,-0.025227325037121773,-0.12597976624965668,-0.03388819098472595
1761378903716971800,3.0789716796875,-0.0258070956915617,-0.13389228284358978,-0.011507784947752953
1761378903727028000,3.089028076171875,-0.04817605018615723,-0.13320651650428772,0.014853514730930328
1761378903737084000,3.099083984375,-0.0754779800772667,-0.12991592288017273,0.04231603071093559
1761378903747139800,3.109139892578125,-0.10097774863243103,-0.130756676197052,0.05579695105552673
1761378903757194800,3.11919482421875,-0.1166728213429451,-0.13019715249538422,0.06217815354466438
1761378903767250700,3.129250732421875,-0.12884773313999176,-0.11557133495807648,0.06405515223741531
1761378903777307000,3.139306884765625,-0.13585317134857178,-0.09992766380310059,0.05649843066930771
1761378903787361800,3.14936181640625,-0.1348523497581482,-0.09396697580814362,0.038481079041957855
1761378903797418000,3.15941796875,-0.13045653700828552,-0.08569332957267761,0.013049755245447159
1761378903807474000,3.169473876953125,-0.13550908863544464,-0.08199526369571686,-0.011799934320151806
1761378903817532400,3.179532470703125,-0.13676157593727112,-0.08838951587677002,-0.017308948561549187
1761378903827588400,3.18958837890625,-0.1447973996400833,-0.0993414968252182,-0.012436696328222752
1761378903837644300,3.199644287109375,-0.15770627558231354,-0.1253315508365631,0.002314020646736026
1761378903847700500,3.209700439453125,-0.16288958489894867,-0.14910133183002472,0.02911687269806862
1761378903857755400,3.21975537109375,-0.16826143860816956,-0.16915440559387207,0.04986422881484032
1761378903867811300,3.229811279296875,-0.17003005743026733,-0.17354781925678253,0.07137378305196762
1761378903877867500,3.239867431640625,-0.18850307166576385,-0.16197559237480164,0.09878703206777573
1761378903887922200,3.249922119140625,-0.20962752401828766,-0.15341831743717194,0.10618901997804642
1761378903897978400,3.259978271484375,-0.23056183755397797,-0.18361084163188934,0.0874081403017044
1761378903908034300,3.270034423828125,-0.24028822779655457,-0.23238077759742737,0.04192374646663666
1761378903918089500,3.28008935546875,-0.23457123339176178,-0.281423419713974,-0.005621932912617922
1761378903928145400,3.2901455078125,-0.2334074229001999,-0.3244372010231018,-0.034267693758010864
1761378903938201300,3.300201416015625,-0.23861470818519592,-0.3457699120044708,-0.04008909687399864
1761378903948257500,3.310257568359375,-0.2503238320350647,-0.3417602777481079,-0.020255204290151596
1761378903958312200,3.320312255859375,-0.26311978697776794,-0.3063220977783203,0.010459830984473228
1761378903968368400,3.330368408203125,-0.2821429967880249,-0.2349667102098465,0.0625976026058197
1761378903978424300,3.34042431640625,-0.2933160364627838,-0.1609497368335724,0.12781548500061035
1761378903988479500,3.3504794921875,-0.28746160864830017,-0.10285554081201553,0.187001571059227
1761378903998535400,3.360535400390625,-0.24529631435871124,-0.07688439637422562,0.211731418967247
1761378904008591400,3.37059130859375,-0.19241179525852203,-0.07889534533023834,0.19530637562274933
1761378904018646300,3.380646240234375,-0.14458461105823517,-0.08567894995212555,0.1447526514530182
1761378904028702200,3.3907021484375,-0.1067967563867569,-0.105360247194767,0.08055716007947922
1761378904038758400,3.40075830078125,-0.08365601301193237,-0.13193273544311523,0.008317318744957447
1761378904048814300,3.410814453125,-0.08127461373806,-0.1714620292186737,-0.04326997697353363
1761378904058869200,3.420869140625,-0.08927315473556519,-0.20444634556770325,-0.07463828474283218
1761378904068925400,3.430925537109375,-0.11150921881198883,-0.21388378739356995,-0.08154413104057312
1761378904078981400,3.4409814453125,-0.14455051720142365,-0.19598282873630524,-0.07622872292995453
1761378904089036500,3.45103662109375,-0.1679900735616684,-0.17311692237854004,-0.06684720516204834
1761378904099092200,3.46109228515625,-0.18042729794979095,-0.13455434143543243,-0.050097789615392685
1761378904109148200,3.471148193359375,-0.1913907378911972,-0.10434238612651825,-0.036853887140750885
1761378904119204400,3.481204345703125,-0.19390662014484406,-0.10076522827148438,-0.047270841896533966
1761378904129259300,3.49125927734375,-0.18988338112831116,-0.1248878762125969,-0.05685928836464882
1761378904139315500,3.5013154296875,-0.17287856340408325,-0.15245984494686127,-0.050694867968559265
1761378904149371400,3.511371337890625,-0.1562170386314392,-0.17937828600406647,-0.027053188532590866
1761378904159426600,3.521426513671875,-0.1341751217842102,-0.2034769505262375,-0.004051466938108206
1761378904169482500,3.531482421875,-0.10613548755645752,-0.20620377361774445,0.009345564991235733
1761378904179538200,3.5415380859375,-0.08999992907047272,-0.20318055152893066,0.011187407188117504
1761378904189593300,3.55159326171875,-0.09418775141239166,-0.18039560317993164,0.005585714243352413
1761378904199649300,3.561649169921875,-0.10371840745210648,-0.14791063964366913,0.007022489327937365
1761378904209705500,3.57170556640625,-0.12662585079669952,-0.11662381887435913,0.006646983791142702
1761378904219761400,3.581761474609375,-0.1397525668144226,-0.11203412711620331,-0.0024383901618421078
1761378904229816300,3.59181640625,-0.13831846415996552,-0.1261637955904007,-0.02154976688325405
1761378904239872500,3.60187255859375,-0.12183882296085358,-0.15181562304496765,-0.05608484148979187
1761378904249928400,3.611928466796875,-0.09769939631223679,-0.18754459917545319,-0.09957772493362427
1761378904259983400,3.6219833984375,-0.06968560069799423,-0.21919812262058258,-0.15857739746570587
1761378904270039300,3.632039306640625,-0.037033118307590485,-0.24334287643432617,-0.20798754692077637
1761378904280095200,3.64209521484375,-0.0057100835256278515,-0.2574962377548218,-0.23557177186012268
1761378904290150400,3.652150390625,0.007767109200358391,-0.254642128944397,-0.22371432185173035
1761378904300206300,3.662206298828125,0.00023222764139063656,-0.2437434196472168,-0.180794820189476
1761378904310262500,3.672262451171875,-0.02346671000123024,-0.23444153368473053,-0.1254948079586029
1761378904320318500,3.682318359375,-0.042268626391887665,-0.21636532247066498,-0.08729203045368195
1761378904330373400,3.692373291015625,-0.0533662848174572,-0.2008817046880722,-0.0745948776602745
1761378904340429300,3.70242919921875,-0.061472948640584946,-0.1742844581604004,-0.08358677476644516
1761378904350485200,3.7124853515625,-0.06288282573223114,-0.12840643525123596,-0.09394673258066177
1761378904360540400,3.72254052734375,-0.06591696292161942,-0.06469403952360153,-0.0935422033071518
1761378904370596400,3.732596435546875,-0.07645642757415771,0.008699482306838036,-0.08399263769388199
1761378904380652500,3.742652587890625,-0.08621904253959656,0.0654945895075798,-0.07164648920297623
1761378904390708500,3.75270849609375,-0.08359529078006744,0.11135635524988174,-0.059602078050374985
1761378904400763400,3.762763427734375,-0.06509564816951752,0.1291521191596985,-0.046726226806640625
1761378904410819300,3.7728193359375,-0.031441546976566315,0.127915620803833,-0.03704962879419327
1761378904420875300,3.782875244140625,0.008385228924453259,0.11805713176727295,-0.03539793938398361
1761378904430930400,3.792930419921875,0.056964483112096786,0.08924359083175659,-0.034569695591926575
1761378904440986400,3.802986328125,0.11082211881875992,0.059544019401073456,-0.057678211480379105
1761378904451042300,3.813042236328125,0.14643657207489014,0.03711221367120743,-0.09411238133907318
1761378904461097200,3.82309716796875,0.1695658564567566,0.023011310026049614,-0.13250212371349335
1761378904471153200,3.833153076171875,0.1767215132713318,0.02744174376130104,-0.16755704581737518
1761378904481209300,3.843209228515625,0.16264404356479645,0.02226961962878704,-0.17908479273319244
1761378904491265300,3.853265380859375,0.1333972066640854,0.029832730069756508,-0.15631583333015442
1761378904501320400,3.863320556640625,0.1048547774553299,0.03800703585147858,-0.10792353749275208
1761378904511376400,3.87337646484375,0.0891818106174469,0.04322470352053642,-0.04905036836862564
1761378904521432300,3.883432373046875,0.06834523379802704,0.05270608887076378,0.00029827404068782926
1761378904531488500,3.893488525390625,0.05816423520445824,0.06569325923919678,0.03229722008109093
1761378904541543200,3.903543212890625,0.05732640624046326,0.08119631558656693,0.043954674154520035
1761378904551599400,3.913599365234375,0.06878545880317688,0.09647300839424133,0.030784809961915016
1761378904561655300,3.9236552734375,0.0776553824543953,0.11014168709516525,0.0032557144295424223
1761378904571710500,3.93371044921875,0.0866432785987854,0.1170738935470581,-0.02749926783144474
1761378904581766400,3.943766357421875,0.08136356621980667,0.12145984917879105,-0.04574112221598625
1761378904591822300,3.953822265625,0.07284145057201385,0.1267976313829422,-0.048642102628946304
1761378904601877500,3.96387744140625,0.05490106716752052,0.1236465722322464,-0.051600608974695206
1761378904611933400,3.973933349609375,0.035352133214473724,0.10897788405418396,-0.036611009389162064
1761378904621989400,3.9839892578125,0.02913205325603485,0.08213694393634796,-0.017070330679416656
1761378904632045300,3.99404541015625,0.03930452838540077,0.03622245416045189,0.005020857788622379
1761378904642100200,4.004100341796875,0.06677556782960892,0.0031009847298264503,0.02455061674118042
1761378904652156400,4.014156494140625,0.08360142260789871,-0.015958992764353752,0.036369726061820984
1761378904662212400,4.02421240234375,0.08317504823207855,-0.007462976034730673,0.03976285830140114
1761378904672265200,4.03426513671875,0.0768713429570198,0.008190019056200981,0.039443545043468475
1761378904682320400,4.0443203125,0.06641417741775513,0.028621790930628777,0.05646407604217529
1761378904692376300,4.054376220703125,0.03455691039562225,0.05191779136657715,0.08673249930143356
1761378904702432500,4.0644326171875,0.0064925202168524265,0.07020358741283417,0.10741940140724182
1761378904712487400,4.0744873046875,-0.00726457079872489,0.07661914080381393,0.08291352540254593
1761378904722543400,4.08454345703125,-0.014678810723125935,0.08056195080280304,0.02191195636987686
1761378904732599300,4.094599365234375,-0.005661880597472191,0.08046288788318634,-0.04101987183094025
1761378904742655200,4.1046552734375,0.007889880798757076,0.08299528062343597,-0.07945967465639114
1761378904752710400,4.11471044921875,0.013408216647803783,0.08102641254663467,-0.08385415375232697
1761378904762766300,4.124766357421875,0.03116883896291256,0.06716465950012207,-0.08532794564962387
1761378904772822300,4.134822265625,0.04608120769262314,0.05236973240971565,-0.09411158412694931
1761378904782877400,4.14487744140625,0.05621720105409622,0.03201066330075264,-0.09358241409063339
1761378904792933400,4.154933349609375,0.059545885771512985,0.0019587550777941942,-0.07089441269636154
1761378904802989300,4.1649892578125,0.06039915978908539,-0.027114175260066986,-0.025224929675459862
1761378904813044200,4.175044189453125,0.06805601716041565,-0.06607702374458313,0.02281290479004383
1761378904823100700,4.1851005859375,0.0813334733247757,-0.09973378479480743,0.06298056244850159
1761378904833156600,4.195156494140625,0.09099781513214111,-0.13221955299377441,0.06726372241973877
1761378904843212300,4.20521240234375,0.0907573327422142,-0.1499929577112198,0.042884085327386856
1761378904853267500,4.215267333984375,0.08749949187040329,-0.14167644083499908,-0.011670238338410854
1761378904863323400,4.225323486328125,0.07198284566402435,-0.10800742357969284,-0.08059870451688766
1761378904873379600,4.235379638671875,0.05625741183757782,-0.05849553272128105,-0.1295452117919922
1761378904883434500,4.2454345703125,0.05445871502161026,-0.002186455298215151,-0.11729706823825836
1761378904893490400,4.255490478515625,0.05770910158753395,0.04735446721315384,-0.052325788885354996
1761378904903546600,4.265546630859375,0.06124844402074814,0.09018795192241669,0.03411296382546425
1761378904913602600,4.2756025390625,0.0599762499332428,0.11978206038475037,0.11819241940975189
1761378904923657500,4.285657470703125,0.0630202442407608,0.13427898287773132,0.19435110688209534
1761378904933713400,4.29571337890625,0.06362052261829376,0.13957840204238892,0.2523171901702881
1761378904943769300,4.305769287109375,0.06658781319856644,0.12963761389255524,0.2758382260799408
1761378904953824500,4.315824462890625,0.06191396713256836,0.10315141826868057,0.2679435610771179
1761378904963880400,4.32588037109375,0.052566803991794586,0.0714491456747055,0.23177357017993927
1761378904973936600,4.3359365234375,0.05180966854095459,0.03629489243030548,0.18195967376232147
1761378904983992600,4.34599267578125,0.05799911916255951,0.011296330019831657,0.13900236785411835
1761378904994047500,4.356047607421875,0.05222538858652115,0.004869323689490557,0.10725588351488113
1761378905004103400,4.366103515625,0.0508650466799736,0.013570403680205345,0.0923730731010437
1761378905014159400,4.376159423828125,0.054541803896427155,0.03916391357779503,0.08550451695919037
1761378905024214500,4.386214599609375,0.07453388720750809,0.04863651096820831,0.06926935166120529
1761378905034270500,4.3962705078125,0.08820948749780655,0.022551914677023888,0.05192578211426735
1761378905044326700,4.40632666015625,0.087831050157547,-0.004111388232558966,0.05588670074939728
1761378905054382600,4.416382568359375,0.06502187997102737,-0.016655676066875458,0.06446900218725204
1761378905064437500,4.4264375,0.028927255421876907,-0.022596389055252075,0.051909804344177246
1761378905074495500,4.43649560546875,-0.020138025283813477,-0.022101040929555893,0.0025515747256577015
1761378905084551700,4.4465517578125,-0.060861751437187195,-0.025407088920474052,-0.05745610222220421
1761378905094606300,4.4566064453125,-0.09202712774276733,-0.04194798320531845,-0.10934726148843765
1761378905104662500,4.46666259765625,-0.10456155985593796,-0.05267120152711868,-0.13583506643772125
1761378905114718500,4.476718505859375,-0.10710008442401886,-0.06901288777589798,-0.128421351313591
1761378905124774400,4.4867744140625,-0.10403265804052353,-0.09852390736341476,-0.0940263643860817
1761378905134829600,4.49682958984375,-0.09515687823295593,-0.11634817719459534,-0.029081186279654503
1761378905144885500,4.506885498046875,-0.09462211281061172,-0.12846502661705017,0.05596286803483963
1761378905154941400,4.51694140625,-0.09590335935354233,-0.13917386531829834,0.1196715384721756
1761378905164996400,4.526996337890625,-0.08815702050924301,-0.14985767006874084,0.1439955234527588
1761378905175052300,4.53705224609375,-0.06873565167188644,-0.17098931968212128,0.12126278132200241
1761378905185108500,4.5471083984375,-0.035180624574422836,-0.17970824241638184,0.075362928211689
1761378905195164400,4.557164306640625,-0.009904029779136181,-0.1756381392478943,0.029578398913145065
1761378905205219600,4.567219482421875,0.007089867256581783,-0.16975361108779907,0.00027297402266412973
1761378905215275500,4.577275634765625,0.01525938045233488,-0.18084141612052917,-0.004008856136351824
1761378905225331500,4.58733154296875,0.009677394293248653,-0.19856661558151245,0.017974207177758217
1761378905235386400,4.597386474609375,-0.0022948458790779114,-0.21917656064033508,0.04154291749000549
1761378905245442300,4.6074423828125,-0.017851168289780617,-0.2506040036678314,0.03954873979091644
1761378905255498500,4.61749853515625,-0.030711838975548744,-0.2797597348690033,0.004080761689692736
1761378905265554400,4.627554443359375,-0.04105076193809509,-0.30054226517677307,-0.037510089576244354
1761378905275609600,4.637609619140625,-0.0445975624024868,-0.31308093667030334,-0.06299787759780884
1761378905285665500,4.64766552734375,-0.04532273858785629,-0.32048293948173523,-0.05696767941117287
1761378905295721500,4.657721435546875,-0.042329348623752594,-0.3320205509662628,-0.03413453325629234
1761378905305776600,4.667776611328125,-0.04717177152633667,-0.34000498056411743,-0.0065194182097911835
1761378905315832300,4.677832275390625,-0.055091746151447296,-0.33591222763061523,0.008618521504104137
1761378905325888500,4.687888427734375,-0.07063741981983185,-0.32704097032546997,0.015138738788664341
1761378905335944400,4.6979443359375,-0.07409632951021194,-0.31063082814216614,0.011153318919241428
1761378905345999400,4.707999267578125,-0.06452306360006332,-0.29480820894241333,0.001862348522990942
1761378905356055600,4.7180556640625,-0.06495023518800735,-0.28865790367126465,0.00333241350017488
1761378905366111500,4.728111572265625,-0.07139188796281815,-0.28079891204833984,0.022893864661455154
1761378905376166700,4.738166748046875,-0.08666086196899414,-0.27947452664375305,0.06582055985927582
1761378905386222300,4.748222412109375,-0.11584670841693878,-0.279441237449646,0.12091071158647537
1761378905396278300,4.7582783203125,-0.14245328307151794,-0.2920355796813965,0.16024932265281677
1761378905406334500,4.76833447265625,-0.15890495479106903,-0.3227703273296356,0.1874529868364334
1761378905416389400,4.778389404296875,-0.1738319844007492,-0.3551442325115204,0.1996489316225052
1761378905426445600,4.788445556640625,-0.17391186952590942,-0.3994656503200531,0.1920759677886963
1761378905436501500,4.79850146484375,-0.16293272376060486,-0.43809425830841064,0.17327538132667542
1761378905446556700,4.808556640625,-0.1437329351902008,-0.44891121983528137,0.1672814041376114
1761378905456612600,4.818612548828125,-0.14251214265823364,-0.4326816499233246,0.18247286975383759
1761378905466668300,4.828668212890625,-0.16947664320468903,-0.3916761577129364,0.2000635862350464
1761378905476724500,4.838724365234375,-0.2025728076696396,-0.3550494313240051,0.175493523478508
1761378905486779400,4.848779296875,-0.23301860690116882,-0.32303664088249207,0.10906843096017838
1761378905496835600,4.858835693359375,-0.25623685121536255,-0.30764278769493103,0.05326961353421211
1761378905506891500,4.8688916015625,-0.2586488723754883,-0.3014748990535736,0.037281859666109085
1761378905516946400,4.878946533203125,-0.24626649916172028,-0.30959993600845337,0.07129495590925217
1761378905527002600,4.889002685546875,-0.21210666000843048,-0.309625506401062,0.13897493481636047
1761378905537058600,4.89905859375,-0.17373797297477722,-0.3291113078594208,0.2057691365480423
1761378905547114500,4.909114501953125,-0.13906174898147583,-0.343443900346756,0.25952237844467163
1761378905557169400,4.91916943359375,-0.12118421494960785,-0.3237873911857605,0.30760443210601807
1761378905567225300,4.929225341796875,-0.1435033679008484,-0.317996084690094,0.3149246573448181
1761378905577281500,4.939281494140625,-0.16644063591957092,-0.34022122621536255,0.23639389872550964
1761378905587337500,4.94933740234375,-0.158159539103508,-0.35248056054115295,0.12286653369665146
1761378905597392600,4.959392578125,-0.136470228433609,-0.3771422207355499,0.011780759319663048
1761378905607448600,4.969448486328125,-0.10451255738735199,-0.4059525728225708,-0.07237406820058823
1761378905617504500,4.97950439453125,-0.07964476197957993,-0.40583086013793945,-0.10625426471233368
1761378905627559400,4.989559326171875,-0.07948630303144455,-0.41517987847328186,-0.0803917795419693
1761378905637615400,4.999615478515625,-0.07689904421567917,-0.41024237871170044,-0.01145984884351492
1761378905647671600,5.009671630859375,-0.08976130932569504,-0.37745407223701477,0.0610756054520607
1761378905657727500,5.0197275390625,-0.1295209676027298,-0.34122204780578613,0.1204925924539566
