time,seconds_elapsed,z,y,x
1761379445021634800,0.081634765625,-0.015610826107859611,-0.020001023890823123,-0.18602277621850372
1761379445031718000,0.0917177734375,-0.11981529694795608,-0.03967033160924911,-0.07559409710131586
1761379445041799700,0.101799560546875,-0.2310895600438118,0.01566051046848297,-0.043245632812753315
1761379445051881700,0.1118818359375,-0.3500491169452667,0.11458382603526114,-0.027105522133782506
1761379445061964800,0.12196484375,-0.43283845931291576,0.18555296674966812,-0.052491453933343285
1761379445072046800,0.132046875,-0.3660924892514944,0.22515520155876872,-0.09546126547940074
1761379445082128600,0.142128662109375,-0.1559077700704336,0.2700124342866242,-0.06976319899074733
1761379445092211700,0.152211669921875,0.039622400814294814,0.2888153344340622,-0.03502374791242182
1761379445102293800,0.162293701171875,0.3201256878465414,0.20819018436297773,-0.025348010941967366
1761379445112375800,0.172375732421875,0.6135293729841709,0.0898239171795547,-0.09357640158087015
1761379445122459000,0.182458984375,0.725433166155219,0.025088994679599998,-0.13175854045897722
1761379445132541000,0.192541015625,0.573707650205493,0.029610563757270572,-0.06171557467877865
1761379445142622700,0.202622802734375,0.23684651613533494,0.08663695770651102,0.11380144348591566
1761379445152705800,0.212705810546875,-0.23270927020013332,0.03289353095069528,0.33794030760899185
1761379445162787800,0.222787841796875,-0.5342126751631499,-0.108106008323282,0.2995342968471348
1761379445172870000,0.232869873046875,-0.3899848214924335,-0.1151559268347919,0.13381715348921716
1761379445182952000,0.242951904296875,-0.056470659762620924,-0.0650799365453422,0.022854878951981662
1761379445193035000,0.253034912109375,0.13013736899793146,0.01931596423611045,-0.03789594234786928
1761379445203116800,0.26311669921875,0.2025456026047468,0.11597630330696701,-0.11480996294133365
1761379445213198800,0.27319873046875,0.29642157165408134,0.15048720632642507,-0.16327756818607447
1761379445223282000,0.283281982421875,0.2556090842723846,0.13058686633110045,-0.13386004278287292
1761379445233364000,0.293364013671875,0.10345336021184921,0.08442410396263003,0.02441080315709114
1761379445243445800,0.30344580078125,0.08583119428157805,-0.06473389958664774,0.14574074245169757
1761379445253528800,0.31352880859375,0.01277531042098999,-0.046615912963449954,0.08023118231743574
1761379445263611000,0.32361083984375,0.1440051508307457,0.0645540129750967,-0.036656536746025085
1761379445273693000,0.33369287109375,0.18441490263044832,0.1291721772275865,-0.12389759782552719
1761379445283775700,0.343775634765625,0.05384381839036941,0.1281345047429204,-0.11431319240033626
1761379445293857800,0.35385791015625,-0.01594283454120159,0.03489310727007687,-0.10634791260957717
1761379445303939800,0.36393994140625,-0.1157622221648693,0.0163884594168514,-0.11599968418255448
1761379445314022000,0.37402197265625,-0.13655132769346237,0.018277341903373597,-0.11571414523944258
1761379445324104700,0.384104736328125,-0.1589484529405832,0.045336248416453596,-0.06769961752444505
1761379445334186800,0.394186767578125,-0.11211246748566626,0.09818550281152129,0.016142302636057138
1761379445344268800,0.404268798828125,0.03925824367702007,0.1105545705191791,0.041004795083403586
1761379445354351900,0.414351806640625,0.30079087277948857,0.12418883585706353,-0.00857464386075735
1761379445364433700,0.42443359375,0.32791911820173264,0.1451994751818478,-0.024986557218432424
1761379445374515700,0.434515625,0.10860065997242926,0.13164696984328328,-0.041941491411626335
1761379445384598800,0.444598876953125,-0.0523848517537117,0.055699163933470845,-0.10421353092938661
1761379445394680800,0.454680908203125,-0.19543898546993732,-0.07166209141463041,-0.10925941614210605
1761379445404762600,0.4647626953125,-0.35892683540582654,0.1184382364410907,-0.15915259721055625
1761379445414846000,0.474845947265625,0.08047697377204895,0.0736826374568045,-0.0747255706384778
1761379445424927700,0.484927734375,-0.03772212015092373,-0.01961896577067673,0.025647651475667953
1761379445435009800,0.495009765625,0.11097557241022586,-0.06950169851034879,0.09336158978641032
1761379445445092900,0.5050927734375,0.29633798502385617,-0.09386603217720985,0.049640229220688344
1761379445455175000,0.5151748046875,0.37253508951961994,-0.030993177222087977,0.005042231950908899
1761379445465257000,0.525257080078125,0.31724691753983497,-0.03736315064541995,0.03296645005643368
1761379445475339000,0.535339111328125,0.11631284178495406,-0.11162139603309333,0.09979410705193877
1761379445485421800,0.545421875,-0.007206570377945899,-0.12764065681137143,0.11148512936756014
1761379445495504000,0.55550390625,0.019852701461315153,-0.08055676100999117,0.0931380101636052
1761379445505586000,0.5655859375,0.061873395588994025,-0.03027450755871832,0.03749634857103228
1761379445515669000,0.5756689453125,0.04695873505175113,0.0031103140402585264,0.017281828060001135
1761379445525750800,0.585750732421875,-0.055201078218221664,0.025508608331158755,-0.002313099247962236
1761379445535832800,0.595832763671875,-0.099798344835639,0.04745345976613462,-0.06865837955400347
1761379445545916000,0.605916015625,-0.04274374770522117,0.022216069591790438,-0.1523567995905876
1761379445555998000,0.615998046875,-0.3222784819662571,0.018494199524447322,-0.1065472345739603
1761379445566079700,0.626079833984375,-0.4554571183562279,-0.03710523036159575,-0.05508008218705654
1761379445576162800,0.636162841796875,-0.1434510240793228,-0.09824271289147436,-0.10669804122149944
1761379445586244900,0.646244873046875,0.09485328964889049,-0.06422543860785662,-0.09096651134341954
1761379445596327000,0.656326904296875,0.47746904367804527,-0.011597206552326678,-0.09022095367312431
1761379445606409700,0.66640966796875,0.6061129592478275,0.00882131209820509,-0.052285190771520135
1761379445616491800,0.67649169921875,0.4459048616349697,0.014303908227756618,0.04620426342263818
1761379445626573800,0.68657373046875,0.2257955452889204,-0.005764847137033939,0.06573094779998064
1761379445636655900,0.69665576171875,0.07498597514033317,-0.019478899712860584,0.03252951994389296
1761379445646738700,0.70673876953125,0.07100070489645004,-0.06452646738104521,-0.008848492366075515
1761379445656820700,0.71682080078125,0.08534779467880725,-0.0878769478302449,-0.05238879727646708
1761379445666902800,0.72690283203125,0.1470452491790056,0.009194675455242395,-0.11007657774388789
1761379445676985900,0.73698583984375,0.17189561279714108,0.13339732064194976,-0.16656564994603396
1761379445687067600,0.747067626953125,0.10859130762219428,0.15133637050166726,-0.1247935237519443
1761379445697149700,0.757149658203125,0.07269874098598957,0.053119011247158045,-0.056938715665787454
1761379445707232800,0.767232666015625,0.008102642434835433,-0.07186828151121735,-0.02910436780080199
1761379445717314800,0.777314697265625,-0.10960428405702113,-0.17308438419029115,-0.013937193807214497
1761379445727396600,0.787396728515625,-0.19765081630051134,-0.18890651496127248,0.002273059498518705
1761379445737480000,0.79747998046875,-0.12732289609909056,-0.13402370891198515,-0.03159267748519778
1761379445747562000,0.80756201171875,-0.05013736508786678,-0.03689151454567909,-0.059371203509718175
1761379445757644000,0.81764404296875,0.05160568407475948,-0.026974004708603023,-0.024882950713485476
1761379445767726800,0.827726806640625,0.08687222776710987,-0.11343275630399584,0.002949497455358505
1761379445777809000,0.837808837890625,0.01194178220629692,-0.19078648348897695,0.02142360403984785
1761379445787891000,0.847890869140625,-0.13408230723142622,-0.186509463756904,0.058715223819017406
1761379445797973000,0.857972900390625,-0.18882804289758204,-0.10494111455157398,0.029018735343962907
1761379445808055800,0.868055908203125,-0.060599722391366954,-0.0357641910161823,-0.07813698651716112
1761379445818137900,0.878137939453125,0.1271387717038393,0.011272723838314413,-0.1171798338778317
1761379445828220000,0.888219970703125,0.2318862633794546,-0.038015623204782606,-0.1000616719469428
1761379445838303000,0.898302978515625,0.19282851071059703,-0.1076334223754704,-0.029393413875252006
1761379445848384800,0.908384765625,0.092295421859622,-0.09156184688806533,0.03003624182343483
1761379445858466800,0.918466796875,0.12528057661652564,-0.0028849808517843484,-0.029704671781510112
1761379445868550000,0.9285498046875,0.18700491912364958,0.10437990047223865,-0.11998232407793402
1761379445878632000,0.9386318359375,0.15818798996210098,0.1811594079658389,-0.11630582752227782
1761379445888713700,0.948713623046875,0.11844400859475135,0.15844452200643716,-0.04393821818679571
1761379445898796800,0.958796875,0.07700608279109,0.08245455745533108,-0.027184797915071248
1761379445908878800,0.96887890625,0.09853519303202629,0.04076272995583713,-0.06098711427375674
1761379445918961000,0.9789609375,0.05205401236414909,0.046002530305460095,-0.1487847863227129
1761379445929043700,0.989043701171875,-0.13441197757720946,0.03619257249608636,-0.149110949537158
1761379445939125800,0.999125732421875,-0.22081424974501132,-0.025223507779464124,-0.08889555028825998
1761379445949207800,1.009207763671875,-0.1745166089504957,-0.06544679709635674,-0.007788315788656473
1761379445959290600,1.01929052734375,-0.0397404742360115,-0.057888271475583314,0.05490984018668532
1761379445969372700,1.02937255859375,0.0914630626887083,-0.0063640551391988985,0.05721183351874351
1761379445979454700,1.039454833984375,0.1893003365844488,0.087824998447299,0.05971081072762608
1761379445989537800,1.049537841796875,0.22388708131909368,0.1266243924409151,0.04003741135597229
1761379445999619000,1.059619140625,0.0007037643551826477,0.11146635160185396,0.03232420663014054
1761379446009701000,1.069701171875,0.1636947706848383,0.05667012785747647,-0.03313479236066341
1761379446019784000,1.079783935546875,0.30487726531028747,0.024707886407524346,-0.08053513370007276
1761379446029866000,1.089865966796875,0.2278337731182575,0.06046192135587334,-0.08295739241093397
1761379446039948000,1.099947998046875,0.1310772801965475,0.04963672208935022,-0.04711202591732144
1761379446050030000,1.110030029296875,0.24467209519445896,-0.021070772014185786,-0.001459258897602558
1761379446060113000,1.12011279296875,0.007350947284698486,-0.058846741244196886,-0.011485855132341384
1761379446070195000,1.13019482421875,-0.14520575879216194,0.02314421728737652,0.010588321770727634
1761379446080277000,1.140277099609375,0.10376081872582435,0.05200023635029793,-0.07387947520315646
1761379446090359800,1.15035986328125,0.08512567636072635,0.12410597987920045,-0.05488032183125615
1761379446100441900,1.16044189453125,0.033062311646342275,0.1161307632163167,-0.06079992113858461
1761379446110524000,1.17052392578125,-0.022012509843707083,0.026558628840744492,-0.03508899516835808
1761379446120607000,1.18060693359375,0.2510737789303064,-0.14682766090556978,-0.023836072009056804
1761379446130689000,1.19068896484375,-0.3054080111861229,-0.18504808596745131,0.06239259715750813
1761379446140770800,1.200770751953125,-0.3819645966440439,-0.16511238239780068,0.09076543581336736
1761379446150854000,1.21085400390625,0.11608838537931442,-0.1507061828393489,0.09647723758891225
1761379446160936000,1.22093603515625,0.25352234112620353,-0.07621434789150953,0.13566782285720108
1761379446171018000,1.23101806640625,0.09683598789870738,0.0030542730040848255,0.12718860219493508
1761379446181100800,1.241100830078125,0.01961363200843334,-0.006255187937244773,0.12726648973673582
1761379446191182800,1.251182861328125,0.04524433234930038,-0.032115020858868956,0.05269494061619043
1761379446201265000,1.261264892578125,0.1033142440021038,-0.009713000240921973,-0.03497676696553826
1761379446211348000,1.271347900390625,0.06187398011088371,-0.04427548731714487,-0.03469634258896112
1761379446221430000,1.281429931640625,0.024458149430155753,-0.11002601660043,-0.024254735812544823
1761379446231512000,1.291511962890625,-0.0006575871258974075,-0.12416530885100364,-0.030910248178988693
1761379446241595100,1.30159521484375,-0.023580197551846503,-0.08245309615060686,-0.04338642952293157
1761379446251677000,1.311677001953125,0.0157855981528759,-0.030050781805440782,-0.06850128929615021
1761379446261759000,1.321759033203125,0.06544891598820686,-0.01949986943565309,-0.028716829787939786
1761379446271842000,1.331842041015625,0.11404840398430824,-0.03218494428992271,-0.021398469598591326
1761379446281924000,1.341924072265625,0.11175240200161933,-0.023437355015054343,-0.057375061256438493
1761379446292006000,1.352005859375,0.04196107289493084,-0.01373144210204482,-0.05939736086428165
1761379446302089000,1.3620888671875,-0.0497574258595705,-0.02160648632608354,-0.0569039366133511
1761379446312171000,1.3721708984375,-0.0894844560921192,0.00666508391238749,-0.010187485884875058
1761379446322253000,1.382253173828125,-0.016852935123443602,0.041502661602944135,-0.004817775545269251
1761379446332335900,1.3923359375,0.11473930885791778,0.11341748566962778,-0.03411138230785727
1761379446342418000,1.40241796875,0.16103928773999213,0.13681377802193165,-0.05229483538269997
1761379446352500000,1.4125,0.14214929383099079,0.10948168059065938,-0.0155938749730587
1761379446362583000,1.4225830078125,0.13406418705284595,0.05991904665082693,-0.00026478841602802275
1761379446372664800,1.432664794921875,0.1123813475549221,0.0007517682153731584,-0.032985739278793336
1761379446382747000,1.442746826171875,0.007509937238693237,-0.04175634410306811,-0.032442426182329655
1761379446392830000,1.452829833984375,-0.08322481117546558,-0.07246032912023365,-0.024773352859169245
1761379446402912000,1.462912109375,-0.08223755370378494,-0.06655819240435958,-0.012546908492594957
1761379446412993800,1.472993896484375,-0.02739537192583084,-0.025368323077633974,-0.019254443307220936
1761379446423076900,1.483076904296875,0.045480479192733764,0.01149615733064711,0.005280570751428603
1761379446433159000,1.493158935546875,0.08998363778591155,0.01887136227376759,0.011045856279879808
1761379446443241000,1.503240966796875,0.08271627713143825,0.015304025181010365,-0.0006542261250317096
1761379446453323000,1.513322998046875,0.05307283401787281,0.036956469540670514,-0.06423457176238298
1761379446463405800,1.52340576171875,0.01575286492705345,0.04243380497321486,-0.08439955404326319
1761379446473488000,1.53348779296875,-0.010884966629743576,0.007890826315060257,-0.06254559576213359
1761379446483570000,1.54356982421875,0.04355389504432678,-0.03710274614356458,-0.04903086515069008
1761379446493653000,1.553653076171875,0.11541443164050579,-0.03253682646751404,-0.0687267686150968
1761379446503735000,1.563735107421875,0.14612871885597706,0.025129180559515952,-0.0696307317174971
1761379446513816800,1.57381689453125,0.19021335977613923,0.04512961992844939,-0.06125979373529553
1761379446523900200,1.583900146484375,0.18898001858890057,0.0563638383872807,-0.07484495923444628
1761379446533982000,1.59398193359375,0.12423369791209697,0.0910181684654206,-0.06224412859752774
1761379446544064000,1.60406396484375,0.0666933630913496,0.1131347232054919,-0.025004385136067866
1761379446554147000,1.61414697265625,0.061197103762626645,0.09198160667009651,-0.036051118198782206
1761379446564229000,1.62422900390625,0.0008475567400455475,0.028607743390277027,-0.02447860769629478
1761379446574311000,1.634310791015625,-0.12727087365090847,-0.021740999425947666,0.0026797406032681463
1761379446584394000,1.64439404296875,-0.16865385439693928,-0.07563976287394762,0.0065723641276359554
1761379446594476000,1.65447607421875,-0.09530512506961822,-0.11766001861020922,0.004717091649770736
1761379446604558000,1.66455810546875,-0.0023550386935472485,-0.09579970365352929,-0.025940204681456087
1761379446614641000,1.674640869140625,0.06988192999958992,-0.032802053274959324,-0.08834317710250615
1761379446624723000,1.684722900390625,0.09637889178097248,-0.00789827896915376,-0.11103300168588758
1761379446634805000,1.694804931640625,0.08665361658036708,-0.01391352067068219,-0.08787453667744993
1761379446644887800,1.7048876953125,0.06582067191004752,-0.010047127566114068,-0.05678571706116199
1761379446654969900,1.714969970703125,0.017622750452160833,-0.02492240594103932,-0.01888210286349058
1761379446665052000,1.725052001953125,0.04833996027708053,-0.023189809994772076,0.010490852745622396
1761379446675135000,1.735135009765625,0.10032032288312911,-0.004579582875221967,0.007968348530679941
1761379446685217000,1.745217041015625,0.05772504373788833,0.001918035515770316,0.022416998991370198
1761379446695298800,1.755298828125,0.03796352769136429,-0.038691111313551664,0.0512095243640244
1761379446705382000,1.7653818359375,0.08831190518140793,-0.08586962659582495,0.009625029696524142
1761379446715464000,1.7754638671875,0.065198740619421,-0.07056859708949922,-0.06104848907217383
1761379446725546000,1.7855458984375,-0.0915893194168806,-0.040184710872173304,-0.05826309613734484
1761379446735628800,1.79562890625,-0.14072539850771426,-0.04282390026934445,-0.020694412982463835
1761379446745710800,1.8057109375,-0.03482464514374733,-0.07054324345253407,-0.0389060692384839
1761379446755793000,1.81579296875,0.05840484269559383,-0.03377221348136663,-0.08725055956020951
1761379446765876000,1.8258759765625,0.0476227519184351,0.014177651499584316,-0.04589300551638007
1761379446775958000,1.8359580078125,0.036921909683942794,-0.012798618231341242,0.009084346948564052
1761379446786040000,1.8460400390625,0.06860650323629379,-0.001322992232069373,-0.021806612008064986
1761379446796123100,1.856123046875,0.1015367129355669,0.10957958800718187,-0.079065061147511
1761379446806205000,1.866204833984375,0.10240531246364117,0.20281207152120767,-0.08431494449973106
1761379446816287000,1.876286865234375,0.07650865466296672,0.18234511061906813,-0.05803294064328074
1761379446826370000,1.8863701171875,0.1525841786056757,0.1115894665248692,-0.02022548029646277
1761379446836452000,1.8964521484375,0.2264268289297819,0.0721865536801517,-0.046168607587367294
1761379446846534000,1.906533935546875,0.20846388673782348,0.07736424857899546,-0.08291793718338013
1761379446856617000,1.916616943359375,0.10720248361229896,0.05887706331722438,-0.04322890087366104
1761379446866699000,1.926698974609375,0.04940379011631012,0.003939896732196212,-0.024667116005718706
1761379446876781000,1.936781005859375,0.022955343651771543,0.002572115510329604,-0.03538827037587762
1761379446886864000,1.94686376953125,0.031955227187275885,0.012006298809871077,-0.03281666632220149
1761379446896946000,1.95694580078125,-0.027817396730184553,0.01133373331055045,0.013089929328113793
1761379446907028000,1.967028076171875,-0.13289981944859028,-0.010085413749888538,0.04879764091670513
1761379446917111000,1.977111083984375,-0.0905219824463129,-0.04379091867059469,0.0746492905318737
1761379446927192800,1.98719287109375,0.0371264923453331,-0.039859059114381666,0.05814721467271447
1761379446937275000,1.99727490234375,0.11535305684208869,-0.007760258737951517,0.02969911882355809
1761379446947358000,2.00735791015625,0.13752864829301834,0.003479731874540448,0.03219502729251981
1761379446957440000,2.01743994140625,0.13323708857893943,0.014145795056596397,0.023099282167106865
1761379446967521800,2.027521728515625,0.12305939343571662,0.014137904011085629,-0.033377222814410926
1761379446977604900,2.03760498046875,-0.024728783065080643,0.010028422865644097,-0.04581950188875198
1761379446987687000,2.04768701171875,-0.15704758775532246,-0.03740918174423277,-0.021140110923349855
1761379446997769200,2.057769287109375,-0.08164075685441494,-0.09107099463120102,-0.0028523206911981102
1761379447007852000,2.06785205078125,0.07364332835972309,-0.12443937655203044,-0.02548573891222477
1761379447017934000,2.07793408203125,0.1374596747100353,-0.08650032571479678,-0.06845730402395128
1761379447028016000,2.08801611328125,0.1023468602746725,-0.007563128730654716,-0.08508286013230681
1761379447038099000,2.098098876953125,0.03691547994315624,0.046643385492265224,-0.05260141711384058
1761379447048181000,2.108180908203125,0.017740239351987836,0.08869432862773537,-0.01066343283355236
1761379447058263000,2.118262939453125,0.10390928728580474,0.09894041283205152,-0.01919365303069353
1761379447068346000,2.12834619140625,0.11499883657693863,0.096988694242388,-0.005710340470820665
1761379447078428000,2.138427978515625,0.04027881889641285,0.050595776379853484,0.04724573529958725
1761379447088510000,2.148510009765625,0.022871172499656676,-0.02184256010428071,0.039703357096016405
1761379447098593000,2.158593017578125,0.08734685954153537,-0.02476685005314648,-0.024189269360899924
1761379447108675000,2.168675048828125,0.09897358444929122,-0.024128040692955256,-0.07057765717878937
1761379447118757000,2.178757080078125,0.08185527638792992,-0.06137742876559495,-0.06767959764972328
1761379447128840000,2.18883984375,0.005883797341585159,-0.08688881357572972,-0.05190656671747565
1761379447138922000,2.198921875,-0.08260814058184623,-0.07459273803904652,-0.05076645677164197
1761379447149004000,2.209004150390625,-0.08826105177700519,-0.04556326210536062,-0.058712301209568975
1761379447159087000,2.219087158203125,-0.05658639509677887,-0.031805954909697176,-0.02702610022202134
1761379447169169200,2.229169189453125,-0.03451017236709594,-0.012483780128508806,-0.019834435152262447
1761379447179251200,2.239251220703125,0.09188859462440013,0.05244849157445133,-0.031039865908026692
1761379447189334300,2.249334228515625,0.2144324397534132,0.10444412481486796,-0.04916705875098705
1761379447199416000,2.259416015625,0.2200432653725147,0.09392587260566651,-0.03822685480266809
1761379447209498000,2.269498046875,0.12329612480103969,0.05238792049363255,0.01631137559264898
1761379447219581200,2.279581298828125,0.05975859539210796,0.004460121214017272,0.015559972703456878
1761379447229663200,2.289663330078125,-0.015082418319582938,-0.024260361835733053,-0.0020195231288671492
1761379447239745000,2.2997451171875,-0.08025602449774742,-0.05766739526651799,-0.02881941337957978
1761379447249828000,2.309828125,-0.08025485545396804,-0.07348550744950771,-0.04551876537650823
1761379447259910100,2.31991015625,-0.026247955456376076,-0.044954190296307206,-0.053646103861182924
1761379447269992200,2.3299921875,0.018502455896139143,-0.03650178457573056,-0.04217442338466644
1761379447280075000,2.340074951171875,0.056934185621142386,-0.018854849530383945,-0.04316694155335426
1761379447290157000,2.350156982421875,0.08989186784923076,0.010706541322916745,-0.05354571222662925
1761379447300239000,2.360239013671875,0.10469254661798477,0.02351590014398098,-0.06934431599155068
1761379447310322000,2.370322021484375,0.09355331296622753,0.02737221024595201,-0.05182911756709218
1761379447320404000,2.380404052734375,0.0906219356894493,0.017467632955685257,-0.028390082051604985
1761379447330486000,2.390486083984375,0.09390519514381886,-0.0076005381315946575,-0.018714783472567796
1761379447340569000,2.400569091796875,0.10012392352819442,-0.011867474861070513,-0.04588438381850719
1761379447350651100,2.410651123046875,0.09894085122346878,-0.00013356325179338455,-0.06880538680925966
1761379447360734000,2.42073388671875,0.023109657430648804,0.004649214045330882,-0.04260521601736545
1761379447370816000,2.43081591796875,-0.01992693574130535,-0.010420783184096217,-0.0029370763652026653
1761379447380898000,2.44089794921875,0.027131168031692503,0.0004259703271090984,-0.008029138807207346
1761379447390980900,2.45098095703125,0.0405073669552803,0.007256985390931368,-0.03522898816093802
1761379447401063000,2.46106298828125,0.01757598870098591,0.00021240064166486261,-0.06854191356748342
1761379447411145000,2.47114501953125,-0.004171148204803466,0.0006453852314502,-0.022138766571879385
1761379447421228300,2.481228271484375,0.017921441137790678,-0.008775500195100903,0.008366261807084083
1761379447431310000,2.49131005859375,0.07325812843441963,0.03272387347221374,-0.00004135492369532585
1761379447441392000,2.50139208984375,0.04605915586352348,0.05187785207964479,0.008484481359273195
1761379447451475200,2.51147509765625,0.03559212238490581,0.05321757625080645,0.02259615495055914
1761379447461557200,2.52155712890625,0.059497314107418056,0.04158588290698826,-0.007255816347151995
1761379447471639000,2.53163916015625,0.03469780389368534,0.06427176196761429,-0.013087445110082625
1761379447481722000,2.54172216796875,0.01832008506655693,0.05480089991949498,0.014725859966874122
1761379447491804200,2.55180419921875,0.06246084008812904,0.03290712108463049,0.017792261800169944
1761379447501886200,2.56188623046875,0.1155792668133974,0.014303542901575565,-0.004255319356918335
1761379447511969000,2.571968994140625,0.08821838167905807,-0.013563026732578873,-0.03145151544883847
1761379447522051000,2.582051025390625,0.06339549058973788,-0.04931304309293628,-0.057970981322973965
1761379447532133000,2.592133056640625,0.04422551069557667,-0.08644121593870221,-0.09059986998811363
1761379447542216000,2.6022158203125,-0.017210077998042105,-0.08178900621868669,-0.07597367100343108
1761379447552298000,2.612298095703125,-0.0360761065095663,-0.07357472010292113,-0.015352321302145719
1761379447562380000,2.622380126953125,0.010270634123682976,-0.06519019198678433,0.00496770540997386
1761379447572463000,2.632463134765625,0.052337505480647084,-0.032058395300805564,0.0161440562017262
1761379447582545200,2.642545166015625,0.06222644681036472,0.002969371199607849,0.025543168187886475
1761379447592627000,2.652626953125,0.07575345238149166,0.020557707925513386,0.0011878946103155612
1761379447602710000,2.6627099609375,0.13175591011047363,0.04304309597797692,-0.018178630769252777
1761379447612792000,2.6727919921875,0.14250702122747896,0.05330978457890451,-0.03628039691001177
1761379447622874000,2.6828740234375,0.08266308563947677,0.03789199682511389,-0.03086290190592408
1761379447632957000,2.69295703125,0.0030880291432142256,-0.007101064176857471,-0.02178776117712259
1761379447643039000,2.7030390625,-0.02831599390208721,-0.03071998630389571,-0.0017504969291388987
1761379447653121000,2.71312109375,0.017550854259729385,-0.0383686744261533,-0.023901830721646547
1761379447663204000,2.7232041015625,0.04423077139258384,-0.027086598237603902,-0.03777575003430247
1761379447673286000,2.733285888671875,0.02443476855456829,-0.020405001581832765,-0.02589242001697421
1761379447683368000,2.743367919921875,0.033601240828633305,0.015197934458032249,-0.03802358731552958
1761379447693451300,2.753451171875,0.03882043678164482,0.05489237759523093,-0.03791238202601671
1761379447703533000,2.763532958984375,0.09277239172160624,0.02898804794475436,-0.0262217981018126
1761379447713615000,2.773614990234375,0.10928571962714195,-0.0057968497104942795,-0.008208148635923862
1761379447723698200,2.7836982421875,0.09848375510573387,-0.047855683891475195,-0.021899112597107886
1761379447733780200,2.7937802734375,0.06468962205350398,-0.0585106411576271,-0.04571487247049808
1761379447743862300,2.8038623046875,0.00730067840218544,-0.05451601856350898,-0.038593934549391265
1761379447753945000,2.813945068359375,-0.05609656575322151,-0.04311002373434603,-0.003615852409601211
1761379447764027100,2.824027099609375,-0.055389878788590426,-0.04089527029432356,0.01948226071372628
1761379447774109200,2.834109130859375,-0.006060907474160194,-0.03566007305458188,-0.00276084301546216
1761379447784192000,2.84419189453125,0.07326105104386806,-0.016374503956735134,-0.009569061725586652
1761379447794274000,2.854274169921875,0.11566285344362258,-0.010225260611996054,-0.02932268672659993
1761379447804357000,2.864357177734375,0.0843482622474432,0.005784793946519494,-0.025282763686031103
1761379447814439200,2.874439208984375,0.05023147311210632,-0.013141659515351057,-0.0191981830753386
1761379447824521000,2.88452099609375,0.05848959836959838,-0.028140637335181233,-0.019914953042566776
1761379447834604000,2.89460400390625,0.10505611923336983,-0.025012349246814846,-0.02869417956471443
1761379447844686000,2.90468603515625,0.10624795936644077,-0.011061492240428924,-0.04209229805916548
1761379447854768000,2.91476806640625,0.040383448314666746,0.009751067228987812,-0.013057488363236188
1761379447864851000,2.924850830078125,-0.0030097032099962234,0.023156784508004784,0.014185615610331296
1761379447874933000,2.93493310546875,0.04852642275989055,0.021318463164940474,-0.009320639922469854
1761379447885015000,2.94501513671875,0.06822130331099033,0.0386218454696238,-0.027159809604287145
1761379447895097900,2.955097900390625,0.06794716254472732,0.03134915105290711,-0.03885492357313633
1761379447905180000,2.965179931640625,0.02927811693251133,0.01993146578595042,-0.010714286237955093
1761379447915262000,2.975261962890625,0.030079496443271635,0.01786569236256182,0.000351005394756794
1761379447925345300,2.98534521484375,0.06946048971712589,0.021520561608299613,-0.0270298996143043
1761379447935427000,2.995427001953125,0.10736556521952152,0.021894290291517973,-0.03666019000783562
1761379447945509000,3.005509033203125,0.0488204372704029,0.0070517451424151655,-0.03475757125690579
1761379447955592200,3.01559228515625,-0.046454292660951614,-0.013599632415920495,-0.019176263504475353
1761379447965674200,3.02567431640625,0.014404957449436187,-0.030419834313541647,-0.015722031397372483
1761379447975756300,3.03575634765625,0.1093880109578371,-0.0235322667568922,-0.0396405209928751
1761379447985839000,3.045839111328125,0.13205167818665503,0.010536883844435215,-0.02555062084197998
1761379447995921200,3.055921142578125,0.08353051612377166,0.00478306955806911,-0.0033732758253812787
1761379448006003200,3.066003173828125,0.023346973317861557,-0.006555997514724731,-0.02247282083183527
1761379448016086300,3.076086181640625,0.011516834792494773,0.008721797246485948,-0.009306757527589797
1761379448026168300,3.086168212890625,0.015979659420251844,0.02209748471342027,0.0004312310241162777
1761379448036250400,3.09625048828125,0.04444003022909164,0.027155206494405865,0.0066720251098275184
1761379448046333400,3.10633349609375,0.04682604858279228,0.014277677807956933,-0.00004720014259219169
1761379448056415200,3.116415283203125,0.01890869860947132,-0.0014743103362619876,-0.010444967777281999
1761379448066497300,3.126497314453125,0.014110358417034148,0.00925729236267507,-0.013816490036994217
1761379448076580400,3.136580322265625,0.05480126524567604,0.02642411574088037,-0.010177110621333122
1761379448086662400,3.146662353515625,0.06734861212968826,0.030117125039920208,-0.012322744347900151
1761379448096744200,3.156744140625,0.10707505784034728,0.038376492406427855,-0.02777092723995447
1761379448106827300,3.1668271484375,0.11276596295833587,0.011783522904664277,-0.025501228742301464
1761379448116909300,3.176909423828125,0.06041968964934349,-0.014703428939357398,-0.03854439631924033
1761379448126991400,3.186991455078125,0.020668694019317625,-0.0268840614028275,-0.028179069649428127
1761379448137074200,3.19707421875,0.003281505888700485,-0.03133219991810619,-0.010216419718414544
1761379448147156200,3.20715625,0.036302316480875015,-0.007341302673518658,-0.0069203007824718945
1761379448157239300,3.2172392578125,0.06728899089694022,0.027009806674346326,-0.03424684525579214
1761379448167321000,3.227321044921875,0.06945756710767746,0.05759878700971603,-0.04246873015612364
1761379448177403100,3.237403076171875,0.037432781815528865,0.040298035053536296,-0.05030585352256894
1761379448187486200,3.247486328125,0.04277005119025707,0.0015158844556659458,-0.037097120120376345
1761379448197568300,3.257568359375,0.04498188202083111,-0.040538565811142326,-0.029739450833946465
1761379448207650300,3.267650390625,0.02070551889836788,-0.04173530131503939,-0.0461794212423265
1761379448217733000,3.277733154296875,-0.0009726444244384765,-0.02578961722962558,-0.03564180674552917
1761379448227815200,3.287815185546875,-0.014739303970336914,0.0013472498904913662,-0.0031703005991876123
1761379448237897200,3.297897216796875,0.02200432653725147,0.029341756753250955,0.003610591712594032
1761379448247980300,3.307980224609375,0.08975976590216159,0.04005173214226961,-0.001623217287659645
1761379448258062300,3.318062255859375,0.12396598688662051,0.030492241962626575,-0.006078589261323214
1761379448268144000,3.32814404296875,0.12129881350398063,0.005427504941448569,-0.03313829949200153
1761379448278227500,3.3382275390625,0.08926584490537642,-0.01301861765757203,-0.027567952013760805
1761379448288309200,3.348309326171875,0.04733633619248867,-0.04114033109657466,-0.015757833363115786
1761379448298391300,3.358391357421875,0.05885434002876282,-0.04258015464134514,-0.031179420509189367
1761379448308474400,3.368474365234375,0.03714636608958244,-0.0058913961261510845,-0.0323468568533659
1761379448318556400,3.378556396484375,0.005039747732877731,0.018314970500022173,-0.02397606500163674
1761379448328638200,3.38863818359375,0.0364858563542366,0.02652304607070982,-0.013576836062222718
1761379448338721300,3.39872119140625,0.06810264536738395,0.04004457174912095,-0.0009467793308198452
1761379448348803300,3.40880322265625,0.0567243422627449,0.004179696837440133,-0.004711684822291135
1761379448358885400,3.418885498046875,-0.009535305586457252,-0.012598930940777063,0.026173428915441034
1761379448368968200,3.42896826171875,-0.004086392530798912,-0.02634104056730866,0.024077479549497363
1761379448379050200,3.43905029296875,-0.010756956335902214,-0.03782273098118603,0.012042758362740278
1761379448389132300,3.44913232421875,-0.015969138026237485,-0.010556757588684558,-0.009675006318092346
1761379448399215000,3.459215087890625,0.036573534637689586,-0.0001894581574946642,-0.021931261301040648
1761379448409297200,3.469297119140625,0.0603407791942358,-0.022028657260909676,-0.03776858964115381
1761379448419379200,3.479379150390625,0.03601706979870796,-0.020153876364976165,-0.02323284541890025
1761379448429462300,3.489462158203125,0.03690905020236969,-0.027002646281197664,-0.02618979552835226
1761379448439544300,3.49954443359375,0.08251637064516544,-0.012453238859772682,-0.04856982351019978
1761379448449626000,3.509626220703125,0.08074936097264289,0.0018793840058147907,-0.05838482282087207
1761379448459709200,3.519709228515625,0.04067161760628223,0.00903795052357018,-0.0359511649556458
1761379448469791200,3.529791259765625,0.025684476354718207,-0.004827054830268025,-0.04275163875073194
1761379448479873300,3.539873291015625,0.013942600634694099,-0.013506328109279275,-0.032011341288685796
1761379448489956000,3.5499560546875,0.019988895061612128,-0.009221198135986923,-0.015888181744515895
1761379448500038100,3.5600380859375,0.021754151168465612,-0.015049173637107014,-0.01279050799012184
1761379448510121500,3.57012158203125,0.02389876198172569,0.018228461260348557,-0.037000235617160794
1761379448520203300,3.580203369140625,0.05164776965081692,0.05213489558063447,-0.02210033425763249
1761379448530285300,3.590285400390625,0.07374445064663887,0.061312692966312164,-0.019330577283352614
1761379448540368400,3.600368408203125,0.09548223520219326,0.05388794979304075,-0.048643034876883026
1761379448550450400,3.610450439453125,0.07834697600603104,0.03775404965914786,-0.04179024637266993
1761379448560532200,3.6205322265625,0.026871640312671658,0.009384060547500848,-0.05450710460469126
1761379448570615300,3.630615234375,0.00043020811080932614,-0.014382599487155675,-0.06715805799365043
1761379448580697300,3.640697265625,0.03283727071881294,-0.010659195049852133,-0.049326487096399065
1761379448590779400,3.650779296875,0.029473347243666646,-0.00967887877561152,-0.0345740313835442
1761379448600862200,3.6608623046875,0.038843233135342596,-0.015542656242474912,-0.026573241887986657
1761379448610944300,3.6709443359375,0.08560673787593841,-0.017891703586652874,-0.02490998485088348
1761379448621026300,3.6810263671875,0.12554244242310522,-0.002952712325751781,-0.059615241398662325
1761379448631109000,3.691109130859375,0.11346855826973914,0.015163082340359686,-0.05643631910160184
1761379448641191200,3.701191162109375,0.0621311697423458,0.009070172292739152,-0.032204525773227216
1761379448651273200,3.711273193359375,0.040216859576106066,0.006686565091833472,-0.031212299865484235
1761379448661356300,3.721356201171875,0.03799100022017955,0.01206869652159512,-0.038412586633116
1761379448671438300,3.731438232421875,0.009718260937929152,-0.0090245795853436,-0.041622342459857464
1761379448681520000,3.74152001953125,-0.03169219233691692,-0.0444269515518099,-0.029432284580916165
1761379448691603200,3.751603271484375,-0.009922843599319458,-0.053598757588118315,-0.0367896616064012
1761379448701685200,3.761685302734375,0.02901099042892456,-0.017548296976462006,-0.06328180108219385
1761379448711767300,3.771767333984375,0.062220601591467854,0.012942775942385196,-0.052720367318391796
1761379448721850000,3.78185009765625,0.06284428644776344,0.019886822926625608,-0.012031067924946546
1761379448731932200,3.79193212890625,0.08547054427564144,0.061127107266336675,-0.002388794832676649
1761379448742014200,3.80201416015625,0.08238076156675815,0.13074366432800888,-0.03664367726445198
1761379448752097000,3.812096923828125,0.11565993083417415,0.08977985884211957,-0.04107420705780387
1761379448762179000,3.822178955078125,0.09191372906565666,0.0337834655277431,-0.0160623692676425
1761379448772261000,3.83226123046875,0.03258125013113022,0.025334640003740787,-0.016463935805857182
1761379448782344400,3.842344482421875,0.0005512041419744491,-0.0017754852399230001,-0.016986206114292145
1761379448792426200,3.85242626953125,-0.008023147457838059,-0.01596497330777347,-0.020692659416794774
1761379448802508300,3.86250830078125,-0.021815525966882705,-0.02396693184711039,-0.05159603946357965
1761379448812591400,3.87259130859375,-0.011759411376714705,-0.0036984161265194416,-0.03113280488848686
1761379448822673400,3.88267333984375,-0.0002899228572845459,-0.003553235502168536,-0.010778583645820617
1761379448832756200,3.892756103515625,0.05463116937577724,0.005564940650761127,-0.011209522408992052
1761379448842838300,3.90283837890625,0.09951777432858944,0.010580138464272021,-0.03090279552489519
1761379448852920300,3.91292041015625,0.08624854291081428,0.0037619098167866465,-0.019817337886989115
1761379448863003100,3.923003173828125,0.03143266461789608,-0.0007327712539583444,-0.012784808901697397
1761379448873085200,3.933085205078125,0.014947978284955024,-0.0015890227571129798,0.012135112821310757
1761379448883167200,3.943167236328125,0.06989654304683209,-0.014988091099634766,-0.006709872902184724
1761379448893250300,3.953250244140625,0.09542261396944522,-0.011010931096971035,-0.036921617422997946
1761379448903332400,3.963332275390625,0.07948737821280956,-0.0101573830075562,-0.04209171353727579
1761379448913414100,3.9734140625,0.03763093473613262,-0.022025150129571555,-0.02191372564435005
1761379448923497200,3.983497314453125,-0.010174188011884688,-0.03342237713038921,-0.0008365969546139239
1761379448933579300,3.993579345703125,0.005749357306957244,-0.02218910851962864,-0.017857874382287264
1761379448943661300,4.003661376953125,0.062005497536063194,-0.0012174860309809446,-0.023063041809946297
1761379448953744100,4.013744140625,0.11061784501373767,-0.0031800913408398628,-0.035242578294873234
1761379448963826200,4.023826171875,0.12557108399569988,-0.008842501016706228,-0.038127339950948955
1761379448973908200,4.033908203125,0.09561083001792431,-0.02195624961182475,-0.0013252572543919086
1761379448983991000,4.043990966796875,0.07444412334859371,-0.027378274660557506,0.008347849367558956
1761379448994073000,4.054072998046875,0.06031739831864834,-0.015415084340050816,-0.004311579588800668
1761379449004155600,4.06415576171875,0.04736030158996582,0.012316095411404967,-0.007907412123680114
1761379449014238700,4.07423876953125,0.01388064131438732,0.0009537935934960842,0.017852759815752507
1761379449024320500,4.084320556640625,0.012739654585719108,-0.016167656273022295,0.01851268502920866
1761379449034402600,4.094402587890625,-0.005771569138765335,-0.04065262064486742,0.011709727016091347
1761379449044485600,4.104485595703125,-0.026724340796470642,0.01202156944423914,0.007461860313266515
1761379449054567700,4.114567626953125,0.011946458381414412,0.05541106770709157,0.031305531106889245
1761379449064649500,4.1246494140625,0.08080430603027343,0.05213569929823279,0.008383943594247103
1761379449074732500,4.134732666015625,0.10348258630633353,0.03222688373550772,-0.028640549681335687
1761379449084814600,4.144814697265625,0.07682897265851497,0.0009506517883390188,-0.03000000146627426
1761379449094896600,4.154896728515625,0.030730069306492802,-0.05011814893074333,-0.014742226579785345
1761379449104979500,4.1649794921875,-0.008852584019303321,-0.0655409781858325,-0.030487784983217716
1761379449115061500,4.1750615234375,-0.021608605217933653,-0.04695296289809048,-0.016108984888345
1761379449125143600,4.1851435546875,0.020667524975538254,-0.01013254082724452,-0.02148907049149275
1761379449135226600,4.1952265625,0.07444470787048339,0.0009266863908618688,-0.023947715689986944
1761379449145308700,4.20530859375,0.104503746047616,-0.01671769137121737,-0.012813012082874773
1761379449155390500,4.215390380859375,0.12061492289304733,-0.050439709035307166,-0.027238866189867258
1761379449165473800,4.225473876953125,0.07730944965183735,-0.05628441647551954,-0.027463176465034482
1761379449175555600,4.2355556640625,0.0048024318456649775,-0.034024653872475025,-0.00672010203525424
1761379449185637600,4.2456376953125,0.013183306699991225,-0.017323767505586146,0.0008536942198872566
1761379449195720700,4.255720703125,0.0631073212981224,-0.000025938158854842185,-0.012165215698629618
1761379449205802800,4.265802734375,0.051613282859325406,-0.013681100154295562,-0.008600801215320825
1761379449215884800,4.275884765625,0.02768997095823288,-0.03521671320125461,-0.0004801847323775291
1761379449225967600,4.285967529296875,-0.02081833162307739,-0.041157647557556624,-0.009665215576440095
1761379449236049700,4.296049560546875,-0.004438274708390235,-0.00957687970586121,-0.01202346914038062
1761379449246131700,4.306131591796875,0.05025017781257629,0.004096475533396006,-0.016118191108107565
1761379449256214500,4.316214599609375,0.09100304396152496,0.003888166544958949,-0.028226854313910005
1761379449266296600,4.326296630859375,0.04379822519421577,0.023236937072128056,-0.0085256901524961
1761379449276378600,4.336378662109375,-0.00027297172248363493,0.03390044297091663,0.02608501997962594
1761379449286461700,4.346461669921875,0.05054302327930927,0.002422185645624995,0.034604280391335486
1761379449296543500,4.35654345703125,0.0889753375262022,0.003561199612915516,-0.006594868220388889
1761379449306625500,4.36662548828125,0.046888007903099056,0.001770224542915821,-0.01568622943162918
1761379449316708600,4.37670849609375,0.04608136769533157,-0.032738121193274856,-0.022242226946353912
1761379449326790700,4.386790771484375,0.03021510552167892,-0.036712431651726364,-0.027833471082150934
1761379449336872700,4.396872802734375,0.032788755401968954,0.005697554054483771,-0.06064692253395915
1761379449346955500,4.40695556640625,0.042323476466536517,0.031557533106580375,-0.07401303845494984
1761379449357037600,4.41703759765625,0.06039397068619728,0.02650857915394008,-0.07188260229751467
1761379449367120400,4.427120361328125,0.06035013154447078,0.03300926628485322,-0.04072831622958183
1761379449377202400,4.437202392578125,0.06545768381655216,0.054953752393648025,-0.014460194768011568
1761379449387284500,4.447284423828125,0.10001286436915396,0.06278481134548783,-0.0152441847525537
1761379449397367800,4.457367919921875,0.11264379788339138,0.04902845399789512,-0.01467690625861287
1761379449407449600,4.46744970703125,0.07414718622863292,0.011106646556407213,-0.014916852494329213
1761379449417531600,4.47753173828125,0.0158639240860939,-0.022181655865535138,-0.009176701407134532
1761379449427614700,4.48761474609375,-0.029462825849652288,-0.04484992620423436,0.010201222149282693
1761379449437696800,4.49769677734375,-0.026513328394293784,-0.04590601112842559,0.04417787216156721
1761379449447778800,4.50777880859375,0.03701952483952045,-0.047524990632385015,0.033919659128040076
1761379449457861600,4.517861572265625,0.07523907311856746,-0.019676468111574648,-0.01391688167154789
1761379449467943700,4.527943603515625,0.08223872274756432,-0.030216201500222084,-0.051757805896550414
1761379449478025700,4.538025634765625,0.03314940540790558,-0.04817709786556661,-0.06422010484561323
1761379449488108500,4.548108642578125,-0.010064882418513298,-0.03811331142559647,-0.04116480795070529
1761379449498190600,4.558190673828125,-0.031057986086606978,-0.028404037511721252,-0.03625044016316533
1761379449508272600,4.568272705078125,0.0029167642295360565,-0.024794687908142803,-0.03443096965104341
1761379449518355700,4.578355712890625,0.0777250447154045,-0.021528744914755225,-0.041458091808855534
1761379449528437500,4.5884375,0.06353460679948329,-0.010062325135245919,-0.05504764122217893
1761379449538519600,4.59851953125,0.04792436521351337,-0.0007053717903792858,-0.013360855223983526
1761379449548602600,4.6086025390625,0.11542144590318203,0.022686901973932982,-0.003895253872871399
1761379449558684700,4.6186845703125,0.15314298153221606,0.04628624261766672,-0.0018009119421243667
1761379449568766700,4.6287666015625,0.1135094748020172,0.03464453933648765,-0.000524023874104023
1761379449578849500,4.638849609375,0.051741877675056454,0.003844692729413509,0.0015254560016095637
1761379449588931600,4.648931640625,-0.02432838557064533,-0.0014773790761828422,-0.016428864492475985
1761379449599013600,4.659013671875,-0.03475742512643337,0.00814319364093244,-0.01953384477049112
1761379449609096400,4.669096435546875,0.003472644546627998,0.018320742653682828,-0.027126784117519852
1761379449619178500,4.679178466796875,0.04385083216428756,0.03973747856132686,-0.013388766144216059
1761379449629260500,4.689260498046875,0.05177519542276859,0.057481078914180396,-0.025590952852368353
1761379449639343600,4.699343505859375,0.05883037463128567,0.06448891184963286,-0.06229103647917509
1761379449649425400,4.70942529296875,0.02505553080141544,0.059523033070564266,-0.05844152144417166
1761379449659507500,4.719507568359375,0.007293079617619514,0.03404971524849534,-0.006553513296693563
1761379449669590800,4.7295908203125,0.028028993654251096,0.022329686034098267,0.006255991654843092
1761379449679672800,4.7396728515625,0.05961538752913475,0.05146072264611721,-0.009523030626773834
1761379449689754600,4.749754638671875,0.11797113038599491,0.051837885395437475,0.0003093582101166248
1761379449699837700,4.759837646484375,0.16185703386366365,0.0493280945315957,-0.023184476232528686
1761379449709919700,4.769919677734375,0.1527975290954113,0.04523388402052223,-0.045318274368345735
1761379449720001800,4.780001708984375,0.05180617508292198,0.0067740241795778275,-0.0412796665020287
1761379449730084600,4.790084716796875,-0.03654021688997745,-0.045288171491026874,-0.027730741360038516
1761379449740166700,4.800166748046875,-0.04555646703839302,-0.055222924723848696,-0.04734641919508576
1761379449750248700,4.810248779296875,-0.02112812822461128,-0.034644758532196285,-0.05018441909998655
1761379449760331500,4.82033154296875,0.024980711999535558,-0.0023236937072128056,-0.05857026239037513
1761379449770413600,4.83041357421875,0.027545009529590606,0.04629449898935854,-0.05662234319299459
1761379449780495600,4.84049560546875,0.06357260072231292,0.07937522307522595,-0.05200418187305331
1761379449790578700,4.85057861328125,0.0237502934217453,0.016573387529700993,-0.054397068358957766
1761379449800660700,4.86066064453125,-0.027238135537505148,0.05203085068427026,-0.05045081495121121
1761379449810742500,4.870742431640625,0.0812193165719509,0.064642494976148,-0.012134089908003807
1761379449820825600,4.88082568359375,0.07824176206588744,0.050684404511377214,-0.06811462806612253
1761379449830907600,4.89090771484375,0.07169745498895645,0.045310602518543595,-0.05175020711198449
1761379449840989700,4.90098974609375,0.04425707487761974,0.053701048918813464,-0.03509659395292401
1761379449851072500,4.911072509765625,0.05092003989815712,0.08282287931106984,-0.033695056591928
1761379449861154600,4.921154541015625,0.07756254763007163,0.12593838293813167,-0.047569706556946034
1761379449871236600,4.931236572265625,0.07735621140301227,0.11912599950954317,-0.06610080402567982
1761379449881319400,4.9413193359375,0.08947451921999454,0.09662373338751494,-0.08956891950517892
1761379449891401500,4.9514013671875,0.034032033461332316,0.05767594389915466,-0.06395780064761639
1761379449901483500,4.9614833984375,0.016142156505584714,-0.016621245259419083,-0.019457126272469757
1761379449911566800,4.97156689453125,0.02015782188773155,-0.055333764687180514,-0.016661504204571246
1761379449921648400,4.9816484375,-0.006735445734858512,-0.05274988567382097,-0.03164981449991464
1761379449931730400,4.99173046875,-0.005071311914920807,-0.03246829127594828,-0.06574307662919163
1761379449941813800,5.001813720703125,0.027115970462560653,-0.007660890016704797,-0.0446456358037889
1761379449951895800,5.011895751953125,0.04552840998768806,0.022586948730796575,-0.017854367250949143
1761379449961977600,5.0219775390625,0.07667056722640991,0.028184330346435308,0.014334814822673797
1761379449972060700,5.032060791015625,0.10121990207135677,0.022720877308771013,-0.00806684046909213
1761379449982142700,5.042142822265625,0.12844050195217133,0.03186703744716942,-0.04595335740149021
1761379449992224800,5.052224853515625,0.10110592030286789,0.02244717493392527,-0.0685801997512579
1761379450002307600,5.0623076171875,0.024642273825407027,0.008721651116013526,-0.05618380564525723
1761379450012389600,5.0723896484375,-0.02841711618900299,-0.01872742375843227,-0.037373891235142946
1761379450022471700,5.0824716796875,-0.0371001888602972,-0.04323934920243919,-0.030286271061748263
1761379450032554800,5.0925546875,-0.013075170150399208,-0.0483701362196356,-0.04762859713733196
1761379450042636500,5.102636474609375,0.02563946816921234,-0.033402357255667446,-0.04336933225765824
1761379450052718600,5.112718505859375,0.03487725211381912,-0.036919206270202995,-0.040591830368340014
1761379450062801700,5.1228017578125,0.009516016364097594,-0.04029913103207946,-0.035881606850773094
1761379450072883700,5.1328837890625,-0.009623568391799927,-0.015689444302022456,-0.007426642869412898
1761379450082965500,5.142965576171875,0.02623509597480297,0.003071078008413315,-0.020195231288671494
1761379450093048800,5.153048828125,0.06875321823060512,0.022780571606755257,-0.05988558277264237
1761379450103131000,5.163130859375,0.0902910962998867,0.035249884818494316,-0.047990708447992796
1761379450113212700,5.173212646484375,0.09715221424102782,0.009382964568957685,-0.04796104396209121
1761379450123295700,5.183295654296875,0.0540098226070404,0.017176467989385127,-0.06245119547694921
1761379450133377800,5.193377685546875,-0.02893032640814781,0.03796856919266283,-0.0754803345285356
1761379450143459800,5.2034599609375,-0.06663549542427062,0.03865582080446184,-0.05849909685030579
1761379450153542700,5.213542724609375,-0.06188040985167026,0.000020823592320084572,-0.06625204906463622
1761379450163624700,5.223624755859375,0.010403905114531516,0.0015192454565316439,-0.06736030256748199
1761379450173706800,5.233706787109375,0.12627367930710315,0.02031403536275029,-0.08686755159199237
1761379450183789800,5.243789794921875,0.1909264764815569,0.042947745844721795,-0.0822156341329217
1761379450193871600,5.25387158203125,0.13963234257400034,0.014877031940594315,-0.042511400254070755
1761379450203953700,5.26395361328125,0.02537760236263275,-0.027854075478762386,-0.002692746215313673
1761379450214036700,5.27403662109375,-0.07122340773642062,-0.010059621721506118,0.021990298011898994
1761379450224118800,5.284118896484375,-0.059115621313452715,0.008677154387161136,0.0016870763041079043
1761379450234200800,5.294200927734375,0.011253215420246123,-0.006104235159233212,-0.0550271829560399
1761379450244282600,5.30428271484375,0.0552080924808979,-0.020995222559943794,-0.10273848994076251
1761379450254365700,5.31436572265625,0.060358314850926395,-0.014003902367874979,-0.11019245920851826
1761379450264447700,5.32444775390625,0.0408341146916151,-0.01081438561156392,-0.09841068986952305
1761379450274529800,5.33452978515625,0.02105681655406952,0.0013074293367564677,-0.06387684436589479
1761379450284612600,5.344612548828125,0.0134545248568058,0.011288140603154898,-0.037153234221786256
1761379450294694700,5.354694580078125,0.038785365468263625,0.03823408826105296,-0.029885727436840533
1761379450304776700,5.364776611328125,0.07881167090833187,0.04452274007648229,-0.052154550129175185
1761379450314859500,5.374859619140625,0.1141062716513872,0.04506188845448195,-0.07103679912313819
1761379450324941600,5.384941650390625,0.1005997243463993,0.04176905745416879,-0.10139058246314525
1761379450335023600,5.395023681640625,0.009734627550840378,0.019613120551779866,-0.07417685071453452
1761379450345106700,5.405106689453125,-0.011153846698999404,-0.03208265295922756,-0.056826049071550366
1761379450355188700,5.415188720703125,0.06266951440274715,0.005753156699240207,-0.07210413609370589
1761379450365270500,5.4252705078125,0.11906009466648101,-0.012002426352351903,-0.016206600043922662
1761379450375353900,5.435353759765625,0.04438333160579204,-0.07447605285681784,-0.01347132986113429
1761379450385436000,5.445435791015625,-0.03257189778089523,-0.038005978593602774,-0.006765110220760107
1761379450395517700,5.455517578125,-0.026439094114303587,0.007527472895383834,-0.034919629950821394
1761379450405600800,5.465600830078125,-0.006247954478859901,0.06423106463104486,-0.04365910898447036
1761379450415682800,5.475682861328125,0.025424948635697362,0.08005597188100218,-0.020961539486050604
1761379450425764900,5.485764892578125,0.05821136595010757,0.056998044637590645,-0.02166501158028841
1761379450435847700,5.49584765625,0.07340542795062065,0.013131868773698806,-0.03196355662420392
1761379450445929700,5.5059296875,0.07955810536146163,-0.022014628735557196,-0.040054070229828355
1761379450456011800,5.51601171875,0.07685293805599212,-0.050469592716917394,-0.0827611391864717
1761379450466094800,5.5260947265625,-0.0054787236720323556,-0.06268463890664279,-0.09355535879284142
1761379450476176600,5.5361767578125,-0.06251110897064209,-0.07585537838600576,-0.06401289183571934
1761379450486258700,5.5462587890625,-0.021476503270864485,-0.06321830739192665,-0.09006985476464033
1761379450496341800,5.556341796875,-0.00246259072124958,-0.019274097855761646,-0.08454042381867766
1761379450506423800,5.566423828125,0.030849311771988866,-0.01750781883560121,-0.032386312080919744
1761379450516505600,5.576505615234375,0.07104454403817653,-0.04949409874826669,-0.021630963180214166
1761379450526588700,5.586588623046875,0.08729132996201515,-0.04833506490625441,-0.010931436119973659
1761379450536670700,5.596670654296875,0.12213818693757056,-0.014763780824467538,-0.04725377247557044
1761379450546752800,5.606752685546875,0.1275000062316656,0.027447905830666423,-0.09163038207963109
1761379450556835600,5.616835693359375,0.13646014227867126,0.001016264370456338,-0.07142404487505555
1761379450566917600,5.626917724609375,0.1137882917433977,-0.03319565570242703,-0.06242869138419628
1761379450576999700,5.636999755859375,0.11479133130609988,-0.03261573692262173,-0.043568508091568946
1761379450587082800,5.647082763671875,0.14012918618023396,-0.03803155142627656,-0.05939370760247111
1761379450597164500,5.65716455078125,0.15794365981221198,-0.039101811006292696,-0.06608166093379259
1761379450607246600,5.66724658203125,-0.0018248773396015165,-0.05213657608106732,-0.0714041711308062
1761379450617329700,5.67732958984375,-0.210641230776906,-0.06109386258386075,-0.00109013332426548
1761379450627411700,5.68741162109375,-0.24342238739430902,-0.08640183377638459,0.05201309583187103
1761379450637493500,5.697493408203125,-0.14822539887428282,-0.03559183012396097,0.05448825377374887
1761379450647576800,5.707576904296875,-0.002639700853824615,0.054144262641668314,0.014583382756263016
1761379450657659000,5.717658935546875,0.12589900077581406,0.11186674909628927,-0.03742547529190778
1761379450667740700,5.72774072265625,0.15839724879860878,0.10645699900723993,-0.021284633960574863
1761379450677823700,5.73782373046875,0.12280980258882045,0.038965544340759516,0.0006274842485785484
1761379450687905800,5.74790576171875,0.06456511889100075,-0.019661197477206585,0.026226474276930093
1761379450697987800,5.75798779296875,0.03871463831961155,-0.054228433793783185,0.013289981944859027
1761379450708070000,5.76806982421875,-0.016849427992105485,-0.05592391260005533,-0.016398030962795018
1761379450718152700,5.778152587890625,-0.06257715994417667,-0.0356669411867857,-0.004785626841336489
1761379450728234800,5.78823486328125,-0.006849427503347397,-0.022173472559079525,-0.02728884281143546
1761379450738316800,5.79831689453125,0.043971828195452686,0.021786884394288063,-0.06066124332025647
1761379450748399600,5.808399658203125,0.041650107249617575,0.03318038506805897,-0.0529958232589066
1761379450758481700,5.818481689453125,0.014067688319087028,0.06449490319900214,-0.02282601818367839
1761379450768563700,5.828563720703125,0.049123804131150244,0.06449446480758488,0.010157529138028622
1761379450778646800,5.838646728515625,0.08737316302657126,0.05569646051973104,-0.009944032517820596
1761379450788728800,5.848728759765625,0.09095452864468097,0.0540773348852992,-0.00363704132810235
1761379450798810600,5.858810546875,0.05936579668223858,0.03547477961555123,-0.016812603113055227
1761379450808893700,5.868893798828125,0.028457448199391364,0.01537372941635549,-0.030842882031202314
1761379450818975700,5.878975830078125,-0.002184358301758766,0.017290888149291275,-0.03992372184842825
1761379450829057800,5.889057861328125,-0.026047464448213577,0.01128039568811655,-0.02896042928546667
1761379450839140600,5.899140625,0.027407646885514256,0.01005699137300253,-0.07129998010396957
1761379450849222700,5.90922265625,0.15243687908947468,0.029336349925771353,-0.09290274010300635
1761379450859304700,5.9193046875,0.13030103512704372,0.032763036438822744,-0.042074762402474875
1761379450869387500,5.929387451171875,0.0657043520539999,0.020339388999715446,-0.023361878626048563
1761379450879469600,5.939469482421875,0.07551146031916141,0.011059592544287443,-0.022968203133344647
1761379450889551600,5.949551513671875,0.0704360567510128,-0.03846913912594318,0.017527765645086766
1761379450899634700,5.959634765625,0.05751461585760116,-0.12102211545445024,0.03632525896504521
1761379450909716500,5.969716552734375,0.06262742882668972,-0.09269494257122278,0.019678075546771288
1761379450919798500,5.979798583984375,0.10344050073027611,-0.025785306380689144,-0.07247223875373601
1761379450929881900,5.9898818359375,0.08587970959842205,0.04884754447303712,-0.11642156285643578
1761379450939964000,5.9999638671875,-0.06385434027314185,0.04114676083736121,-0.06032850423455238
1761379450950045700,6.010045654296875,-0.17452303869128227,-0.02306684120222926,-0.010752718552201985
1761379450960128800,6.020128662109375,-0.12056348496675491,-0.05460376991219818,0.0377590911604464
1761379450970210800,6.0302109375,0.022171499797701836,-0.04161014056541026,0.008519114281237125
1761379450980292900,6.04029296875,0.11000935772657394,0.01076104798913002,-0.006091156481951475
1761379450990375000,6.050375,0.11855915940701961,0.05763049732223153,0.007719196075201034
1761379451000457500,6.06045751953125,0.15429799678623676,0.02149981108121574,-0.032523382464051245
1761379451010539500,6.07053955078125,0.1133919859021902,0.0018821604847908018,-0.08721957990005612
1761379451020621600,6.08062158203125,0.018307225584983825,0.02403071779832244,-0.08103869930803775
1761379451030704400,6.090704345703125,-0.04433130915760994,-0.05801270157285034,0.012976239820569753
1761379451040786400,6.100786376953125,-0.020682722544670105,-0.15143939248472452,0.01469283448010683
1761379451050868500,6.110868408203125,-0.016840075641870497,-0.11509228701405226,-0.04365340989604592
1761379451060951600,6.12095166015625,-0.062162149402499194,-0.03861410055458545,-0.07776859159618615
1761379451071033600,6.13103369140625,-0.0840039788544178,0.06738003018125892,-0.1088337380759418
1761379451081115400,6.141115478515625,0.025193477967381476,0.15539580196030436,-0.14406214171499013
1761379451091198700,6.15119873046875,0.16139409252703188,0.1260432315520942,-0.09867591667696833
1761379451101280800,6.16128076171875,0.2604465874314308,-0.018619068013131616,-0.0356264630459249
1761379451111362800,6.17136279296875,0.25025311019718643,-0.07937734196707606,-0.0767535693347454
1761379451121445600,6.181445556640625,0.1072568441480398,-0.0006944120049476623,-0.11977540332898497
1761379451131527700,6.191527587890625,0.051502808222174644,0.021521146130189298,-0.07585019075423478
1761379451141609700,6.201609619140625,0.09796645323336124,-0.01563552215769887,-0.05959449087157845
1761379451151692500,6.211692626953125,0.1509486863583326,0.012369579164311289,-0.08595672035738826
1761379451161774600,6.221774658203125,0.16149638385772705,-0.008115574981644749,-0.06407558180838822
1761379451171856600,6.231856689453125,0.10880290454626083,-0.08626235224045813,-0.0014421616323292254
1761379451181939700,6.241939697265625,-0.00722352151274681,-0.09578655191101133,-0.014505056823045015
1761379451192021500,6.252021484375,-0.11706804406642914,-0.02416135844066739,-0.0004471592456102371
1761379451202103600,6.262103515625,-0.07077800205647945,0.0005071458045393228,-0.03784735396578908
1761379451212186600,6.2721865234375,-0.02161269687116146,0.020257775130867958,-0.09304667861834168
1761379451222268700,6.2822685546875,0.02764671633839607,0.024266572380810973,-0.08346110414937138
1761379451232350500,6.2923505859375,0.0759907682687044,-0.026951208354905245,-0.06287804258689283
1761379451242432500,6.3024326171875,0.025967969471216202,-0.044758667724207044,-0.05090323489382863
1761379451252515600,6.312515625,-0.11671674641072749,0.04448913006782532,-0.03269230929017067
1761379451262597600,6.32259765625,-0.16613164244294165,0.11209887735173106,-0.0487980793081224
1761379451272679700,6.3326796875,-0.07266191610693931,0.051429523790255186,-0.03750263218134641
1761379451282762500,6.342762451171875,0.06910568493008613,-0.04737425705008209,-0.04078136159107089
1761379451292844500,6.352844482421875,0.12183774268627166,-0.03303914996646345,-0.04072290940210223
1761379451302926600,6.362926513671875,0.12547756049335002,0.040938013457506896,-0.07187573416531086
1761379451313009400,6.373009521484375,0.06594575959444046,0.09558693768568337,-0.07047098193392157
1761379451323091500,6.383091552734375,0.049801265001296995,0.07819193157479166,-0.10179492548033595
1761379451333173500,6.393173583984375,0.004320201286673545,0.06859313229806721,-0.06190992820709943
1761379451343256600,6.403256591796875,-0.011880991929769515,0.10124452505595981,-0.006023351942747831
1761379451353338400,6.41333837890625,0.06532616639137268,0.06445091792680323,0.01567453899383545
1761379451363420400,6.42342041015625,0.08625847978293895,-0.011229396153241396,0.028856092128157613
1761379451373503700,6.433503662109375,0.12199965524971484,-0.029697146062180397,-0.020781506744027137
1761379451383585800,6.443585693359375,0.1167073940604925,-0.027738194014132023,-0.06480623417049645
1761379451393667600,6.45366748046875,0.0915244374871254,-0.014144772143289446,-0.05188435488566756
1761379451403750700,6.463750732421875,0.05831131919324398,-0.03743044372797012,-0.07114332823753357
1761379451413832700,6.473832763671875,-0.039167058262228965,-0.06670176559351385,-0.03164908384755254
1761379451423914800,6.483914794921875,-0.15445055699944496,-0.03731039754487574,-0.04248348933383822
1761379451433997600,6.49399755859375,0.0006096563309431075,0.004983414435759187,-0.07171630581989884
1761379451444079600,6.50407958984375,-0.011259645161032675,-0.043184988666698336,-0.04101823908686637
1761379451454161700,6.51416162109375,-0.051693946880102155,-0.026750425085797905,-0.03359305752217769
1761379451464243700,6.52424365234375,-0.04382569772303104,-0.02662636031471193,-0.010869622930139303
1761379451474326500,6.534326416015625,0.003238251268863678,-0.0037796646691858767,-0.013731222906336188
1761379451484408600,6.54440869140625,0.07383154440820217,-0.002009367061033845,-0.03406425523050129
1761379451494490600,6.55449072265625,0.1332645611077547,-0.0032474574886262415,-0.0582351852171123
1761379451504573700,6.56457373046875,0.15695172616541384,0.0004229015871882438,-0.07198964286856353
1761379451514655500,6.574655517578125,0.12537176203131675,-0.00775872436799109,-0.0959901847243309
1761379451524737500,6.584737548828125,-0.010846972706913947,0.029071196183562277,-0.08081212401054799
1761379451534820600,6.594820556640625,-0.08606208042800426,0.06885273308232426,0.05517667442932725
1761379451544902700,6.604902587890625,-0.017338088291883467,-0.013386574187129735,0.12114026194140315
1761379451554984400,6.614984375,0.002533317869901657,-0.03442307860553264,0.04719261687286198
1761379451565067500,6.625067626953125,0.014797756159305571,0.03690758889764547,-0.04893091190755367
1761379451575149600,6.635149658203125,0.09284019626080989,0.028660861817002295,-0.09270195683389902
1761379451585231600,6.645231689453125,0.1570499258428812,-0.02215600996762514,-0.08000080762766301
1761379451595314400,6.655314453125,0.13646891010701656,-0.013831541475653648,-0.016800035892426967
1761379451605396500,6.665396484375,0.12621288903057573,0.012400558824464678,-0.0015367811132222413
1761379451615478500,6.675478515625,0.09169102622568606,0.03593669803887605,-0.04131561459824443
1761379451625560600,6.685560546875,0.04055763583779335,0.06623933571353555,-0.08166537983901798
1761379451635643400,6.695643310546875,0.025370003578066826,0.04865735566318035,-0.09056392189189791
1761379451645725400,6.705725341796875,-0.028168694385886192,-0.0032830402586609122,-0.08234992803707718
1761379451655807500,6.715807373046875,-0.06505728632211685,-0.048068376794084905,-0.04974726979173719
1761379451665890800,6.725890869140625,-0.07570961323976516,-0.04523892552182078,-0.032528789291530844
1761379451675972400,6.735972412109375,-0.045749943783879275,-0.017725553239509462,-0.04779854687675834
1761379451686054400,6.746054443359375,-0.004455810365080833,0.0032375936817377804,-0.060085050867497915
1761379451696137700,6.7561376953125,0.0123784200578928,0.00307421981357038,-0.029357904170453548
1761379451706219800,6.7662197265625,0.09619710547327995,-0.0024199936885386706,-0.03238412012383342
1761379451716301600,6.776301513671875,0.11347381896674633,0.018201573253422976,-0.037181291272491215
1761379451726384600,6.786384521484375,0.08590542856156826,0.011548252844065427,-0.016488047333806752
1761379451736466700,6.796466796875,0.09960895974338053,-0.04275580346919596,-0.012074468675255775
1761379451746548700,6.806548828125,0.09461831184923648,-0.06122618372663855,-0.014279431373625993
1761379451756630800,6.816630859375,0.05073182384967804,-0.006158668760210275,-0.002876139958202839
1761379451766713600,6.826713623046875,0.07768938888013363,0.00400273283533752,-0.012440963900089263
1761379451776795600,6.836795654296875,0.12748422414064406,0.03042348757535219,-0.08473769995644688
1761379451786877700,6.846877685546875,0.0764139621168375,0.06033413025774061,-0.12495908957719802
1761379451796960500,6.85696044921875,-0.0567635052293539,0.056658583550155156,-0.026326646715775132
1761379451807042600,6.86704248046875,-0.10943711079657077,-0.01408661221526563,0.015908566945418715
1761379451817124600,6.87712451171875,-0.1563444079220295,-0.04408339881114661,0.058318479586392635
1761379451827207700,6.887207763671875,0.026412206107378003,-0.0518690842512995,0.0022951982650905845
1761379451837289500,6.89728955078125,0.15773264741003512,-0.003848930513113737,-0.08873283400721847
1761379451847371500,6.90737158203125,0.20942951689958572,0.018025047642737626,-0.1393012109234929
1761379451857454600,6.91745458984375,0.1739373477578163,0.027755218214169142,-0.09822729612663388
1761379451867536600,6.92753662109375,0.0820820708811283,0.009246040316298604,-0.07404065711423755
1761379451877618400,6.937618408203125,0.02542027246057987,0.0015962562154978512,-0.0827995715007186
1761379451887701500,6.947701416015625,-0.07102993099093437,0.04100231086537242,-0.06520166322886943
1761379451897783600,6.957783447265625,-0.1166992107540369,0.06976845968775451,0.01372070151232183
1761379451907865600,6.967865478515625,0.054343000084161756,0.03529555059112608,0.024573811699077484
1761379451917947600,6.97794775390625,0.14165887996554374,-0.01405380592420697,-0.018876476840302348
1761379451928030500,6.988030517578125,0.07828443216383457,-0.01635631071291864,-0.005258139723911881
1761379451938112500,6.998112548828125,0.06913023484945297,-0.0024055998370051384,-0.03614303426593542
1761379451948194600,7.008194580078125,0.19230361005365848,0.04401157568395137,-0.112666886498034
1761379451958277400,7.01827734375,0.3849748843759298,0.021044176268205046,-0.2329719397243112
1761379451968359400,7.028359375,0.1793751548975706,-0.035727000810950996,-0.15431268289871514
1761379451978441500,7.03844140625,-0.1367062259942293,-0.06588226590417325,-0.011632204800471663
1761379451988524800,7.04852490234375,-0.36470074263215063,-0.04199490209929645,0.04966726335808634
1761379451998606600,7.058606689453125,-0.3057464493602514,-0.03432685168944299,0.004531725145503878
1761379452008688000,7.068688232421875,-0.19967150847315787,0.008438231064751743,-0.043500922748073934
1761379452018771200,7.078771240234375,-0.12762509391605853,0.009749532859027386,-0.04557612158693373
1761379452028853200,7.088853271484375,-0.09154664931893348,0.002017111976072192,-0.04350399148799479
1761379452038935300,7.098935302734375,-0.08180266941785812,0.04933905431702733,-0.01353789229132235
1761379452049017000,7.10901708984375,0.05769464859962463,0.07535152051709591,0.029447409084811804
1761379452059100200,7.11910009765625,0.30061726977825165,0.05136829512231052,0.043491424267366526
