time,seconds_elapsed,z,y,x
1761379445021634800,0.081634765625,-0.0901397168636322,0.019137373194098473,-0.05538889765739441
1761379445031718000,0.0917177734375,-0.10181155800819397,0.03396931663155556,0.010809297673404217
1761379445041799700,0.101799560546875,-0.11383312195539474,0.05455762892961502,0.09235905110836029
1761379445051881700,0.1118818359375,-0.1177610233426094,0.05101189389824867,0.1684173196554184
1761379445061964800,0.12196484375,-0.11400097608566284,0.017833378165960312,0.2413141280412674
1761379445072046800,0.132046875,-0.11334025114774704,-0.011140749789774418,0.2841992676258087
1761379445082128600,0.142128662109375,-0.11068429052829742,-0.04328750818967819,0.29876574873924255
1761379445092211700,0.152211669921875,-0.10515502095222473,-0.06494326889514923,0.26583099365234375
1761379445102293800,0.162293701171875,-0.10105714946985245,-0.0379941463470459,0.17468062043190002
1761379445112375800,0.172375732421875,-0.08975682407617569,0.012009362690150738,0.026041872799396515
1761379445122459000,0.182458984375,-0.07271043211221695,0.05785414204001427,-0.092177614569664
1761379445132541000,0.192541015625,-0.05223924294114113,0.10605736076831818,-0.12371956557035446
1761379445142622700,0.202622802734375,-0.02232692763209343,0.1426110416650772,-0.05379258841276169
1761379445152705800,0.212705810546875,0.021011492237448692,0.14312821626663208,0.06028152257204056
1761379445162787800,0.222787841796875,0.05533977970480919,0.11739800125360489,0.1253291517496109
1761379445172870000,0.232869873046875,0.07959264516830444,0.09420852363109589,0.12837527692317963
1761379445182952000,0.242951904296875,0.087382473051548,0.08456660807132721,0.10998346656560898
1761379445193035000,0.253034912109375,0.07473964244127274,0.05790916457772255,0.07677970826625824
1761379445203116800,0.26311669921875,0.05390210449695587,0.0551166795194149,0.04312002286314964
1761379445213198800,0.27319873046875,0.03037094697356224,0.06819093227386475,0.017534764483571053
1761379445223282000,0.283281982421875,0.011503488756716251,0.07230280339717865,0.014291944913566113
1761379445233364000,0.293364013671875,0.012355166487395763,0.08011465519666672,0.017531681805849075
1761379445243445800,0.30344580078125,0.017012959346175194,0.057533107697963715,0.014200875535607338
1761379445253528800,0.31352880859375,0.0019245529547333717,0.06702940911054611,0.016633938997983932
1761379445263611000,0.32361083984375,-0.03200307488441467,0.08455163985490799,0.003441217355430126
1761379445273693000,0.33369287109375,-0.054213572293519974,0.08464272320270538,0.005508362781256437
1761379445283775700,0.343775634765625,-0.0687970221042633,0.0960749015212059,0.024577945470809937
1761379445293857800,0.35385791015625,-0.07401202619075775,0.09636785089969635,0.04221872240304947
1761379445303939800,0.36393994140625,-0.0735480934381485,0.10215278714895248,0.061928652226924896
1761379445314022000,0.37402197265625,-0.07073500007390976,0.09336142241954803,0.08145015686750412
1761379445324104700,0.384104736328125,-0.06752482801675797,0.05269228667020798,0.10664265602827072
1761379445334186800,0.394186767578125,-0.06547819077968597,0.011589321307837963,0.10704372823238373
1761379445344268800,0.404268798828125,-0.06726390868425369,-0.00042638275772333145,0.08578605949878693
1761379445354351900,0.414351806640625,-0.07880471646785736,0.009712005034089088,0.07588522881269455
1761379445364433700,0.42443359375,-0.09142537415027618,0.029519569128751755,0.10217665880918503
1761379445374515700,0.434515625,-0.10034456849098206,0.04105105623602867,0.15817895531654358
1761379445384598800,0.444598876953125,-0.09132120758295059,0.06120700389146805,0.19378544390201569
1761379445394680800,0.454680908203125,-0.0990917757153511,0.012209899723529816,0.2056620717048645
1761379445404762600,0.4647626953125,-0.11478856205940247,0.05743476748466492,0.23752298951148987
1761379445414846000,0.474845947265625,-0.10715886950492859,0.032937146723270416,0.2383914440870285
1761379445424927700,0.484927734375,-0.07333362102508545,0.01678205281496048,0.20294922590255737
1761379445435009800,0.495009765625,-0.05148877575993538,0.014421960338950157,0.13575127720832825
1761379445445092900,0.5050927734375,-0.04445432871580124,0.03570589795708656,0.061269164085388184
1761379445455175000,0.5151748046875,-0.036917850375175476,0.0592690147459507,0.014330684207379818
1761379445465257000,0.525257080078125,-0.015853481367230415,0.06944478303194046,0.007955082692205906
1761379445475339000,0.535339111328125,0.01158852782100439,0.05651726573705673,0.019902821630239487
1761379445485421800,0.545421875,0.03038986213505268,0.051434870809316635,0.023576881736516953
1761379445495504000,0.55550390625,0.04174744337797165,0.046075791120529175,0.017624450847506523
1761379445505586000,0.5655859375,0.04997944086790085,0.048976924270391464,0.022219261154532433
1761379445515669000,0.5756689453125,0.05491161346435547,0.04100821539759636,0.047140058130025864
1761379445525750800,0.585750732421875,0.05052732676267624,0.053030047565698624,0.08636074513196945
1761379445535832800,0.595832763671875,0.0372951440513134,0.09930966049432755,0.1776387244462967
1761379445545916000,0.605916015625,0.01881549134850502,0.07875463366508484,0.2908419370651245
1761379445555998000,0.615998046875,0.01670387014746666,0.051290515810251236,0.3380714952945709
1761379445566079700,0.626079833984375,0.01849411427974701,0.03830179199576378,0.32670897245407104
1761379445576162800,0.636162841796875,0.022914696484804153,0.00506207998842001,0.2494746446609497
1761379445586244900,0.646244873046875,0.021120890974998474,0.0162674393504858,0.13817815482616425
1761379445596327000,0.656326904296875,0.017086733132600784,0.03296918794512749,0.05744681879878044
1761379445606409700,0.66640966796875,0.013125019147992134,0.039239343255758286,0.021685032173991203
1761379445616491800,0.67649169921875,0.018167981877923012,0.03296440467238426,0.015798114240169525
1761379445626573800,0.68657373046875,0.022608451545238495,0.010787113569676876,0.020084073767066002
1761379445636655900,0.69665576171875,0.03852030634880066,-0.011786638759076595,0.018249955028295517
1761379445646738700,0.70673876953125,0.05498073250055313,-0.049116428941488266,-0.00015785777941346169
1761379445656820700,0.71682080078125,0.05694720894098282,-0.08265707641839981,-0.021783791482448578
1761379445666902800,0.72690283203125,0.04618747904896736,-0.09011611342430115,-0.04084031656384468
1761379445676985900,0.73698583984375,0.024117864668369293,-0.09166740626096725,-0.04220305755734444
1761379445687067600,0.747067626953125,0.0010040747001767159,-0.0823039710521698,-0.037565186619758606
1761379445697149700,0.757149658203125,-0.004742494784295559,-0.045266859233379364,-0.02537243440747261
1761379445707232800,0.767232666015625,-0.002803136594593525,-0.010458995588123798,-0.009544442407786846
1761379445717314800,0.777314697265625,0.014533508569002151,-0.0030455542728304863,0.01128121092915535
1761379445727396600,0.787396728515625,0.02919498085975647,-0.005640328861773014,0.02043427899479866
1761379445737480000,0.79747998046875,0.022067561745643616,0.004094855859875679,0.015060287900269032
1761379445747562000,0.80756201171875,0.020633980631828308,0.014023919589817524,0.008658846840262413
1761379445757644000,0.81764404296875,0.02781013771891594,0.03762378916144371,0.0030145428609102964
1761379445767726800,0.827726806640625,0.04553776979446411,0.05692245438694954,0.002267944859340787
1761379445777809000,0.837808837890625,0.062425412237644196,0.0589592382311821,0.03001755103468895
1761379445787891000,0.847890869140625,0.07532636821269989,0.044186487793922424,0.07499188184738159
1761379445797973000,0.857972900390625,0.07047782093286514,0.03236391395330429,0.08494038134813309
1761379445808055800,0.868055908203125,0.04680480435490608,0.025287190452218056,0.0750952810049057
1761379445818137900,0.878137939453125,0.028843913227319717,0.03715237230062485,0.050202708691358566
1761379445828220000,0.888219970703125,0.030272595584392548,0.029984889551997185,0.0307632926851511
1761379445838303000,0.898302978515625,0.042351096868515015,0.002962859347462654,0.027221020311117172
1761379445848384800,0.908384765625,0.042185112833976746,-0.017997074872255325,0.017824064940214157
1761379445858466800,0.918466796875,0.026702823117375374,-0.02157556265592575,-0.0017483048141002655
1761379445868550000,0.9285498046875,0.006592737510800362,-0.02368616685271263,-0.016032980754971504
1761379445878632000,0.9386318359375,-0.005715327803045511,-0.022679757326841354,-0.011874188669025898
1761379445888713700,0.948713623046875,-0.008216489106416702,-0.016377579420804977,-0.006240077316761017
1761379445898796800,0.958796875,-0.01380140334367752,0.010663891211152077,-0.006208118982613087
1761379445908878800,0.96887890625,-0.035131677985191345,0.0661911591887474,-0.010575944557785988
1761379445918961000,0.9789609375,-0.053892582654953,0.10586400330066681,0.0008687234949320555
1761379445929043700,0.989043701171875,-0.062339190393686295,0.11940841376781464,0.028430890291929245
1761379445939125800,0.999125732421875,-0.051331549882888794,0.11899508535861969,0.047924164682626724
1761379445949207800,1.009207763671875,-0.03310185298323631,0.11682150512933731,0.05536723509430885
1761379445959290600,1.01929052734375,-0.01570448838174343,0.10671268403530121,0.04148603975772858
1761379445969372700,1.02937255859375,-0.0031443974003195763,0.10147273540496826,0.029329311102628708
1761379445979454700,1.039454833984375,0.014246843755245209,0.1096222773194313,0.058613959699869156
1761379445989537800,1.049537841796875,0.01669444888830185,0.06768854707479477,0.045125436037778854
1761379445999619000,1.059619140625,0.01722974330186844,0.046799514442682266,-0.008136184886097908
1761379446009701000,1.069701171875,0.005625865422189236,0.05200715363025665,-0.020819731056690216
1761379446019784000,1.079783935546875,-0.009626856073737144,0.05097571015357971,-0.022567030042409897
1761379446029866000,1.089865966796875,-0.025346074253320694,0.03532040864229202,-0.024749157950282097
1761379446039948000,1.099947998046875,-0.02797860838472843,0.0618622712790966,-0.003145860508084297
1761379446050030000,1.110030029296875,-0.01862405613064766,0.02392975240945816,0.030755922198295593
1761379446060113000,1.12011279296875,-0.0170125775039196,-0.023987174034118652,-0.034826818853616714
1761379446070195000,1.13019482421875,-0.02391514927148819,-0.04119086265563965,-0.04340146481990814
1761379446080277000,1.140277099609375,-0.04457355663180351,-0.02897840365767479,-0.02233985811471939
1761379446090359800,1.15035986328125,-0.06259685009717941,-0.007306745275855064,0.00042151473462581635
1761379446100441900,1.16044189453125,-0.07460717856884003,0.003358682617545128,0.029392709955573082
1761379446110524000,1.17052392578125,-0.0663410946726799,0.09015471488237381,0.1584189385175705
1761379446120607000,1.18060693359375,-0.05618806183338165,0.0688246563076973,0.19286824762821198
1761379446130689000,1.19068896484375,-0.028931990265846252,-0.016637537628412247,0.0930190309882164
1761379446140770800,1.200770751953125,-0.007187546696513891,-0.03974099084734917,0.0017788666300475597
1761379446150854000,1.21085400390625,0.011408759281039238,-0.03653271123766899,-0.01847567781805992
1761379446160936000,1.22093603515625,0.029185092076659203,-0.030611705034971237,-0.017242100089788437
1761379446171018000,1.23101806640625,0.04460841789841652,-0.03771687671542168,-0.008257865905761719
1761379446181100800,1.241100830078125,0.054809920489788055,-0.022716619074344635,-0.0025816040579229593
1761379446191182800,1.251182861328125,0.05144086480140686,-0.007129549980163574,-0.005248820409178734
1761379446201265000,1.261264892578125,0.046717479825019836,-0.0048131318762898445,-0.006229662802070379
1761379446211348000,1.271347900390625,0.046468816697597504,-0.0034878794103860855,-0.004596150480210781
1761379446221430000,1.281429931640625,0.04561447724699974,-0.009599301032721996,0.007631753571331501
1761379446231512000,1.291511962890625,0.04160702973604202,-0.017708025872707367,0.01679908111691475
1761379446241595100,1.30159521484375,0.03779391571879387,-0.019219104200601578,0.02318534068763256
1761379446251677000,1.311677001953125,0.0301528200507164,-0.024414045736193657,0.014451654627919197
1761379446261759000,1.321759033203125,0.024748198688030243,-0.017319651320576668,0.01042894832789898
1761379446271842000,1.331842041015625,0.014828099869191647,0.004384751431643963,0.00043297233060002327
1761379446281924000,1.341924072265625,0.0034108618274331093,0.02262713760137558,-0.0020293863490223885
1761379446292006000,1.352005859375,0.0015063965693116188,0.022667545825242996,0.007720767520368099
1761379446302089000,1.3620888671875,0.0023780493065714836,0.010713147930800915,0.025731725618243217
1761379446312171000,1.3721708984375,0.010008842684328556,-0.010229877196252346,0.03729857876896858
1761379446322253000,1.382253173828125,0.008419201709330082,-0.017427071928977966,0.033693455159664154
1761379446332335900,1.3923359375,0.0050306301563978195,-0.01947692409157753,0.030700109899044037
1761379446342418000,1.40241796875,0.004357382655143738,-0.02435396984219551,0.022613689303398132
1761379446352500000,1.4125,0.006387874484062195,-0.029484977945685387,0.015132607892155647
1761379446362583000,1.4225830078125,0.0029499996453523636,-0.017325516790151596,0.003942802548408508
1761379446372664800,1.432664794921875,-0.004465398378670216,-0.0020039118826389313,0.003071082988753915
1761379446382747000,1.442746826171875,-0.004166590981185436,0.007677744142711163,0.01429071370512247
1761379446392830000,1.452829833984375,-0.005694264080375433,0.013622105121612549,0.021179914474487305
1761379446402912000,1.462912109375,-0.006297203712165356,0.01622694358229637,0.021235041320323944
1761379446412993800,1.472993896484375,-0.006352667231112719,0.013155999593436718,0.01647305116057396
1761379446423076900,1.483076904296875,-0.0015557818114757538,0.0006993301212787628,0.011649266816675663
1761379446433159000,1.493158935546875,0.0034882090985774994,-0.002053827978670597,0.009990131482481956
1761379446443241000,1.503240966796875,0.0026620961725711823,0.0067409947514534,0.014092464931309223
1761379446453323000,1.513322998046875,-0.00700779864564538,0.013556553982198238,0.018131069839000702
1761379446463405800,1.52340576171875,-0.01596241071820259,0.015927832573652267,0.02937200665473938
1761379446473488000,1.53348779296875,-0.021464433521032333,0.013865265063941479,0.032393623143434525
1761379446483570000,1.54356982421875,-0.02914445661008358,0.012783489190042019,0.02363608404994011
1761379446493653000,1.553653076171875,-0.03624531999230385,-0.0006231963634490967,0.011239939369261265
1761379446503735000,1.563735107421875,-0.04253251105546951,-0.01905013993382454,0.002341785468161106
1761379446513816800,1.57381689453125,-0.042214248329401016,-0.037478119134902954,-0.012264450080692768
1761379446523900200,1.583900146484375,-0.03204789757728577,-0.05653490126132965,-0.024008724838495255
1761379446533982000,1.59398193359375,-0.02436807006597519,-0.06767885386943817,-0.020843297243118286
1761379446544064000,1.60406396484375,-0.021496383473277092,-0.056901831179857254,-0.018243784084916115
1761379446554147000,1.61414697265625,-0.0174881499260664,-0.021888818591833115,-0.010577944107353687
1761379446564229000,1.62422900390625,-0.007079717703163624,0.0008484525606036186,0.0058678751811385155
1761379446574311000,1.634310791015625,0.010762467049062252,0.01452650222927332,0.024883368983864784
1761379446584394000,1.64439404296875,0.024086792021989822,0.02064458280801773,0.02695903740823269
1761379446594476000,1.65447607421875,0.030739307403564453,0.01818884164094925,0.021067535504698753
1761379446604558000,1.66455810546875,0.02512403205037117,0.01614300161600113,0.017185179516673088
1761379446614641000,1.674640869140625,0.009107249788939953,0.00826323963701725,0.01635747030377388
1761379446624723000,1.684722900390625,0.0035279272124171257,0.005560930352658033,0.013554759323596954
1761379446634805000,1.694804931640625,0.0021414319053292274,0.001843140460550785,0.010533279739320278
1761379446644887800,1.7048876953125,0.002705223858356476,-0.008291519246995449,0.012006807141005993
1761379446654969900,1.714969970703125,0.0030303392559289932,-0.015740137547254562,0.014369770884513855
1761379446665052000,1.725052001953125,0.005833849310874939,-0.015859447419643402,0.015164457261562347
1761379446675135000,1.735135009765625,0.00151895172894001,-0.016021721065044403,0.023346811532974243
1761379446685217000,1.745217041015625,0.00094637181609869,-0.027703143656253815,0.02813624031841755
1761379446695298800,1.755298828125,0.006811772473156452,-0.02521013841032982,0.01735987886786461
1761379446705382000,1.7653818359375,0.01820264384150505,-0.00461112055927515,0.014968626201152802
1761379446715464000,1.7754638671875,0.01757344976067543,0.010539824143052101,0.02947482466697693
1761379446725546000,1.7855458984375,0.020203853026032448,0.007876129820942879,0.0526491217315197
1761379446735628800,1.79562890625,0.0191684328019619,0.0164748914539814,0.05821464583277702
1761379446745710800,1.8057109375,0.0191870778799057,0.03601450473070145,0.04063352197408676
1761379446755793000,1.81579296875,0.008551286533474922,0.05303110182285309,0.027732301503419876
1761379446765876000,1.8258759765625,0.005163479596376419,0.050120264291763306,0.025390850380063057
1761379446775958000,1.8359580078125,0.016226699575781822,0.04214668273925781,0.021859634667634964
1761379446786040000,1.8460400390625,0.012872181832790375,0.04105105996131897,0.013581995852291584
1761379446796123100,1.856123046875,0.00027558207511901855,0.029610512778162956,0.017594972625374794
1761379446806205000,1.866204833984375,-0.01554545946419239,0.012013143859803677,0.026754915714263916
1761379446816287000,1.876286865234375,-0.021144025027751923,-0.007561406120657921,0.018634943291544914
1761379446826370000,1.8863701171875,-0.029989980161190033,-0.009042123332619667,-0.00033821456599980593
1761379446836452000,1.8964521484375,-0.03951328247785568,-0.008786316961050034,-0.02462698146700859
1761379446846534000,1.906533935546875,-0.04937869682908058,-0.014558186754584312,-0.025786522775888443
1761379446856617000,1.916616943359375,-0.04944134131073952,-0.014114536345005035,-0.022507429122924805
1761379446866699000,1.926698974609375,-0.05270131677389145,-0.017860805615782738,-0.023190796375274658
1761379446876781000,1.936781005859375,-0.05699057877063751,-0.006864828988909721,-0.025219254195690155
1761379446886864000,1.94686376953125,-0.05811203643679619,0.006617690436542034,-0.00966373085975647
1761379446896946000,1.95694580078125,-0.047974199056625366,0.004903911612927914,0.02146102860569954
1761379446907028000,1.967028076171875,-0.03162345290184021,-0.01329187024384737,0.03656727820634842
1761379446917111000,1.977111083984375,-0.008490074425935745,-0.019735630601644516,0.03098192997276783
1761379446927192800,1.98719287109375,0.008576525375247002,-0.025162357836961746,0.007101100869476795
1761379446937275000,1.99727490234375,0.02364930510520935,-0.03464144468307495,-0.007572086062282324
1761379446947358000,2.00735791015625,0.02930985391139984,-0.04042316973209381,-0.018013009801506996
1761379446957440000,2.01743994140625,0.023626193404197693,-0.02151256427168846,-0.024597084149718285
1761379446967521800,2.027521728515625,0.010243277065455914,-0.0004938310012221336,-0.006951510906219482
1761379446977604900,2.03760498046875,0.0020424537360668182,0.002681066282093525,0.028880396857857704
1761379446987687000,2.04768701171875,-0.0025373846292495728,-0.00005453266203403473,0.05148344486951828
1761379446997769200,2.057769287109375,-0.0035389242693781853,0.006238577887415886,0.04372425377368927
1761379447007852000,2.06785205078125,-0.007823416963219643,0.00851771142333746,0.025518085807561874
1761379447017934000,2.07793408203125,-0.013807486742734909,-0.0027666157111525536,0.0155611801892519
1761379447028016000,2.08801611328125,-0.012753673829138279,-0.014481593854725361,0.009321927092969418
1761379447038099000,2.098098876953125,-0.009039189666509628,-0.03107975423336029,0.003963069058954716
1761379447048181000,2.108180908203125,-0.006906796246767044,-0.020636167377233505,-0.004411773756146431
1761379447058263000,2.118262939453125,-0.004103139974176884,-0.005351638421416283,-0.01992456056177616
1761379447068346000,2.12834619140625,-0.004116987809538841,0.0007672403007745743,-0.017490429803729057
1761379447078428000,2.138427978515625,0.002979278564453125,-0.002396310679614544,-0.012692543677985668
1761379447088510000,2.148510009765625,0.007660051807761192,0.000014915131032466888,-0.011033927090466022
1761379447098593000,2.158593017578125,0.0038704480975866318,0.007207907270640135,-0.02228638529777527
1761379447108675000,2.168675048828125,0.004069918766617775,0.013096422888338566,-0.031535010784864426
1761379447118757000,2.178757080078125,0.0036202026531100273,0.02469671331346035,-0.02531646192073822
1761379447128840000,2.18883984375,-0.0018427399918437004,0.032129861414432526,-0.012521037831902504
1761379447138922000,2.198921875,-0.0056741381995379925,0.03129345923662186,0.00332057592459023
1761379447149004000,2.209004150390625,-0.0038525359705090523,0.0283631831407547,0.009718287736177444
1761379447159087000,2.219087158203125,0.002341069281101227,0.007296917960047722,0.021795254200696945
1761379447169169200,2.229169189453125,0.012300758622586727,-0.01732933148741722,0.02493991330265999
1761379447179251200,2.239251220703125,0.015747329220175743,-0.02068900503218174,0.005512352101504803
1761379447189334300,2.249334228515625,0.013775791972875595,-0.0237543024122715,-0.013775325380265713
1761379447199416000,2.259416015625,0.0213315449655056,-0.024597883224487305,-0.0201120488345623
1761379447209498000,2.269498046875,0.028657637536525726,-0.01788085699081421,-0.019831083714962006
1761379447219581200,2.279581298828125,0.033739350736141205,-0.005739852786064148,-0.008842606097459793
1761379447229663200,2.289663330078125,0.03688161447644234,0.004864854272454977,0.005438328254967928
1761379447239745000,2.2997451171875,0.04114089161157608,0.01393512450158596,0.013776285573840141
1761379447249828000,2.309828125,0.045793432742357254,0.0216367207467556,0.019822459667921066
1761379447259910100,2.31991015625,0.04027719050645828,0.0182107575237751,0.016129979863762856
1761379447269992200,2.3299921875,0.038056112825870514,0.012887896969914436,0.01312220562249422
1761379447280075000,2.340074951171875,0.03773113340139389,0.0026365309022367,0.006741873919963837
1761379447290157000,2.350156982421875,0.03474599868059158,-0.0038541248068213463,0.003462990280240774
1761379447300239000,2.360239013671875,0.030309170484542847,-0.011106178164482117,0.0025673690252006054
1761379447310322000,2.370322021484375,0.02666623145341873,-0.018621886149048805,0.0020078392699360847
1761379447320404000,2.380404052734375,0.02753993310034275,-0.027653805911540985,0.0025837488938122988
1761379447330486000,2.390486083984375,0.02351243607699871,-0.03075505793094635,-0.0035838657058775425
1761379447340569000,2.400569091796875,0.015216615982353687,-0.027795277535915375,-0.011966628953814507
1761379447350651100,2.410651123046875,0.008541136048734188,-0.02548258751630783,-0.008963115513324738
1761379447360734000,2.42073388671875,0.0050661154091358185,-0.029548868536949158,-0.006588981952518225
1761379447370816000,2.43081591796875,0.003839995712041855,-0.020881611853837967,-0.0029495058115571737
1761379447380898000,2.44089794921875,-0.0025567328557372093,-0.011153696104884148,-0.0015988822560757399
1761379447390980900,2.45098095703125,-0.004467551596462727,0.0015605022199451923,-0.0026337867602705956
1761379447401063000,2.46106298828125,-0.007607584819197655,-0.0011890996247529984,0.005719486624002457
1761379447411145000,2.47114501953125,-0.006023802794516087,-0.005995838902890682,0.003955941181629896
1761379447421228300,2.481228271484375,-0.001158599741756916,-0.0025186240673065186,0.004882729146629572
1761379447431310000,2.49131005859375,0.0118722477927804,-0.008042552508413792,0.004454226233065128
1761379447441392000,2.50139208984375,0.025522813200950623,-0.011242606677114964,0.008028987795114517
1761379447451475200,2.51147509765625,0.03764806315302849,-0.0021617310121655464,0.007182740606367588
1761379447461557200,2.52155712890625,0.042683567851781845,0.008120549842715263,0.0002489576581865549
1761379447471639000,2.53163916015625,0.04211471602320671,0.004825420677661896,0.000639110803604126
1761379447481722000,2.54172216796875,0.041190244257450104,0.006794998422265053,0.0009101536124944687
1761379447491804200,2.55180419921875,0.03983469307422638,0.012941308319568634,-0.007652708329260349
1761379447501886200,2.56188623046875,0.028201032429933548,0.015649572014808655,-0.009486760944128036
1761379447511969000,2.571968994140625,0.01745198294520378,0.01333555206656456,-0.007604970596730709
1761379447522051000,2.582051025390625,0.010394502431154251,0.016885165125131607,-0.009500077925622463
1761379447532133000,2.592133056640625,0.006977668032050133,0.018209822475910187,-0.0023918349761515856
1761379447542216000,2.6022158203125,0.005258387885987759,0.013880878686904907,0.00572500703856349
1761379447552298000,2.612298095703125,0.011369009502232075,0.013463561423122883,0.0039324332028627396
1761379447562380000,2.622380126953125,0.017079127952456474,0.012717945501208305,0.0028962050564587116
1761379447572463000,2.632463134765625,0.023338090628385544,0.007629710715264082,0.003842958714812994
1761379447582545200,2.642545166015625,0.027845675125718117,-0.006587119773030281,0.006600795779377222
1761379447592627000,2.652626953125,0.030603377148509026,-0.012731297872960567,0.0017799418419599533
1761379447602710000,2.6627099609375,0.03191787749528885,-0.016105860471725464,-0.012351330369710922
1761379447612792000,2.6727919921875,0.027742840349674225,-0.010472210124135017,-0.013053606264293194
1761379447622874000,2.6828740234375,0.021924125030636787,-0.004709076136350632,-0.012682822532951832
1761379447632957000,2.69295703125,0.020187480375170708,-0.005455293692648411,-0.0023715950082987547
1761379447643039000,2.7030390625,0.022497249767184258,0.0015983725897967815,-0.0008107811445370317
1761379447653121000,2.71312109375,0.021447429433465004,0.005445308983325958,-0.0007838832680135965
1761379447663204000,2.7232041015625,0.02090577781200409,0.005388026125729084,0.0024643614888191223
1761379447673286000,2.733285888671875,0.026633169502019882,0.003021541517227888,0.0014004285912960768
1761379447683368000,2.743367919921875,0.022724121809005737,-0.007453499361872673,0.003050197847187519
1761379447693451300,2.753451171875,0.0177469402551651,-0.007703304290771484,0.0006874415557831526
1761379447703533000,2.763532958984375,0.01548128854483366,-0.005628279410302639,-0.009022446349263191
1761379447713615000,2.773614990234375,0.010894793085753918,-0.00809596385806799,-0.008502064272761345
1761379447723698200,2.7836982421875,0.0137775344774127,0.003290298394858837,-0.012256313115358353
1761379447733780200,2.7937802734375,0.010595588944852352,0.010374040342867374,-0.006869005039334297
1761379447743862300,2.8038623046875,0.009857958182692528,0.011885423213243484,0.0005974289961159229
1761379447753945000,2.813945068359375,0.012409266084432602,0.0100499726831913,0.015435230918228626
1761379447764027100,2.824027099609375,0.012323131784796715,0.009836599230766296,0.01858356222510338
1761379447774109200,2.834109130859375,0.00783650390803814,0.01094740442931652,0.014452733099460602
1761379447784192000,2.84419189453125,0.004779667593538761,0.018443020060658455,0.008365403860807419
1761379447794274000,2.854274169921875,-0.000032396987080574036,0.01919083669781685,0.006609049625694752
1761379447804357000,2.864357177734375,-0.0030807433649897575,0.01183082815259695,0.010444200597703457
1761379447814439200,2.874439208984375,-0.00032224133610725403,-0.002047169953584671,0.011869790963828564
1761379447824521000,2.88452099609375,0.00010040216147899628,-0.01016395352780819,0.003972719423472881
1761379447834604000,2.89460400390625,-0.0029840711504220963,-0.014205032959580421,-0.005299608688801527
1761379447844686000,2.90468603515625,-0.004858403466641903,-0.012974387034773827,-0.0036322034429758787
1761379447854768000,2.91476806640625,0.003397129476070404,-0.020064519718289375,0.002666172571480274
1761379447864851000,2.924850830078125,0.007457752712070942,-0.018842283636331558,0.0030848237220197916
1761379447874933000,2.93493310546875,0.006855345331132412,-0.00864450540393591,-0.0009128475794568658
1761379447885015000,2.94501513671875,0.007797112688422203,-0.004202027805149555,-0.0039435941725969315
1761379447895097900,2.955097900390625,0.009852273389697075,-0.0036867065355181694,-0.0021219919435679913
1761379447905180000,2.965179931640625,0.011961414478719234,-0.010399280115962029,0.00209445902146399
1761379447915262000,2.975261962890625,0.011472192592918873,-0.015294438228011131,0.0011730054393410683
1761379447925345300,2.98534521484375,0.007255710661411285,-0.00846837554126978,-0.0082900021225214
1761379447935427000,2.995427001953125,0.0011019445955753326,-0.003564964048564434,-0.001987365772947669
1761379447945509000,3.005509033203125,0.00021066609770059586,-0.010627856478095055,0.012146694585680962
1761379447955592200,3.01559228515625,-0.00019093789160251617,-0.02371969074010849,0.015430638566613197
1761379447965674200,3.02567431640625,-0.0009753024205565453,-0.01900220476090908,0.00704834284260869
1761379447975756300,3.03575634765625,-0.006424929015338421,-0.013446317985653877,-0.004198452457785606
1761379447985839000,3.045839111328125,-0.007738079875707626,-0.01799071580171585,-0.003255632473155856
1761379447995921200,3.055921142578125,-0.00756337633356452,-0.019832292571663857,-0.0007330862572416663
1761379448006003200,3.066003173828125,-0.0017215199768543243,-0.018862122669816017,0.001568889245390892
1761379448016086300,3.076086181640625,0.0006364425644278526,-0.019212327897548676,0.003433900885283947
1761379448026168300,3.086168212890625,0.0015298416838049889,-0.014012867584824562,0.003393087536096573
1761379448036250400,3.09625048828125,0.00746363028883934,-0.00768466480076313,0.004740913398563862
1761379448046333400,3.10633349609375,0.012788951396942139,-0.008196752518415451,0.006574229337275028
1761379448056415200,3.116415283203125,0.01321585662662983,-0.013859963044524193,0.010716510005295277
1761379448066497300,3.126497314453125,0.014843927696347237,-0.016675647348165512,0.008532317355275154
1761379448076580400,3.136580322265625,0.014271881431341171,-0.017594704404473305,0.005622548051178455
1761379448086662400,3.146662353515625,0.005430121906101704,-0.017991820350289345,-0.00028007826767861843
1761379448096744200,3.156744140625,-0.001552952453494072,-0.014933180063962936,-0.0033922484144568443
1761379448106827300,3.1668271484375,-0.0070089600048959255,-0.010901136323809624,-0.001010914915241301
1761379448116909300,3.176909423828125,-0.005645155441015959,-0.012880662456154823,0.0015039080753922462
1761379448126991400,3.186991455078125,0.0009017474949359894,-0.016861801967024803,-0.0005748944822698832
1761379448137074200,3.19707421875,0.004693023860454559,-0.020296216011047363,-0.0011954110814258456
1761379448147156200,3.20715625,0.004431641660630703,-0.014003506861627102,-0.005740620195865631
1761379448157239300,3.2172392578125,0.0017256038263440132,-0.009799174033105373,-0.0016095249447971582
1761379448167321000,3.227321044921875,-0.006415505427867174,-0.0010662321001291275,-0.000146983889862895
1761379448177403100,3.237403076171875,-0.012116800993680954,-0.000022007152438163757,0.0017635677941143513
1761379448187486200,3.247486328125,-0.010350141674280167,0.010312847793102264,-0.002839039545506239
1761379448197568300,3.257568359375,-0.0145536744967103,0.009745062328875065,-0.004315762780606747
1761379448207650300,3.267650390625,-0.009726537391543388,0.013595959171652794,0.002536488464102149
1761379448217733000,3.277733154296875,-0.005907031241804361,0.005673320963978767,0.0020914741326123476
1761379448227815200,3.287815185546875,-0.002742473967373371,-0.00008219387382268906,0.008756496012210846
1761379448237897200,3.297897216796875,-0.003564591519534588,-0.006153669208288193,0.0023207012563943863
1761379448247980300,3.307980224609375,-0.0017588762566447258,-0.00965509656816721,-0.0036308642011135817
1761379448258062300,3.318062255859375,-0.007203442510217428,-0.005395636893808842,-0.011376667767763138
1761379448268144000,3.32814404296875,-0.010443976148962975,-0.006925709545612335,-0.008354063145816326
1761379448278227500,3.3382275390625,-0.015593198128044605,-0.017036667093634605,-0.0033001822885125875
1761379448288309200,3.348309326171875,-0.012779690325260162,-0.02211591601371765,-0.0072100237011909485
1761379448298391300,3.358391357421875,-0.01186196506023407,-0.025924503803253174,-0.005258193239569664
1761379448308474400,3.368474365234375,-0.009600297547876835,-0.03484169766306877,-0.00020757154561579227
1761379448318556400,3.378556396484375,-0.009972341358661652,-0.0392119437456131,-0.0007215617224574089
1761379448328638200,3.38863818359375,-0.008945446461439133,-0.027996081858873367,-0.0015648542903363705
1761379448338721300,3.39872119140625,-0.00037459470331668854,-0.01092495210468769,-0.009673381224274635
1761379448348803300,3.40880322265625,0.004689203575253487,-0.011523057706654072,0.0013563628308475018
1761379448358885400,3.418885498046875,0.016343995928764343,-0.006190610118210316,0.006343930959701538
1761379448368968200,3.42896826171875,0.02781928889453411,-0.0015441933646798134,0.0061583081260323524
1761379448379050200,3.43905029296875,0.026036569848656654,0.0025227200239896774,0.011087553575634956
1761379448389132300,3.44913232421875,0.02445981279015541,0.006258448585867882,0.005845656152814627
1761379448399215000,3.459215087890625,0.02674693614244461,0.016132384538650513,0.002507916186004877
1761379448409297200,3.469297119140625,0.024729400873184204,0.011003195308148861,0.0024569802917540073
1761379448419379200,3.479379150390625,0.024507291615009308,0.001588387880474329,0.003579502459615469
1761379448429462300,3.489462158203125,0.025383364409208298,0.00278295436874032,-0.00205142330378294
1761379448439544300,3.49954443359375,0.020366765558719635,-0.0029532285407185555,-0.007050975691527128
1761379448449626000,3.509626220703125,0.01729021593928337,-0.0041113970801234245,0.0021309538278728724
1761379448459709200,3.519709228515625,0.01448777038604021,0.0021896418184041977,0.007031436078250408
1761379448469791200,3.529791259765625,0.014723719097673893,0.010399533435702324,0.011575775220990181
1761379448479873300,3.539873291015625,0.016210827976465225,0.013719163835048676,0.01861317828297615
1761379448489956000,3.5499560546875,0.02600759267807007,0.012887753546237946,0.015478963032364845
1761379448500038100,3.5600380859375,0.03183751925826073,0.006482585333287716,0.013329526409506798
1761379448510121500,3.57012158203125,0.041016727685928345,-0.0008113672956824303,0.015151544474065304
1761379448520203300,3.580203369140625,0.041252948343753815,-0.018212728202342987,0.00799483247101307
1761379448530285300,3.590285400390625,0.040127091109752655,-0.01464108657091856,0.0010975035838782787
1761379448540368400,3.600368408203125,0.037354737520217896,-0.00982715655118227,-0.002340371022000909
1761379448550450400,3.610450439453125,0.031829897314310074,-0.000692303292453289,-0.0006618386832997203
1761379448560532200,3.6205322265625,0.02776750922203064,0.0038244184106588364,0.0027190442197024822
1761379448570615300,3.630615234375,0.023813042789697647,0.014968182891607285,0.007131899241358042
1761379448580697300,3.640697265625,0.022304095327854156,0.02186337485909462,0.008720474317669868
1761379448590779400,3.650779296875,0.019082050770521164,0.016879316419363022,0.013294574804604053
1761379448600862200,3.6608623046875,0.019266072660684586,0.0013956977054476738,0.010597857646644115
1761379448610944300,3.6709443359375,0.019846651703119278,-0.007729515433311462,-0.00047128868754953146
1761379448621026300,3.6810263671875,0.017768055200576782,-0.01156553253531456,-0.008495126850903034
1761379448631109000,3.691109130859375,0.021652759984135628,-0.019074682146310806,-0.004838812164962292
1761379448641191200,3.701191162109375,0.024035489186644554,-0.01921156793832779,-0.0007103800307959318
1761379448651273200,3.711273193359375,0.014411963522434235,-0.008922653272747993,-0.001288888044655323
1761379448661356300,3.721356201171875,0.006215551868081093,0.006263489834964275,-0.001038550864905119
1761379448671438300,3.731438232421875,0.0002632131800055504,0.009213035926222801,0.0007069522980600595
1761379448681520000,3.74152001953125,0.0009953165426850319,0.009610113687813282,0.007549944333732128
1761379448691603200,3.751603271484375,0.00015536509454250336,0.004985552281141281,0.005045176483690739
1761379448701685200,3.761685302734375,-0.008083656430244446,-0.0020997878164052963,0.006407382898032665
1761379448711767300,3.771767333984375,-0.00533917685970664,-0.01650925725698471,0.00019962224178016186
1761379448721850000,3.78185009765625,-0.005124526098370552,-0.031877562403678894,-0.004289135802537203
1761379448731932200,3.79193212890625,-0.012040232308208942,-0.042246509343385696,-0.0024888976477086544
1761379448742014200,3.80201416015625,-0.002859783358871937,-0.03299495205283165,-0.011689586564898491
1761379448752097000,3.812096923828125,0.002781681716442108,-0.02492663636803627,-0.01627402752637863
1761379448762179000,3.822178955078125,0.0034589245915412903,-0.013721384108066559,-0.01313203014433384
1761379448772261000,3.83226123046875,0.006043706089258194,-0.005159664899110794,-0.00798560306429863
1761379448782344400,3.842344482421875,0.0025618895888328552,0.0007829125970602036,-0.007047105580568314
1761379448792426200,3.85242626953125,0.002686574123799801,0.0017321635968983173,-0.0023549424950033426
1761379448802508300,3.86250830078125,-0.0003382433205842972,0.0002724854275584221,-0.0003943233750760555
1761379448812591400,3.87259130859375,0.001718713901937008,-0.006944551132619381,0.0056533729657530785
1761379448822673400,3.88267333984375,0.0012707700952887535,-0.006842818111181259,0.00004076119512319565
1761379448832756200,3.892756103515625,0.00207599438726902,0.006079050712287426,-0.007063278928399086
1761379448842838300,3.90283837890625,0.0027995752170681953,0.012594474479556084,-0.00816502794623375
1761379448852920300,3.91292041015625,0.007281433790922165,0.013571280986070633,-0.0038704241160303354
1761379448863003100,3.923003173828125,0.011470319703221321,0.01427941583096981,0.006364103406667709
1761379448873085200,3.933085205078125,0.011899802833795547,0.016536900773644447,0.00471867062151432
1761379448883167200,3.943167236328125,0.008745821192860603,0.022760707885026932,-0.002080645877867937
1761379448893250300,3.953250244140625,0.001859411597251892,0.024673905223608017,-0.0044065858237445354
1761379448903332400,3.963332275390625,-0.0014889808371663094,0.021998493000864983,-0.0025226655416190624
1761379448913414100,3.9734140625,0.0019412999972701073,0.012069066055119038,-0.002009401097893715
1761379448923497200,3.983497314453125,0.00011863280087709427,0.000585249625146389,0.0011991753708571196
1761379448933579300,3.993579345703125,-0.00950390100479126,-0.00973423384130001,-0.002736177761107683
1761379448943661300,4.003661376953125,-0.018241465091705322,-0.011501774191856384,-0.0058771101757884026
1761379448953744100,4.013744140625,-0.026089802384376526,-0.01375800371170044,-0.013455400243401527
1761379448963826200,4.023826171875,-0.02737131342291832,-0.021260393783450127,-0.016691407188773155
1761379448973908200,4.033908203125,-0.02626185119152069,-0.029603563249111176,-0.015305699780583382
1761379448983991000,4.043990966796875,-0.02175232023000717,-0.034172482788562775,-0.011842790991067886
1761379448994073000,4.054072998046875,-0.019714230671525,-0.03363564610481262,-0.018919680267572403
1761379449004155600,4.06415576171875,-0.024026421830058098,-0.034746184945106506,-0.018556691706180573
1761379449014238700,4.07423876953125,-0.017398197203874588,-0.02399834245443344,-0.015567167662084103
1761379449024320500,4.084320556640625,-0.001866907812654972,-0.01778678596019745,-0.01311226561665535
1761379449034402600,4.094402587890625,0.006111543625593185,-0.022196495905518532,-0.010429516434669495
1761379449044485600,4.104485595703125,0.009228507056832314,-0.025105200707912445,-0.007509095128625631
1761379449054567700,4.114567626953125,0.006356158293783665,-0.013320348225533962,-0.012174759991466999
1761379449064649500,4.1246494140625,-0.001197364181280136,-0.003591288812458515,-0.01967129297554493
1761379449074732500,4.134732666015625,-0.0067907096818089485,0.010015960782766342,-0.025511804968118668
1761379449084814600,4.144814697265625,-0.005332895088940859,0.015165982767939568,-0.01865895837545395
1761379449094896600,4.154896728515625,-0.00002449098974466324,0.013898259028792381,-0.014250291511416435
1761379449104979500,4.1649794921875,0.0024913977831602097,0.006763384211808443,-0.010802030563354492
1761379449115061500,4.1750615234375,0.004402471706271172,-0.0070885345339775085,-0.006356883328408003
1761379449125143600,4.1851435546875,-0.00021411757916212082,-0.007975898683071136,-0.005570185836404562
1761379449135226600,4.1952265625,-0.005820317659527063,-0.005582212470471859,-0.011659367009997368
1761379449145308700,4.20530859375,-0.008746599778532982,-0.002400001510977745,-0.020434748381376266
1761379449155390500,4.215390380859375,-0.013455003499984741,0.007867056876420975,-0.024307522922754288
1761379449165473800,4.225473876953125,-0.00866131391376257,0.0020413915626704693,-0.018558289855718613
1761379449175555600,4.2355556640625,-0.008127456530928612,-0.006927903741598129,-0.014371657744050026
1761379449185637600,4.2456376953125,-0.012440978549420834,-0.00461494829505682,-0.014129310846328735
1761379449195720700,4.255720703125,-0.01919846050441265,-0.0037713004276156425,-0.017586901783943176
1761379449205802800,4.265802734375,-0.020649883896112442,0.002970757894217968,-0.01447499729692936
1761379449215884800,4.275884765625,-0.019437547773122787,0.003126063384115696,-0.005100675392895937
1761379449225967600,4.285967529296875,-0.02299845963716507,0.0008756918832659721,0.004712540656328201
1761379449236049700,4.296049560546875,-0.02695028856396675,-0.0020643677562475204,0.005150903947651386
1761379449246131700,4.306131591796875,-0.02476569637656212,-0.0031554652377963066,0.0050494372844696045
1761379449256214500,4.316214599609375,-0.026987150311470032,-0.0006639426574110985,0.006370694376528263
1761379449266296600,4.326296630859375,-0.0151805579662323,0.0023054825142025948,0.013236857019364834
1761379449276378600,4.336378662109375,-0.006731596775352955,0.005728255026042461,0.012760547921061516
1761379449286461700,4.346461669921875,-0.010928738862276077,0.018551642075181007,0.012056142091751099
1761379449296543500,4.35654345703125,-0.013692940585315228,0.0161469466984272,0.007485421374440193
1761379449306625500,4.36662548828125,-0.015405885875225067,0.017996245995163918,0.007455860264599323
1761379449316708600,4.37670849609375,-0.017383616417646408,0.01760951057076454,0.004532247316092253
1761379449326790700,4.386790771484375,-0.022471584379673004,0.011581976898014545,0.0009423058945685625
1761379449336872700,4.396872802734375,-0.03466358408331871,0.014377670362591743,0.0034527212847024202
1761379449346955500,4.40695556640625,-0.043234169483184814,0.01725255325436592,-0.0013819813029840589
1761379449357037600,4.41703759765625,-0.04801883175969124,0.007530983537435532,0.002999667776748538
1761379449367120400,4.427120361328125,-0.05266711115837097,-0.0005671568214893341,0.0024822151754051447
1761379449377202400,4.437202392578125,-0.045867547392845154,0.00034227780997753143,0.0007728615310043097
1761379449387284500,4.447284423828125,-0.04331863671541214,0.0013958243653178215,-0.0012170523405075073
1761379449397367800,4.457367919921875,-0.03881397098302841,0.008940499275922775,-0.003973886836320162
1761379449407449600,4.46744970703125,-0.02888757362961769,0.018643194809556007,-0.0004009901313111186
1761379449417531600,4.47753173828125,-0.01504300907254219,0.018961593508720398,0.003141419030725956
1761379449427614700,4.48761474609375,-0.0008353115990757942,0.0076367673464119434,0.004155816975980997
1761379449437696800,4.49769677734375,0.011556481011211872,0.0013253740034997463,-0.0015428969636559486
1761379449447778800,4.50777880859375,0.015087033621966839,0.0010824939236044884,-0.008755270391702652
1761379449457861600,4.517861572265625,0.012970752082765102,-0.0004244111478328705,-0.01539105735719204
1761379449467943700,4.527943603515625,0.007539502345025539,0.008687327615916729,-0.01894797384738922
1761379449478025700,4.538025634765625,-0.0009892219677567482,0.021342679858207703,-0.01214161142706871
1761379449488108500,4.548108642578125,-0.008282821625471115,0.02824798971414566,-0.0000607131514698267
1761379449498190600,4.558190673828125,-0.016531018540263176,0.024185003712773323,0.011302141472697258
1761379449508272600,4.568272705078125,-0.021825648844242096,0.029862597584724426,0.013549583032727242
1761379449518355700,4.578355712890625,-0.026381023228168488,0.026921860873699188,0.017483863979578018
1761379449528437500,4.5884375,-0.024871276691555977,0.009942612610757351,0.022757455706596375
1761379449538519600,4.59851953125,-0.0203760527074337,-0.005598734132945538,0.017089378088712692
1761379449548602600,4.6086025390625,-0.01568702608346939,-0.009154055267572403,0.002746659331023693
1761379449558684700,4.6186845703125,-0.013037878088653088,-0.016279764473438263,-0.007285731844604015
1761379449568766700,4.6287666015625,-0.009962193667888641,-0.017132243141531944,-0.01251751184463501
1761379449578849500,4.638849609375,-0.005254928953945637,-0.013581816107034683,-0.0019926249515265226
1761379449588931600,4.648931640625,-0.003618949092924595,-0.019787248224020004,0.003304668702185154
1761379449599013600,4.659013671875,0.0010128393769264221,-0.019111033529043198,0.0032691180240362883
1761379449609096400,4.669096435546875,0.00428266916424036,-0.005468723364174366,0.005231867544353008
1761379449619178500,4.679178466796875,0.002074562944471836,-0.0020211543887853622,0.0037448094226419926
1761379449629260500,4.689260498046875,-0.006857945118099451,0.007737999781966209,0.003866781946271658
1761379449639343600,4.699343505859375,-0.0101386783644557,0.012444902211427689,0.004466929938644171
1761379449649425400,4.70942529296875,-0.00794396735727787,0.007041348610073328,0.005922879558056593
1761379449659507500,4.719507568359375,0.0031751636415719986,-0.0028894226998090744,0.0075391498394310474
1761379449669590800,4.7295908203125,0.013907968997955322,-0.016487523913383484,0.007242206949740648
1761379449679672800,4.7396728515625,0.02434079721570015,-0.04127039760351181,0.00273888255469501
1761379449689754600,4.749754638671875,0.025217242538928986,-0.04567553102970123,-0.011865626089274883
1761379449699837700,4.759837646484375,0.017283542081713676,-0.039097197353839874,-0.01997889019548893
1761379449709919700,4.769919677734375,0.009015224874019623,-0.03258709982037544,-0.018755700439214706
1761379449720001800,4.780001708984375,0.00031002890318632126,-0.026195134967565536,-0.01056815404444933
1761379449730084600,4.790084716796875,0.00020270328968763351,-0.014736618846654892,-0.0026582996360957623
1761379449740166700,4.800166748046875,-0.0036551300436258316,-0.0029952283948659897,0.0034398804418742657
1761379449750248700,4.810248779296875,-0.008810210973024368,0.002695680595934391,0.005851638503372669
1761379449760331500,4.82033154296875,-0.016800742596387863,-0.0025267452001571655,0.004253879189491272
1761379449770413600,4.83041357421875,-0.02195608988404274,0.005561540834605694,0.007858733646571636
1761379449780495600,4.84049560546875,-0.01968074031174183,0.00011615268886089325,0.006531887222081423
1761379449790578700,4.85057861328125,-0.00997245218604803,-0.010105591267347336,0.014513380825519562
1761379449800660700,4.86066064453125,-0.0023957956582307816,-0.001852528192102909,0.015978379175066948
1761379449810742500,4.870742431640625,0.0008266298100352287,0.00027906615287065506,0.015114981681108475
1761379449820825600,4.88082568359375,0.010987546294927597,0.003844113554805517,0.0017808624543249607
1761379449830907600,4.89090771484375,0.0173232052475214,-0.01140860840678215,-0.0004205062286928296
1761379449840989700,4.90098974609375,0.022396408021450043,-0.02616160362958908,-0.0015529600204899907
1761379449851072500,4.911072509765625,0.019505277276039124,-0.033171311020851135,-0.008930981159210205
1761379449861154600,4.921154541015625,0.010555210523307323,-0.04067740589380264,-0.014091516844928265
1761379449871236600,4.931236572265625,0.000670088455080986,-0.026000458747148514,-0.0036220974288880825
1761379449881319400,4.9413193359375,-0.007177326362580061,-0.01830190233886242,-0.00046431098598986864
1761379449891401500,4.9514013671875,-0.011689253151416779,-0.0127169881016016,-0.00014100316911935806
1761379449901483500,4.9614833984375,-0.010569052770733833,0.002832206431776285,-0.0028809334617108107
1761379449911566800,4.97156689453125,-0.011956293135881424,0.0007895622402429581,0.002785740653052926
1761379449921648400,4.9816484375,-0.009753076359629631,-0.007076647132635117,0.0031403356697410345
1761379449931730400,4.99173046875,-0.003932205028831959,-0.01841052807867527,-0.0018299217335879803
1761379449941813800,5.001813720703125,0.00047164876013994217,-0.027895092964172363,-0.00484843086451292
1761379449951895800,5.011895751953125,0.002588595263659954,-0.04171610251069069,-0.003881969954818487
1761379449961977600,5.0219775390625,0.011127270758152008,-0.04878563433885574,-0.00621241657063365
1761379449972060700,5.032060791015625,0.017379041761159897,-0.04480474069714546,-0.01104445569217205
1761379449982142700,5.042142822265625,0.011765875853598118,-0.036754582077264786,-0.01414072047919035
1761379449992224800,5.052224853515625,0.006404931657016277,-0.02788972109556198,-0.015460050664842129
1761379450002307600,5.0623076171875,0.001862216740846634,-0.027253897860646248,-0.008721515536308289
1761379450012389600,5.0723896484375,0.004156263545155525,-0.030329318717122078,-0.00085773307364434
1761379450022471700,5.0824716796875,-0.0005543353036046028,-0.029107725247740746,0.006594324018806219
1761379450032554800,5.0925546875,-0.005525908432900906,-0.019825246185064316,0.009019802324473858
1761379450042636500,5.102636474609375,-0.006665375549346209,-0.010773052461445332,0.00732363760471344
1761379450052718600,5.112718505859375,-0.005457631777971983,-0.0009542433544993401,0.009397441521286964
1761379450062801700,5.1228017578125,-0.0027517015114426613,-0.0023421430960297585,0.004682110156863928
1761379450072883700,5.1328837890625,0.0004395637661218643,-0.012501835823059082,0.010073147714138031
1761379450082965500,5.142965576171875,-0.00329790823161602,-0.01889820024371147,0.005367543548345566
1761379450093048800,5.153048828125,-0.004240666516125202,-0.025359027087688446,-0.0027463093865662813
1761379450103131000,5.163130859375,0.00041191931813955307,-0.019074682146310806,-0.006148288492113352
1761379450113212700,5.173212646484375,-0.001406220719218254,-0.003084530122578144,-0.003423874732106924
1761379450123295700,5.183295654296875,-0.009977946057915688,0.009534978307783604,0.007333213463425636
1761379450133377800,5.193377685546875,-0.022472165524959564,0.011803459376096725,0.024768130853772163
1761379450143459800,5.2034599609375,-0.02639622613787651,-0.002847799099981785,0.034858521074056625
1761379450153542700,5.213542724609375,-0.020698925480246544,-0.025794394314289093,0.03848468139767647
1761379450163624700,5.223624755859375,-0.023990485817193985,-0.031331248581409454,0.02240658365190029
1761379450173706800,5.233706787109375,-0.022556375712156296,-0.029207643121480942,0.003555130911991
1761379450183789800,5.243789794921875,-0.021084841340780258,-0.022311020642518997,-0.011107448488473892
1761379450193871600,5.25387158203125,-0.00912245362997055,-0.018673676997423172,-0.013985793106257915
1761379450203953700,5.26395361328125,0.011503176763653755,-0.02240178734064102,-0.0005819507641717792
1761379450214036700,5.27403662109375,0.02243145741522312,-0.024080641567707062,0.012732788920402527
1761379450224118800,5.284118896484375,0.026247549802064896,-0.0188126340508461,0.02167527563869953
1761379450234200800,5.294200927734375,0.025988426059484482,-0.01528873946517706,0.010427948087453842
1761379450244282600,5.30428271484375,0.019096344709396362,-0.018322691321372986,-0.001929784077219665
1761379450254365700,5.31436572265625,0.011411263607442379,-0.017494183033704758,-0.005494158715009689
1761379450264447700,5.32444775390625,0.0045359330251812935,-0.021685870364308357,-0.011697334237396717
1761379450274529800,5.33452978515625,-0.0009624296799302101,-0.02881781756877899,-0.006617354694753885
1761379450284612600,5.344612548828125,-0.008769144304096699,-0.02539905160665512,-0.00031612045131623745
1761379450294694700,5.354694580078125,-0.012276261113584042,-0.02551117166876793,0.002465285127982497
1761379450304776700,5.364776611328125,-0.015507298521697521,-0.028941944241523743,-0.002637133002281189
1761379450314859500,5.374859619140625,-0.028971441090106964,-0.02056550607085228,-0.00041552388574928045
1761379450324941600,5.384941650390625,-0.028515130281448364,-0.01847984828054905,0.0013420379254966974
1761379450335023600,5.395023681640625,-0.025492176413536072,-0.02148735709488392,-0.0004049957497045398
1761379450345106700,5.405106689453125,-0.03713199868798256,-0.025558240711688995,0.005761408247053623
1761379450355188700,5.415188720703125,-0.041738465428352356,-0.007143545895814896,-0.009948578663170338
1761379450365270500,5.4252705078125,-0.038272518664598465,-0.006888547912240028,-0.021346766501665115
1761379450375353900,5.435353759765625,-0.025676831603050232,-0.012622067704796791,-0.013763148337602615
1761379450385436000,5.445435791015625,-0.011565006338059902,-0.013311827555298805,-0.0021954423282295465
1761379450395517700,5.455517578125,-0.009149519726634026,-0.009891528636217117,0.002842725720256567
1761379450405600800,5.465600830078125,-0.003150749020278454,-0.010540008544921875,0.0011990228667855263
1761379450415682800,5.475682861328125,0.003115669824182987,-0.003031225875020027,0.003419566433876753
1761379450425764900,5.485764892578125,0.005927855148911476,0.0005157049745321274,-0.0020070327445864677
1761379450435847700,5.49584765625,0.008140942081809044,0.0056079355999827385,-0.011847146786749363
1761379450445929700,5.5059296875,0.007220366038382053,0.019669227302074432,-0.022010108456015587
1761379450456011800,5.51601171875,0.005444570444524288,0.025929521769285202,-0.01788380555808544
1761379450466094800,5.5260947265625,0.002608945593237877,0.01330280490219593,-0.007506122812628746
1761379450476176600,5.5361767578125,0.0025141360238194466,0.007965831086039543,0.0015339774545282125
1761379450486258700,5.5462587890625,0.004212481901049614,0.010043186135590076,0.006935814395546913
1761379450496341800,5.556341796875,0.002784494310617447,0.0025237505324184895,0.012836580164730549
1761379450506423800,5.566423828125,0.008227935992181301,-0.004663703963160515,0.010798177681863308
1761379450516505600,5.576505615234375,0.012380336411297321,-0.022493300959467888,0.009800290688872337
1761379450526588700,5.586588623046875,0.00872485339641571,-0.031110547482967377,-0.0015958582516759634
1761379450536670700,5.596670654296875,-0.0009741131216287613,-0.038974858820438385,-0.010030621662735939
1761379450546752800,5.606752685546875,-0.016742344945669174,-0.043711405247449875,-0.019796397536993027
1761379450556835600,5.616835693359375,-0.020219899713993073,-0.04933227226138115,-0.030902046710252762
1761379450566917600,5.626917724609375,-0.02874225378036499,-0.04900047183036804,-0.04550085589289665
1761379450576999700,5.636999755859375,-0.039058007299900055,-0.04491491615772247,-0.06269475072622299
1761379450587082800,5.647082763671875,-0.060461726039648056,-0.019266415387392044,-0.0816134363412857
1761379450597164500,5.65716455078125,-0.07005016505718231,-0.0024821097031235695,-0.07616141438484192
1761379450607246600,5.66724658203125,-0.06844300031661987,-0.010194895789027214,-0.04980536550283432
1761379450617329700,5.67732958984375,-0.05678607523441315,-0.022659556940197945,-0.020123634487390518
1761379450627411700,5.68741162109375,-0.03437367081642151,-0.03511036932468414,-0.0016253342619165778
1761379450637493500,5.697493408203125,-0.020327892154455185,-0.0345630943775177,0.007487470284104347
1761379450647576800,5.707576904296875,-0.011225231923162937,-0.026408806443214417,0.0021470205392688513
1761379450657659000,5.717658935546875,-0.011246803216636181,-0.022908613085746765,-0.005274410359561443
1761379450667740700,5.72774072265625,-0.009987552650272846,-0.014971202239394188,-0.011376899667084217
1761379450677823700,5.73782373046875,-0.0070167966187000275,-0.010305875912308693,-0.01623637042939663
1761379450687905800,5.74790576171875,-0.002238876186311245,-0.004587829113006592,-0.018131062388420105
1761379450697987800,5.75798779296875,-0.001864701509475708,0.002695916686207056,-0.010663559660315514
1761379450708070000,5.76806982421875,-0.0032745935022830963,-0.0032445592805743217,-0.002460628980770707
1761379450718152700,5.778152587890625,0.000029058195650577545,-0.0054877400398254395,0.0009615328162908554
1761379450728234800,5.78823486328125,-0.0016310662031173706,0.00021284911781549454,0.0011120690032839775
1761379450738316800,5.79831689453125,-0.00008350331336259842,0.0034355404786765575,-0.004413990303874016
1761379450748399600,5.808399658203125,-0.0005809897556900978,-0.0009642811492085457,-0.0023579660337418318
1761379450758481700,5.818481689453125,0.0006672339513897896,0.0022826450876891613,-0.007760188542306423
1761379450768563700,5.828563720703125,-0.002451038919389248,0.002106386236846447,-0.01582549698650837
1761379450778646800,5.838646728515625,-0.003810582682490349,0.006979172118008137,-0.02129909209907055
1761379450788728800,5.848728759765625,-0.00019846111536026,0.015584975481033325,-0.025832396000623703
1761379450798810600,5.858810546875,-0.000599266029894352,0.027968674898147583,-0.027708591893315315
1761379450808893700,5.868893798828125,-0.00040524546056985855,0.047202397137880325,-0.0302969329059124
1761379450818975700,5.878975830078125,-0.0031538940966129303,0.05771975591778755,-0.028154686093330383
1761379450829057800,5.889057861328125,-0.0017510252073407173,0.05791169032454491,-0.03636028245091438
1761379450839140600,5.899140625,0.001597100868821144,0.07298198342323303,-0.06009970232844353
1761379450849222700,5.90922265625,0.005005069077014923,0.06987134367227554,-0.0759052261710167
1761379450859304700,5.9193046875,0.00733213871717453,0.06657089293003082,-0.0803348571062088
1761379450869387500,5.929387451171875,0.016949445009231567,0.06439811736345291,-0.0786070004105568
1761379450879469600,5.939469482421875,0.021367628127336502,0.059012409299612045,-0.07830845564603806
1761379450889551600,5.949551513671875,0.0364796444773674,0.04961109161376953,-0.08294002711772919
1761379450899634700,5.959634765625,0.043235018849372864,0.03614082187414169,-0.0909779816865921
1761379450909716500,5.969716552734375,0.05522426962852478,0.03164241090416908,-0.09632576256990433
1761379450919798500,5.979798583984375,0.04613596946001053,0.04238906130194664,-0.08498602360486984
1761379450929881900,5.9898818359375,0.030735012143850327,0.055419500917196274,-0.05302181839942932
1761379450939964000,5.9999638671875,0.03858441486954689,0.03928687423467636,-0.0036625254433602095
1761379450950045700,6.010045654296875,0.05489247664809227,0.014182261191308498,0.026986204087734222
1761379450960128800,6.020128662109375,0.07489414513111115,0.00034021493047475815,0.021472929045557976
1761379450970210800,6.0302109375,0.08410647511482239,-0.005198960192501545,0.007531085982918739
1761379450980292900,6.04029296875,0.08827805519104004,-0.03204122558236122,0.005746767856180668
1761379450990375000,6.050375,0.08491811156272888,-0.039827071130275726,-0.008078301325440407
1761379451000457500,6.06045751953125,0.07417385280132294,-0.03427518159151077,-0.007590676657855511
1761379451010539500,6.07053955078125,0.0654158741235733,-0.030452918261289597,0.006098304875195026
1761379451020621600,6.08062158203125,0.060988638550043106,-0.03895266354084015,0.007569967769086361
1761379451030704400,6.090704345703125,0.0668250098824501,-0.03187903016805649,0.0035842610523104668
1761379451040786400,6.100786376953125,0.0758453980088234,-0.006949448026716709,-0.0012786710867658257
1761379451050868500,6.110868408203125,0.07802305370569229,0.018996380269527435,0.007988989353179932
1761379451060951600,6.12095166015625,0.07504137605428696,0.024351198226213455,0.032390203326940536
1761379451071033600,6.13103369140625,0.06498444080352783,0.02164756879210472,0.0453873872756958
1761379451081115400,6.141115478515625,0.052426841109991074,0.008455066941678524,0.02974557690322399
1761379451091198700,6.15119873046875,0.05257653445005417,0.003418806940317154,-0.009563671424984932
1761379451101280800,6.16128076171875,0.051589831709861755,0.004268621560186148,-0.045266807079315186
1761379451111362800,6.17136279296875,0.05222964286804199,0.001372501254081726,-0.05663007125258446
1761379451121445600,6.181445556640625,0.05411037057638168,-0.010612789541482925,-0.061082080006599426
1761379451131527700,6.191527587890625,0.054387375712394714,-0.009763697162270546,-0.0710538700222969
1761379451141609700,6.201609619140625,0.05285179615020752,-0.0064698997884988785,-0.08534839004278183
1761379451151692500,6.211692626953125,0.054135747253894806,0.003075920045375824,-0.09723663330078125
1761379451161774600,6.221774658203125,0.06156063824892044,0.015048960223793983,-0.10999877005815506
1761379451171856600,6.231856689453125,0.06526488065719604,0.007358376868069172,-0.10148274898529053
1761379451181939700,6.241939697265625,0.070985347032547,-0.020077507942914963,-0.06519345194101334
1761379451192021500,6.252021484375,0.07439638674259186,-0.03994704410433769,-0.034828830510377884
1761379451202103600,6.262103515625,0.058850184082984924,-0.04799831286072731,-0.018695134669542313
1761379451212186600,6.2721865234375,0.050876036286354065,-0.058180779218673706,-0.016036849468946457
1761379451222268700,6.2822685546875,0.0536089688539505,-0.05776958912611008,-0.021083006635308266
1761379451232350500,6.2923505859375,0.05542953684926033,-0.04556240141391754,-0.025602973997592926
1761379451242432500,6.3024326171875,0.05821627005934715,-0.04063315689563751,-0.0032989997416734695
1761379451252515600,6.312515625,0.053238239139318466,-0.04478104040026665,0.02898285537958145
1761379451262597600,6.32259765625,0.048347342759370804,-0.04338793829083443,0.030910983681678772
1761379451272679700,6.3326796875,0.04572027176618576,-0.033409781754016876,0.018461022526025772
1761379451282762500,6.342762451171875,0.04376763850450516,-0.02922435849905014,0.008832363411784172
1761379451292844500,6.352844482421875,0.031411536037921906,-0.021414224058389664,0.0018123288173228502
1761379451302926600,6.362926513671875,0.023162927478551865,-0.026906196027994156,0.002944438485428691
1761379451313009400,6.373009521484375,0.019374391064047813,-0.01969880983233452,0.00035018124617636204
1761379451323091500,6.383091552734375,0.020819423720240593,-0.013920015655457973,-0.005261098966002464
1761379451333173500,6.393173583984375,0.0210543442517519,-0.018383683636784554,-0.006512568332254887
1761379451343256600,6.403256591796875,0.0229856688529253,-0.009194713085889816,-0.010599455796182156
1761379451353338400,6.41333837890625,0.024460062384605408,-0.01228979229927063,-0.01642506569623947
1761379451363420400,6.42342041015625,0.025293365120887756,-0.01289672777056694,-0.023982318118214607
1761379451373503700,6.433503662109375,0.0222161952406168,-0.0207984521985054,-0.030634282156825066
1761379451383585800,6.443585693359375,0.011609358713030815,-0.03925788775086403,-0.03803839907050133
1761379451393667600,6.45366748046875,0.006858333945274353,-0.030928827822208405,-0.042821791023015976
1761379451403750700,6.463750732421875,0.004792520776391029,-0.027638759464025497,-0.030231162905693054
1761379451413832700,6.473832763671875,0.00018838606774806976,-0.055640339851379395,0.0056082094088196754
1761379451423914800,6.483914794921875,-0.009624564088881016,-0.042207613587379456,0.027309242635965347
1761379451433997600,6.49399755859375,-0.01683560572564602,-0.03573666512966156,0.017366597428917885
1761379451444079600,6.50407958984375,-0.01720232143998146,-0.022788377478718758,0.022972816601395607
1761379451454161700,6.51416162109375,-0.021164149045944214,-0.026759546250104904,0.04310457408428192
1761379451464243700,6.52424365234375,-0.025432396680116653,-0.03363502770662308,0.05621132254600525
1761379451474326500,6.534326416015625,-0.0323309488594532,-0.04660876840353012,0.05160585790872574
1761379451484408600,6.54440869140625,-0.03773317113518715,-0.057106148451566696,0.03693370521068573
1761379451494490600,6.55449072265625,-0.0469435453414917,-0.05795874074101448,0.012752260081470013
1761379451504573700,6.56457373046875,-0.04648574814200401,-0.03472932055592537,0.0026010896544903517
1761379451514655500,6.574655517578125,-0.02797427587211132,-0.016957120969891548,-0.00306757097132504
1761379451524737500,6.584737548828125,-0.018612733110785484,0.0004948396235704422,0.002914954209700227
1761379451534820600,6.594820556640625,-0.010093308985233307,0.023468278348445892,0.009352397173643112
1761379451544902700,6.604902587890625,-0.005409075412899256,0.0400717556476593,0.025381430983543396
1761379451554984400,6.614984375,-0.0009299051016569138,0.037497811019420624,0.043195582926273346
1761379451565067500,6.625067626953125,-0.0022697411477565765,0.02567870169878006,0.03532407805323601
1761379451575149600,6.635149658203125,0.005316620692610741,0.01846586912870407,0.011592041701078415
1761379451585231600,6.645231689453125,0.017587935552001,0.004523156210780144,-0.006397610530257225
1761379451595314400,6.655314453125,0.027669697999954224,-0.006672396324574947,-0.013665701262652874
1761379451605396500,6.665396484375,0.028085950762033463,-0.0064457617700099945,-0.023770533502101898
1761379451615478500,6.675478515625,0.017159083858132362,-0.012118745595216751,-0.029809653759002686
1761379451625560600,6.685560546875,0.0015883799642324448,-0.006152997724711895,-0.02990659326314926
1761379451635643400,6.695643310546875,-0.00933427270501852,0.0017795604653656483,-0.027023300528526306
1761379451645725400,6.705725341796875,-0.010794750414788723,0.012674286030232906,-0.014906451106071472
1761379451655807500,6.715807373046875,-0.015270402655005455,0.02019108459353447,0.00532576534897089
1761379451665890800,6.725890869140625,-0.024612240493297577,0.028990700840950012,0.021437358111143112
1761379451675972400,6.735972412109375,-0.03934028372168541,0.046077076345682144,0.023976832628250122
1761379451686054400,6.746054443359375,-0.03977304697036743,0.03809718042612076,0.025034639984369278
1761379451696137700,6.7561376953125,-0.039719708263874054,0.036981385201215744,0.02071705274283886
1761379451706219800,6.7662197265625,-0.03627943620085716,0.03255068510770798,0.014001093804836273
1761379451716301600,6.776301513671875,-0.026330243796110153,0.02217354066669941,0.011396174319088459
1761379451726384600,6.786384521484375,-0.01607814058661461,0.017557216808199883,-0.0036224559880793095
1761379451736466700,6.796466796875,-0.009008150547742844,0.00716060446575284,-0.007254736497998238
1761379451746548700,6.806548828125,0.0005360860377550125,-0.01596442237496376,-0.01054880116134882
1761379451756630800,6.816630859375,-0.002790573053061962,-0.045226290822029114,-0.019800500944256783
1761379451766713600,6.826713623046875,-0.006215665023773909,-0.0547763854265213,-0.022109994664788246
1761379451776795600,6.836795654296875,-0.007665821351110935,-0.049624279141426086,-0.02434423565864563
1761379451786877700,6.846877685546875,-0.006943305488675833,-0.04355120658874512,-0.017683405429124832
1761379451796960500,6.85696044921875,0.009280290454626083,-0.020797032862901688,-0.0032027519773691893
1761379451807042600,6.86704248046875,0.019743850454688072,-0.020656950771808624,0.017803195863962173
1761379451817124600,6.87712451171875,0.017628157511353493,-0.009904767386615276,0.02256201021373272
1761379451827207700,6.887207763671875,0.012577738612890244,-0.00014561321586370468,0.013727505691349506
1761379451837289500,6.89728955078125,0.003954124636948109,-0.011624962091445923,-0.008857997134327888
1761379451847371500,6.90737158203125,-0.0029969923198223114,-0.02773362584412098,-0.025977862998843193
1761379451857454600,6.91745458984375,-0.004832829348742962,-0.05740237236022949,-0.0338151641190052
1761379451867536600,6.92753662109375,-0.0015728538855910301,-0.06069963425397873,-0.029130663722753525
1761379451877618400,6.937618408203125,0.014764126390218735,-0.06182553991675377,-0.019223308190703392
1761379451887701500,6.947701416015625,0.02790389582514763,-0.0851026326417923,-0.001791587215848267
1761379451897783600,6.957783447265625,0.036146633327007294,-0.07988232374191284,0.00024825427681207657
1761379451907865600,6.967865478515625,0.03816744312644005,-0.05473196879029274,-0.010958593338727951
1761379451917947600,6.97794775390625,0.033981453627347946,-0.05517198517918587,-0.01175736915320158
1761379451928030500,6.988030517578125,0.03088206797838211,-0.07096905261278152,-0.002348953392356634
1761379451938112500,6.998112548828125,0.016997065395116806,-0.09169783443212509,0.028959976509213448
1761379451948194600,7.008194580078125,0.022890375927090645,-0.0641985610127449,0.05287409946322441
1761379451958277400,7.01827734375,0.016162963584065437,0.02028995007276535,0.01074928231537342
1761379451968359400,7.028359375,0.012412166222929955,0.08317890763282776,0.004877544939517975
1761379451978441500,7.03844140625,0.010737300850450993,0.07811436057090759,0.033911388367414474
1761379451988524800,7.04852490234375,0.013983960263431072,0.07603523135185242,0.043957632035017014
1761379451998606600,7.058606689453125,0.020649487152695656,0.07344387471675873,0.02168726921081543
1761379452008688000,7.068688232421875,0.03193729370832443,0.06698650121688843,-0.010595833882689476
1761379452018771200,7.078771240234375,0.047522250562906265,0.05977297201752663,-0.034935757517814636
1761379452028853200,7.088853271484375,0.0654277428984642,0.028484823182225227,-0.04646245017647743
1761379452038935300,7.098935302734375,0.09072232246398926,-0.00209934264421463,-0.056091271340847015
1761379452049017000,7.10901708984375,0.11599891632795334,-0.01593765988945961,-0.06922385096549988
1761379452059100200,7.11910009765625,0.1178017109632492,-0.02621600218117237,-0.0823289155960083
