time,seconds_elapsed,z,y,x
1761380684768493800,0.119493896484375,-2.0330419511318207,-3.9580449678272007,-2.64641554903239
1761380684778550000,0.129550048828125,-1.4050176043272018,-4.687015660458803,-1.7022162978336215
1761380684788605000,0.13960498046875,-1.245946986311674,-5.616822229167819,-0.5842404423967004
1761380684798661000,0.1496611328125,-1.2894599648237228,-6.081061788916587,0.429490317928791
1761380684808716800,0.159716796875,-1.0033516973912715,-6.1071869947761295,1.1150018080621957
1761380684818772700,0.169772705078125,-0.8750643401741981,-5.674893894386291,1.258834232674539
1761380684828829000,0.179828857421875,-0.9886872122228145,-4.810877602449059,1.1748375603437422
1761380684838883800,0.1898837890625,-1.019926984617114,-4.4570548121839755,1.0108397150591015
1761380684848939800,0.199939697265625,-0.9340338310152292,-3.964523808452487,0.722745826767385
1761380684858996000,0.209995849609375,-0.5904045179843902,-3.0518238573670384,0.3812155318424105
1761380684869052000,0.220052001953125,-0.30894670670628543,-2.2110393879354,-0.0033702070854604244
1761380684879107800,0.23010791015625,0.06771043117940426,-1.2545710222721098,-0.35100042632073164
1761380684889162800,0.240162841796875,0.5567021548688411,-0.3552005083590746,-0.5224196537777781
1761380684899218700,0.25021875,1.2366659477472304,0.3358545873761177,-0.5897226732000708
1761380684909275000,0.26027490234375,1.9711668019771575,0.9570920505195856,-0.6654013067796826
1761380684919330800,0.270330810546875,2.991456190165877,1.8360399541288612,-0.28093802518770095
1761380684929386800,0.28038671875,3.617084581744671,2.738589682599902,0.45523850716948505
1761380684939442000,0.29044189453125,3.8893455256104468,3.229647106647491,1.5957669706761837
1761380684949497900,0.300497802734375,4.804360183379054,3.5500399209976194,2.997723141606152
1761380684959554000,0.310553955078125,5.223073086705804,4.191064619150757,4.100598750805855
1761380684969610000,0.32060986328125,5.535961224514246,4.58146094405353,4.890695820051431
1761380684979666000,0.330666015625,5.804590533879399,4.981433491075038,5.775007881042361
1761380684989720800,0.340720947265625,5.754588777869939,5.1795349737524985,6.5749120585531
1761380684999776800,0.35077685546875,5.692387465500831,5.016917476910352,6.980369758987426
1761380685009833000,0.3608330078125,5.39117281435132,5.049976865947246,7.0016381724655625
1761380685019889000,0.370888916015625,5.043334359192848,4.823965047559142,6.8244181497752665
1761380685029944800,0.38094482421875,4.901849082228541,4.298091161674261,6.403080158641934
1761380685040000000,0.391,4.545813292089105,4.0933021640568965,5.4742450653135775
1761380685050056000,0.401055908203125,4.877584994065761,3.9489480536580084,4.314203507563471
1761380685060112000,0.41111181640625,5.1000072635293,4.022672046038508,2.964458293125033
1761380685070167800,0.421167724609375,4.5249791783750055,3.465753033548593,2.178555606829375
1761380685080223700,0.4312236328125,2.973769142305851,2.041582984983921,2.233525068248808
1761380685090279000,0.44127880859375,-0.049314358267188066,0.09667524437904357,2.27665021648705
1761380685100334800,0.4513349609375,-2.207385833863914,-2.4673136581182478,2.1901795552581547
1761380685110390800,0.461390869140625,-4.133149021276831,-5.5301241889238355,1.1656988528594374
1761380685120447000,0.471447021484375,-4.486510623770952,-9.665047818657754,0.19954086783081293
1761380685130503000,0.4815029296875,-4.697789567929506,-10.03330070081353,-1.90570035033226
1761380685140558000,0.49155810546875,-5.502645814889669,-6.506892999815941,-4.8963729889050125
1761380685150613800,0.50161376953125,-4.708943999150395,-5.472619509938359,-6.054806234675645
1761380685160669700,0.511669677734375,-5.557408501690626,-5.708446035376191,-5.376605944338441
1761380685170726000,0.521725830078125,-5.935563184657693,-6.347442442572117,-3.950105114738643
1761380685180781800,0.53178173828125,-5.037398539403081,-6.709987468475103,-2.709934081479907
1761380685190837000,0.5418369140625,-3.7237910985335705,-5.736615314283966,-1.434316179525852
1761380685200893000,0.551892822265625,-3.2315725217521187,-4.52073730302155,0.09646306293308735
1761380685210948900,0.561948974609375,-2.244866254213452,-4.38753937740922,1.2651450232565402
1761380685221005000,0.572005126953125,-0.7275988197565079,-4.337091046676039,2.0234186750009653
1761380685231059700,0.582059814453125,0.6766486769810318,-4.171071632435917,2.3308596533194184
1761380685241116000,0.592115966796875,1.7357418430775402,-4.288845778945088,2.2311694450333714
1761380685251171800,0.602171875,2.581498255702853,-4.261219520872831,2.0435621761024
1761380685261227800,0.612227783203125,2.959471736884117,-3.8187738597810266,1.1391668197646736
1761380685271284000,0.622283935546875,2.6981670713186263,-2.827912226128578,-0.2073150089636445
1761380685281339000,0.6323388671875,1.9160110242053865,-1.11337157651186,-1.2545593318343162
1761380685291395000,0.64239501953125,1.546823199287057,0.7826771483778953,-2.253995901608467
1761380685301451000,0.652450927734375,1.4656798705607652,2.809040352398157,-3.033520431174338
1761380685311507000,0.6625068359375,1.4543433607712388,4.7889486792355775,-3.251353911542892
1761380685321563000,0.67256298828125,2.6681249842762944,5.494913759332895,-2.9943849370941518
1761380685331617800,0.68261767578125,3.586083294281363,5.723122795504331,-2.408073825903237
1761380685341673700,0.692673828125,4.212809417968988,5.720059900802373,-2.041392723108828
1761380685351730000,0.70272998046875,6.484753064200282,5.127691973790526,-1.8757684456661343
1761380685361785900,0.712785888671875,5.534661247831583,5.307630023267865,-2.6090529098436237
1761380685371841800,0.722841796875,3.197013249546289,6.1849436036735765,-2.3777409392207858
1761380685381898000,0.73289794921875,3.302407222431898,6.211217278093099,-1.6306784173205493
1761380685391953000,0.742952880859375,2.73473242264986,5.771956092256307,-1.650242949490249
1761380685402009000,0.753009033203125,1.7489771722257137,5.8986342607110736,-2.539372055374086
1761380685412064800,0.763064697265625,1.2412754873692988,6.626711219373345,-3.710937169918418
1761380685422120700,0.77312060546875,1.5828087049037216,7.695639258524775,-4.755654312399029
1761380685432175900,0.78317578125,1.8201985341355202,8.311448266878724,-5.568034525123238
1761380685442231800,0.793231689453125,2.168207377424836,8.269069260832667,-6.049567749500274
1761380685452288000,0.8032880859375,3.103348877421021,7.384762460538744,-6.524902703759074
1761380685462344000,0.813343994140625,4.156924156878889,6.651252955433726,-6.969127064961195
1761380685472400000,0.82339990234375,3.4764798870071765,6.046119654873013,-6.875159325975179
1761380685482456000,0.8334560546875,0.4371221279814839,3.515855327323079,-6.090476682993769
1761380685492510700,0.8435107421875,-2.877510077512264,-0.47480128577351566,-4.778958907879889
1761380685502567000,0.85356689453125,-4.255120911736786,-5.781240637952089,-3.772448161935806
1761380685512622800,0.863622802734375,-4.149132480089366,-10.636870989841222,-3.72672978233397
1761380685522678800,0.8736787109375,-6.087991880440712,-11.442787559509277,-4.603592404101788
1761380685532734000,0.88373388671875,-8.93328311139345,-7.972417972075939,-4.592460476973653
1761380685542790000,0.893789794921875,-9.918936655008793,-5.374423339602351,-4.873657883749902
1761380685552849400,0.903849365234375,-10.48265657968521,-5.053294612193107,-5.310334606051445
1761380685562905600,0.913905517578125,-10.564426515877246,-6.467183505240082,-4.548605553156137
1761380685572961500,0.92396142578125,-9.264614668387175,-8.41199596877694,-3.183011612200737
1761380685583016700,0.9340166015625,-8.030625830894708,-8.566297472694515,-1.2573083382815122
1761380685593072400,0.944072265625,-6.691008627238869,-8.899197886440158,0.963702700830996
1761380685603128300,0.95412841796875,-5.559885705459117,-9.099688894602656,3.2802199405431747
1761380685613184500,0.9641845703125,-4.609367188110947,-8.460644556611776,5.012403798878193
1761380685623240400,0.974240478515625,-3.2269290798604486,-7.064778226989508,6.054389470568299
1761380685633295600,0.984295654296875,-1.276300038999319,-5.283891420283913,6.484836066308617
1761380685643351600,0.9943515625,0.32108255017995835,-3.7092034779936074,6.17579817418754
1761380685653407500,1.004407470703125,1.1031430279642342,-2.048869634860754,5.527974317413568
1761380685663463700,1.014463623046875,1.6573282315760849,-0.4984674080431461,4.787236614620685
1761380685673519600,1.02451953125,2.518453478246927,0.7906149556398391,3.837985925251245
1761380685683574500,1.034574462890625,3.3434377364784478,2.3650521380394696,2.8804952308028935
1761380685693630500,1.04463037109375,3.513651095277071,3.692846217432618,2.189062241666019
1761380685703686400,1.054686279296875,3.679576401492953,4.308438952687382,2.077328398234397
1761380685713742600,1.06474267578125,4.561974153295159,3.75628963881731,2.7292501918464898
1761380685723798500,1.074798583984375,4.147388559031486,3.9304134490579363,3.798505855517089
1761380685733853700,1.084853759765625,4.054650069579482,4.523916517579555,4.997344176912307
1761380685743909600,1.09490966796875,4.274076664358377,4.842110360580683,6.298085414206981
1761380685753965600,1.104965576171875,4.695218840658664,4.267407854118943,7.170401332455873
1761380685764021800,1.115021728515625,6.068655896329879,3.7549353015989064,7.6419672895699735
1761380685774077400,1.125077392578125,7.87038149292469,3.256214795577526,8.484027185764909
1761380685784132600,1.135132568359375,9.428719188916682,2.571877025398612,9.709881232118606
1761380685794188500,1.1451884765625,9.674993458610773,2.1481448326051233,10.409088654649256
1761380685804244500,1.155244384765625,8.941032118085026,2.1928268548965453,9.855969618964195
1761380685814300400,1.165300537109375,8.362701484254002,2.475879826411605,8.842501016706228
1761380685824356600,1.175356689453125,7.52017163245976,2.373998245561123,8.084678908121585
1761380685834411500,1.18541162109375,5.4900622276484965,1.9827748221844435,7.804481910559534
1761380685844467500,1.195467529296875,3.445262326444685,1.5140572402387857,7.811757454520463
1761380685854523400,1.2055234375,1.2090446581110357,1.5362480292588472,7.8970725159734485
1761380685864579300,1.215579345703125,-0.9718976977244019,2.0363748949468135,8.017813695594668
1761380685874635500,1.225635498046875,-1.360818397116661,0.4688514374583959,7.830443450289964
1761380685884690400,1.2356904296875,-3.1429151641339064,-2.0661644685328007,7.416888952639699
1761380685894746600,1.24574658203125,-6.04086597212851,-4.381904001870751,6.708722563105821
1761380685904802600,1.255802490234375,-7.156950314730405,-6.003036299949884,5.331990557542443
1761380685914858500,1.2658583984375,-6.9858566659659145,-6.166204416412115,3.7355534325197337
1761380685924914700,1.275914794921875,-8.725656260001658,-7.4924366533160205,2.3152393287308515
1761380685934969300,1.28596923828125,-9.562752980831265,-8.655245337691902,0.35991979196593166
1761380685945025500,1.296025634765625,-9.671579266253113,-7.954761319354176,-2.072584418577701
1761380685955081500,1.30608154296875,-9.11029504429102,-6.579061579447984,-3.9660745450258252
1761380685965137400,1.316137451171875,-8.88072816376984,-6.25433395076394,-4.1119858217388385
1761380685975193600,1.326193603515625,-8.780807653859258,-6.411002183812856,-3.016680355532467
1761380685985248500,1.33624853515625,-7.606659244823455,-4.969232181149721,-2.444750820915401
1761380685995304700,1.3463046875,-6.18383768825829,-2.864755809879303,-2.862237397317588
1761380686005360600,1.356360595703125,-4.465802182263135,-1.9981571002334355,-3.433610174834728
1761380686015416600,1.36641650390625,-3.5352018328279255,-0.7721475710570812,-3.5247745468378064
1761380686025472500,1.376472412109375,-1.848092210972309,-0.25733283932507034,-3.2312001813083886
1761380686035527400,1.38652734375,-0.4278434275045991,0.5119453137755394,-2.9179651297584175
1761380686045583400,1.396583251953125,0.39570115331262345,1.4259768057256936,-2.8837963181748987
1761380686055639600,1.4066396484375,0.5782032080590724,1.9953315214186906,-3.1241116794645785
1761380686065695500,1.416695556640625,0.17357406740337608,3.3392829548865555,-3.5957682374715803
1761380686075751400,1.42675146484375,0.14031535640209913,4.84065899272859,-4.116234711354971
1761380686085806600,1.436806640625,0.3672127254530787,6.003242636176943,-4.300422234970331
1761380686095862500,1.446862548828125,0.8975736936241387,7.026007474568486,-4.668577794231474
1761380686105918500,1.45691845703125,2.245129289063811,7.019773548614978,-5.24642824333012
1761380686115974400,1.466974365234375,2.9485084443211553,7.415285024574398,-5.782019805631041
1761380686126029600,1.477029541015625,4.061937303978205,7.426775555881857,-6.350120721870661
1761380686136085500,1.48708544921875,4.288717184129357,7.277438980895281,-6.5310758394360535
1761380686146141400,1.497141357421875,4.08357016685456,6.743619104442,-6.390920934292674
1761380686156197600,1.50719775390625,2.219459425756335,7.338019998586177,-5.5878995015442365
1761380686166253600,1.517253662109375,1.6545900387838481,7.761504354098439,-4.949169051808118
1761380686176308700,1.527308837890625,1.9334338681712746,7.246625324958562,-4.907542325434089
1761380686186364400,1.537364501953125,1.8489251546651124,6.2561471376657485,-5.502862087988853
1761380686196420400,1.54742041015625,1.792887917883694,5.473280604195595,-6.496257039511203
1761380686206476500,1.5574765625,1.825628450229764,5.349517446404695,-7.770601852789521
1761380686216532500,1.567532470703125,2.5372017255976793,3.8283535890311002,-9.283389511483907
1761380686226587600,1.577587646484375,3.088269381710887,2.282660855078697,-9.854180981981754
1761380686236643600,1.5876435546875,3.712969552528858,1.566401759982109,-9.826811329019069
1761380686246699500,1.597699462890625,3.393053708040714,-0.07182137362957,-9.129939655959605
1761380686256755700,1.607755615234375,-1.1449696608245372,-2.7398674474507567,-7.201083470967411
1761380686266811600,1.617811767578125,-6.212779120582342,-7.519037075471878,-4.997459912246465
1761380686276866600,1.627866455078125,-9.072164343339205,-12.453451625740527,-3.493755139195919
1761380686286922500,1.637922607421875,-12.592189065301417,-14.220869294542073,-3.455869352915883
1761380686296978400,1.647978515625,-15.958348921197652,-11.386334435403347,-3.248605489617586
1761380686307034400,1.658034423828125,-16.01771530240178,-7.871777915719151,-2.856860964976251
1761380686317090600,1.668090576171875,-13.763794219595193,-5.321047723245621,-2.7856036549702283
1761380686327145500,1.6781455078125,-10.543322937572002,-3.090587011003494,-3.300849471595883
1761380686337201700,1.68820166015625,-6.722709002882242,-1.3977572579354047,-3.842402280388772
1761380686347257600,1.698257568359375,-4.512950886929035,-0.7422855167567729,-3.5402021253332494
1761380686357313500,1.7083134765625,-3.364194108781218,-1.5182634597569704,-2.17187890554443
1761380686367369500,1.718369384765625,-1.7955965923205017,-2.5518308471918103,-0.22558482514768838
1761380686377424400,1.72842431640625,0.1387801096588373,-2.8064696251273156,1.572996043680608
1761380686387480600,1.73848046875,2.2486124550044537,-3.3641906016498804,2.9534526227250693
1761380686397536500,1.74853662109375,1.9207997197866438,-3.3942513933926817,4.05622857094258
1761380686407592400,1.758592529296875,0.4624333871096372,-2.7436031268477437,4.771401039846241
1761380686417648600,1.768648681640625,-0.14016075036227701,-2.8191251085609195,5.621665577545762
1761380686427703600,1.77870361328125,-0.13798457536697387,-2.010378868424892,6.298989669570326
1761380686437759500,1.788759521484375,0.5275462030112743,-0.5186100323617459,6.162412622913718
1761380686447815400,1.7988154296875,0.991707436826825,2.1115683753579852,5.575303054821491
1761380686457871400,1.808871337890625,0.5313397500753403,4.990617499005794,4.879307580074667
1761380686467926500,1.818926513671875,-0.5721013840526342,5.565445677673816,4.639647467823326
1761380686477982500,1.828982421875,0.08485212011635303,5.411306670841574,5.180587113153934
1761380686488038700,1.83903857421875,1.4696604646295308,5.831189202469587,5.706795345559716
1761380686498094600,1.849094482421875,2.4238743293642995,5.9041802044004195,6.156100955548882
1761380686508150500,1.859150634765625,3.7064790214657783,5.720097894725203,7.29495242575407
1761380686518205400,1.869205322265625,5.292502012240886,6.0814370519697665,8.861319114422798
1761380686528261400,1.879261474609375,6.002641747674345,6.234487094521522,10.615971994197368
1761380686538317600,1.889317626953125,6.654982789611816,5.351648028692603,12.503519432723522
1761380686548373000,1.899373046875,8.039604087120294,3.5993373281300065,13.939125067538022
1761380686558429000,1.909428955078125,9.823458511459826,2.8197429481983183,14.602410112816095
1761380686568484000,1.919484130859375,10.034094481539725,3.157347009590268,13.472602949810028
1761380686578540000,1.9295400390625,10.148047023934126,3.3415801259130236,11.818384959208965
1761380686588596200,1.93959619140625,9.00928732366562,3.418815341284871,9.689316582995653
1761380686598652200,1.949652099609375,7.136917580527067,2.8782050740391014,7.587526089808344
1761380686608707800,1.959707763671875,4.471151726597547,2.1624895842999217,6.057047291600703
1761380686618763000,1.969762939453125,0.8105529972970485,1.4042308378636836,5.500406511530279
1761380686628819000,1.97981884765625,-2.4084043730318543,-0.05739654243588447,5.497420189195871
1761380686638875000,1.989875,-6.936410205751657,-2.56188403917253,5.263427893447876
1761380686648931000,1.99993115234375,-12.102355045568942,-7.115124266391992,5.079844765466452
1761380686658987000,2.009987060546875,-14.05600840268731,-10.695216795825958,5.348508561623096
1761380686669042200,2.020042236328125,-12.501640779370069,-11.681992621469497,4.76881102335304
1761380686679098000,2.03009814453125,-12.995532550060748,-11.680271789026259,2.4668092157274484
1761380686689153800,2.04015380859375,-15.517536414265631,-7.8881521274149415,0.5345689412549137
1761380686699210000,2.0502099609375,-14.874855765599012,-3.639942894762754,-0.864788445353508
1761380686709265000,2.060264892578125,-12.453809353137016,-1.6147487345218658,-2.0700193903952835
1761380686719321000,2.070321044921875,-9.961676895582675,-0.8631868553757667,-4.231450113292039
1761380686729377000,2.080376953125,-6.758097127127647,-0.655529024323821,-6.352911229372024
1761380686739433000,2.090432861328125,-4.642031732611358,-0.24833704744279383,-7.010116077953577
1761380686749489200,2.1004892578125,-2.7367963694423434,-0.0820697959214449,-6.8396139653414485
1761380686759544000,2.1105439453125,-1.4629597979471087,0.027341011390089986,-6.767203393647074
1761380686769600000,2.12060009765625,-2.1345020916998387,1.3458148892521857,-6.783494603234529
1761380686779656000,2.130656005859375,-1.2874334274321795,1.449443606030941,-7.068907874140143
1761380686789712000,2.1407119140625,-0.06786357591450214,1.312253395912051,-7.257088266783953
1761380686799768000,2.15076806640625,1.0012602780699729,2.3571458949595687,-7.228579965180158
1761380686809823000,2.160822998046875,1.9086580310940742,3.584054418802261,-7.039752506804466
1761380686819879200,2.170879150390625,2.2263298960477114,4.874463647174835,-6.456764402556419
1761380686829935000,2.18093505859375,2.629606160789728,5.306478515145182,-6.0908005081206555
1761380686839991000,2.190990966796875,2.1202041017562148,5.710579540273547,-5.602938080722093
1761380686850047200,2.201047119140625,1.4064526055663824,6.407557596316933,-5.006734521070123
1761380686860102000,2.211101806640625,1.1969190437704325,6.5384489985525605,-4.462598125524819
1761380686870158000,2.221157958984375,1.1417775867849587,6.694537970408797,-4.141833847513794
1761380686880214000,2.231214111328125,1.3270277711957692,6.755352212333679,-4.345203625982999
1761380686890270000,2.24127001953125,1.545403980138898,6.953070833173394,-5.117093422886729
1761380686900326000,2.251325927734375,1.8877876770228146,7.689424621793627,-6.006148879012465
1761380686910381000,2.261381103515625,2.484232644215226,8.294263907843828,-6.681743370765448
1761380686920437000,2.27143701171875,3.1811846890345215,8.08703862299025,-6.886234846740961
1761380686930493200,2.2814931640625,4.058003471660614,7.078643086212873,-6.606376871874928
1761380686940549000,2.291549072265625,4.522213805314898,5.426587826603651,-6.299581205722689
1761380686950604000,2.30160400390625,4.326446903064847,3.5742964103758332,-6.288305193948745
1761380686960660000,2.311659912109375,3.4722038171231744,2.072392549267411,-6.441470971834659
1761380686970716000,2.3217158203125,2.592117264872789,0.31610534628927706,-6.622824148806929
1761380686980772000,2.331772216796875,0.4619418042004108,-1.2259084068894386,-6.724823803079128
1761380686990828000,2.341828125,-4.3194905080556865,-2.003617119204998,-6.1869713101089
1761380687000883200,2.35188330078125,-9.008769437271356,-4.392204446610808,-4.74695282728821
1761380687010939100,2.361939208984375,-10.358160431444645,-10.119081626212596,-3.7057027763962744
1761380687020994800,2.371994873046875,-12.905550081318616,-12.783196790325642,-3.1246544080391523
1761380687031051000,2.382051025390625,-15.181981102097033,-9.582080781635641,-3.3280916987866163
1761380687041107000,2.39210693359375,-15.360220530962943,-6.18769903986156,-4.250331631633639
1761380687051162000,2.402162109375,-14.029349528342484,-3.8141432773709294,-4.780985445271432
1761380687061218000,2.412218017578125,-11.40449202338457,-1.7452964378863571,-3.477794768998027
1761380687071274000,2.42227392578125,-7.642519078233837,-1.373101540106535,-2.0483530636407434
1761380687081330200,2.432330078125,-5.019655961963534,-1.76548933108747,-0.9934376216202974
1761380687091385000,2.442385009765625,-3.8682664972245693,-2.0815151823997495,0.05469071754328906
1761380687101441000,2.45244091796875,-3.0342145509183407,-2.831941920036077,1.2257776931818574
1761380687111497000,2.4624970703125,-1.1500918261438609,-3.0414211212962865,2.6800644283950326
1761380687121553000,2.472552978515625,0.9114251088440418,-3.046259793499112,3.676777126163244
1761380687131609000,2.482609130859375,1.9903391199588774,-2.4672131203532217,4.288975250543654
1761380687141664000,2.4926640625,3.0708582281827925,-1.512712255370617,4.375507578831911
1761380687151720000,2.502719970703125,3.184370625594258,0.4657067096918821,4.483992211209237
1761380687161776000,2.512776123046875,3.57700683837831,2.2966396960705517,4.0212656863719225
1761380687171832000,2.52283203125,4.51059175658226,3.086799893680215,3.686058749249577
1761380687181888000,2.532887939453125,4.647486198624968,4.591986429721117,3.7179479254633185
1761380687191943000,2.54294287109375,5.2211874190896745,6.156706520226598,3.8813410828530786
1761380687201998800,2.552998779296875,5.698147928723692,7.063835977703333,4.183695259426534
1761380687212055000,2.563054931640625,5.907528930306435,6.648294690150022,4.5100718243613835
1761380687222111000,2.573111083984375,4.726696513462066,6.500455660244822,5.430035921230912
1761380687232166100,2.583166259765625,4.2981630578666925,6.0940375903457396,7.162011105251312
1761380687242222000,2.59322216796875,4.741272151303291,4.763640050455928,9.136687376654148
1761380687252278000,2.603278076171875,6.071661507886648,2.998289835578203,10.517427448815107
1761380687262334200,2.613334228515625,6.68751903155744,1.9207611413419245,11.305710162115096
1761380687272390100,2.62339013671875,7.378180159538984,2.016456142511964,11.504130793744325
1761380687282445000,2.633445068359375,8.235498999664188,1.8507599688768386,11.135240198206901
1761380687292501000,2.6435009765625,8.53654413946569,1.9451199220508335,10.143257451570033
1761380687302557000,2.653556884765625,7.626566306820512,2.66169933514297,9.255704216700792
1761380687312613000,2.663613037109375,6.606398499184847,2.3461580524772403,8.500561556458473
1761380687322669000,2.6736689453125,4.671424123573303,0.8072720759302378,7.684705776578188
1761380687332724000,2.683723876953125,1.6343530141800642,-0.2055792712122202,6.684548491314053
1761380687342780200,2.6937802734375,-1.3437041807085275,-0.9125222564309835,5.61568241148293
1761380687352836000,2.703836181640625,-2.964749385026097,-0.7670493711352347,5.229734882682561
1761380687362892000,2.71389208984375,-4.932749247404932,-0.35107086120843883,5.469053341889381
1761380687372948000,2.723947998046875,-8.137103507363795,-1.6980436883240937,5.996228958022594
1761380687383003000,2.7340029296875,-9.787184836551546,-4.1641286814302205,6.633867520868778
1761380687393059000,2.74405908203125,-8.332152616733312,-5.265600561311841,6.279155672809481
1761380687403115000,2.754114990234375,-8.564505913102627,-4.111391947498917,3.007998744165897
1761380687413171000,2.7641708984375,-11.56935992950201,0.15092998165786264,-1.086582353785634
1761380687423227100,2.77422705078125,-11.661851166194676,2.840402874389291,-2.8721733926594255
1761380687433281800,2.78428173828125,-9.403741984048485,2.2299638686358927,-2.8188910075441003
1761380687443338000,2.794337890625,-7.793650719943642,0.8522516198635101,-2.4823349939003587
1761380687453394000,2.804393798828125,-6.239832547202706,-0.6029448506057262,-2.1231601750828326
1761380687463449900,2.814449951171875,-6.045380234682559,-0.2774023984074592,-1.2599625060521065
1761380687473505000,2.824505126953125,-6.827523714575171,-0.6620464433938265,-0.2920375113509595
1761380687483561000,2.83456103515625,-7.336112119138241,-2.2921616738736628,-0.048345513235032556
1761380687493617200,2.8446171875,-7.057904249566793,-3.3384377362340687,-0.5718868645191192
1761380687503673000,2.854673095703125,-7.197371756967902,-2.1307745956093074,-1.2555004120767115
1761380687513729000,2.86472900390625,-5.727909445258975,-1.5938953315854072,-2.4531863485664127
1761380687523784000,2.874783935546875,-3.603167115551233,-0.7188193009734153,-3.6153932676568625
1761380687533840000,2.88483984375,-1.4710077875852583,1.3125269521564245,-4.805350655721128
1761380687543896000,2.89489599609375,0.6323685134887695,2.919271828442812,-5.65126751960516
1761380687553949200,2.90494921875,1.7210376104205847,3.5003187354952097,-5.887925235170125
1761380687564003800,2.91500390625,2.949982024005055,3.456534538826346,-5.491018505460024
1761380687574060000,2.92506005859375,4.264770491352677,3.480233394321799,-4.740039394637942
1761380687584116000,2.935115966796875,5.380899842140078,3.357467430874705,-4.0363329071223735
1761380687594172000,2.945171875,6.189830791193247,2.8097049537867305,-3.824900818228721
1761380687604228000,2.95522802734375,6.105621060633659,2.743515448564291,-4.487815861150622
1761380687614283000,2.965282958984375,4.810177929747105,3.5770956857055425,-5.8988762527734036
1761380687624339200,2.975339111328125,4.741879469546675,3.9740240427255626,-8.306990702947974
1761380687634395100,2.98539501953125,5.471086309021711,4.835742579114437,-10.109386746150255
1761380687644450800,2.995450927734375,6.159141638419031,6.248378257229924,-10.980402687716483
1761380687654507000,3.005507080078125,6.667616645735502,6.755626937621831,-10.70912607871294
1761380687664562000,3.01556201171875,7.623159713247418,5.90546673707962,-9.01443286986053
1761380687674618000,3.0256181640625,9.043660133388638,3.564822479587793,-6.649912062218785
1761380687684674000,3.035674072265625,9.179873607429862,0.18474165036678314,-5.355673630946875
1761380687694730000,3.04572998046875,7.956356479591131,-1.5187854378044605,-5.70042814861536
1761380687704786200,3.0557861328125,5.685300722110271,-1.1639175224006175,-6.996186336800456
1761380687714841000,3.065841064453125,3.0595576664894817,-0.6433043335229158,-7.8342276450037955
1761380687724897000,3.07589697265625,-0.7317272978633642,-1.477862475785613,-8.307848781082035
1761380687734953000,3.085952880859375,-5.033728326457738,-4.291522889199853,-10.31299559407234
1761380687745009000,3.0960087890625,-8.294083290579914,-7.781696078255772,-12.786860573530197
1761380687755064000,3.10606396484375,-13.773165274530648,-8.520884213519096,-13.301122932076453
1761380687765120000,3.1161201171875,-21.05806509282589,-5.563506818565726,-11.000201613163947
1761380687775176000,3.126176025390625,-25.016921961557863,-3.144411540171504,-8.4049080563426
1761380687785232100,3.136232177734375,-23.307209462749956,-1.2698048317611217,-7.597587465095519
1761380687795288000,3.1462880859375,-16.87742892870903,2.2966496329426764,-6.5404176682770245
1761380687805343000,3.156343017578125,-11.994763270378112,4.294955786257982,-3.718037357312441
1761380687815399000,3.16639892578125,-9.119884710413217,3.0633851158231495,-0.5529509856417775
1761380687825454800,3.176454833984375,-6.28643063224852,1.221642566138506,1.751873916580528
1761380687835511000,3.186510986328125,-3.5045267085790632,0.544050178566575,3.0227810104951263
1761380687845567000,3.19656689453125,-0.9015186318576336,0.27833061916828156,3.61751478985548
1761380687855622100,3.2066220703125,2.102224792951345,-0.04060556663274765,3.912603067079186
1761380687865678000,3.216677978515625,4.000671226632595,-0.048885903722047805,4.349758220547438
1761380687875734000,3.226734130859375,3.8538136089801784,1.0937304719746113,4.854082245664299
1761380687885790200,3.236790283203125,1.908419546163082,2.5592051753520964,5.5526165912389756
1761380687895844900,3.246844970703125,-0.8743909709572791,4.331777158176899,6.2833729982435695
1761380687905901000,3.256901123046875,-1.5622206749051808,6.877454743435979,7.100195577329397
1761380687915957000,3.26695703125,-0.1988601920902729,8.489671913653611,8.260741577470302
1761380687926013000,3.277012939453125,2.6263492048203942,6.800244662505388,9.462059732982516
1761380687936069000,3.287069091796875,3.5328052930802105,5.463951634836197,11.010673907339573
1761380687946124000,3.2971240234375,4.80056137561798,4.310536217227578,12.804099293100833
1761380687956180000,3.307179931640625,6.642680941921472,2.3177093721061945,14.277599482023716
1761380687966236200,3.317236083984375,7.406618318516015,1.1374293284475803,14.81057238625884
1761380687976292000,3.3272919921875,7.57994484089911,0.6859072114527225,14.729839391899109
1761380687986348000,3.33734814453125,7.089909161114692,1.5490613336026668,14.426816230022906
1761380687996403000,3.34740283203125,6.526425383281707,2.5748130788505077,13.3686609292984
1761380688006459000,3.357458984375,6.178716691982745,3.3904701212882995,11.36064820548296
1761380688016515000,3.36751513671875,4.511261618667841,4.416555628535151,9.250643426179884
1761380688026571000,3.377571044921875,3.4809219611078497,5.117307357898354,7.673185434654354
1761380688036627000,3.387626953125,2.077584857213497,4.171977056843042,6.609893355563282
1761380688046682000,3.39768212890625,0.23980419689714907,2.885079051461816,5.894251515582203
1761380688056737800,3.40773779296875,-1.76658940128386,1.75014037078619,5.185813907891512
1761380688066794000,3.4177939453125,-3.3103497058689593,0.40789632575809953,4.4641719507127995
1761380688076850000,3.427849853515625,-5.717581527990102,-1.096789275023341,3.537733689393103
1761380688086905000,3.437905029296875,-9.286437208616732,-3.2409201958119866,2.41412947268039
1761380688096961000,3.4479609375,-11.205300991904735,-6.277922916144132,1.6649707091532646
1761380688107017000,3.458016845703125,-12.036518007045984,-7.991852155864239,1.4140806162267923
1761380688117073200,3.4680732421875,-13.268840957152843,-6.9342346152782435,0.9358142846912145
1761380688127129000,3.478129150390625,-14.462913963842391,-3.8076848950117825,-0.12486293572634458
1761380688137184000,3.48818408203125,-14.810820223540066,-1.7717027987748384,-1.3586875225678086
1761380688147240000,3.498239990234375,-13.46278765823841,-1.65998605260849,-2.7587609484910964
1761380688157295900,3.5082958984375,-11.838670206868647,-0.3066004358410835,-3.4770006960108875
1761380688167352000,3.51835205078125,-9.268663066995144,0.8956512011289596,-4.170102495142817
1761380688177408000,3.528407958984375,-6.48311581838727,1.1034376269966364,-4.640881978054344
1761380688187463200,3.538463134765625,-3.415743386493623,1.5329700305014848,-4.8053535783305765
1761380688197519000,3.54851904296875,-1.0520479237601161,1.863819941458106,-4.59502068285048
1761380688207575000,3.558574951171875,0.31240035429149865,1.3315297587901354,-4.568855729502439
1761380688217631000,3.568630859375,2.1405025011584162,-0.4634025244027376,-4.9082063423007725
1761380688227687200,3.578687255859375,2.418833997109532,-0.7213479426681995,-4.720960307897627
1761380688237741800,3.588741943359375,2.060736013743281,0.9075994130760431,-4.672881336644291
1761380688247798000,3.598798095703125,2.932671408241987,1.3788544045448303,-5.231597169423103
1761380688257854000,3.60885400390625,3.4347724966123696,2.9238053802192208,-5.632088187360763
1761380688267910000,3.618909912109375,4.588361517222225,4.412774940952659,-5.131559755134583
1761380688277966000,3.628966064453125,4.973711956912279,4.1589357889622445,-4.028997157406807
1761380688288021000,3.63902099609375,4.542942705088854,3.3461113396018742,-3.803368200856447
1761380688298077200,3.6490771484375,3.5520226192474365,3.525277235662937,-5.1903883762001986
1761380688308133000,3.659133056640625,2.762823667885363,4.446017869862914,-7.002735320052504
1761380688318188800,3.669188720703125,2.6196681196212768,5.5978410498440265,-8.614195534422993
1761380688328244000,3.679243896484375,2.5694939296543597,6.199614518582821,-9.916676893383263
1761380688338300000,3.6892998046875,2.191239877966046,6.2856701692700385,-10.547145710730552
1761380688348356000,3.699356201171875,2.82882232671082,5.898178333637118,-10.611675758308172
1761380688358412000,3.709412109375,2.7627409580379725,5.055521056070924,-10.467094268894195
1761380688368468000,3.719468017578125,0.3727110306084156,5.447348875081539,-9.915371071481704
1761380688378523100,3.729523193359375,-0.15974048010110853,5.047103356337547,-9.494325925815104
1761380688388579000,3.7395791015625,-0.6933060895323753,4.293567546769976,-9.11887348754406
1761380688398635000,3.749635009765625,-0.9392945280224084,3.4233366181015965,-8.73040959200859
1761380688408691000,3.75969091796875,-1.048851465806365,1.8246160583168267,-8.759291987621785
1761380688418747000,3.769746826171875,-1.4603785492822527,1.3112193766891955,-9.440358773306011
1761380688428802000,3.779802001953125,-2.688851838223636,1.587190865510702,-10.537125836497545
1761380688438858000,3.78985791015625,-5.51761951213777,1.5168874952286482,-10.130430703222752
1761380688448914200,3.7999140625,-9.21409911763668,0.3889437880069017,-8.481808925193548
1761380688458970000,3.80997021484375,-10.995502057170867,-4.03717871029675,-6.885898162132501
1761380688469026000,3.820026123046875,-14.074370573329924,-7.1665645307719705,-5.134568289300799
1761380688479081000,3.8300810546875,-16.33838868725896,-7.934734430369734,-3.2691032109841704
1761380688489137000,3.840136962890625,-17.99288958645463,-7.555286200460791,-1.4020375656031072
1761380688499192800,3.85019287109375,-18.530450987523793,-6.433097695764899,-0.3623606457794085
1761380688509249000,3.8602490234375,-15.80389368802309,-3.5537639099568126,-0.37461518372930586
1761380688519305000,3.870304931640625,-11.78542260080576,-1.2390461208820343,-0.47691257883906363
1761380688529360100,3.880360107421875,-8.208708023372292,-1.803262889164686,0.6361572382472455
1761380688539416000,3.890416015625,-5.487189302560687,-2.697009133455157,2.5353686649516223
1761380688549472300,3.90047216796875,-2.3734207379341123,-4.159394638645649,4.400896871632337
1761380688559528400,3.910528564453125,-0.3417658572465181,-4.5802930693179364,5.789184874954819
1761380688569584400,3.92058447265625,-0.4523819486945867,-3.8097657929390665,6.674223496654629
1761380688579639600,3.9306396484375,-0.6320221842691301,-3.3114836783349513,7.480648015844822
1761380688589695500,3.940695556640625,-0.42540450991988177,-2.6149872683286666,7.958192462846636
1761380688599751400,3.95075146484375,-0.2885433856248855,-1.1937152792930603,7.605881830710172
1761380688609807600,3.9608076171875,-0.09072598058581352,1.3950778095930814,7.112002334979176
1761380688619863600,3.970863525390625,1.1460399204045533,2.734590968352556,6.410474360546469
1761380688629918500,3.98091845703125,1.4196496485307812,4.167715307745337,5.486430593147873
1761380688639974400,3.990974365234375,1.3483651582568883,5.911982987105846,4.791281213836371
1761380688650030300,4.0010302734375,1.3857874186784027,7.347145554327964,5.025038824045658
1761380688660083200,4.011083251953125,1.4783704253077505,7.2929685584604735,4.979125214132666
1761380688670139400,4.021139404296875,2.080520910665393,7.601959688830375,6.063689213833213
1761380688680194300,4.0311943359375,3.2950825786322353,6.8743696369022125,7.919578362292051
1761380688690250500,4.04125048828125,4.530408802208304,5.740252794003486,9.59288040806949
1761380688700306400,4.051306396484375,5.614457253602147,4.819586978605389,10.76113917454481
1761380688710362400,4.0613623046875,6.436299122154712,4.512666224768758,11.569897689640522
1761380688720418600,4.07141845703125,6.6466416622459885,4.589084278538823,12.034928107506037
1761380688730473200,4.08147314453125,6.465922107002139,5.10293630271852,12.526138091766834
1761380688740529400,4.091529296875,6.746924575728178,4.887563367244601,12.833317204278707
1761380688750585300,4.10158544921875,7.487983181038499,4.7059494935095305,13.197219490009546
1761380688760641300,4.111641357421875,9.000594898644088,4.753867428982257,13.247052319192886
1761380688770697500,4.121697509765625,8.898466649556159,3.6833395534187554,12.807477829623222
1761380688780752400,4.13175244140625,8.27208305569589,2.418360534378886,12.465413281691074
1761380688790808300,4.141808349609375,6.972392204236984,1.8047317926734685,11.756396412807703
1761380688800864500,4.151864501953125,4.022169357213378,0.9071136753857135,10.802347967767714
1761380688810920400,4.16192041015625,0.6848159090846777,-0.7814099049210548,10.194244126963614
1761380688820976400,4.171976318359375,-2.5147844343453643,-3.2535762637674805,10.24063762934804
1761380688831031300,4.18203125,-6.874738470214605,-4.966650932484865,10.940096396291255
1761380688841087200,4.192087158203125,-10.89049737586379,-8.094128288990259,10.896862819242477
1761380688851143400,4.202143310546875,-13.63765088866949,-10.433465555536745,9.238533301669358
1761380688861199400,4.212199462890625,-13.883802408766746,-10.001819520878792,6.613816081964969
1761380688871255300,4.22225537109375,-14.551370830452441,-6.842431945371628,2.88357010820359
1761380688881310500,4.232310546875,-15.527583176505564,-3.0613211690306663,-1.2479184325151145
1761380688891366400,4.242366455078125,-16.194430298179388,-0.7249959437817335,-3.8532062907367943
1761380688901422600,4.252422607421875,-15.347696564954518,0.42944121809005736,-4.931953713113069
1761380688911478300,4.262478271484375,-14.045540784686803,0.49064825872480866,-5.925454463097453
1761380688921534200,4.2725341796875,-12.413485526055096,1.036934233519435,-7.170484334564208
1761380688931589400,4.28258935546875,-9.576687398159503,1.7266677252620457,-8.013486480045318
1761380688941645300,4.292645263671875,-5.92859276112318,2.965683451005816,-8.18925747297108
1761380688951701500,4.302701416015625,-3.7040766364991664,4.560725614538788,-7.996673292410374
1761380688961757400,4.31275732421875,-2.4144135503187774,5.26647909771204,-7.547489262974262
1761380688971812600,4.3228125,-0.6600514701843261,4.768804301351309,-6.752018099474906
1761380688981868500,4.33286865234375,1.1590829418510198,4.253405047729611,-5.944204171752929
1761380688991924200,4.34292431640625,2.8330376063182947,4.095345652583241,-5.389549012541771
1761380689001980400,4.35298046875,3.7791982207179067,4.2671576787501575,-5.170712200349569
1761380689012036400,4.363036376953125,3.700401162856817,4.917417822760343,-5.1107870162189
1761380689022091300,4.37309130859375,3.186433403342962,5.577638804292678,-5.13540590916872
1761380689032147500,4.3831474609375,2.08990716316998,6.16345424092114,-4.700789042006432
1761380689042203400,4.393203369140625,0.7313336223706602,6.500337586823106,-4.0383728885173795
1761380689052259300,4.40325927734375,0.5677659851968289,5.310630958649516,-3.7120930619552728
1761380689062315500,4.4133154296875,-0.38886692337840795,4.673338432762026,-4.186150835885107
1761380689072372500,4.42337255859375,-0.20426438922137022,4.9614177080065005,-8.356990705391764
1761380689082428400,4.433428466796875,0.74014616664052,5.760750807631015,-10.227274289906024
1761380689092484400,4.443484375,1.9211486793547867,6.494189585587382,-11.689106252866983
1761380689102540500,4.45354052734375,3.322733386623859,6.112234341293573,-12.388164037793874
1761380689112596200,4.46359619140625,3.7831969349652526,5.199772875139117,-12.051073771142958
1761380689122651400,4.4736513671875,3.0162416718542575,3.8236137010276314,-10.880671562898158
1761380689132707300,4.483707275390625,2.0249983454078433,1.7300906854480504,-9.670155955451726
1761380689142763300,4.49376318359375,1.6484610345095394,-0.6919231107413768,-8.838535620206594
1761380689152819500,4.5038193359375,0.9697697457849979,-2.740703313753009,-8.373203589046001
1761380689162875400,4.51387548828125,0.6925801133453846,-3.282239463672042,-8.064580707466602
1761380689172930600,4.5239306640625,-0.9006772125974297,-2.5717098521381616,-7.76476598624289
1761380689182986500,4.533986572265625,-4.465344501623511,-0.092569562625885,-6.5810080373406405
1761380689193042200,4.544042236328125,-9.130853263673187,1.1688777751564978,-4.448646464800834
1761380689203098400,4.554098388671875,-11.447197192645072,-1.776934854209423,-2.394308919923007
1761380689213154300,4.564154296875,-12.12546821013093,-5.8901966872334475,-2.121817089910805
1761380689223209500,4.57420947265625,-13.406569511932133,-5.022335410305858,-3.0296620021805167
1761380689233265400,4.584265380859375,-12.58934945796132,-3.9472172843426465,-3.3692195357277988
1761380689243321300,4.5943212890625,-11.049140123856066,-4.285322865515947,-2.46630243524909
1761380689253377500,4.60437744140625,-8.941666324335337,-3.056998045134544,-1.8696154759943484
1761380689263433500,4.61443359375,-5.841968955159187,-1.4430395842075348,-1.660681633657217
1761380689273488400,4.62448828125,-4.62803097204864,-0.8343979832649231,-0.4300059393007308
1761380689283544300,4.63454443359375,-3.747800042891502,-1.9349270293384788,1.5155195678763091
1761380689293600300,4.644600341796875,-2.0755793626099823,-2.915539071655273,3.1586116226986047
1761380689303656400,4.654656494140625,-0.06379881069362163,-3.8901211861580607,4.029304908181727
1761380689313712400,4.66471240234375,0.9868588277518748,-3.395327498191595,4.652134608952701
1761380689323767300,4.674767333984375,0.902343976765871,-3.197069363647699,4.693258354240656
1761380689333823500,4.684823486328125,0.43847617293894287,-3.4316187087565657,5.631856132170558
1761380689343879400,4.69487939453125,0.7763339168310165,-2.210745957946777,5.213048536297679
1761380689353935400,4.704935302734375,-0.4938806647747755,-0.836470113363862,4.005226405718922
1761380689363991600,4.714991455078125,-2.73365164167583,0.11333411823511123,3.551723344039917
1761380689374046200,4.725046142578125,-2.052107301607728,1.327593003863096,3.9136753724858164
1761380689384102400,4.735102294921875,-2.5149089375078675,2.9199083727806805,4.0124727235853666
1761380689394158300,4.745158447265625,-2.1497300559699535,4.041729797729849,4.731385548061132
1761380689404214300,4.75521435546875,-0.26738018608689307,4.032691335749626,5.753537807512283
1761380689414270500,4.7652705078125,0.8791612540990114,3.4956484055966137,6.8302645377159115
1761380689424325400,4.775325439453125,3.399299908953905,2.4986107136577367,7.653366050940751
1761380689434381600,4.785381591796875,5.066835061767697,1.274194591152668,8.976656389173865
1761380689444437500,4.7954375,5.862178214973211,0.05065232887268066,10.286761082619428
1761380689454493200,4.8054931640625,4.995860075834393,0.10037234533131122,11.44552546004057
1761380689464549400,4.81554931640625,3.924198227804899,0.569669772991538,12.193459796339273
1761380689474604300,4.825604248046875,3.91296839326024,1.2545739448815583,12.775060245621203
1761380689484660500,4.835660400390625,4.446280904713273,2.0314356849789617,12.718390848416089
1761380689494716400,4.84571630859375,4.84662754574418,2.8785020111590622,11.703821006917952
1761380689504772400,4.8557724609375,4.858463529488444,3.2892227466881274,10.363294871723651
1761380689514828500,4.86582861328125,4.0008565200716255,3.397506011274457,9.436097024208307
1761380689524883500,4.875883544921875,1.811802753973007,3.9329274777054786,9.003433336940407
1761380689534939400,4.885939453125,1.0462263779997825,2.2354899385809897,8.521966748058796
1761380689544995300,4.895995361328125,1.721447360265255,1.1022311738163233,7.546644044321775
1761380689555050800,4.90605078125,1.621812973819673,1.3532213661164045,5.742047860726713
1761380689565107000,4.91610693359375,0.3552244737565517,0.41506782482266424,4.762428044317662
1761380689575163000,4.926162841796875,-1.9031699550718069,-1.0464683700621127,4.771298456254601
1761380689585218000,4.936218017578125,-4.10666901063025,-2.9961148296266793,5.102158304083347
1761380689595274000,4.94627392578125,-5.250860672819614,-5.05466999219954,4.872779931871593
1761380689605330000,4.956329833984375,-7.453157951372861,-4.145768264353275,2.948159777013957
1761380689615386000,4.96638623046875,-10.741569381678104,-1.1905629527419805,0.9096291653379798
1761380689625441800,4.97644189453125,-12.457819173300265,1.1090735870569943,0.07641034538764506
1761380689635497000,4.9864970703125,-13.027601759016513,2.1529718143701553,-0.21617040599454193
1761380689645553000,4.996552978515625,-13.648141887545584,2.1164503021806476,-0.7858264061890542
1761380689655608800,5.00660888671875,-12.898048327386379,1.434560509675741,-2.051702227938175
1761380689665665000,5.0166650390625,-10.565417865002155,1.1696774011015891,-3.63029068479836
1761380689675721000,5.026720947265625,-7.646847462826967,0.9287725494861602,-4.987413734528422
1761380689685776000,5.03677587890625,-5.171823376461863,0.5421148265898227,-5.460834964120387
1761380689695831800,5.046831787109375,-3.5177596996396776,0.20767945836186408,-5.2935307707667345
1761380689705887700,5.0568876953125,-2.5935586958527566,0.06462941629886627,-5.220423448979854
1761380689715944000,5.06694384765625,-1.6353531311333178,0.2234066043257713,-5.376370966538786
1761380689725999900,5.076999755859375,-0.35410920599102974,0.5630307733684778,-5.284844190964103
1761380689736054800,5.0870546875,0.9486597377389668,0.7999988700568675,-4.995788764163851
1761380689746111000,5.097111083984375,1.6162866116136312,1.3899544752299784,-5.061286195468902
1761380689756167000,5.1071669921875,1.7030699920535086,2.639889654394984,-5.394740735965967
1761380689766222800,5.117222900390625,1.395914260417223,4.109234477204084,-6.065972356334329
1761380689776279000,5.127279052734375,0.917349822717905,4.981013804358244,-6.7841831700205795
1761380689786333700,5.137333740234375,0.2558025610178709,5.324747162285447,-7.409322901299595
1761380689796390000,5.147389892578125,0.00907353329360485,5.2534407524406905,-8.01491972771883
1761380689806445800,5.15744580078125,0.45985155392289156,5.41864417412281,-8.696302155223488
1761380689816501800,5.167501708984375,1.4929238513171672,5.729589945691823,-9.37695276132226
1761380689826558000,5.177557861328125,2.705420403447747,6.112489192837477,-9.681099374270438
1761380689836612900,5.18761279296875,3.903526026654243,6.4560723286390305,-9.59228594930768
1761380689846669000,5.1976689453125,4.572706559711694,6.212743464747071,-9.280352335745096
1761380689856725000,5.20772509765625,4.74468809722662,5.339893878012895,-8.738181979575753
1761380689866781000,5.217781005859375,3.39988793797493,5.504960521572828,-7.611522466945647
1761380689876836900,5.2278369140625,2.1414672545373437,5.653921248984337,-6.691537035027146
1761380689886891800,5.237891845703125,1.24856564437747,5.545835552796721,-5.699727306869626
1761380689896948000,5.247947998046875,0.24979601407945154,5.372594955131412,-4.7746246780678625
1761380689907004000,5.25800390625,-0.452918539789319,4.463334330844879,-4.09941334041357
1761380689917059800,5.268059814453125,0.20822423276305196,2.395523264148831,-3.3491748188257215
1761380689927116000,5.278115966796875,0.30426643993556496,0.9215776695460081,-2.733151875460148
1761380689937171000,5.2881708984375,-2.432066988170147,0.7101280449956655,-1.7071460093207655
1761380689947227000,5.298226806640625,-6.919819136434793,-0.007077975562214851,-0.07059782318398355
1761380689957282800,5.30828271484375,-10.487739582037925,-1.2398936776220797,1.4395530572660267
1761380689967338800,5.3183388671875,-9.930157137203215,-4.266486063098907,0.9934731313250958
1761380689977395000,5.32839501953125,-9.109634534555672,-6.764902715489268,-1.079384405105561
1761380689987449900,5.338449951171875,-9.500904719683527,-5.361758503818511,-1.314240624206513
1761380689997505800,5.348505859375,-8.208867013326287,-3.5316099458158012,-0.6708198977623134
1761380690007562000,5.35856201171875,-6.9800599623858925,-2.758164151641726,-1.1467242494069039
1761380690017618000,5.368617919921875,-7.191245967563987,-1.4345616787195206,-1.7964637305438518
1761380690027673900,5.378673828125,-5.844277816623449,-1.2490472904145717,-1.6177657442554831
1761380690037728800,5.388728759765625,-4.183440115621686,-2.277673714315891,-0.3038246144521981
1761380690047784700,5.39878466796875,-2.553971366351843,-4.467682004660368,1.0843667966280133
1761380690057841000,5.4088408203125,-1.5929080741137265,-5.5389528075456615,2.1931591555908323
1761380690067896800,5.418896728515625,-0.9274366247072815,-5.508844669529795,2.5620634873926638
1761380690077952800,5.428952880859375,-0.7343231595754623,-4.60608042152524,2.9993814302071926
1761380690088008000,5.439008056640625,-0.6842091753631829,-3.1056998244613405,3.618715690077841
1761380690098064000,5.44906396484375,-0.620703794658184,-1.5100848294764757,3.9122301421135663
1761380690108120000,5.4591201171875,-0.3591290799796581,0.4006429936289787,3.995993590210378
1761380690118176000,5.469176025390625,0.608102087238431,1.8674702806591987,3.9442128418296574
1761380690128232000,5.47923193359375,1.6370295399129389,3.136346891659498,3.996090913105011
1761380690138287900,5.489287841796875,2.569151984348893,4.122227229768037,4.081420003083348
1761380690148342800,5.4993427734375,3.1343519184499975,4.997642867597937,4.272532357525825
1761380690158399000,5.50939892578125,3.193870859867334,6.141995273306965,4.980491241788864
1761380690168455000,5.519454833984375,3.8473388600081204,6.604607524114847,6.175142925149202
1761380690178510800,5.5295107421875,4.764331832112371,5.8806204651147125,7.325756144818663
1761380690188567000,5.539567138671875,5.266323030367493,5.624681710496544,8.17045924899876
1761380690198622000,5.5496220703125,4.437985662315786,6.352794909515977,8.909293748518824
1761380690208678000,5.559677978515625,4.827490883597731,5.652242502117157,9.420698379546403
1761380690218733800,5.56973388671875,4.7318248162612315,5.282694903975725,9.377553065302967
1761380690228789800,5.579789794921875,5.350391306629777,5.665639159306884,9.443559615173935
1761380690238846000,5.589845947265625,6.273025791752338,5.084705649501085,9.36544235627055
1761380690248900900,5.59990087890625,5.907706624960899,4.317307903319597,9.226612562251091
1761380690258956800,5.609956787109375,5.373409194123744,3.174865130624175,8.770856753209232
1761380690269013000,5.620012939453125,4.626311016388237,1.6938304545432328,7.441044319730997
1761380690279069000,5.63006884765625,3.695440910100937,1.0265168844014405,5.874548451724648
1761380690289124900,5.640124755859375,3.0538433804959055,0.13797873014807702,4.990704592767358
1761380690299179800,5.6501796875,1.487737388589978,-2.078394420030713,4.289163466592133
1761380690309235700,5.660235595703125,-2.107861629794538,-5.175483652535081,3.3882939462929964
1761380690319292000,5.6702919921875,-6.444675905355811,-7.955150026410817,5.217752768465877
1761380690329347800,5.680347900390625,-8.079046455192566,-10.602757123315333,8.215733976486325
1761380690339403800,5.69040380859375,-9.728590608763694,-9.06079305449724,7.376605457568168
1761380690349459000,5.700458984375,-11.808608246082066,-6.213180687120556,4.95985177386403
1761380690359515000,5.710514892578125,-14.492079268050192,-3.349281786331534,4.34838313280195
1761380690369571000,5.720571044921875,-16.258462333106994,-1.2078110246628522,3.9128415520101782
1761380690379627000,5.730626953125,-13.658251778149603,-0.23874913488626479,1.5855883987501262
1761380690389683000,5.740682861328125,-9.21723098592162,0.09527999062836169,-1.5116928491950035
1761380690399739000,5.75073876953125,-5.831186279860138,-0.187565475615859,-2.9097049586743116
1761380690409793800,5.760793701171875,-2.5143846213728187,-0.28307635239064693,-3.1486715357035395
1761380690419850000,5.77085009765625,-0.14191080889999866,-0.23578911603689193,-3.6714088771283624
1761380690429906000,5.780906005859375,0.003944353711605072,0.4286018446564674,-3.89554058085829
1761380690439961900,5.7909619140625,-0.3111006698697805,-0.44274902795255183,-3.523777352494001
1761380690450018000,5.80101806640625,-1.6563082408785819,-0.5355599981188773,-2.6459429630845785
1761380690460073000,5.811072998046875,-3.008856822299957,0.19852643009126186,-2.3668146176673472
1761380690470129000,5.82112890625,-3.6014860305964946,0.6673609164148568,-2.8194351974233984
1761380690480184800,5.831184814453125,-3.9355999117851255,2.2615783195614814,-3.4650340716242787
1761380690490240800,5.84124072265625,-3.476932599210739,3.995907373231649,-4.082058885508776
1761380690500296700,5.851296630859375,-3.0347698467135427,4.974713242909312,-4.903213940840959
1761380690510352000,5.861351806640625,-2.052291426002979,6.027506724339723,-6.1453872538328165
1761380690520407800,5.87140771484375,-0.014150105905532836,6.652825903838872,-7.106113276940584
1761380690530464000,5.881464111328125,2.112824512898922,7.019574226650596,-7.696555204325914
1761380690540520000,5.89152001953125,3.9518215632677074,6.690500677716732,-8.147565280145406
1761380690550575900,5.901575927734375,5.603713741269708,6.300079218372702,-8.25725958057344
1761380690560634400,5.91163427734375,7.028505136603116,6.09017682326436,-8.225357544878126
1761380690570690300,5.921690185546875,7.683812627130746,5.937709549036621,-8.120464507251977
1761380690580746500,5.93174658203125,7.602255456906557,5.767353566896915,-7.8940569675445555
1761380690590802400,5.941802490234375,6.299343305313587,5.879070897585153,-7.427997791153192
1761380690600858400,5.9518583984375,5.498265407848358,5.542198073077201,-7.188779869711398
1761380690610914600,5.96191455078125,3.419993737414479,5.094737214171886,-6.987201066312194
1761380690620969200,5.97196923828125,2.1983079166561366,4.276510028985142,-7.070188561600446
1761380690631025400,5.982025390625,0.8942109391927718,3.745186061000824,-6.947640624818205
1761380690641081300,5.992081298828125,-0.3405430374532938,2.9580647926956414,-6.5759577682137484
1761380690651137300,6.00213720703125,-1.5533867955863474,1.618308472830057,-5.744141033613682
1761380690661193500,6.012193359375,-1.3649649954020977,-0.43099721536040303,-4.445376649349928
1761380690671248400,6.022248291015625,-1.574197528424859,-1.5602683717936277,-2.9957521337941286
1761380690681304600,6.0323046875,-4.638478131783009,-2.2347236303836104,-1.5324822469845414
1761380690691360500,6.042360595703125,-6.907649975213408,-3.4121278263449666,-0.024443390252441168
1761380690701416400,6.05241650390625,-7.202113983058929,-4.829311084762216,-0.5552514446038752
1761380690711472400,6.062472412109375,-8.130875426629185,-6.865542771846056,-3.759730134660005
1761380690721527300,6.07252734375,-11.193362716829776,-6.528675208035111,-5.344854130768776
1761380690731583200,6.082583251953125,-13.033617658305168,-4.309328010481596,-3.2471587979406116
1761380690741639400,6.092639404296875,-12.610655280840396,-3.436994556576013,-1.715463463550061
1761380690751695400,6.1026953125,-10.647530331021546,-2.8204250852435826,-1.24100280790776
1761380690761751300,6.112751220703125,-7.42097125351727,-1.8869769451618192,-0.6445555026277899
1761380690771806500,6.122806396484375,-4.497286869329214,-1.749830574184656,-0.05514503718204796
1761380690781862400,6.1328623046875,-2.131278453478217,-2.1120178726911543,0.7214779987886547
1761380690791918300,6.14291845703125,0.07209259178638458,-2.3944489129155873,1.4358125555634498
1761380690801974300,6.152974365234375,1.330068454065919,-1.7796341762959955,2.249211151549965
1761380690812030200,6.1630302734375,2.3764216733157633,-1.343954940599203,2.9740213635012505
1761380690822085400,6.17308544921875,2.441605800887942,-1.3002584222137927,3.7725828942313786
1761380690832141300,6.183141357421875,2.203006888127327,-0.8423731999278068,4.145300354580581
1761380690842197500,6.193197509765625,1.7586907569885253,0.30811084040403364,4.484270151367784
1761380690852253400,6.20325341796875,0.9465250637978315,1.7859511043578384,5.19204724932313
1761380690862309400,6.213309326171875,1.252325289171934,2.294619588419795,5.396144757544994
1761380690872364300,6.2233642578125,2.288812363445759,2.8432793066084385,5.123879722025991
1761380690882420200,6.233420166015625,3.541692948412895,4.0708974400252105,4.829418344528973
1761380690892476400,6.243476318359375,4.390176155653596,4.88323732073903,5.008351893138885
1761380690902532400,6.253532470703125,4.926777187258005,5.235590622973442,5.566596601274609
1761380690912588300,6.26358837890625,4.640938384416699,5.063074832451343,6.455768377256393
1761380690922644500,6.27364453125,4.690610470080375,4.109828351444006,7.5490557816386215
1761380690932699400,6.283699462890625,4.856423548093438,3.430889225438237,8.480002168032527
1761380690942755600,6.293755615234375,5.26200282908082,2.8878806648790833,8.997003596153855
1761380690952811500,6.3038115234375,5.181874814876914,2.7231074513077735,9.404112570926547
1761380690962867500,6.313867431640625,4.847799512133002,2.884894342544675,9.389834454727172
1761380690972923400,6.32392333984375,4.693718372967839,2.774021061465144,9.154836196807027
1761380690982978300,6.333978271484375,3.997091614580154,2.7151182061195374,8.581476921647786
1761380690993034200,6.3440341796875,2.37349964838922,2.329853398886323,7.647770422890782
1761380691003090400,6.35409033203125,0.09910217926502227,0.8992501024037599,6.7454621019601815
1761380691013146400,6.364146484375,-3.5049323667705057,0.8158651322305202,6.288230959668756
1761380691023202300,6.374202392578125,-5.149261416041851,-0.50058629989326,5.967502629753947
1761380691033257500,6.384257568359375,-4.738429621353745,-2.243686104518175,5.627139040520787
1761380691043313400,6.3943134765625,-4.191608809030056,-2.9516046567708254,4.875180855533481
1761380691053369300,6.404369384765625,-5.597842218887806,-3.9855128204673527,4.3031274022758
1761380691063425300,6.41442529296875,-7.203821956020593,-4.9040053834795945,4.870617200879752
1761380691073481200,6.424481201171875,-6.548237402117252,-6.558399899691343,6.041672612336278
1761380691083537400,6.434537353515625,-7.031198028948903,-4.757623566645384,4.113033284965157
1761380691093592300,6.44459228515625,-7.396566295579075,-2.4911831940054894,0.9115576491825282
1761380691103648500,6.4546484375,-8.25233556817472,-0.9070154757082461,-0.8185600704029202
1761380691113704400,6.464704345703125,-9.020230157962441,0.8244166874766349,-1.6076206362076102
1761380691123760400,6.474760498046875,-9.07097776390314,1.3793927492052316,-1.831962767817825
1761380691133816600,6.484816650390625,-8.277651211217046,2.168658628323674,-1.5323988064847887
1761380691143871200,6.494871337890625,-6.037334290871024,1.859769204762578,-1.3336713008634746
1761380691153927400,6.504927490234375,-4.095853017583489,1.5285124665707348,-1.480247909617424
1761380691163983400,6.5149833984375,-2.9641666167020797,1.7190812156558035,-2.1093926387540995
1761380691174039300,6.525039306640625,-1.7391057665526866,2.1351976727485655,-2.7004437840789555
1761380691184095500,6.535095458984375,-0.8622802619248628,2.2624252917796372,-2.8204771076917647
1761380691194150400,6.545150390625,-0.3842705354988575,2.3123913919538257,-2.6903584433943033
1761380691204206600,6.55520654296875,-0.07645020247399807,2.972319528019428,-2.645201204806566
1761380691214262500,6.565262451171875,0.35504034936130047,3.7240842362612483,-2.991562865410745
1761380691224318500,6.575318359375,1.2820856366634368,3.705391810750961,-3.6451363717526197
1761380691234374400,6.58537451171875,1.6138263589799404,4.113706069660187,-4.129903755745292
1761380691244429300,6.59542919921875,1.9082301610708237,4.438146698096395,-4.257013593615591
1761380691254485200,6.6054853515625,2.125772257277369,4.1672295700550075,-3.7132086219817397
1761380691264541400,6.61554150390625,1.9335446350693701,3.3573639705002307,-3.077757924568653
1761380691274597400,6.625597412109375,1.1581938840568065,3.427850880655646,-3.3063264417022467
1761380691284653300,6.6356533203125,1.2930723101019859,3.624156127566099,-4.4170062949121
1761380691294709500,6.64570947265625,2.2046996635198592,3.922603067567944,-5.540796389585733
1761380691304764400,6.655764404296875,3.3802678762257097,4.293502664840221,-6.445812800431251
1761380691314820400,6.6658203125,4.44477400728166,4.769896772763133,-7.1986968680918215
1761380691324876300,6.675876220703125,5.3002849212020635,5.384928367003798,-7.68218414914608
1761380691334932200,6.68593212890625,5.553298143762349,5.548516170182824,-7.8194941862523555
1761380691344988400,6.695988525390625,5.301663223817944,5.108085356044769,-7.466182852640747
1761380691355043300,6.706043212890625,4.732973109513521,4.2042964411675925,-6.856259979715943
1761380691365099500,6.716099609375,4.306981739616393,3.9221939022451635,-6.392350674834847
1761380691375155500,6.726155517578125,3.7538866693288084,3.9574914255976674,-6.110110188746452
1761380691385211400,6.73621142578125,2.8098353021681306,3.8699721320986744,-5.652511382186413
1761380691395267600,6.746267578125,2.0730372769117356,3.2190210832148787,-5.169322207295894
1761380691405322200,6.756322265625,2.6565619722545146,1.5669751759558914,-5.00821160788536
1761380691415378400,6.76637841796875,1.3622142353892326,0.2623550514012575,-4.362943280813098
1761380691425434400,6.776434326171875,-1.8349474827170371,-1.0108680643707513,-2.9664854150384663
1761380691435490300,6.786490234375,-5.594473034715652,-2.647594237422943,-0.7162405365265906
1761380691445546500,6.79654638671875,-7.888758861136436,-5.772430139508843,0.36892603217698633
1761380691455602400,6.8066025390625,-10.651424415850638,-9.041087068030238,-2.847335888522863
1761380691465657600,6.81665771484375,-14.712037193226813,-7.0799793032526965,-6.383669355729222
1761380691475713500,6.826713623046875,-16.173452976602317,-4.102642823854088,-6.333446065923571
1761380691485769500,6.83676953125,-14.848482137936353,-2.757906962010264,-5.963613805621862
1761380691495825400,6.846825439453125,-10.733047052526473,-1.175330312296748,-5.476743896391987
1761380691505881300,6.85688134765625,-7.381932790070771,0.04491933817863464,-4.080066542647779
1761380691515936300,6.866936279296875,-6.051500763389468,-0.8955091623097657,-2.192596261011064
1761380691525992400,6.876992431640625,-3.8401545014619827,-2.517047703102231,-0.6298369491845369
1761380691536048400,6.88704833984375,-0.9558172082781791,-2.735470089274645,0.9991542457014322
1761380691546104300,6.897104248046875,0.78563366009593,-2.23634743219316,2.4430643291331826
1761380691556157000,6.907156982421875,0.8564777131259441,-2.53016028265357,3.3896523751646277
1761380691566211600,6.917211669921875,0.48359892473518845,-2.7198510798603293,3.8611411753892897
1761380691576267800,6.927267822265625,0.16930325821638106,-2.3999738138169047,3.974556834428012
1761380691586323700,6.93732373046875,-0.3939730143457651,-1.581305314603448,4.107242426604032
1761380691596379600,6.947379638671875,0.5455974080085754,-1.7612275819897651,4.120530070461332
1761380691606435800,6.957435791015625,1.4915741902738808,-0.6328302857816219,4.292083445692062
1761380691616490800,6.96749072265625,2.8204619101226327,1.088982400664687,4.63418540302515
1761380691626547000,6.977546875,4.232061230927705,2.22372117485404,4.711936751225591
1761380691636603000,6.987602783203125,5.040337515464425,3.341087373960018,4.330274352398514
1761380691646658600,6.997658447265625,5.30452504298985,4.057033165323734,4.233897214183211
1761380691656714800,7.00771484375,4.525416400748491,4.08481081456542,5.168273575025797
1761380691666770700,7.017770751953125,3.2576328456819055,4.312984779423475,6.369179058083891
1761380691676825900,7.027825927734375,2.1567606852591035,4.601513552001118,7.104383092147112
1761380691686881800,7.0378818359375,1.0184078122258187,4.737411384221911,7.552787369382381
1761380691696937700,7.047937744140625,0.7197317396432161,4.898254857128858,8.027484610259533
1761380691706994000,7.057993896484375,1.2716612732827663,4.639889167624712,8.462547759884595
1761380691717049900,7.0680498046875,2.079872091367841,4.439066151028872,8.617785083347558
1761380691727104800,7.078104736328125,3.187807614305615,4.219304040685296,8.689681860300897
1761380691737160700,7.08816064453125,3.0766099235773083,4.0401135947048665,8.57645120244026
1761380691747216600,7.098216552734375,2.449707858800888,3.9638901867240666,8.298954696008563
1761380691757272800,7.10827294921875,1.0242156217217444,4.137948530513048,7.426176420944929
1761380691767328800,7.118328857421875,0.27774492823481556,4.190382482105493,5.801317795819044
1761380691777383700,7.1283837890625,-0.6412567533433436,4.577382734829187,3.841440449619293
1761380691787439900,7.13843994140625,-1.9209189622521399,4.733856906610727,1.958460611269623
1761380691797495800,7.148495849609375,-0.5199620314925909,2.120686916837096,0.5144416606359183
1761380691807551700,7.1585517578125,0.7776742255240678,-0.03505377772450447,-0.060413332973793143
1761380691817608000,7.16860791015625,-0.024281623819470403,-0.3515864095151424,-0.25461415495090184
1761380691827663600,7.17866357421875,-1.8366753294229505,-3.959288245886564,0.35577246302813287
1761380691837718800,7.18871875,-5.740485433715581,-6.136180449548363,1.13174616824463
1761380691847774700,7.198774658203125,-8.010770206823944,-4.055922573733329,-0.49170459937732663
1761380691857830700,7.20883056640625,-9.315693698239325,-2.1602111179739234,-1.8058175420835614
1761380691867886800,7.218886962890625,-11.632875247079133,-0.9216513193041086,-1.8494326657958327
1761380691877942800,7.22894287109375,-14.020728999513388,0.37392274448573587,-0.921042539756
1761380691887998000,7.238998046875,-14.600080208563805,1.426041687655449,0.43679099633097646
1761380691898054000,7.249053955078125,-13.893402596282959,1.2405284683942794,0.9878139365196228
1761380691908109600,7.259109619140625,-11.2724298238039,0.2755003641784191,0.3906456234887242
1761380691918165800,7.269165771484375,-7.010144135004282,-0.34957799230217934,-0.8297703234642744
1761380691928221700,7.2792216796875,-4.431615250501037,0.4226145869404077,-1.6881597154304384
1761380691938276900,7.28927685546875,-2.360100068590045,-0.309568637996912,-2.3936985329397023
1761380691948332800,7.299332763671875,-1.207419979518652,-0.5259340916395187,-2.867907259647548
1761380691958388700,7.309388671875,-1.1315116288363933,0.2761789940923452,-3.272899096135795
1761380691968445000,7.31944482421875,-1.2431810287296772,0.8346049040138721,-3.3247400502711533
1761380691978500900,7.3295009765625,-1.0430646990984678,0.9963818583786487,-3.5713472051814197
1761380691988556800,7.339556884765625,-0.20474048230051994,0.959463455826044,-4.061117804288864
1761380691998611700,7.34961181640625,1.0702034659147261,1.0828016662031412,-4.295705435581505
1761380692008667600,7.359667724609375,2.028813519781828,1.3924813633590936,-4.198095832961798
1761380692018723800,7.369723876953125,2.9825556753516196,2.467621116632223,-4.204827771565318
1761380692028779800,7.37977978515625,3.6972242863863705,3.2146482749581335,-4.5140188084214925
1761380692038835700,7.389835693359375,3.262128403535485,3.0564573623865843,-5.492752781906724
1761380692048891000,7.399890869140625,2.139370574519038,2.7008897742807862,-6.63649260867536
1761380692058946800,7.40994677734375,1.3277093237191437,2.4611247403502463,-7.3373589043289416
1761380692069002800,7.420002685546875,0.7049918511509895,2.4335551809012888,-7.822342561420798
1761380692079059000,7.430058837890625,0.6655740329980849,2.4694512546688316,-7.951960290458798
1761380692089114600,7.440114501953125,0.22592414010465145,3.4183132369816303,-6.964675346249342
1761380692099170600,7.450170654296875,-0.7942284699618816,4.106795851880312,-5.795665469145774
1761380692109225700,7.460225830078125,-1.0770452946335076,3.359312181958556,-4.974283619320392
1761380692119281700,7.47028173828125,-0.186508075517416,3.9265924294650554,-4.720090247064829
1761380692129337900,7.480337890625,2.085043356525898,4.408085321831703,-4.499597484359145
1761380692139393800,7.490393798828125,3.861322961696982,4.93264227989912,-3.779079855035245
1761380692149449700,7.50044970703125,4.198765110525488,3.735912621220946,-3.540435641828179
1761380692159504600,7.510504638671875,4.069724889114499,0.6371417192399501,-3.495337732212245
1761380692169560600,7.520560546875,3.0464193679749965,-1.2376397612154484,-2.57603940577507
1761380692179616800,7.53061669921875,0.43387189401388165,-0.5502548784255981,-0.750599756115675
1761380692189672700,7.540672607421875,-2.4930308676987885,-1.9004612806349992,-0.6285645911611616
1761380692199728600,7.550728759765625,-6.359230495521426,-5.8675359426140785,-3.5584377469867468
1761380692209784800,7.560784912109375,-11.692843685829638,-3.1421681451588865,-3.978137907785177
1761380692219839700,7.57083984375,-14.077059374022483,0.23205577472746372,-3.2237849366158247
1761380692229896000,7.58089599609375,-14.542635735332965,1.6496376770734786,-3.0623680477350947
1761380692239952000,7.590951904296875,-14.49624340199232,2.8682997660964724,-2.7284336147665975
1761380692250007800,7.6010078125,-10.530247182899712,3.2840678481429815,-2.775611837787926
1761380692260063700,7.611063720703125,-6.943863444367051,4.080888088163733,-2.965248274458945
1761380692270118700,7.62111865234375,-5.846500168848038,2.9471470928400754,-2.166135831847787
1761380692280174800,7.6311748046875,-4.525495311203598,0.7164502337545156,-0.42130102012380954
1761380692290230800,7.641230712890625,-3.2733021239787337,-0.4725000230938196,1.2268015563368797
1761380692300286700,7.65128662109375,-2.354946923610568,-0.8845803565382957,1.8248134805850684
1761380692310343000,7.661343017578125,-2.3831413369596004,-0.30477263589203357,1.9877723382107912
