time,seconds_elapsed,z,y,x
1761380684723243000,0.074242919921875,0.40217113494873047,-1.7556955814361572,-0.8721104264259338
1761380684733298700,0.084298583984375,0.1998036652803421,-1.695719599723816,-0.37669533491134644
1761380684743353900,0.094353759765625,0.007963118143379688,-1.5262479782104492,0.14837269484996796
1761380684753409800,0.104409912109375,-0.13119210302829742,-1.1978083848953247,0.48619920015335083
1761380684763466000,0.114466064453125,-0.19533194601535797,-0.8474721908569336,0.5698125958442688
1761380684773522000,0.12452197265625,-0.17777079343795776,-0.6043423414230347,0.5213657021522522
1761380684783577900,0.134577880859375,-0.12324390560388565,-0.5579473972320557,0.3567655682563782
1761380684793633000,0.144633056640625,-0.06125669926404953,-0.7051704525947571,0.11567333340644836
1761380684803689000,0.15468896484375,0.00418489146977663,-0.8922617435455322,-0.10245766490697861
1761380684813745000,0.164744873046875,0.06015494838356972,-1.0574365854263306,-0.24000221490859985
1761380684823800800,0.17480078125,0.055146608501672745,-1.253434658050537,-0.3254987299442291
1761380684833856800,0.184856689453125,0.05669816583395004,-1.4777488708496094,-0.3094233572483063
1761380684843912000,0.194911865234375,0.07344252616167068,-1.6006375551223755,-0.2559193968772888
1761380684853968000,0.2049677734375,0.020049873739480972,-1.522890329360962,-0.22176195681095123
1761380684864023800,0.21502392578125,-0.09124495834112167,-1.2762914896011353,-0.1998545229434967
1761380684874080000,0.225080078125,-0.24150051176548004,-0.9272785782814026,-0.1737036108970642
1761380684884135000,0.235135009765625,-0.4372817277908325,-0.536628007888794,-0.12265880405902863
1761380684894190800,0.24519091796875,-0.6440607309341431,-0.09426924586296082,-0.065984345972538
1761380684904246800,0.255246826171875,-0.81381756067276,0.29805779457092285,0.023492543026804924
1761380684914302700,0.265302734375,-0.9356715679168701,0.7465271949768066,0.19274760782718658
1761380684924359000,0.27535888671875,-0.9971340894699097,1.1490871906280518,0.42587780952453613
1761380684934413800,0.285413818359375,-0.9677495956420898,1.3923884630203247,0.639207661151886
1761380684944470000,0.295469970703125,-0.8355382680892944,1.6132071018218994,0.7763314247131348
1761380684954526000,0.30552587890625,-0.6952240467071533,1.6775379180908203,0.7748472690582275
1761380684964582000,0.315581787109375,-0.5654628872871399,1.5697627067565918,0.6389690637588501
1761380684974638000,0.32563818359375,-0.4751628041267395,1.3334213495254517,0.4641208052635193
1761380684984692700,0.335692626953125,-0.37697017192840576,1.0420557260513306,0.2683566212654114
1761380684994749000,0.3457490234375,-0.23701786994934082,0.8055974245071411,0.16161419451236725
1761380685004804900,0.355804931640625,-0.11446133255958557,0.6883105039596558,0.19462993741035461
1761380685014860800,0.36586083984375,-0.0015552861150354147,0.6691474318504333,0.31998467445373535
1761380685024917000,0.3759169921875,0.1658342480659485,0.7427886724472046,0.5393857359886169
1761380685034972000,0.385971923828125,0.26542261242866516,0.8516935706138611,0.6614083051681519
1761380685045028000,0.396028076171875,0.2318156510591507,1.0641411542892456,0.7000446319580078
1761380685055084000,0.406083984375,0.04277489334344864,1.3485398292541504,0.6888439059257507
1761380685065140000,0.416139892578125,-0.24428990483283997,1.6853351593017578,0.6076478958129883
1761380685075196000,0.42619580078125,-0.45300769805908203,1.9835865497589111,0.6086641550064087
1761380685085250800,0.436250732421875,-0.43598848581314087,1.8189514875411987,0.6859541535377502
1761380685095306800,0.446306640625,-0.21922582387924194,1.3844122886657715,0.7031559944152832
1761380685105363000,0.456363037109375,0.17739155888557434,0.8798003196716309,0.4211653470993042
1761380685115419000,0.4664189453125,0.7607426047325134,0.8446553349494934,0.15433338284492493
1761380685125474800,0.476474853515625,1.1840821504592896,1.2853717803955078,0.19390076398849487
1761380685135530000,0.486530029296875,1.0465562343597412,1.8444081544876099,0.37873318791389465
1761380685145585700,0.496585693359375,0.7111601233482361,2.6046977043151855,0.5858155488967896
1761380685155641900,0.506641845703125,0.3959582448005676,3.0005342960357666,0.6480099558830261
1761380685165697800,0.51669775390625,0.16914774477481842,3.027022123336792,0.5890582203865051
1761380685175753700,0.526753662109375,0.07984929531812668,2.891050338745117,0.553734302520752
1761380685185809000,0.536808837890625,0.055328767746686935,2.6965034008026123,0.6839101314544678
1761380685195864800,0.54686474609375,0.041669681668281555,2.2482571601867676,0.9038273096084595
1761380685205921000,0.556921142578125,0.10395409911870956,1.6303874254226685,0.967003345489502
1761380685215977000,0.56697705078125,0.2856264114379883,0.9943788051605225,0.8043984770774841
1761380685226033000,0.577032958984375,0.5586718320846558,0.43376556038856506,0.4801029562950134
1761380685236087800,0.587087890625,0.8542645573616028,-0.030557909980416298,-0.07719598710536957
1761380685246143700,0.597143798828125,1.1130341291427612,-0.2958577573299408,-0.7646952867507935
1761380685256200000,0.607199951171875,1.2148706912994385,-0.3245812654495239,-1.3644527196884155
1761380685266256000,0.617255859375,1.1757214069366455,-0.19827048480510712,-1.7008056640625
1761380685276311800,0.627311767578125,1.111562728881836,-0.06157920882105827,-1.7348110675811768
1761380685286367000,0.637366943359375,1.015560507774353,0.14644482731819153,-1.5149292945861816
1761380685296423000,0.6474228515625,0.7799338698387146,0.35918372869491577,-1.1344972848892212
1761380685306479000,0.65747900390625,0.38327866792678833,0.3783678114414215,-0.6850894093513489
1761380685316535000,0.66753515625,0.02954723872244358,0.31888052821159363,-0.19467760622501373
1761380685326590700,0.6775908203125,-0.2510221004486084,0.1553480476140976,0.14035151898860931
1761380685336646000,0.68764599609375,-0.40035805106163025,-0.16242006421089172,0.2423175573348999
1761380685346701800,0.697701904296875,-0.42107880115509033,-0.020126307383179665,0.13274766504764557
1761380685356757800,0.7077578125,-0.26946768164634705,0.1264149248600006,-0.05648830905556679
1761380685366814000,0.71781396484375,-0.13405713438987732,-0.16396097838878632,-0.14434252679347992
1761380685376870000,0.727869873046875,0.010922955349087715,-0.3578747808933258,-0.05193643271923065
1761380685386925000,0.737925048828125,0.23296959698200226,-0.559931218624115,0.113775834441185
1761380685396981000,0.74798095703125,0.4697616398334503,-0.9115734100341797,0.3168405294418335
1761380685407036700,0.75803662109375,0.5956223607063293,-1.4637305736541748,0.5991947054862976
1761380685417092900,0.7680927734375,0.5416914820671082,-2.022717237472534,0.9218553304672241
1761380685427148800,0.778148681640625,0.2942574620246887,-2.535529375076294,1.1311211585998535
1761380685437204000,0.788203857421875,-0.09216934442520142,-2.865633249282837,1.1119078397750854
1761380685447260000,0.798260009765625,-0.46898478269577026,-2.7216193675994873,0.8623645901679993
1761380685457315800,0.80831591796875,-0.8490453362464905,-2.0535125732421875,0.5253798961639404
1761380685467372000,0.8183720703125,-1.2404098510742188,-1.3746886253356934,0.2070181667804718
1761380685477428000,0.828427978515625,-1.3931427001953125,-1.3241112232208252,0.05403580516576767
1761380685487483000,0.83848291015625,-1.2342952489852905,-2.1181623935699463,-0.05778074264526367
1761380685497538800,0.848538818359375,-0.811665952205658,-3.0659067630767822,-0.48745620250701904
1761380685507594800,0.8585947265625,-0.2903343439102173,-3.391730308532715,-1.2201565504074097
1761380685517651000,0.86865087890625,0.11608772724866867,-3.570108652114868,-1.69218909740448
1761380685527707000,0.878706787109375,0.23927676677703857,-3.7110512256622314,-1.7802821397781372
1761380685537762000,0.888761962890625,0.01697472296655178,-3.6091268062591553,-1.5513163805007935
1761380685547821600,0.898821533203125,-0.35640525817871094,-3.471522808074951,-1.274074673652649
1761380685557877500,0.90887744140625,-0.6299675703048706,-3.2647547721862793,-1.1947846412658691
1761380685567933400,0.918933349609375,-0.6582244634628296,-2.825767755508423,-1.0934507846832275
1761380685577989600,0.92898974609375,-0.6936889886856079,-2.279442548751831,-0.9866101145744324
1761380685588044300,0.939044189453125,-0.7133580446243286,-1.70790433883667,-0.872996985912323
1761380685598100500,0.9491005859375,-0.5876057147979736,-1.2318366765975952,-0.717967689037323
1761380685608156400,0.959156494140625,-0.3351183533668518,-1.0049760341644287,-0.5536738634109497
1761380685618212400,0.96921240234375,-0.05979355797171593,-0.9385112524032593,-0.48990899324417114
1761380685628268500,0.9792685546875,0.1889616698026657,-0.8391916155815125,-0.6222236156463623
1761380685638323500,0.989323486328125,0.4229333996772766,-0.7724069952964783,-0.8690712451934814
1761380685648379600,0.999379638671875,0.5619264245033264,-0.9016408920288086,-1.1110119819641113
1761380685658435600,1.009435546875,0.6029859781265259,-1.1090627908706665,-1.2937647104263306
1761380685668491500,1.019491455078125,0.5458428263664246,-1.1814740896224976,-1.333248496055603
1761380685678547700,1.029547607421875,0.3338831663131714,-1.0216519832611084,-1.2247440814971924
1761380685688602400,1.039602294921875,-0.004170776344835758,-0.6990057229995728,-1.0830085277557373
1761380685698658600,1.049658447265625,-0.42847970128059387,-0.32316526770591736,-0.96922367811203
1761380685708714500,1.059714599609375,-0.7115691900253296,0.2588379383087158,-0.8143302202224731
1761380685718770400,1.0697705078125,-0.9285121560096741,0.6107954382896423,-0.5999449491500854
1761380685728826600,1.07982666015625,-1.1744470596313477,0.6882284879684448,-0.21771740913391113
1761380685738881500,1.089881591796875,-1.34701406955719,0.5265607237815857,0.38957732915878296
1761380685748937700,1.099937744140625,-1.3906300067901611,0.09938491135835648,1.1006221771240234
1761380685758993700,1.10999365234375,-1.371669054031372,-0.3044680058956146,1.6666450500488281
1761380685769049300,1.12004931640625,-1.2813397645950317,-0.3525135815143585,1.921353816986084
1761380685779104500,1.1301044921875,-1.0821465253829956,-0.009019860066473484,1.9532300233840942
1761380685789160400,1.140160400390625,-0.7694293260574341,0.5006521940231323,1.8421181440353394
1761380685799216400,1.15021630859375,-0.49069806933403015,1.0111298561096191,1.6647313833236694
1761380685809272600,1.1602724609375,-0.3080555498600006,1.553525447845459,1.5289170742034912
1761380685819328500,1.17032861328125,-0.17749355733394623,2.1484367847442627,1.415685772895813
1761380685829383700,1.1803837890625,-0.10265687108039856,2.624451160430908,1.2895652055740356
1761380685839439600,1.190439697265625,-0.05379185825586319,2.9531619548797607,1.2407838106155396
1761380685849495300,1.200495361328125,-0.02449469082057476,2.928199052810669,1.4523199796676636
1761380685859551500,1.210551513671875,-0.06643601506948471,2.5007705688476562,1.6768271923065186
1761380685869607400,1.220607421875,0.012288091704249382,2.1378703117370605,1.7677022218704224
1761380685879662600,1.23066259765625,0.3425743877887726,1.7793498039245605,1.5996079444885254
1761380685889718500,1.240718505859375,0.8296955823898315,1.43388831615448,1.3530235290527344
1761380685899774500,1.2507744140625,1.2156025171279907,1.3754390478134155,1.5107601881027222
1761380685909830700,1.26083056640625,1.187342643737793,1.849688172340393,1.904188871383667
1761380685919886600,1.270886474609375,0.8350799679756165,2.180424213409424,2.1101737022399902
1761380685929942500,1.280942626953125,0.46792885661125183,2.358527898788452,2.0428919792175293
1761380685939997400,1.29099755859375,0.17149558663368225,2.542806625366211,1.6690694093704224
1761380685950053400,1.301053466796875,-0.04073251411318779,2.826035737991333,1.1007286310195923
1761380685960109600,1.311109619140625,-0.0669819638133049,3.031200408935547,0.4408314526081085
1761380685970165500,1.32116552734375,0.05661454424262047,3.1280622482299805,-0.16153882443904877
1761380685980220700,1.331220703125,0.1694830358028412,3.2443718910217285,-0.5198801755905151
1761380685990276600,1.341276611328125,0.2188604474067688,3.2903807163238525,-0.6441595554351807
1761380686000332500,1.35133251953125,0.33434203267097473,3.2662506103515625,-0.6037564873695374
1761380686010388700,1.361388671875,0.3077690005302429,2.914414167404175,-0.6999348998069763
1761380686020444700,1.371444580078125,0.20227773487567902,2.510282039642334,-0.8784913420677185
1761380686030499600,1.38149951171875,0.04069096967577934,2.257408857345581,-1.163213849067688
1761380686040555500,1.391555419921875,-0.1303311139345169,2.18658447265625,-1.4003857374191284
1761380686050611500,1.401611572265625,-0.17724081873893738,2.253457546234131,-1.3900598287582397
1761380686060667400,1.41166748046875,-0.18238365650177002,2.2564690113067627,-1.136968970298767
1761380686070723600,1.4217236328125,-0.21313171088695526,2.1746573448181152,-0.7538908123970032
1761380686080778500,1.431778564453125,-0.26144519448280334,2.0579652786254883,-0.35518231987953186
1761380686090834700,1.441834716796875,-0.30994853377342224,1.8711180686950684,-0.05301634594798088
1761380686100890400,1.451890380859375,-0.21445131301879883,1.6830586194992065,0.1513274759054184
1761380686110946300,1.4619462890625,-0.11379234492778778,1.349841833114624,0.08023571968078613
1761380686121002500,1.47200244140625,-0.0027358653023838997,1.0339200496673584,-0.17277950048446655
1761380686131057400,1.482057373046875,0.14051850140094757,0.6384121775627136,-0.46033909916877747
1761380686141113600,1.492113525390625,0.41847261786460876,0.275257408618927,-0.5753719806671143
1761380686151169500,1.50216943359375,0.5591849684715271,-0.40582260489463806,-0.6167023777961731
1761380686161225500,1.5122255859375,0.5648511648178101,-1.036182165145874,-0.4959423840045929
1761380686171281700,1.52228173828125,0.5522791743278503,-1.4926471710205078,-0.21255886554718018
1761380686181336300,1.53233642578125,0.6150757074356079,-1.8965197801589966,0.0850890651345253
1761380686191392500,1.542392578125,0.7526878714561462,-2.3342933654785156,0.2617306709289551
1761380686201448400,1.552448486328125,0.7372967004776001,-2.793241500854492,0.22056512534618378
1761380686211504400,1.56250439453125,0.6815716028213501,-2.9450745582580566,-0.1585904359817505
1761380686221560600,1.572560546875,0.3978094160556793,-2.8084871768951416,-0.8904438614845276
1761380686231615500,1.582615478515625,-0.26817819476127625,-2.3412890434265137,-1.4893871545791626
1761380686241671700,1.592671630859375,-1.00800359249115,-1.4652949571609497,-1.6751184463500977
1761380686251727600,1.6027275390625,-1.6095985174179077,-1.173359751701355,-1.732469081878662
1761380686261783600,1.612783447265625,-1.7656925916671753,-1.6161919832229614,-1.8573005199432373
1761380686271839700,1.62283984375,-1.4746516942977905,-2.1409027576446533,-2.187509059906006
1761380686281894400,1.632894287109375,-0.8738062977790833,-2.9556398391723633,-2.314347982406616
1761380686291950600,1.64295068359375,-0.23170113563537598,-4.18576192855835,-1.9358304738998413
1761380686302006500,1.653006591796875,0.2542210817337036,-5.164353370666504,-1.086012601852417
1761380686312062500,1.6630625,0.38822150230407715,-5.280824661254883,-0.12124466896057129
1761380686322117600,1.67311767578125,0.14836923778057098,-4.569823741912842,0.546249508857727
1761380686332173600,1.683173583984375,-0.33002957701683044,-3.4924309253692627,0.9432626366615295
1761380686342229500,1.6932294921875,-0.9671404957771301,-2.7141165733337402,1.0470359325408936
1761380686352285700,1.70328564453125,-1.5044766664505005,-2.368304967880249,0.7853811383247375
1761380686362341400,1.71334130859375,-1.7694785594940186,-2.2033143043518066,0.29368194937705994
1761380686372396500,1.723396484375,-1.8664655685424805,-1.9805747270584106,-0.2279367595911026
1761380686382452500,1.733452392578125,-1.6905789375305176,-1.4596823453903198,-0.6884833574295044
1761380686392508400,1.74350830078125,-1.3403072357177734,-1.0747090578079224,-1.1829314231872559
1761380686402564600,1.753564697265625,-0.9191506505012512,-1.0783005952835083,-1.6550403833389282
1761380686412620500,1.76362060546875,-0.4080237150192261,-1.326375126838684,-2.0063517093658447
1761380686422675700,1.77367578125,0.13294526934623718,-1.6422758102416992,-2.2102773189544678
1761380686432731600,1.783731689453125,0.653996467590332,-1.7902774810791016,-2.248119592666626
1761380686442787300,1.793787353515625,0.9413020014762878,-1.6695133447647095,-2.1138017177581787
1761380686452843500,1.803843505859375,0.7680716514587402,-1.407287836074829,-1.76021146774292
1761380686462899500,1.8138994140625,0.33471086621284485,-1.2475486993789673,-1.2325471639633179
1761380686472954600,1.82395458984375,-0.11540675163269043,-0.9029740691184998,-0.5405521988868713
1761380686483010600,1.834010498046875,-0.5397875905036926,-0.3121597468852997,0.17765973508358002
1761380686493066500,1.84406640625,-0.9282892942428589,0.2850189507007599,0.8400339484214783
1761380686503122700,1.854122802734375,-1.2632451057434082,0.8583914041519165,1.4328941106796265
1761380686513178600,1.8641787109375,-1.4666558504104614,1.4193511009216309,1.940847396850586
1761380686523233500,1.874233642578125,-1.43882155418396,1.665067434310913,2.327218532562256
1761380686533289500,1.88428955078125,-1.1637060642242432,1.5655502080917358,2.620670795440674
1761380686543345400,1.894345458984375,-0.6610351800918579,1.3308169841766357,2.7412092685699463
1761380686553401000,1.904401123046875,-0.01805836334824562,1.2136627435684204,2.5889008045196533
1761380686563456000,1.9144560546875,0.5451157689094543,1.0551753044128418,2.0759785175323486
1761380686573512200,1.92451220703125,0.8705061078071594,1.1955902576446533,1.3457515239715576
1761380686583568100,1.934568115234375,0.926643431186676,1.5309327840805054,0.5555213093757629
1761380686593624000,1.9446240234375,0.7565324306488037,2.1236157417297363,-0.155056431889534
1761380686603680300,1.95468017578125,0.4210510849952698,2.8588762283325195,-0.6342230439186096
1761380686613735000,1.96473486328125,0.07261881232261658,3.4611587524414062,-0.819128692150116
1761380686623791000,1.974791015625,-0.11057338118553162,3.8565802574157715,-0.744343638420105
1761380686633847000,1.984846923828125,-0.03823447227478027,3.6385507583618164,-0.7956963181495667
1761380686643903000,1.994903076171875,0.3905845284461975,2.8389692306518555,-1.1632778644561768
1761380686653959000,2.004958984375,0.9751670360565186,2.297450304031372,-1.541132926940918
1761380686664014000,2.01501416015625,1.2808283567428589,2.737514019012451,-1.5287936925888062
1761380686674070000,2.025070068359375,1.4362413883209229,3.51625657081604,-1.0203856229782104
1761380686684126000,2.0351259765625,1.3137613534927368,3.885816812515259,-0.4243086576461792
1761380686694182000,2.045181884765625,1.2602922916412354,4.006410121917725,0.3592143654823303
1761380686704237800,2.05523779296875,1.4343734979629517,3.9809136390686035,1.159404993057251
1761380686714293000,2.06529296875,1.6423847675323486,3.6844747066497803,1.4373607635498047
1761380686724349000,2.075348876953125,1.670228362083435,3.3737809658050537,1.066801905632019
1761380686734405000,2.085405029296875,1.4951601028442383,2.9542760848999023,0.32821357250213623
1761380686744461000,2.0954609375,1.2833386659622192,2.5556342601776123,-0.3472730219364166
1761380686754517000,2.10551708984375,1.144517183303833,2.167346239089966,-0.6465899348258972
1761380686764572000,2.115572021484375,0.8908673524856567,1.4609427452087402,-0.7720772624015808
1761380686774627800,2.1256279296875,0.7097995281219482,0.8473994731903076,-0.761518120765686
1761380686784684000,2.13568408203125,0.6651039719581604,0.5036881566047668,-0.7033917307853699
1761380686794740000,2.145739990234375,0.6261065006256104,0.43666067719459534,-0.6234588027000427
1761380686804795100,2.155795166015625,0.538937509059906,0.6178206205368042,-0.5535305738449097
1761380686814851000,2.16585107421875,0.3593861162662506,0.8628628253936768,-0.5617600083351135
1761380686824907000,2.175906982421875,0.2653336524963379,1.1309638023376465,-0.5814953446388245
1761380686834963200,2.185963134765625,0.14119334518909454,1.183977723121643,-0.6183881163597107
1761380686845019100,2.19601904296875,0.001814411603845656,1.0079931020736694,-0.5215862393379211
1761380686855074000,2.206073974609375,-0.09453102946281433,0.7224783301353455,-0.22428689897060394
1761380686865130000,2.2161298828125,-0.11969736963510513,0.35367336869239807,0.20083589851856232
1761380686875186000,2.22618603515625,-0.08206317573785782,-0.032942235469818115,0.6784442663192749
1761380686885242000,2.2362421875,-0.033730797469615936,-0.4831352233886719,1.1230454444885254
1761380686895298000,2.246298095703125,-0.017160877585411072,-1.0030932426452637,1.4752618074417114
1761380686905353000,2.25635302734375,-0.03503042086958885,-1.5352598428726196,1.6515204906463623
1761380686915409200,2.2664091796875,-0.06735773384571075,-2.0141143798828125,1.6150431632995605
1761380686925465000,2.276465087890625,-0.09958784282207489,-2.3085975646972656,1.3427224159240723
1761380686935521000,2.28652099609375,-0.10038279742002487,-2.413694143295288,0.7932885885238647
1761380686945577000,2.296576904296875,-0.09420426189899445,-2.3252792358398438,0.04583406820893288
1761380686955631900,2.3066318359375,-0.1882450133562088,-2.0288636684417725,-0.7184937000274658
1761380686965688000,2.31668798828125,-0.3976171314716339,-1.56406569480896,-1.0667136907577515
1761380686975744000,2.326743896484375,-0.7120136618614197,-1.253097653388977,-0.7572887539863586
1761380686985800000,2.336800048828125,-0.9064971804618835,-1.7802222967147827,-0.35390374064445496
1761380686995856100,2.346856201171875,-1.0365155935287476,-2.9051513671875,-0.7884538769721985
1761380687005911000,2.3569111328125,-0.7952728867530823,-3.4944560527801514,-1.640281081199646
1761380687015967200,2.36696728515625,-0.41537749767303467,-4.073287487030029,-2.149454355239868
1761380687026023000,2.37702294921875,-0.23172590136528015,-4.790433883666992,-2.054363250732422
1761380687036078800,2.387078857421875,-0.28992024064064026,-5.169872283935547,-1.5399385690689087
1761380687046134000,2.397134033203125,-0.637035608291626,-5.02250337600708,-0.9075552225112915
1761380687056190000,2.40718994140625,-1.1804852485656738,-4.271305084228516,-0.2808955907821655
1761380687066246100,2.41724609375,-1.5890189409255981,-3.078111171722412,0.45043933391571045
1761380687076302000,2.427302001953125,-1.890496850013733,-1.9963569641113281,0.9578130841255188
1761380687086358000,2.43735791015625,-2.067214012145996,-1.4130117893218994,0.9293143153190613
1761380687096413200,2.4474130859375,-1.9988856315612793,-1.2850569486618042,0.5202335715293884
1761380687106468900,2.45746875,-1.7669498920440674,-1.218334436416626,0.027468908578157425
1761380687116525000,2.467525146484375,-1.4629377126693726,-1.0869841575622559,-0.478677898645401
1761380687126581000,2.4775810546875,-1.1040605306625366,-1.0159571170806885,-1.013927698135376
1761380687136637000,2.487636962890625,-0.6816696524620056,-0.9572545886039734,-1.4841336011886597
1761380687146692000,2.497692138671875,-0.46359962224960327,-1.1063746213912964,-1.9320405721664429
1761380687156748000,2.507748046875,-0.39066335558891296,-1.358665943145752,-2.1591708660125732
1761380687166804000,2.517803955078125,-0.38839754462242126,-1.420740008354187,-2.159796953201294
1761380687176860200,2.527860107421875,-0.5222975611686707,-1.3801823854446411,-2.056735038757324
1761380687186914800,2.537914794921875,-0.8175984621047974,-1.1014623641967773,-1.912379264831543
1761380687196971000,2.547970947265625,-1.292149543762207,-0.729547917842865,-1.6585711240768433
1761380687207027000,2.55802685546875,-1.6698046922683716,-0.2806106209754944,-1.2230924367904663
1761380687217083000,2.568082763671875,-1.9745872020721436,-0.11308927088975906,-0.8004676699638367
1761380687227139000,2.57813916015625,-2.1722121238708496,-0.12107475847005844,-0.4024052321910858
1761380687237194000,2.588194091796875,-2.169260025024414,-0.22029268741607666,0.036622460931539536
1761380687247250200,2.598250244140625,-1.858873963356018,-0.21543028950691223,0.5008686780929565
1761380687257306000,2.60830615234375,-1.3014702796936035,-0.24546168744564056,0.7840309143066406
1761380687267362000,2.618362060546875,-0.722372829914093,-0.26517626643180847,0.8679516315460205
1761380687277418000,2.62841796875,-0.19656045734882355,-0.08628775179386139,0.7734395265579224
1761380687287473000,2.638472900390625,0.20576541125774384,0.34307026863098145,0.5521934032440186
1761380687297529000,2.648529052734375,0.32624974846839905,0.8273365497589111,0.13733042776584625
1761380687307585000,2.6585849609375,0.31803521513938904,1.4589738845825195,-0.4307311475276947
1761380687317641000,2.668640869140625,0.34940460324287415,2.1463711261749268,-0.9278969764709473
1761380687327696100,2.678696044921875,0.4381038546562195,2.482876777648926,-1.037916660308838
1761380687337752000,2.688751953125,0.5969433188438416,2.184704542160034,-0.6596437096595764
1761380687347808000,2.69880810546875,0.8173667192459106,1.6721676588058472,-0.20523570477962494
1761380687357864000,2.708864013671875,1.1536113023757935,1.1628676652908325,-0.215428426861763
1761380687367919900,2.718919921875,1.7139103412628174,0.5427748560905457,-0.7339935302734375
1761380687377975000,2.72897509765625,2.3717076778411865,0.2811376750469208,-1.2016276121139526
1761380687388031000,2.739031005859375,2.7338781356811523,0.860588788986206,-1.1268659830093384
1761380687398087000,2.7490869140625,2.9591784477233887,1.8470138311386108,-0.4625881612300873
1761380687408143000,2.75914306640625,2.7972891330718994,2.6173033714294434,0.14266793429851532
1761380687418199000,2.769198974609375,2.240673780441284,3.2202651500701904,0.5270481109619141
1761380687428254200,2.779254150390625,1.7714636325836182,3.824496030807495,0.8932729363441467
1761380687438310000,2.789309814453125,1.5194282531738281,4.250777721405029,1.004940390586853
1761380687448365800,2.79936572265625,1.3014473915100098,4.5385518074035645,0.5719018578529358
1761380687458422000,2.809422119140625,0.9471108913421631,4.318182945251465,-0.28158268332481384
1761380687468477000,2.819476806640625,0.6988353133201599,3.4654271602630615,-1.1561623811721802
1761380687478533000,2.829533203125,0.7232964634895325,2.2745018005371094,-1.8832272291183472
1761380687488589000,2.839589111328125,0.9510707259178162,1.176424503326416,-2.352952718734741
1761380687498645000,2.84964501953125,1.011009931564331,0.12338584661483765,-2.63700008392334
1761380687508701200,2.859701171875,1.1563056707382202,-0.5541753172874451,-2.509284734725952
1761380687518755800,2.869755859375,1.3734837770462036,-0.7045163512229919,-2.067641496658325
1761380687528812000,2.87981201171875,1.4972251653671265,-0.5068874359130859,-1.4446357488632202
1761380687538868000,2.889867919921875,1.3949073553085327,-0.09024015069007874,-0.8175438642501831
1761380687548921000,2.899921142578125,1.0950193405151367,0.1823684722185135,-0.41699138283729553
1761380687558977000,2.90997705078125,0.7680428624153137,0.31402450799942017,-0.25446051359176636
1761380687569032000,2.920031982421875,0.5015051960945129,0.39963820576667786,-0.23587724566459656
1761380687579088000,2.930087890625,0.3254595994949341,0.4640675485134125,-0.23046356439590454
1761380687589144000,2.94014404296875,0.25108760595321655,0.4968539774417877,-0.05753013864159584
1761380687599200000,2.950199951171875,0.1782621443271637,0.4183679521083832,0.40030187368392944
1761380687609256000,2.960255859375,-0.07305236905813217,0.035784363746643066,1.028176188468933
1761380687619311000,2.97031103515625,-0.3563956618309021,-0.41914692521095276,1.8509496450424194
1761380687629367000,2.980366943359375,-0.751278281211853,-0.8276191353797913,2.645249605178833
1761380687639423200,2.99042333984375,-1.239558458328247,-1.3243920803070068,3.2407476902008057
1761380687649479000,3.00047900390625,-1.7114958763122559,-2.0788490772247314,3.4468631744384766
1761380687659534000,3.0105341796875,-1.985378623008728,-2.872325897216797,3.090471029281616
1761380687669590000,3.020590087890625,-1.9415546655654907,-3.2838194370269775,2.2773818969726562
1761380687679646000,3.03064599609375,-1.5496811866760254,-3.225154399871826,1.2096195220947266
1761380687689702100,3.0407021484375,-1.185603380203247,-2.6791298389434814,0.13712775707244873
1761380687699758000,3.050758056640625,-1.2757734060287476,-2.022933006286621,-0.4847187399864197
1761380687709813000,3.06081298828125,-1.5648356676101685,-1.4785377979278564,-0.5144212245941162
1761380687719869000,3.070868896484375,-1.6027430295944214,-1.2765543460845947,-0.6664413809776306
1761380687729924900,3.0809248046875,-1.5097789764404297,-1.2881840467453003,-1.5697683095932007
1761380687739981000,3.09098095703125,-1.5509555339813232,-1.013687252998352,-2.8980600833892822
1761380687750037000,3.101037109375,-1.6599708795547485,-1.0397937297821045,-3.709024429321289
1761380687760092000,3.111091796875,-1.8096301555633545,-1.9419957399368286,-3.7494096755981445
1761380687770148000,3.121148193359375,-1.784109115600586,-3.093019485473633,-2.956088066101074
1761380687780204000,3.1312041015625,-1.913826584815979,-3.877537488937378,-1.5687552690505981
1761380687790260000,3.141260009765625,-2.2614729404449463,-3.402036190032959,-0.0892220214009285
1761380687800315000,3.15131494140625,-2.4508838653564453,-2.4747555255889893,1.1117101907730103
1761380687810370800,3.161370849609375,-2.3360636234283447,-2.015021324157715,1.8080061674118042
1761380687820427000,3.171427001953125,-2.000850200653076,-2.0529932975769043,1.9046720266342163
1761380687830483000,3.18148291015625,-1.5718495845794678,-2.2964847087860107,1.4929726123809814
1761380687840539000,3.191538818359375,-1.1795220375061035,-2.4437098503112793,0.7477074861526489
1761380687850594000,3.201593994140625,-0.8893948793411255,-2.137585401535034,-0.11380699276924133
1761380687860650000,3.21164990234375,-0.7272155284881592,-1.5974560976028442,-0.8997364640235901
1761380687870706200,3.2217060546875,-0.6820448637008667,-1.1884788274765015,-1.4934303760528564
1761380687880762000,3.23176220703125,-0.6955177783966064,-1.2183687686920166,-1.7440825700759888
1761380687890818000,3.241818115234375,-0.7721800804138184,-1.6934740543365479,-1.5989643335342407
1761380687900873000,3.251873046875,-0.9247235655784607,-2.1324961185455322,-1.0434938669204712
1761380687910929000,3.261928955078125,-1.2602200508117676,-2.3058338165283203,-0.31799501180648804
1761380687920985000,3.271985107421875,-1.4316760301589966,-2.0049355030059814,0.40979257225990295
1761380687931041000,3.282041015625,-1.5227364301681519,-1.7464836835861206,0.754277229309082
1761380687941097000,3.292096923828125,-1.4832621812820435,-1.422764539718628,0.7841216921806335
1761380687951152000,3.302152099609375,-1.2611886262893677,-0.7836660146713257,0.6493377685546875
1761380687961208000,3.3122080078125,-0.9351325035095215,0.010335462167859077,0.44220805168151855
1761380687971264000,3.322263916015625,-0.5392959713935852,0.8504181504249573,0.2565303146839142
1761380687981320000,3.33231982421875,-0.2207009494304657,1.53938889503479,0.06275232881307602
1761380687991374800,3.342374755859375,0.03345303237438202,2.05430006980896,-0.031386684626340866
1761380688001431000,3.35243115234375,0.2908312976360321,2.546607255935669,0.06533639878034592
1761380688011487000,3.362487060546875,0.3903419077396393,2.7419326305389404,0.24572400748729706
1761380688021543000,3.37254296875,0.27422621846199036,2.9420156478881836,0.6651780009269714
1761380688031599000,3.38259912109375,0.1870332658290863,3.1617536544799805,1.200709342956543
1761380688041654000,3.392654052734375,0.24368828535079956,3.3787033557891846,1.7625579833984375
1761380688051710200,3.402710205078125,0.40707722306251526,3.3801379203796387,2.3772621154785156
1761380688061766000,3.412765869140625,0.7237209677696228,3.1780025959014893,2.832383394241333
1761380688071821800,3.42282177734375,1.2197133302688599,2.8198721408843994,2.7244131565093994
1761380688081878000,3.4328779296875,1.743834376335144,2.436387538909912,1.8867220878601074
1761380688091933000,3.442932861328125,2.199406623840332,2.650594711303711,0.7228652834892273
1761380688101989000,3.452989013671875,2.4136297702789307,3.4885144233703613,-0.005532983224838972
1761380688112045000,3.463045166015625,2.374272346496582,4.371799468994141,0.10037720203399658
1761380688122101000,3.47310107421875,2.1708106994628906,5.084405899047852,0.7526324987411499
1761380688132157200,3.4831572265625,1.920737862586975,5.344384670257568,1.5971370935440063
1761380688142211800,3.4932119140625,1.8615336418151855,5.252844333648682,2.321213483810425
1761380688152268000,3.50326806640625,1.744655728340149,4.780488967895508,2.695122003555298
1761380688162324000,3.513323974609375,1.6127102375030518,4.117856502532959,2.924503803253174
1761380688172380000,3.5233798828125,1.4964054822921753,3.306915521621704,3.0502631664276123
1761380688182436000,3.53343603515625,1.3186988830566406,2.6500918865203857,2.911677598953247
1761380688192491000,3.543490966796875,1.0678138732910156,2.233668804168701,2.4046378135681152
1761380688202547200,3.553547119140625,0.780346691608429,1.8158398866653442,1.699965238571167
1761380688212603100,3.56360302734375,0.7302912473678589,1.550753116607666,1.0871667861938477
1761380688222659000,3.5736591796875,0.829657256603241,1.3065500259399414,0.5558685660362244
1761380688232714000,3.5837138671875,0.8488607406616211,0.9447217583656311,0.13118891417980194
1761380688242770000,3.59377001953125,0.993136465549469,0.8777640461921692,-0.05127384141087532
1761380688252825900,3.603825927734375,1.0663923025131226,0.930679440498352,-0.24327176809310913
1761380688262882000,3.613882080078125,0.9045567512512207,1.149444580078125,-0.42230916023254395
1761380688272938000,3.62393798828125,0.7061118483543396,1.3731929063796997,-0.5538219213485718
1761380688282993200,3.6339931640625,0.6766306757926941,1.4136793613433838,-0.6507351398468018
1761380688293049000,3.644049072265625,0.7755132913589478,1.1123137474060059,-0.6999948620796204
1761380688303105000,3.65410498046875,0.8957787156105042,0.5506260991096497,-0.6880140900611877
1761380688313161200,3.6641611328125,0.9255542159080505,-0.08518573641777039,-0.6097485423088074
1761380688323217000,3.674216796875,0.8998794555664062,-0.637786328792572,-0.5297946333885193
1761380688333272000,3.68427197265625,0.8140468597412109,-1.0851025581359863,-0.47369006276130676
1761380688343328000,3.694327880859375,0.6452327966690063,-1.2173460721969604,-0.3786836564540863
1761380688353384000,3.704384033203125,0.531604528427124,-1.1669564247131348,-0.058284610509872437
1761380688363440000,3.714440185546875,0.29127711057662964,-1.5723931789398193,0.3147624731063843
1761380688373496000,3.72449609375,0.04458717629313469,-2.046651601791382,0.7361371517181396
1761380688383551200,3.73455126953125,-0.15138685703277588,-2.553807258605957,1.006901502609253
1761380688393607000,3.74460693359375,-0.3522190451622009,-2.96797513961792,1.0506197214126587
1761380688403662800,3.754662841796875,-0.5479653477668762,-3.1216983795166016,0.8607272505760193
1761380688413719000,3.764718994140625,-0.9279776811599731,-2.958798885345459,0.514216959476471
1761380688423775000,3.77477490234375,-1.502488613128662,-2.6438560485839844,0.13669446110725403
1761380688433830100,3.784830078125,-2.1102535724639893,-2.6956167221069336,0.096730537712574
1761380688443886000,3.794885986328125,-2.6596152782440186,-3.2523579597473145,0.06869783997535706
1761380688453942000,3.80494189453125,-2.923741579055786,-3.6603574752807617,-0.2429865449666977
1761380688463998000,3.814998046875,-2.9971697330474854,-4.292293548583984,-0.6255072951316833
1761380688474054100,3.82505419921875,-2.64269757270813,-5.01222038269043,-0.6958197951316833
1761380688484108800,3.83510888671875,-2.0416460037231445,-5.7232513427734375,-0.5435416102409363
1761380688494165000,3.8451650390625,-1.5774304866790771,-6.216983795166016,-0.2678365111351013
1761380688504221000,3.855220947265625,-1.4278631210327148,-5.980821132659912,0.16299797594547272
1761380688514276900,3.86527685546875,-1.4745800495147705,-5.178472995758057,0.5964141488075256
1761380688524332000,3.87533203125,-1.4422389268875122,-4.202216148376465,0.8583192229270935
1761380688534388000,3.885387939453125,-1.3820610046386719,-3.3446569442749023,0.7467708587646484
1761380688544444200,3.895444091796875,-1.1493271589279175,-2.499516010284424,0.41025063395500183
1761380688554500400,3.905500244140625,-0.795663058757782,-1.8184705972671509,-0.045402903109788895
1761380688564556300,3.915556396484375,-0.46200090646743774,-1.6323853731155396,-0.5760289430618286
1761380688574611500,3.925611572265625,-0.14613483846187592,-1.7664648294448853,-1.103958010673523
1761380688584667400,3.93566748046875,0.16292206943035126,-1.9591704607009888,-1.5620489120483398
1761380688594723600,3.9457236328125,0.46890464425086975,-2.0726840496063232,-1.8824982643127441
1761380688604779500,3.955779541015625,0.478568434715271,-2.0679078102111816,-2.120413064956665
1761380688614835500,3.96583544921875,0.4345759451389313,-1.7506300210952759,-2.112816095352173
1761380688624890400,3.975890380859375,0.29005658626556396,-1.404750943183899,-1.9634722471237183
1761380688634946300,3.9859462890625,-0.04551209136843681,-1.189656376838684,-1.737403392791748
1761380688645002200,3.996002197265625,-0.6150418519973755,-1.1435853242874146,-1.4724225997924805
1761380688655058400,4.006058349609375,-1.2431247234344482,-1.132476806640625,-1.140413761138916
1761380688665111300,4.016111328125,-1.7429680824279785,-0.9734601974487305,-0.7666449546813965
1761380688675166500,4.02616650390625,-2.0353105068206787,-0.6812344789505005,-0.41356360912323
1761380688685222400,4.036222412109375,-2.193457841873169,-0.30873626470565796,-0.08720840513706207
1761380688695278300,4.0462783203125,-2.245345115661621,0.03331747651100159,0.2782193720340729
1761380688705334500,4.05633447265625,-2.1596009731292725,0.2563748061656952,0.6934333443641663
1761380688715390500,4.066390380859375,-1.9594758749008179,0.3468029499053955,1.093564748764038
1761380688725445600,4.076445556640625,-1.495635747909546,0.44137075543403625,1.540433406829834
1761380688735501300,4.086501220703125,-0.8902649283409119,0.591844916343689,1.9332737922668457
1761380688745557200,4.09655712890625,-0.3517204821109772,1.0500963926315308,2.195854902267456
1761380688755613400,4.106613525390625,0.19188182055950165,1.5630241632461548,2.150989055633545
1761380688765669400,4.11666943359375,0.7079739570617676,2.109593152999878,1.7878612279891968
1761380688775724300,4.126724365234375,1.0304832458496094,2.7138831615448,1.1162264347076416
1761380688785780500,4.136780517578125,1.1450623273849487,3.174680471420288,0.3810347020626068
1761380688795836400,4.14683642578125,1.2502422332763672,3.396024703979492,-0.09130727499723434
1761380688805892400,4.156892333984375,1.6545774936676025,3.460070848464966,-0.22749733924865723
1761380688815948500,4.166948486328125,2.09893798828125,3.1336536407470703,-0.36280590295791626
1761380688826003200,4.177003173828125,2.6882011890411377,2.6460256576538086,-0.5324085354804993
1761380688836059400,4.187059326171875,3.371760606765747,2.408808708190918,-0.6348088979721069
1761380688846115300,4.197115234375,3.7805209159851074,2.7792794704437256,-0.5770135521888733
1761380688856171300,4.207171142578125,3.673833131790161,3.2787411212921143,-0.35447925329208374
1761380688866227500,4.2172275390625,3.1140804290771484,3.841421604156494,0.03834259510040283
1761380688876282400,4.227282470703125,2.3426942825317383,4.147792816162109,0.5302625298500061
1761380688886338600,4.237338623046875,1.7937984466552734,4.202508449554443,1.1274499893188477
1761380688896394500,4.24739453125,1.5121183395385742,3.9945106506347656,1.6155835390090942
1761380688906450400,4.257450439453125,1.2612714767456055,3.5299792289733887,1.681952714920044
1761380688916506400,4.26750634765625,1.0873016119003296,3.228955030441284,1.4741387367248535
1761380688926561300,4.277561279296875,0.87464839220047,3.2801055908203125,1.220657467842102
1761380688936617500,4.287617431640625,0.5290878415107727,3.320807456970215,1.0069619417190552
1761380688946673400,4.29767333984375,0.16533009707927704,3.11234712600708,0.7820748090744019
1761380688956729300,4.307729248046875,-0.08531569689512253,2.8040716648101807,0.45477524399757385
1761380688966785500,4.31778564453125,-0.20949169993400574,2.564805269241333,-0.034686073660850525
1761380688976840400,4.32784033203125,-0.2360125333070755,2.460195541381836,-0.5741764903068542
1761380688986896400,4.337896484375,-0.1748703420162201,2.446880340576172,-1.0834871530532837
1761380688996952300,4.347952392578125,-0.09421784430742264,2.437288522720337,-1.5001314878463745
1761380689007008300,4.35800830078125,0.024410801008343697,2.4355995655059814,-1.8066730499267578
1761380689017064400,4.368064453125,0.18064141273498535,2.28281831741333,-1.926368236541748
1761380689027119400,4.378119384765625,0.35578206181526184,1.8434786796569824,-1.8707889318466187
1761380689037175300,4.38817529296875,0.7423561215400696,1.3702483177185059,-1.587304949760437
1761380689047231500,4.3982314453125,1.204069972038269,0.6359990835189819,-1.257324457168579
1761380689057287400,4.408287353515625,1.547397255897522,-0.28787705302238464,-0.9572694897651672
1761380689067343400,4.41834326171875,1.7725387811660767,-1.018983244895935,-0.7019307017326355
1761380689077400300,4.428400390625,1.7607330083847046,-1.4743552207946777,-0.4672577381134033
1761380689087456500,4.43845654296875,1.4469242095947266,-1.6654144525527954,-0.17474357783794403
1761380689097512400,4.448512451171875,0.9248631000518799,-1.5705283880233765,0.2529880404472351
1761380689107568400,4.458568359375,0.3695506155490875,-1.4565120935440063,0.7747045159339905
1761380689117624300,4.468624267578125,-0.011404188349843025,-1.5919373035430908,1.19076406955719
1761380689127679200,4.47867919921875,-0.13485848903656006,-1.9358733892440796,1.2503207921981812
1761380689137735400,4.4887353515625,-0.09253312647342682,-2.1532106399536133,0.8307659029960632
1761380689147791400,4.498791259765625,-0.015393603593111038,-2.1653389930725098,0.06844829767942429
1761380689157847300,4.508847412109375,-0.11600063741207123,-1.5669491291046143,-0.8352088332176208
1761380689167903500,4.518903564453125,-0.48428013920783997,-0.8871021270751953,-1.390500783920288
1761380689177958400,4.52895849609375,-1.1232260465621948,-0.815025269985199,-1.2922523021697998
1761380689188014600,4.5390146484375,-1.8158183097839355,-1.6089301109313965,-0.9811559319496155
1761380689198070300,4.5490703125,-2.0595481395721436,-2.7345361709594727,-0.8703282475471497
1761380689208126200,4.559126220703125,-1.7543749809265137,-3.6244537830352783,-0.941524088382721
1761380689218182400,4.569182373046875,-1.5885423421859741,-4.494336128234863,-1.1419363021850586
1761380689228237300,4.5792373046875,-1.5320848226547241,-5.067778587341309,-1.2203933000564575
1761380689238293500,4.58929345703125,-1.4060355424880981,-5.1911396980285645,-1.180528163909912
1761380689248349400,4.599349365234375,-1.3076224327087402,-4.863652229309082,-1.0189179182052612
1761380689258405400,4.6094052734375,-1.348941683769226,-4.142311096191406,-0.7257611751556396
1761380689268461600,4.619461669921875,-1.5125758647918701,-3.607743501663208,-0.512121856212616
1761380689278516200,4.62951611328125,-1.5445146560668945,-3.299910306930542,-0.509046196937561
1761380689288572400,4.639572509765625,-1.4324709177017212,-3.048468828201294,-0.7393893599510193
1761380689298628400,4.64962841796875,-1.1459448337554932,-2.6446378231048584,-1.0290955305099487
1761380689308684300,4.659684326171875,-0.9121768474578857,-2.218419313430786,-1.4271235466003418
1761380689318740500,4.669740478515625,-0.7645344138145447,-2.049079418182373,-1.8055254220962524
1761380689328795400,4.67979541015625,-0.5357012152671814,-2.1104936599731445,-2.119534730911255
1761380689338851300,4.689851318359375,-0.3336794376373291,-2.0866496562957764,-2.333638906478882
1761380689348907500,4.699907470703125,-0.29423055052757263,-2.015024185180664,-2.4592299461364746
1761380689358963500,4.70996337890625,-0.2419537752866745,-2.032144546508789,-2.5393855571746826
1761380689369019400,4.720019287109375,-0.45368626713752747,-1.6447826623916626,-2.096869707107544
1761380689379074300,4.73007421875,-0.7619021534919739,-1.2265353202819824,-1.2284411191940308
1761380689389130200,4.740130126953125,-1.0226596593856812,-0.9006326198577881,-0.20539842545986176
1761380689399186400,4.7501865234375,-1.1411714553833008,-0.5015208721160889,0.7835320830345154
1761380689409242400,4.760242431640625,-1.148937463760376,-0.31093257665634155,1.4601504802703857
1761380689419298300,4.77029833984375,-0.9716716408729553,0.03596172854304314,1.8316524028778076
1761380689429353500,4.780353515625,-0.8450297713279724,0.5266630053520203,1.7273838520050049
1761380689439409400,4.790409423828125,-0.6538028717041016,1.1071836948394775,1.3423359394073486
1761380689449465300,4.80046533203125,-0.5291091203689575,1.4051647186279297,0.8582430481910706
1761380689459521300,4.810521240234375,-0.4822148382663727,1.4535136222839355,0.45664796233177185
1761380689469577200,4.8205771484375,-0.41494128108024597,1.5280406475067139,0.3685854971408844
1761380689479632400,4.83063232421875,-0.3439589738845825,1.7012510299682617,0.6234449148178101
1761380689489688300,4.840688232421875,-0.21552084386348724,1.960878610610962,1.029759407043457
1761380689499744500,4.85074462890625,0.01333045307546854,2.2329328060150146,1.3873317241668701
1761380689509800400,4.860800537109375,0.28848904371261597,2.3810691833496094,1.5368503332138062
1761380689519856400,4.8708564453125,0.4147969186306,2.2709760665893555,1.2932413816452026
1761380689529911300,4.880911376953125,0.6707954406738281,1.9894593954086304,1.074263572692871
1761380689539967200,4.89096728515625,1.0239436626434326,1.8806287050247192,1.0307294130325317
1761380689550023400,4.9010234375,1.330934762954712,1.768113374710083,0.9550942182540894
1761380689560078800,4.911078857421875,1.585644245147705,1.610167145729065,0.5072991847991943
1761380689570134800,4.921134765625,1.9372621774673462,1.5334668159484863,-0.5701367259025574
1761380689580190000,4.93118994140625,2.402681827545166,1.815017819404602,-1.9602702856063843
1761380689590246000,4.941245849609375,2.807999849319458,2.6499710083007812,-2.9474456310272217
1761380689600302000,4.951302001953125,2.8480656147003174,3.497833728790283,-3.1365230083465576
1761380689610358000,4.96135791015625,2.547319173812866,4.000711917877197,-2.6647696495056152
1761380689620413700,4.97141357421875,2.1931886672973633,4.384123802185059,-1.7895177602767944
1761380689630468900,4.98146875,1.9420247077941895,4.6612138748168945,-0.7746800184249878
1761380689640524800,4.99152490234375,1.8074318170547485,4.4678053855896,0.19497108459472656
1761380689650581000,5.0015810546875,1.7541173696517944,3.7978157997131348,1.0199592113494873
1761380689660637000,5.011636962890625,1.6154077053070068,3.0996222496032715,1.4666422605514526
1761380689670692900,5.02169287109375,1.385260820388794,2.6775715351104736,1.4203498363494873
1761380689680748000,5.031748046875,1.0995010137557983,2.3993959426879883,1.0866788625717163
1761380689690804000,5.041803955078125,0.8248129487037659,2.0283310413360596,0.7365638017654419
1761380689700860000,5.05185986328125,0.6279696226119995,1.505710244178772,0.398505300283432
1761380689710915800,5.061915771484375,0.5284579992294312,0.973263680934906,0.05344405025243759
1761380689720971800,5.0719716796875,0.5081135630607605,0.6058206558227539,-0.228241965174675
1761380689731027000,5.08202685546875,0.5607810020446777,0.5153403282165527,-0.37859469652175903
1761380689741083000,5.092082763671875,0.6435584425926208,0.5778148770332336,-0.4521206021308899
1761380689751138800,5.102138916015625,0.667219877243042,0.6443531513214111,-0.5167720317840576
1761380689761195000,5.112195068359375,0.6456360220909119,0.616344690322876,-0.6329697370529175
1761380689771251000,5.1222509765625,0.6216291785240173,0.4069057106971741,-0.6950885057449341
1761380689781305900,5.132305908203125,0.5771554708480835,-0.06437738984823227,-0.669247031211853
1761380689791361800,5.14236181640625,0.5773914456367493,-0.7027624249458313,-0.5464532375335693
1761380689801417700,5.152417724609375,0.599746823310852,-1.3116321563720703,-0.39419764280319214
1761380689811474000,5.162473876953125,0.5674279928207397,-1.7094730138778687,-0.22837431728839874
1761380689821529900,5.17252978515625,0.4275137782096863,-1.8234421014785767,-0.026564499363303185
1761380689831585800,5.182585693359375,0.1866612285375595,-1.624576449394226,0.20206041634082794
1761380689841641000,5.192640869140625,-0.1347586065530777,-1.318911075592041,0.4313886761665344
1761380689851697000,5.20269677734375,-0.3507569432258606,-1.031245470046997,0.6487258076667786
1761380689861753000,5.212753173828125,-0.5997313857078552,-1.0088768005371094,0.7356452345848083
1761380689871809000,5.22280908203125,-0.8360562920570374,-1.2369030714035034,0.7543350458145142
1761380689881864000,5.232864013671875,-1.0245553255081177,-1.6132241487503052,0.6918959021568298
1761380689891920000,5.242919921875,-1.185532569885254,-1.961203694343567,0.48328596353530884
1761380689901975800,5.252975830078125,-1.3353986740112305,-2.07344913482666,0.12041456252336502
1761380689912032000,5.263031982421875,-1.4439246654510498,-1.4956637620925903,-0.28983235359191895
1761380689922088000,5.273087890625,-1.5852171182632446,-0.4250844419002533,-0.5132420063018799
1761380689932143900,5.283143798828125,-1.8227041959762573,0.185636967420578,-0.40705564618110657
1761380689942199000,5.293198974609375,-1.939046025276184,-0.3714398741722107,-0.020784107968211174
1761380689952255000,5.3032548828125,-1.8848732709884644,-1.8550682067871094,0.22932426631450653
1761380689962311000,5.313310791015625,-1.6418774127960205,-3.0522103309631348,0.15841440856456757
1761380689972366800,5.323366943359375,-1.382577896118164,-3.87955641746521,-0.08738496899604797
1761380689982422800,5.3334228515625,-1.2033733129501343,-4.5484490394592285,-0.3955494463443756
1761380689992478000,5.34347802734375,-1.0855792760849,-4.719510078430176,-0.6400127410888672
1761380690002534000,5.353533935546875,-1.0861371755599976,-4.468789577484131,-0.6118887066841125
1761380690012589800,5.36358984375,-1.2540239095687866,-4.217432498931885,-0.19725501537322998
1761380690022646000,5.37364599609375,-1.4044344425201416,-3.7039082050323486,0.362079918384552
1761380690032702000,5.383701904296875,-1.5176076889038086,-3.1496052742004395,0.7798843383789062
1761380690042756900,5.3937568359375,-1.3483296632766724,-2.6820127964019775,0.972220242023468
1761380690052812800,5.403812744140625,-1.0684882402420044,-2.3740620613098145,0.8189135193824768
1761380690062868700,5.41386865234375,-0.8045029044151306,-2.208109140396118,0.4442664086818695
1761380690072925000,5.423925048828125,-0.6051061749458313,-2.167243480682373,-0.024209465831518173
1761380690082980900,5.43398095703125,-0.4595513343811035,-2.170107126235962,-0.4402066767215729
1761380690093036000,5.4440361328125,-0.35186058282852173,-2.087649345397949,-0.6700678467750549
1761380690103092000,5.454092041015625,-0.4213466942310333,-1.8930952548980713,-0.6979178190231323
1761380690113148000,5.46414794921875,-0.5752062797546387,-1.4965324401855469,-0.5142905116081238
1761380690123204000,5.4742041015625,-0.7652266025543213,-0.9458655714988708,-0.209602490067482
1761380690133259800,5.484259765625,-0.9773537516593933,-0.334881067276001,0.13229519128799438
1761380690143315000,5.49431494140625,-1.1893882751464844,0.13759034872055054,0.45365110039711
1761380690153371000,5.504370849609375,-1.4406614303588867,0.31128278374671936,0.67387855052948
1761380690163426800,5.5144267578125,-1.667373776435852,0.3181212544441223,0.7794808745384216
1761380690173483000,5.52448291015625,-1.7150073051452637,0.2668263614177704,0.8148319721221924
1761380690183539000,5.5345390625,-1.6243921518325806,0.1762714385986328,0.7997919917106628
1761380690193593900,5.54459375,-1.583788514137268,-0.09685730189085007,0.6818861365318298
1761380690203650000,5.554650146484375,-1.3395588397979736,-0.25353720784187317,0.6567818522453308
1761380690213705700,5.564705810546875,-0.9482885599136353,-0.47510528564453125,0.6735914945602417
1761380690223762000,5.574761962890625,-0.5165805220603943,-0.5713937282562256,0.7254016399383545
1761380690233817900,5.58481787109375,0.00006311691686278209,-0.48985278606414795,0.7924219965934753
1761380690243873800,5.594873779296875,0.4707387387752533,-0.4060497581958771,0.7153607606887817
1761380690253929000,5.604928955078125,0.7577279210090637,-0.14272519946098328,0.3083876669406891
1761380690263985000,5.61498486328125,0.8659393191337585,0.47482404112815857,-0.3771086633205414
1761380690274040800,5.625040771484375,0.7414618730545044,1.475229263305664,-0.9332137107849121
1761380690284097000,5.635096923828125,0.5664237141609192,2.5609049797058105,-0.8887349367141724
1761380690294153000,5.645153076171875,0.6126647591590881,3.1085143089294434,-0.5322460532188416
1761380690304208000,5.655207763671875,0.9541219472885132,2.8086259365081787,-0.5903591513633728
1761380690314263800,5.665263916015625,1.5800055265426636,2.141758918762207,-1.4408713579177856
1761380690324319700,5.67531982421875,2.3653132915496826,1.9332871437072754,-2.3841631412506104
1761380690334376000,5.6853759765625,2.7213518619537354,2.0350358486175537,-2.997133731842041
1761380690344431900,5.695431884765625,2.532433032989502,2.3603906631469727,-3.0505878925323486
1761380690354487000,5.705487060546875,2.168020009994507,2.602665424346924,-2.4217259883880615
1761380690364543000,5.71554296875,1.9141778945922852,2.4019792079925537,-0.9744653105735779
1761380690374599000,5.725598876953125,1.6803505420684814,2.3316783905029297,0.6429557800292969
1761380690384655000,5.735655029296875,1.3281463384628296,2.6324920654296875,1.4862867593765259
1761380690394710800,5.745710693359375,0.9554257988929749,2.867090940475464,1.492871642112732
1761380690404766000,5.755765869140625,0.7614778876304626,3.1003308296203613,1.0390701293945312
1761380690414822000,5.76582177734375,0.7265912890434265,3.343390703201294,0.41273510456085205
1761380690424877800,5.7758779296875,0.6870231032371521,3.249326229095459,-0.32164913415908813
1761380690434934000,5.78593408203125,0.9162826538085938,3.028416872024536,-1.005331039428711
1761380690444990000,5.795989990234375,1.1630237102508545,2.664583921432495,-1.56882905960083
1761380690455044900,5.806044921875,1.3053457736968994,2.2264931201934814,-1.867177963256836
1761380690465101000,5.81610107421875,1.4283875226974487,1.8755077123641968,-1.8241732120513916
1761380690475156700,5.82615673828125,1.4049413204193115,1.5926874876022339,-1.5185301303863525
1761380690485213000,5.836212890625,1.2286025285720825,1.3408344984054565,-0.8958831429481506
1761380690495268900,5.846268798828125,1.0830620527267456,0.9859523177146912,-0.025974875316023827
1761380690505323800,5.85632373046875,0.9394646883010864,0.5357869863510132,0.8062379360198975
1761380690515380000,5.8663798828125,0.7138304710388184,0.10282225161790848,1.359427571296692
1761380690525436000,5.876435791015625,0.42604610323905945,-0.25140559673309326,1.543300986289978
1761380690535491800,5.886491943359375,0.18082889914512634,-0.4981067180633545,1.3654184341430664
1761380690545548000,5.896548095703125,-0.006299973931163549,-0.5149357914924622,0.8950913548469543
1761380690555607300,5.906607177734375,-0.17990745604038239,-0.2669062614440918,0.2762124240398407
1761380690565662500,5.916662353515625,-0.3622058928012848,0.12930499017238617,-0.27884629368782043
1761380690575718400,5.926718505859375,-0.49133485555648804,0.6265760064125061,-0.5556573867797852
1761380690585774300,5.9367744140625,-0.7172569036483765,0.857223629951477,-0.6771763563156128
1761380690595830500,5.94683056640625,-0.9000352621078491,0.952948808670044,-0.5681113600730896
1761380690605886500,5.956886474609375,-1.058731198310852,0.5661880373954773,-0.3910282254219055
1761380690615941400,5.96694140625,-1.1258963346481323,-0.12884560227394104,-0.17561443150043488
1761380690625997300,5.976997314453125,-1.2088946104049683,-0.9333069324493408,-0.12248756736516953
1761380690636053200,5.98705322265625,-1.2904069423675537,-1.616801381111145,-0.27984416484832764
1761380690646109400,5.997109375,-1.3282479047775269,-2.0258359909057617,-0.5222727656364441
1761380690656165400,6.007165283203125,-1.3518176078796387,-1.9633768796920776,-0.513985812664032
1761380690666220500,6.017220458984375,-1.4714494943618774,-1.9191566705703735,-0.08917088806629181
1761380690676276500,6.0272763671875,-1.4953635931015015,-2.6677279472351074,0.40334266424179077
1761380690686332400,6.03733251953125,-1.257854700088501,-3.563713788986206,0.4201141893863678
1761380690696388600,6.047388671875,-1.0906225442886353,-3.7410645484924316,-0.11728987097740173
1761380690706444500,6.057444580078125,-1.1407126188278198,-3.3075191974639893,-0.9868998527526855
1761380690716499500,6.06749951171875,-1.3109146356582642,-3.053037405014038,-1.6720819473266602
1761380690726555400,6.077555419921875,-1.4681535959243774,-3.170828342437744,-1.6234853267669678
1761380690736611300,6.087611328125,-1.4892780780792236,-3.3254194259643555,-0.854761004447937
1761380690746667300,6.097667236328125,-1.475956916809082,-3.245072841644287,0.1554710865020752
1761380690756723500,6.107723388671875,-1.5556179285049438,-2.6960413455963135,0.7359980940818787
1761380690766778400,6.1177783203125,-1.7544149160385132,-2.052515745162964,0.7646787762641907
1761380690776834600,6.12783447265625,-1.8722562789916992,-1.6202285289764404,0.5135930180549622
1761380690786890500,6.137890380859375,-1.7974846363067627,-1.3313051462173462,0.1660185307264328
1761380690796946200,6.1479462890625,-1.7521355152130127,-1.2702354192733765,-0.2836306393146515
1761380690807002400,6.15800244140625,-1.617799997329712,-1.2855662107467651,-0.7194401621818542
1761380690817058300,6.168058349609375,-1.361194133758545,-1.4608738422393799,-1.0910049676895142
1761380690827113500,6.178113525390625,-1.0598657131195068,-1.700623869895935,-1.3176242113113403
1761380690837169400,6.18816943359375,-0.8269184231758118,-1.9154725074768066,-1.3758108615875244
1761380690847225300,6.198225341796875,-0.7129484415054321,-2.1371729373931885,-1.2889275550842285
1761380690857281500,6.208281494140625,-0.5510293245315552,-2.178079128265381,-1.0170223712921143
1761380690867337500,6.21833740234375,-0.36880573630332947,-1.9216421842575073,-0.6758647561073303
1761380690877392400,6.228392333984375,-0.34177330136299133,-1.3956141471862793,-0.3837551176548004
1761380690887448300,6.2384482421875,-0.49013322591781616,-0.812321126461029,-0.22678254544734955
1761380690897504300,6.248504150390625,-0.7195147275924683,-0.33449676632881165,-0.0532672144472599
1761380690907560400,6.258560546875,-0.9632381796836853,-0.16008128225803375,0.11659851670265198
1761380690917616400,6.268616455078125,-1.064202904701233,-0.054785482585430145,0.23947358131408691
1761380690927671600,6.278671630859375,-1.014052391052246,0.12219967693090439,0.25594016909599304
1761380690937727500,6.2887275390625,-0.8514165878295898,0.4805258810520172,0.26805275678634644
1761380690947783400,6.298783447265625,-0.6736481785774231,1.0134326219558716,0.3081599473953247
1761380690957839600,6.308839599609375,-0.4903513491153717,1.630554437637329,0.43379297852516174
1761380690967895600,6.3188955078125,-0.2695489227771759,2.3384852409362793,0.574124276638031
1761380690977951200,6.328951171875,-0.07432056963443756,2.987596035003662,0.6191548705101013
1761380690988006400,6.33900634765625,0.0701439306139946,3.2846765518188477,0.5599868893623352
1761380690998062300,6.349062255859375,0.385539174079895,3.2664337158203125,0.5153864026069641
1761380691008118300,6.3591181640625,0.5831111073493958,2.728250741958618,0.4369312524795532
1761380691018174500,6.369174560546875,0.8207223415374756,2.1522305011749268,0.6623936891555786
1761380691028230400,6.37923046875,1.1025055646896362,1.7882136106491089,1.2687005996704102
1761380691038285600,6.38928564453125,1.3790277242660522,1.5003091096878052,1.8396745920181274
1761380691048341200,6.39934130859375,1.7194467782974243,0.8763880133628845,1.8577401638031006
1761380691058397200,6.409397216796875,2.277132987976074,0.31190383434295654,1.235242247581482
1761380691068453400,6.419453369140625,2.991154909133911,0.609538733959198,0.43670541048049927
1761380691078509300,6.42950927734375,3.268745183944702,1.2610012292861938,-0.09727861732244492
1761380691088564500,6.439564453125,3.035407066345215,2.079846143722534,-0.30843985080718994
1761380691098620400,6.449620361328125,2.556195020675659,2.836221218109131,-0.31640270352363586
1761380691108676400,6.45967626953125,2.0410215854644775,3.4718713760375977,-0.15938779711723328
1761380691118732500,6.469732666015625,1.6289163827896118,3.8659887313842773,0.11829841136932373
1761380691128788500,6.47978857421875,1.2386159896850586,3.893146514892578,0.4342241585254669
1761380691138843400,6.489843505859375,1.022857904434204,3.717777967453003,0.7557923197746277
1761380691148899300,6.4998994140625,1.0119287967681885,3.3580636978149414,0.9273092150688171
1761380691158955300,6.509955322265625,1.1073578596115112,2.766043186187744,0.8499222993850708
1761380691169011500,6.520011474609375,1.17426598072052,2.1652047634124756,0.5258954763412476
1761380691179067400,6.5300673828125,1.2241835594177246,1.59925377368927,0.0481393001973629
1761380691189123300,6.540123291015625,1.325648307800293,1.1310930252075195,-0.4034942090511322
1761380691199178500,6.550178466796875,1.3653349876403809,0.8483033776283264,-0.7452272772789001
1761380691209234400,6.560234375,1.2939332723617554,0.6970168948173523,-0.9030965566635132
1761380691219290400,6.570290283203125,1.2495684623718262,0.8006578087806702,-0.8728185296058655
1761380691229346300,6.58034619140625,1.1314972639083862,0.9160741567611694,-0.7284120917320251
1761380691239402200,6.59040234375,0.9763076305389404,0.9427552819252014,-0.4646984338760376
1761380691249457400,6.60045751953125,0.9177224040031433,0.805526614189148,-0.12372380495071411
1761380691259513300,6.610513427734375,1.0547715425491333,0.3694334328174591,0.2043810933828354
1761380691269569300,6.6205693359375,1.257340908050537,-0.3758220970630646,0.31398457288742065
1761380691279625500,6.63062548828125,1.4478660821914673,-1.0882642269134521,0.22717270255088806
1761380691289681400,6.640681396484375,1.5773301124572754,-1.524366021156311,0.008037419989705086
1761380691299736600,6.650736572265625,1.6267263889312744,-1.610089898109436,-0.24147386848926544
1761380691309792300,6.660792236328125,1.5576746463775635,-1.3855668306350708,-0.3746180832386017
1761380691319848200,6.67084814453125,1.2583822011947632,-0.8769856095314026,-0.34917956590652466
1761380691329904400,6.680904296875,0.8025161623954773,-0.289713054895401,-0.2031904011964798
1761380691339960300,6.690960205078125,0.2951991558074951,0.15939311683177948,0.09473370015621185
1761380691350015500,6.701015380859375,-0.15332511067390442,0.31305086612701416,0.4912850260734558
1761380691360071400,6.711071533203125,-0.5179688334465027,0.19001254439353943,0.8313320875167847
1761380691370127400,6.72112744140625,-0.8080281019210815,-0.1413763016462326,0.9702878594398499
1761380691380183600,6.73118359375,-0.9861701130867004,-0.5727604627609253,0.8084957599639893
1761380691390239500,6.741239501953125,-1.094010829925537,-0.9924964904785156,0.449686735868454
1761380691400295400,6.75129541015625,-1.125990629196167,-0.9122671484947205,0.10001421719789505
1761380691410350300,6.761350341796875,-1.292171597480774,-0.7440720200538635,-0.2076229602098465
1761380691420406300,6.77140625,-1.4187599420547485,-0.9549570679664612,-0.37655818462371826
1761380691430462500,6.78146240234375,-1.2620147466659546,-1.6927297115325928,-0.53885418176651
1761380691440518400,6.791518310546875,-0.9305662512779236,-2.23738694190979,-1.0142462253570557
1761380691450574300,6.80157421875,-0.572188138961792,-2.518803119659424,-1.645949125289917
1761380691460629500,6.81162939453125,-0.5019547343254089,-3.0787765979766846,-1.9182664155960083
1761380691470685400,6.821685546875,-0.5714643001556396,-3.61071515083313,-1.5853917598724365
1761380691480741400,6.831741455078125,-0.7133908271789551,-3.575932741165161,-0.8161997199058533
1761380691490797300,6.84179736328125,-0.966175377368927,-2.7743923664093018,0.18931400775909424
1761380691500853200,6.851853271484375,-1.2643146514892578,-1.8424909114837646,0.971549928188324
1761380691510908400,6.861908447265625,-1.4222153425216675,-1.3925440311431885,1.1423696279525757
1761380691520964400,6.87196435546875,-1.311806559562683,-1.158352255821228,0.7317548990249634
1761380691531020300,6.882020263671875,-1.1620488166809082,-0.8663215041160583,-0.004240018781274557
1761380691541076500,6.892076416015625,-1.0704461336135864,-0.5579625964164734,-0.6763017773628235
1761380691551132400,6.90213232421875,-0.91887366771698,-0.4393877685070038,-1.1068848371505737
1761380691561184800,6.912184814453125,-0.7192055583000183,-0.5329440832138062,-1.217132568359375
1761380691571239700,6.92223974609375,-0.5632598996162415,-0.7576562762260437,-1.0024412870407104
1761380691581295600,6.932295654296875,-0.5508444905281067,-1.1635854244232178,-0.6483049988746643
1761380691591351800,6.942351806640625,-0.4022877812385559,-1.4243322610855103,-0.18182678520679474
1761380691601407700,6.95240771484375,-0.24719567596912384,-1.572946310043335,0.17698542773723602
1761380691611463700,6.962463623046875,-0.2088560163974762,-1.48135244846344,0.2556283175945282
1761380691621518800,6.972518798828125,-0.23436935245990753,-1.083470344543457,0.044918738305568695
1761380691631574800,6.98257470703125,-0.40847378969192505,-0.5467578768730164,-0.2936079204082489
1761380691641630700,6.992630615234375,-0.745600163936615,0.09274271875619888,-0.6357173323631287
1761380691651686700,7.002686767578125,-1.0322425365447998,0.7236956357955933,-0.8613730669021606
1761380691661742600,7.01274267578125,-1.1649036407470703,1.2721784114837646,-0.8804485201835632
1761380691671797800,7.0227978515625,-1.1835061311721802,1.76079261302948,-0.778924822807312
1761380691681853700,7.032853759765625,-1.0853313207626343,2.1089072227478027,-0.5574813485145569
1761380691691910000,7.042909912109375,-0.8937238454818726,2.3821051120758057,-0.24925775825977325
1761380691701965800,7.0529658203125,-0.6256276965141296,2.641321897506714,0.09016850590705872
1761380691712021800,7.063021728515625,-0.29206353425979614,2.799966812133789,0.4186822175979614
1761380691722076700,7.07307666015625,0.1305343061685562,3.0219879150390625,0.6481257677078247
1761380691732132600,7.083132568359375,0.5540730357170105,2.921053647994995,0.7424368262290955
1761380691742188800,7.093188720703125,0.9230303168296814,2.442579507827759,0.7842963933944702
1761380691752244700,7.10324462890625,1.2721880674362183,1.6196213960647583,0.7902379035949707
1761380691762300700,7.11330078125,1.6391010284423828,0.9004523158073425,0.7927665710449219
1761380691772356900,7.12335693359375,1.8926504850387573,0.3862108290195465,0.8551167845726013
1761380691782411800,7.133411865234375,1.8649076223373413,0.027833228930830956,1.008255958557129
1761380691792467700,7.1434677734375,1.6750068664550781,0.12105664610862732,1.5260645151138306
1761380691802524000,7.15352392578125,1.4573416709899902,0.5601043105125427,2.0303146839141846
1761380691812579800,7.163579833984375,1.3686323165893555,1.1694755554199219,1.557836890220642
1761380691822635800,7.1736357421875,1.723729133605957,1.9932324886322021,-0.005312473513185978
1761380691832690700,7.183690673828125,2.2029738426208496,2.5633628368377686,-1.834672451019287
1761380691842746600,7.19374658203125,2.433231830596924,3.0555453300476074,-2.891305446624756
1761380691852802800,7.203802734375,2.301814079284668,3.496399164199829,-3.0365562438964844
1761380691862858800,7.213858642578125,2.03879976272583,3.807126522064209,-2.6329023838043213
1761380691872914700,7.223914794921875,1.7984707355499268,3.8840627670288086,-1.975091576576233
1761380691882971000,7.233970947265625,1.4810501337051392,3.550788402557373,-1.015433430671692
1761380691893025800,7.24402587890625,1.1813020706176758,2.656771659851074,0.06356672197580338
1761380691903081700,7.254081787109375,1.0557689666748047,1.6810578107833862,0.7288094758987427
1761380691913137700,7.2641376953125,1.051578402519226,1.2355644702911377,0.8101522326469421
1761380691923193600,7.274193603515625,0.9362326860427856,0.9842401742935181,0.39602217078208923
1761380691933249800,7.284249755859375,1.0061771869659424,0.8928934335708618,-0.2381688952445984
1761380691943304700,7.2943046875,1.142448902130127,0.9301260709762573,-0.8869282603263855
1761380691953361000,7.30436083984375,1.1994541883468628,0.958925724029541,-1.368746280670166
1761380691963416800,7.314416748046875,1.2142850160598755,0.9162738919258118,-1.5991309881210327
1761380691973472800,7.32447265625,1.1961486339569092,0.7963863611221313,-1.5778722763061523
1761380691983529000,7.334529052734375,1.0809943675994873,0.624487042427063,-1.3680975437164307
1761380691993583600,7.34458349609375,0.9197961688041687,0.5098491311073303,-1.0813624858856201
1761380692003639800,7.354639892578125,0.8179504871368408,0.4013679325580597,-0.8572846055030823
1761380692013695700,7.36469580078125,0.7294086813926697,0.36478275060653687,-0.7745636105537415
1761380692023751700,7.374751708984375,0.6613622307777405,0.4609500467777252,-0.8150346279144287
1761380692033808000,7.384807861328125,0.6183873414993286,0.5198269486427307,-0.9307790398597717
1761380692043863800,7.39486376953125,0.5766907334327698,0.4005418121814728,-1.0867958068847656
1761380692053918700,7.404918701171875,0.5696552395820618,0.17368283867835999,-1.1696337461471558
1761380692063975000,7.414974853515625,0.4921683967113495,-0.09118157625198364,-1.0606176853179932
1761380692074030800,7.42503076171875,0.3841548562049866,-0.2332947701215744,-0.6693061590194702
1761380692084086800,7.435086669921875,0.11891254037618637,-0.4122629165649414,-0.10350321978330612
1761380692094142700,7.445142822265625,-0.2745170593261719,-0.7771058678627014,0.6111738681793213
1761380692104197600,7.45519775390625,-0.5443839430809021,-1.227516770362854,1.5049211978912354
1761380692114253800,7.46525390625,-0.8122838139533997,-1.7577635049819946,2.3492801189422607
1761380692124309800,7.475309814453125,-1.0011723041534424,-2.1036019325256348,2.9100091457366943
1761380692134365700,7.48536572265625,-1.0842291116714478,-2.2272610664367676,3.0879435539245605
1761380692144422000,7.495421875,-1.0810234546661377,-2.198671340942383,2.714864730834961
1761380692154477800,7.505477783203125,-1.0743263959884644,-2.0224978923797607,2.017853260040283
1761380692164532700,7.51553271484375,-1.1027332544326782,-1.911727786064148,1.3150023221969604
1761380692174588700,7.525588623046875,-0.9899036288261414,-2.0231821537017822,0.48325029015541077
1761380692184644600,7.53564453125,-0.9032605886459351,-1.8980425596237183,-0.7791013717651367
1761380692194700800,7.54570068359375,-0.9573739171028137,-1.5287575721740723,-2.017059564590454
1761380692204756700,7.5557568359375,-0.9714886546134949,-1.4233813285827637,-2.3655848503112793
1761380692214812000,7.56581201171875,-0.9198324084281921,-1.4254838228225708,-1.7569533586502075
1761380692224867800,7.575867919921875,-0.9448748826980591,-1.4644984006881714,-0.6320536136627197
1761380692234923800,7.585923828125,-1.0464990139007568,-1.5426453351974487,0.48887327313423157
1761380692244980000,7.59597998046875,-1.2159385681152344,-1.4422575235366821,1.5988298654556274
1761380692255036000,7.606035888671875,-1.4832968711853027,-1.5164837837219238,2.267352819442749
1761380692265090800,7.6160908203125,-1.6691579818725586,-2.0068063735961914,1.9729515314102173
1761380692275146800,7.626146728515625,-1.6687023639678955,-2.5426087379455566,0.9273744821548462
1761380692285202700,7.63620263671875,-1.5766867399215698,-2.9577600955963135,-0.23708312213420868
1761380692295259000,7.6462587890625,-1.4594111442565918,-3.0763158798217773,-0.9031324982643127
1761380692305314800,7.656314697265625,-1.4940762519836426,-3.036440134048462,-1.020339012145996
1761380692315370800,7.666370849609375,-1.6413202285766602,-2.873335123062134,-0.5872659087181091
