time,seconds_elapsed,z,y,x
1761380684768493800,0.119493896484375,-0.18484371900558472,-0.7157137989997864,0.5574277639389038
1761380684778550000,0.129550048828125,-0.1458413153886795,-0.5514054894447327,0.44697824120521545
1761380684788605000,0.13960498046875,-0.08932424336671829,-0.6252671480178833,0.23474106192588806
1761380684798661000,0.1496611328125,-0.025474997237324715,-0.8054291009902954,-0.009957004338502884
1761380684808716800,0.159716796875,0.04730839654803276,-0.973114550113678,-0.1835154891014099
1761380684818772700,0.169772705078125,0.07113878428936005,-1.1524546146392822,-0.3016866147518158
1761380684828829000,0.179828857421875,0.05454622954130173,-1.3677866458892822,-0.331779807806015
1761380684838883800,0.1898837890625,0.07752007246017456,-1.5715298652648926,-0.2878497540950775
1761380684848939800,0.199939697265625,0.06580349802970886,-1.587934136390686,-0.24330782890319824
1761380684858996000,0.209995849609375,-0.02499368041753769,-1.424699068069458,-0.21966452896595
1761380684869052000,0.220052001953125,-0.15235856175422668,-1.1137899160385132,-0.19449685513973236
1761380684879107800,0.23010791015625,-0.3273133933544159,-0.7419199347496033,-0.15593574941158295
1761380684889162800,0.240162841796875,-0.534921407699585,-0.3284679055213928,-0.10097181797027588
1761380684899218700,0.25021875,-0.7248436212539673,0.1044064536690712,-0.032574012875556946
1761380684909275000,0.26027490234375,-0.8773985505104065,0.5123723745346069,0.09264995157718658
1761380684919330800,0.270330810546875,-0.965686023235321,0.9661167860031128,0.3033762276172638
1761380684929386800,0.28038671875,-0.9939525127410889,1.2715462446212769,0.5324991941452026
1761380684939442000,0.29044189453125,-0.9001689553260803,1.5050560235977173,0.7146097421646118
1761380684949497900,0.300497802734375,-0.761579692363739,1.6662850379943848,0.791119396686554
1761380684959554000,0.310553955078125,-0.620025634765625,1.6331058740615845,0.710075855255127
1761380684969610000,0.32060986328125,-0.5121729373931885,1.464048147201538,0.549197793006897
1761380684979666000,0.330666015625,-0.4222734868526459,1.181983232498169,0.3630976378917694
1761380684989720800,0.340720947265625,-0.30151110887527466,0.9085956811904907,0.1885194182395935
1761380684999776800,0.35077685546875,-0.16064338386058807,0.7251193523406982,0.15782231092453003
1761380685009833000,0.3608330078125,-0.0587385930120945,0.6561352610588074,0.23299695551395416
1761380685019889000,0.370888916015625,0.08308249711990356,0.6960050463676453,0.41840532422065735
1761380685029944800,0.38094482421875,0.24407005310058594,0.7907299995422363,0.6141418218612671
1761380685040000000,0.391,0.2678545415401459,0.9380486607551575,0.6801614761352539
1761380685050056000,0.401055908203125,0.15986628830432892,1.2002640962600708,0.6997527480125427
1761380685060112000,0.41111181640625,-0.09098541736602783,1.50214421749115,0.652822732925415
1761380685070167800,0.421167724609375,-0.36176684498786926,1.8514723777770996,0.5822945237159729
1761380685080223700,0.4312236328125,-0.4713069498538971,1.9587370157241821,0.6383263468742371
1761380685090279000,0.44127880859375,-0.33486655354499817,1.6130988597869873,0.7154315114021301
1761380685100334800,0.4513349609375,-0.050634875893592834,1.1200835704803467,0.5934890508651733
1761380685110390800,0.461390869140625,0.4627586603164673,0.7419796586036682,0.24763205647468567
1761380685120447000,0.471447021484375,1.047025203704834,1.0668452978134155,0.14283393323421478
1761380685130503000,0.4815029296875,1.1737098693847656,1.514868140220642,0.264099657535553
1761380685140558000,0.49155810546875,0.8921468257904053,2.2406833171844482,0.48586639761924744
1761380685150613800,0.50161376953125,0.5481976866722107,2.848825693130493,0.6323623657226562
1761380685160669700,0.511669677734375,0.27447816729545593,3.047609567642212,0.6224808692932129
1761380685170726000,0.521725830078125,0.11509623378515244,2.9603564739227295,0.5506815314292908
1761380685180781800,0.53178173828125,0.07382182776927948,2.8026442527770996,0.5875890254974365
1761380685190837000,0.5418369140625,0.04676677659153938,2.5085158348083496,0.7953630089759827
1761380685200893000,0.551892822265625,0.0666063204407692,1.9333096742630005,0.9587274789810181
1761380685210948900,0.561948974609375,0.18290577828884125,1.309016227722168,0.9037542939186096
1761380685221005000,0.572005126953125,0.43196865916252136,0.6990195512771606,0.6654532551765442
1761380685231059700,0.582059814453125,0.7122277617454529,0.17866583168506622,0.21862171590328217
1761380685241116000,0.592115966796875,1.0045734643936157,-0.19927525520324707,-0.4281165599822998
1761380685251171800,0.602171875,1.1922436952590942,-0.33981505036354065,-1.0941771268844604
1761380685261227800,0.612227783203125,1.2085552215576172,-0.2716362774372101,-1.5760717391967773
1761380685271284000,0.622283935546875,1.1500107049942017,-0.13430237770080566,-1.7594391107559204
1761380685281339000,0.6323388671875,1.0822477340698242,0.027281783521175385,-1.6540206670761108
1761380685291395000,0.64239501953125,0.9302608370780945,0.26253342628479004,-1.3448705673217773
1761380685301451000,0.652450927734375,0.5964334011077881,0.38972702622413635,-0.9214910268783569
1761380685311507000,0.6625068359375,0.20199498534202576,0.34332889318466187,-0.44248902797698975
1761380685321563000,0.67256298828125,-0.11921356618404388,0.26038795709609985,-0.0029983711428940296
1761380685331617800,0.68261767578125,-0.32797932624816895,-0.023380381986498833,0.21448096632957458
1761380685341673700,0.692673828125,-0.4169257581233978,-0.1655506044626236,0.2083103358745575
1761380685351730000,0.70272998046875,-0.34967055916786194,0.11080534011125565,0.027490749955177307
1761380685361785900,0.712785888671875,-0.18815039098262787,-0.0030143342446535826,-0.12600581347942352
1761380685371841800,0.722841796875,-0.06069177761673927,-0.2836121916770935,-0.12335623055696487
1761380685381898000,0.73289794921875,0.12040013074874878,-0.4477669596672058,0.017436586320400238
1761380685391953000,0.742952880859375,0.36562320590019226,-0.7132439017295837,0.2074025273323059
1761380685402009000,0.753009033203125,0.5604040622711182,-1.177755355834961,0.4441220164299011
1761380685412064800,0.763064697265625,0.5976411700248718,-1.7560267448425293,0.7555131912231445
1761380685422120700,0.77312060546875,0.458112508058548,-2.283634901046753,1.051957368850708
1761380685432175900,0.78317578125,0.10752998292446136,-2.7722370624542236,1.1436550617218018
1761380685442231800,0.793231689453125,-0.28181421756744385,-2.858252763748169,1.0006388425827026
1761380685452288000,0.8032880859375,-0.6467791199684143,-2.449833393096924,0.6896525025367737
1761380685462344000,0.813343994140625,-1.0475656986236572,-1.6664923429489136,0.3503640592098236
1761380685472400000,0.82339990234375,-1.3474466800689697,-1.2463425397872925,0.09981678426265717
1761380685482456000,0.8334560546875,-1.3500311374664307,-1.6454352140426636,0.006203614640980959
1761380685492510700,0.8435107421875,-1.0393218994140625,-2.64902400970459,-0.21602758765220642
1761380685502567000,0.85356689453125,-0.5420304536819458,-3.3017566204071045,-0.8599121570587158
1761380685512622800,0.863622802734375,-0.05647224560379982,-3.475707530975342,-1.5133863687515259
1761380685522678800,0.8736787109375,0.23324671387672424,-3.671024799346924,-1.7877867221832275
1761380685532734000,0.88373388671875,0.1689409613609314,-3.679849624633789,-1.7041476964950562
1761380685542790000,0.893789794921875,-0.16374841332435608,-3.5452423095703125,-1.3962799310684204
1761380685552849400,0.903849365234375,-0.5038021206855774,-3.3879387378692627,-1.222160816192627
1761380685562905600,0.913905517578125,-0.6428998708724976,-3.070634603500366,-1.1560050249099731
1761380685572961500,0.92396142578125,-0.6612597107887268,-2.572542428970337,-1.0449591875076294
1761380685583016700,0.9340166015625,-0.7120170593261719,-1.9926503896713257,-0.9383381009101868
1761380685593072400,0.944072265625,-0.6683118939399719,-1.4583656787872314,-0.808390736579895
1761380685603128300,0.95412841796875,-0.4635567367076874,-1.0919245481491089,-0.6336990594863892
1761380685613184500,0.9641845703125,-0.1849791556596756,-0.9692614674568176,-0.5098455548286438
1761380685623240400,0.974240478515625,0.07158021628856659,-0.9032367467880249,-0.531370222568512
1761380685633295600,0.984295654296875,0.31717586517333984,-0.7874771356582642,-0.7461520433425903
1761380685643351600,0.9943515625,0.5119220614433289,-0.8193543553352356,-1.0014243125915527
1761380685653407500,1.004407470703125,0.6000242233276367,-1.0119707584381104,-1.2192034721374512
1761380685663463700,1.014463623046875,0.5990907549858093,-1.1791380643844604,-1.3454289436340332
1761380685673519600,1.02451953125,0.459432989358902,-1.1299492120742798,-1.2994226217269897
1761380685683574500,1.034574462890625,0.19455012679100037,-0.8748513460159302,-1.1534343957901
1761380685693630500,1.04463037109375,-0.24264344573020935,-0.5734917521476746,-1.0435752868652344
1761380685703686400,1.054686279296875,-0.5749173164367676,-0.01891053095459938,-0.8953593373298645
1761380685713742600,1.06474267578125,-0.8141019344329834,0.46514588594436646,-0.7310745120048523
1761380685723798500,1.074798583984375,-1.0406858921051025,0.6796038746833801,-0.445749431848526
1761380685733853700,1.084853759765625,-1.2708191871643066,0.6337721943855286,0.05696003511548042
1761380685743909600,1.09490966796875,-1.3771848678588867,0.327858030796051,0.7374157309532166
1761380685753965600,1.104965576171875,-1.3784559965133667,-0.1307803839445114,1.414538025856018
1761380685764021800,1.115021728515625,-1.3315566778182983,-0.3887042701244354,1.8223923444747925
1761380685774077400,1.125077392578125,-1.1908358335494995,-0.2168768346309662,1.9556260108947754
1761380685784132600,1.135132568359375,-0.9252935647964478,0.23341378569602966,1.9015682935714722
1761380685794188500,1.1451884765625,-0.6126938462257385,0.7430027723312378,1.748626947402954
1761380685804244500,1.155244384765625,-0.38377198576927185,1.2623021602630615,1.582308053970337
1761380685814300400,1.165300537109375,-0.23231080174446106,1.8499113321304321,1.4640612602233887
1761380685824356600,1.175356689453125,-0.12272106856107712,2.4022693634033203,1.3492735624313354
1761380685834411500,1.18541162109375,-0.07122964411973953,2.811453342437744,1.228729248046875
1761380685844467500,1.195467529296875,-0.031018488109111786,2.99153995513916,1.313235878944397
1761380685854523400,1.2055234375,-0.012266370467841625,2.7656033039093018,1.5876421928405762
1761380685864579300,1.215579345703125,-0.04548461735248566,2.280259609222412,1.7426503896713257
1761380685874635500,1.225635498046875,0.15665729343891144,1.965401291847229,1.706329584121704
1761380685884690400,1.2356904296875,0.5826080441474915,1.5887477397918701,1.4501774311065674
1761380685894746600,1.24574658203125,1.068277359008789,1.3383045196533203,1.3638644218444824
1761380685904802600,1.255802490234375,1.2705206871032715,1.5774409770965576,1.7093608379364014
1761380685914858500,1.2658583984375,1.0297437906265259,2.041501760482788,2.034607410430908
1761380685924914700,1.275914794921875,0.6501268744468689,2.2767081260681152,2.106492757797241
1761380685934969300,1.28596923828125,0.31720298528671265,2.4313910007476807,1.8899985551834106
1761380685945025500,1.296025634765625,0.055982477962970734,2.677896499633789,1.3943898677825928
1761380685955081500,1.30608154296875,-0.07400268316268921,2.942653179168701,0.7687862515449524
1761380685965137400,1.316137451171875,-0.009445201605558395,3.0764806270599365,0.10948426276445389
1761380685975193600,1.326193603515625,0.13040778040885925,3.1843338012695312,-0.3788963258266449
1761380685985248500,1.33624853515625,0.20253080129623413,3.277982473373413,-0.619347095489502
1761380685995304700,1.3463046875,0.31154730916023254,3.3302712440490723,-0.6106590628623962
1761380686005360600,1.356360595703125,0.33912351727485657,3.1007041931152344,-0.6481313705444336
1761380686015416600,1.36641650390625,0.26942378282546997,2.694772243499756,-0.7844622731208801
1761380686025472500,1.376472412109375,0.13327613472938538,2.3573696613311768,-1.0187819004058838
1761380686035527400,1.38652734375,-0.04253590479493141,2.1983799934387207,-1.3058743476867676
1761380686045583400,1.396583251953125,-0.1665353775024414,2.2055084705352783,-1.4428434371948242
1761380686055639600,1.4066396484375,-0.16960974037647247,2.2695727348327637,-1.292155385017395
1761380686065695500,1.416695556640625,-0.18799956142902374,2.2142117023468018,-0.9604609608650208
1761380686075751400,1.42675146484375,-0.22400683164596558,2.122364044189453,-0.5495834350585938
1761380686085806600,1.436806640625,-0.3019987642765045,1.9460893869400024,-0.20759163796901703
1761380686095862500,1.446862548828125,-0.2660790979862213,1.7883423566818237,0.06747587025165558
1761380686105918500,1.45691845703125,-0.15522854030132294,1.518773078918457,0.14333383738994598
1761380686115974400,1.466974365234375,-0.051259540021419525,1.1838749647140503,-0.04101362079381943
1761380686126029600,1.477029541015625,0.06964168697595596,0.8513360619544983,-0.3271569311618805
1761380686136085500,1.48708544921875,0.28488290309906006,0.44100236892700195,-0.5447438359260559
1761380686146141400,1.497141357421875,0.5132694244384766,-0.04025186970829964,-0.6169650554656982
1761380686156197600,1.50719775390625,0.5795195698738098,-0.7565473914146423,-0.5875771045684814
1761380686166253600,1.517253662109375,0.5579904913902283,-1.2805372476577759,-0.3751295506954193
1761380686176308700,1.527308837890625,0.5847774147987366,-1.6973416805267334,-0.058345481753349304
1761380686186364400,1.537364501953125,0.6868100166320801,-2.1191742420196533,0.18377448618412018
1761380686196420400,1.54742041015625,0.7572205066680908,-2.5911848545074463,0.25653043389320374
1761380686206476500,1.5574765625,0.7265214920043945,-2.9139528274536133,0.08411583304405212
1761380686216532500,1.567532470703125,0.587749719619751,-2.913235902786255,-0.5119219422340393
1761380686226587600,1.577587646484375,0.11928525567054749,-2.6229043006896973,-1.2416223287582397
1761380686236643600,1.5876435546875,-0.6211379766464233,-1.909805417060852,-1.6183544397354126
1761380686246699500,1.597699462890625,-1.3539117574691772,-1.2133991718292236,-1.722047209739685
1761380686256755700,1.607755615234375,-1.736087679862976,-1.3421342372894287,-1.7709110975265503
1761380686266811600,1.617811767578125,-1.6661595106124878,-1.8876365423202515,-2.0237786769866943
1761380686276866600,1.627866455078125,-1.1857000589370728,-2.4731290340423584,-2.3049869537353516
1761380686286922500,1.637922607421875,-0.5370876789093018,-3.5617823600769043,-2.2011525630950928
1761380686296978400,1.647978515625,0.05091723054647446,-4.753344535827637,-1.565266489982605
1761380686307034400,1.658034423828125,0.38243022561073303,-5.350213050842285,-0.5917317271232605
1761380686317090600,1.668090576171875,0.31629249453544617,-5.000907897949219,0.25100797414779663
1761380686327145500,1.6781455078125,-0.06060293689370155,-4.046955585479736,0.7649639844894409
1761380686337201700,1.68820166015625,-0.6318349838256836,-3.0441081523895264,1.0347000360488892
1761380686347257600,1.698257568359375,-1.2615386247634888,-2.5013294219970703,0.9529492855072021
1761380686357313500,1.7083134765625,-1.6593091487884521,-2.2788455486297607,0.5438938736915588
1761380686367369500,1.718369384765625,-1.8298405408859253,-2.122002363204956,0.02404080703854561
1761380686377424400,1.72842431640625,-1.8381686210632324,-1.7742536067962646,-0.48368287086486816
1761380686387480600,1.73848046875,-1.5186445713043213,-1.2248963117599487,-0.9348855018615723
1761380686397536500,1.74853662109375,-1.1314995288848877,-1.037109375,-1.4405196905136108
1761380686407592400,1.758592529296875,-0.6678631901741028,-1.1840606927871704,-1.8544994592666626
1761380686417648600,1.768648681640625,-0.1280016005039215,-1.492444396018982,-2.130711793899536
1761380686427703600,1.77870361328125,0.41199415922164917,-1.7445685863494873,-2.254312515258789
1761380686437759500,1.788759521484375,0.8529686331748962,-1.760972261428833,-2.214965581893921
1761380686447815400,1.7988154296875,0.9199650287628174,-1.5444155931472778,-1.96458899974823
1761380686457871400,1.808871337890625,0.5640562176704407,-1.3240230083465576,-1.5248907804489136
1761380686467926500,1.818926513671875,0.1170995905995369,-1.12436842918396,-0.9066530466079712
1761380686477982500,1.828982421875,-0.3239622414112091,-0.6256996989250183,-0.1805536299943924
1761380686488038700,1.83903857421875,-0.7338837385177612,-0.008351882919669151,0.5150889754295349
1761380686498094600,1.849094482421875,-1.0992265939712524,0.5649870038032532,1.1417773962020874
1761380686508150500,1.859150634765625,-1.381662130355835,1.1535567045211792,1.6948161125183105
1761380686518205400,1.869205322265625,-1.4797381162643433,1.589607834815979,2.1412975788116455
1761380686528261400,1.879261474609375,-1.3235844373703003,1.6502833366394043,2.4835212230682373
1761380686538317600,1.889317626953125,-0.9291733503341675,1.4324707984924316,2.702871561050415
1761380686548373000,1.899373046875,-0.34305498003959656,1.2402464151382446,2.699117660522461
1761380686558429000,1.909428955078125,0.2950320243835449,1.1091622114181519,2.3629133701324463
1761380686568484000,1.919484130859375,0.7550549507141113,1.0858476161956787,1.724867820739746
1761380686578540000,1.9295400390625,0.9319325685501099,1.3395997285842896,0.9395522475242615
1761380686588596200,1.93959619140625,0.876548171043396,1.7866801023483276,0.17852340638637543
1761380686598652200,1.949652099609375,0.6096698641777039,2.493150472640991,-0.4364103376865387
1761380686608707800,1.959707763671875,0.24223759770393372,3.180403709411621,-0.771537184715271
1761380686618763000,1.969762939453125,-0.039998073130846024,3.7025458812713623,-0.806275486946106
1761380686628819000,1.97981884765625,-0.10722415149211884,3.834259271621704,-0.7323169112205505
1761380686638875000,1.989875,0.14466801285743713,3.277127504348755,-0.961519718170166
1761380686648931000,1.99993115234375,0.692934513092041,2.414736032485962,-1.3811086416244507
1761380686658987000,2.009987060546875,1.1816920042037964,2.4665729999542236,-1.6028493642807007
1761380686669042200,2.020042236328125,1.389542818069458,3.1139590740203857,-1.3166447877883911
1761380686679098000,2.03009814453125,1.4053065776824951,3.778998374938965,-0.7340964078903198
1761380686689153800,2.04015380859375,1.268007755279541,3.938390016555786,-0.06547390669584274
1761380686699210000,2.0502099609375,1.3302085399627686,4.0292134284973145,0.7845098972320557
1761380686709265000,2.060264892578125,1.561160922050476,3.8475234508514404,1.382408857345581
1761380686719321000,2.070321044921875,1.690807580947876,3.5244884490966797,1.3107200860977173
1761380686729377000,2.080376953125,1.6048060655593872,3.16866135597229,0.7150958776473999
1761380686739433000,2.090432861328125,1.3891454935073853,2.7420477867126465,-0.05780138820409775
1761380686749489200,2.1004892578125,1.247369408607483,2.403155565261841,-0.531792163848877
1761380686759544000,2.1105439453125,1.0267715454101562,1.8246065378189087,-0.7309468388557434
1761380686769600000,2.12060009765625,0.7785714268684387,1.1093789339065552,-0.7913655638694763
1761380686779656000,2.130656005859375,0.6862255334854126,0.6418339014053345,-0.738718569278717
1761380686789712000,2.1407119140625,0.6566103100776672,0.4271056354045868,-0.6719783544540405
1761380686799768000,2.15076806640625,0.5972583293914795,0.49440932273864746,-0.5911452770233154
1761380686809823000,2.160822998046875,0.48469287157058716,0.7602397203445435,-0.5430709719657898
1761380686819879200,2.170879150390625,0.30051106214523315,0.982044517993927,-0.5773924589157104
1761380686829935000,2.18093505859375,0.21983106434345245,1.1994558572769165,-0.6072832942008972
1761380686839991000,2.190990966796875,0.07974372804164886,1.1066409349441528,-0.6026760339736938
1761380686850047200,2.201047119140625,-0.05009610950946808,0.8748916387557983,-0.4006248116493225
1761380686860102000,2.211101806640625,-0.1109757050871849,0.5410614609718323,-0.030885910615324974
1761380686870158000,2.221157958984375,-0.09924586862325668,0.15909931063652039,0.43538808822631836
1761380686880214000,2.231214111328125,-0.04957631602883339,-0.24794994294643402,0.9036905765533447
1761380686890270000,2.24127001953125,-0.01295043807476759,-0.7431619167327881,1.310062050819397
1761380686900326000,2.251325927734375,-0.014870044775307178,-1.2756379842758179,1.5802812576293945
1761380686910381000,2.261381103515625,-0.043979376554489136,-1.7926050424575806,1.6536333560943604
1761380686920437000,2.27143701171875,-0.07563770562410355,-2.194471836090088,1.505026936531067
1761380686930493200,2.2814931640625,-0.10060272365808487,-2.387777090072632,1.0931828022003174
1761380686940549000,2.291549072265625,-0.08066203445196152,-2.4023497104644775,0.42934513092041016
1761380686950604000,2.30160400390625,-0.11597447097301483,-2.1983871459960938,-0.3624246120452881
1761380686960660000,2.311659912109375,-0.2726341187953949,-1.8243615627288818,-0.9805080890655518
1761380686970716000,2.3217158203125,-0.5436455011367798,-1.3376073837280273,-0.9785099029541016
1761380686980772000,2.331772216796875,-0.835328221321106,-1.4117090702056885,-0.5117941498756409
1761380686990828000,2.341828125,-0.9807473421096802,-2.3469128608703613,-0.45602115988731384
1761380687000883200,2.35188330078125,-0.9655655026435852,-3.28898549079895,-1.233984351158142
1761380687010939100,2.361939208984375,-0.5783997774124146,-3.734553813934326,-1.970352292060852
1761380687020994800,2.371994873046875,-0.2897810637950897,-4.465708255767822,-2.1829264163970947
1761380687031051000,2.382051025390625,-0.2211306095123291,-5.033970355987549,-1.8390237092971802
1761380687041107000,2.39210693359375,-0.4263535141944885,-5.184010028839111,-1.2341364622116089
1761380687051162000,2.402162109375,-0.8794100880622864,-4.709225654602051,-0.5980987548828125
1761380687061218000,2.412218017578125,-1.3998007774353027,-3.702108144760132,0.0754825696349144
1761380687071274000,2.42227392578125,-1.73622727394104,-2.4869093894958496,0.7603006362915039
1761380687081330200,2.432330078125,-2.003434658050537,-1.6492481231689453,1.0017955303192139
1761380687091385000,2.442385009765625,-2.0535755157470703,-1.309601902961731,0.7472436428070068
1761380687101441000,2.45244091796875,-1.8910717964172363,-1.259086012840271,0.26809069514274597
1761380687111497000,2.4624970703125,-1.6167831420898438,-1.1605632305145264,-0.22859792411327362
1761380687121553000,2.472552978515625,-1.278658151626587,-1.0420030355453491,-0.7485114336013794
1761380687131609000,2.482609130859375,-0.9192553758621216,-1.0295268297195435,-1.2804675102233887
1761380687141664000,2.4926640625,-0.5347164869308472,-0.9811012148857117,-1.7291197776794434
1761380687151720000,2.502719970703125,-0.4164227545261383,-1.2604573965072632,-2.0902047157287598
1761380687161776000,2.512776123046875,-0.370201975107193,-1.4084703922271729,-2.1841213703155518
1761380687171832000,2.52283203125,-0.4316810965538025,-1.4216585159301758,-2.120312452316284
1761380687181888000,2.532887939453125,-0.6410694122314453,-1.2732274532318115,-1.9945706129074097
1761380687191943000,2.54294287109375,-1.059320330619812,-0.9519103765487671,-1.8297057151794434
1761380687201998800,2.552998779296875,-1.4833794832229614,-0.4848177433013916,-1.45188307762146
1761380687212055000,2.563054931640625,-1.8240962028503418,-0.168056920170784,-1.0134073495864868
1761380687222111000,2.573111083984375,-2.0859270095825195,-0.1022414118051529,-0.6040483713150024
1761380687232166100,2.583166259765625,-2.1973342895507812,-0.17138463258743286,-0.2003403604030609
1761380687242222000,2.59322216796875,-2.0514166355133057,-0.23933997750282288,0.2734892666339874
1761380687252278000,2.603278076171875,-1.5788249969482422,-0.2105836421251297,0.6725420355796814
1761380687262334200,2.613334228515625,-1.001572608947754,-0.28010067343711853,0.838284969329834
1761380687272390100,2.62339013671875,-0.4409947097301483,-0.20666980743408203,0.836605966091156
1761380687282445000,2.633445068359375,0.034575823694467545,0.09574650973081589,0.6735198497772217
1761380687292501000,2.6435009765625,0.29715242981910706,0.5764461755752563,0.35820919275283813
1761380687302557000,2.653556884765625,0.33798855543136597,1.1113667488098145,-0.1365283727645874
1761380687312613000,2.663613037109375,0.33408641815185547,1.8157691955566406,-0.7128180861473083
1761380687322669000,2.6736689453125,0.3866255283355713,2.382039785385132,-1.052775263786316
1761380687332724000,2.683723876953125,0.5152875781059265,2.3974080085754395,-0.900625467300415
1761380687342780200,2.6937802734375,0.7079888582229614,1.9219833612442017,-0.41080325841903687
1761380687352836000,2.703836181640625,0.9680944681167603,1.4308300018310547,-0.13550342619419098
1761380687362892000,2.71389208984375,1.4145065546035767,0.8438591361045837,-0.44477421045303345
1761380687372948000,2.723947998046875,2.0548272132873535,0.32500672340393066,-1.0189040899276733
1761380687383003000,2.7340029296875,2.5581490993499756,0.4466188848018646,-1.280084490776062
1761380687393059000,2.74405908203125,2.8842389583587646,1.3428465127944946,-0.8239580392837524
1761380687403115000,2.754114990234375,2.959890604019165,2.2742016315460205,-0.12603887915611267
1761380687413171000,2.7641708984375,2.5305166244506836,2.896535873413086,0.3309619724750519
1761380687423227100,2.77422705078125,1.9911611080169678,3.5396997928619385,0.7178095579147339
1761380687433281800,2.78428173828125,1.5954440832138062,4.023681163787842,0.9761261940002441
1761380687443338000,2.794337890625,1.4539684057235718,4.447539806365967,0.866299569606781
1761380687453394000,2.804393798828125,1.1370937824249268,4.494741439819336,0.16156883537769318
1761380687463449900,2.814449951171875,0.7996443510055542,3.963944673538208,-0.7346663475036621
1761380687473505000,2.824505126953125,0.6762005686759949,2.8720626831054688,-1.557213544845581
1761380687483561000,2.83456103515625,0.840806245803833,1.701883316040039,-2.1546809673309326
1761380687493617200,2.8446171875,0.9973631501197815,0.6273748874664307,-2.5426619052886963
1761380687503673000,2.854673095703125,1.0803754329681396,-0.2872750163078308,-2.6242458820343018
1761380687513729000,2.86472900390625,1.268830418586731,-0.6945971250534058,-2.324371814727783
1761380687523784000,2.874783935546875,1.4668729305267334,-0.6448972225189209,-1.776153802871704
1761380687533840000,2.88483984375,1.4790188074111938,-0.3129599690437317,-1.1239490509033203
1761380687543896000,2.89489599609375,1.2753140926361084,0.07018052041530609,-0.5863534212112427
1761380687553949200,2.90494921875,0.9342725276947021,0.2543083727359772,-0.3181596100330353
1761380687564003800,2.91500390625,0.6309009194374084,0.3556762933731079,-0.2414208948612213
1761380687574060000,2.92506005859375,0.40639084577560425,0.42575955390930176,-0.24691805243492126
1761380687584116000,2.935115966796875,0.28634512424468994,0.48586177825927734,-0.18061386048793793
1761380687594172000,2.945171875,0.22668294608592987,0.46559756994247437,0.12861837446689606
1761380687604228000,2.95522802734375,0.11645976454019547,0.306736022233963,0.7075251340866089
1761380687614283000,2.965282958984375,-0.20360395312309265,-0.21764959394931793,1.4222137928009033
1761380687624339200,2.975339111328125,-0.5349051356315613,-0.6286563277244568,2.255256414413452
1761380687634395100,2.98539501953125,-0.9811370372772217,-1.0489498376846313,2.972970962524414
1761380687644450800,2.995450927734375,-1.4825056791305542,-1.678619146347046,3.4020001888275146
1761380687654507000,3.005507080078125,-1.8703174591064453,-2.502551555633545,3.328510284423828
1761380687664562000,3.01556201171875,-2.0067431926727295,-3.152359962463379,2.7191412448883057
1761380687674618000,3.0256181640625,-1.7711420059204102,-3.314086675643921,1.75888192653656
1761380687684674000,3.035674072265625,-1.3187897205352783,-3.0047078132629395,0.6473661065101624
1761380687694730000,3.04572998046875,-1.1728183031082153,-2.354515314102173,-0.27541449666023254
1761380687704786200,3.0557861328125,-1.4243687391281128,-1.7210766077041626,-0.5449008941650391
1761380687714841000,3.065841064453125,-1.6117197275161743,-1.3255294561386108,-0.5290083289146423
1761380687724897000,3.07589697265625,-1.5427076816558838,-1.3109015226364136,-1.0204975605010986
1761380687734953000,3.085952880859375,-1.5054974555969238,-1.1751140356063843,-2.2499005794525146
1761380687745009000,3.0960087890625,-1.5561721324920654,-0.909716010093689,-3.3872532844543457
1761380687755064000,3.10606396484375,-1.7664475440979004,-1.4318639039993286,-3.8469057083129883
1761380687765120000,3.1161201171875,-1.7883727550506592,-2.5384156703948975,-3.4567503929138184
1761380687775176000,3.126176025390625,-1.8093863725662231,-3.5968124866485596,-2.30642032623291
1761380687785232100,3.136232177734375,-2.0754554271698,-3.7816147804260254,-0.8212067484855652
1761380687795288000,3.1462880859375,-2.388463258743286,-2.913266658782959,0.5554037094116211
1761380687805343000,3.156343017578125,-2.4228148460388184,-2.182316541671753,1.527921199798584
1761380687815399000,3.16639892578125,-2.181757926940918,-1.9927966594696045,1.921799898147583
1761380687825454800,3.176454833984375,-1.7803434133529663,-2.163918972015381,1.7453811168670654
1761380687835511000,3.186510986328125,-1.3600668907165527,-2.405475378036499,1.1409262418746948
1761380687845567000,3.19656689453125,-1.0128597021102905,-2.3540031909942627,0.3137580156326294
1761380687855622100,3.2066220703125,-0.7868462204933167,-1.8762238025665283,-0.5325593948364258
1761380687865678000,3.216677978515625,-0.6846863031387329,-1.3589228391647339,-1.2346934080123901
1761380687875734000,3.226734130859375,-0.6747862696647644,-1.1366448402404785,-1.6730151176452637
1761380687885790200,3.236790283203125,-0.7171745896339417,-1.4293239116668701,-1.7324979305267334
1761380687895844900,3.246844970703125,-0.8267602324485779,-1.9581305980682373,-1.3706955909729004
1761380687905901000,3.256901123046875,-1.0615655183792114,-2.2453455924987793,-0.6968106627464294
1761380687915957000,3.26695703125,-1.350380539894104,-2.196627140045166,0.07237954437732697
1761380687926013000,3.277012939453125,-1.4819791316986084,-1.8664301633834839,0.6304409503936768
1761380687936069000,3.287069091796875,-1.5202796459197998,-1.6235826015472412,0.7865872383117676
1761380687946124000,3.2971240234375,-1.383763074874878,-1.1459428071975708,0.7225469946861267
1761380687956180000,3.307179931640625,-1.105220913887024,-0.39882007241249084,0.5407192707061768
1761380687966236200,3.317236083984375,-0.7346532344818115,0.4281769394874573,0.3463987410068512
1761380687976292000,3.3272919921875,-0.3630529046058655,1.206929087638855,0.1435607224702835
1761380687986348000,3.33734814453125,-0.07661262154579163,1.8152790069580078,-0.009428031742572784
1761380687996403000,3.34740283203125,0.14124850928783417,2.257100820541382,-0.022812794893980026
1761380688006459000,3.357458984375,0.3853594660758972,2.6993088722229004,0.122561976313591
1761380688016515000,3.36751513671875,0.3539900481700897,2.8200595378875732,0.4203699231147766
1761380688026571000,3.377571044921875,0.21366488933563232,3.0426578521728516,0.9188188910484314
1761380688036627000,3.387626953125,0.20718728005886078,3.2798213958740234,1.4705967903137207
1761380688046682000,3.39768212890625,0.3164362609386444,3.414008855819702,2.06162691116333
1761380688056737800,3.40773779296875,0.5475010871887207,3.2863237857818604,2.6462011337280273
1761380688066794000,3.4177939453125,0.9675835967063904,3.0210821628570557,2.8640377521514893
1761380688076850000,3.427849853515625,1.492205023765564,2.591114044189453,2.3800976276397705
1761380688086905000,3.437905029296875,1.9980237483978271,2.436234474182129,1.2963645458221436
1761380688096961000,3.4479609375,2.3469040393829346,3.028799295425415,0.2544797658920288
1761380688107017000,3.458016845703125,2.428680658340454,3.9332222938537598,-0.05373929440975189
1761380688117073200,3.4680732421875,2.2918405532836914,4.765949249267578,0.3773142397403717
1761380688127129000,3.478129150390625,2.0486433506011963,5.276094436645508,1.1648250818252563
1761380688137184000,3.48818408203125,1.8773539066314697,5.325046062469482,1.9936232566833496
1761380688147240000,3.498239990234375,1.8137421607971191,5.04017448425293,2.5295512676239014
1761380688157295900,3.5082958984375,1.681488275527954,4.471277236938477,2.811959743499756
1761380688167352000,3.51835205078125,1.5599147081375122,3.714769124984741,3.004671812057495
1761380688177408000,3.528407958984375,1.4246890544891357,2.9361863136291504,3.0193915367126465
1761380688187463200,3.538463134765625,1.2084242105484009,2.4211015701293945,2.6924986839294434
1761380688197519000,3.54851904296875,0.9225924015045166,2.028520345687866,2.052769660949707
1761380688207575000,3.558574951171875,0.7268074154853821,1.6554557085037231,1.371329426765442
1761380688217631000,3.568630859375,0.788978636264801,1.4442286491394043,0.8099842071533203
1761380688227687200,3.578687255859375,0.8041133284568787,1.056212306022644,0.2846989035606384
1761380688237741800,3.588741943359375,0.9229739308357239,0.9096114635467529,0.025695962831377983
1761380688247798000,3.598798095703125,1.0621049404144287,0.8699953556060791,-0.1485980749130249
1761380688257854000,3.60885400390625,1.020310640335083,1.0325506925582886,-0.33879393339157104
1761380688267910000,3.618909912109375,0.7967039346694946,1.2637463808059692,-0.496223509311676
1761380688277966000,3.628966064453125,0.6728509664535522,1.4218032360076904,-0.6138270497322083
1761380688288021000,3.63902099609375,0.7263602614402771,1.3080028295516968,-0.6872541308403015
1761380688298077200,3.6490771484375,0.8521761298179626,0.8542582392692566,-0.7084429860115051
1761380688308133000,3.659133056640625,0.9254258275032043,0.21940962970256805,-0.6632789373397827
1761380688318188800,3.669188720703125,0.9230484962463379,-0.3731478452682495,-0.572310209274292
1761380688328244000,3.679243896484375,0.8744463324546814,-0.8879978656768799,-0.5069652795791626
1761380688338300000,3.6892998046875,0.7379616498947144,-1.1986411809921265,-0.451940655708313
1761380688348356000,3.699356201171875,0.6090081930160522,-1.168475866317749,-0.23755113780498505
1761380688358412000,3.709412109375,0.42184674739837646,-1.336577296257019,0.10966306924819946
1761380688368468000,3.719468017578125,0.1705726832151413,-1.8237639665603638,0.5250133872032166
1761380688378523100,3.729523193359375,-0.04276729375123978,-2.2833662033081055,0.8864296078681946
1761380688388579000,3.7395791015625,-0.24858064949512482,-2.7962889671325684,1.0539418458938599
1761380688398635000,3.749635009765625,-0.43622416257858276,-3.086726427078247,0.976932168006897
1761380688408691000,3.75969091796875,-0.6908514499664307,-3.07275652885437,0.7051270008087158
1761380688418747000,3.769746826171875,-1.2018963098526,-2.80808162689209,0.2928794324398041
1761380688428802000,3.779802001953125,-1.8008567094802856,-2.587867259979248,0.07410953938961029
1761380688438858000,3.78985791015625,-2.394001007080078,-2.951569080352783,0.10746298730373383
1761380688448914200,3.7999140625,-2.841487407684326,-3.497894763946533,-0.06934481114149094
1761380688458970000,3.80997021484375,-2.982205867767334,-3.9273524284362793,-0.4658329486846924
1761380688469026000,3.820026123046875,-2.8565876483917236,-4.660510063171387,-0.7015373706817627
1761380688479081000,3.8300810546875,-2.3442165851593018,-5.376837253570557,-0.6452044248580933
1761380688489137000,3.840136962890625,-1.763907790184021,-6.029082775115967,-0.4287238121032715
1761380688499192800,3.85019287109375,-1.4536819458007812,-6.208256244659424,-0.07566642016172409
1761380688509249000,3.8602490234375,-1.4435774087905884,-5.619307994842529,0.3871779143810272
1761380688519305000,3.870304931640625,-1.4405359029769897,-4.69940185546875,0.7683109045028687
1761380688529360100,3.880360107421875,-1.4187947511672974,-3.766979932785034,0.835220217704773
1761380688539416000,3.890416015625,-1.2823240756988525,-2.9329752922058105,0.5940007567405701
1761380688549472300,3.90047216796875,-0.9698399901390076,-2.1161692142486572,0.18889927864074707
1761380688559528400,3.910528564453125,-0.6160308122634888,-1.668801188468933,-0.3142560124397278
1761380688569584400,3.92058447265625,-0.29750099778175354,-1.6765919923782349,-0.8464487791061401
1761380688579639600,3.9306396484375,0.009077133610844612,-1.8625227212905884,-1.3551255464553833
1761380688589695500,3.940695556640625,0.34057196974754333,-2.0446503162384033,-1.7407445907592773
1761380688599751400,3.95075146484375,0.4970104992389679,-2.11458158493042,-2.043433427810669
1761380688609807600,3.9608076171875,0.47214004397392273,-1.9363313913345337,-2.1474194526672363
1761380688619863600,3.970863525390625,0.39120566844940186,-1.5667266845703125,-2.0578370094299316
1761380688629918500,3.98091845703125,0.15972156822681427,-1.283713698387146,-1.8653833866119385
1761380688639974400,3.990974365234375,-0.3043333888053894,-1.1639225482940674,-1.61897873878479
1761380688650030300,4.0010302734375,-0.9302427768707275,-1.1427266597747803,-1.320339322090149
1761380688660083200,4.011083251953125,-1.5082075595855713,-1.0966851711273193,-0.9600131511688232
1761380688670139400,4.021139404296875,-1.9058837890625,-0.8344559073448181,-0.5894095301628113
1761380688680194300,4.0311943359375,-2.1191277503967285,-0.5071598887443542,-0.25312039256095886
1761380688690250500,4.04125048828125,-2.2215850353240967,-0.12661173939704895,0.08244241774082184
1761380688700306400,4.051306396484375,-2.216919422149658,0.16047805547714233,0.47662732005119324
1761380688710362400,4.0613623046875,-2.0419676303863525,0.3220357894897461,0.9052268266677856
1761380688720418600,4.07141845703125,-1.74871826171875,0.40008124709129333,1.3129689693450928
1761380688730473200,4.08147314453125,-1.195726752281189,0.4858909547328949,1.7385727167129517
1761380688740529400,4.091529296875,-0.6034986972808838,0.7636342644691467,2.085092306137085
1761380688750585300,4.10158544921875,-0.07104148715734482,1.3198654651641846,2.2146482467651367
1761380688760641300,4.111641357421875,0.4661582112312317,1.8168182373046875,2.0041427612304688
1761380688770697500,4.121697509765625,0.9074908494949341,2.4125518798828125,1.4739824533462524
1761380688780752400,4.13175244140625,1.1145377159118652,2.9645981788635254,0.7288500666618347
1761380688790808300,4.141808349609375,1.1766403913497925,3.3058524131774902,0.08555635064840317
1761380688800864500,4.151864501953125,1.4679081439971924,3.4921607971191406,-0.17430078983306885
1761380688810920400,4.16192041015625,1.8709152936935425,3.322514057159424,-0.2931946814060211
1761380688820976400,4.171976318359375,2.3765006065368652,2.8968684673309326,-0.450830340385437
1761380688831031300,4.18203125,3.0380618572235107,2.4411160945892334,-0.613630473613739
1761380688841087200,4.192087158203125,3.6356797218322754,2.524793863296509,-0.6361146569252014
1761380688851143400,4.202143310546875,3.8140149116516113,3.045038938522339,-0.5074581503868103
1761380688861199400,4.212199462890625,3.456777811050415,3.5885705947875977,-0.1671733558177948
1761380688871255300,4.22225537109375,2.729168653488159,4.0132527351379395,0.26190900802612305
1761380688881310500,4.232310546875,2.031708240509033,4.212804317474365,0.8130589723587036
1761380688891366400,4.242366455078125,1.6439825296401978,4.119235038757324,1.4012274742126465
1761380688901422600,4.252422607421875,1.377884030342102,3.762576103210449,1.6935157775878906
1761380688911478300,4.262478271484375,1.1816327571868896,3.330872058868408,1.5928373336791992
1761380688921534200,4.2725341796875,0.9992353320121765,3.218533992767334,1.337114930152893
1761380688931589400,4.28258935546875,0.7274267077445984,3.332333564758301,1.1080503463745117
1761380688941645300,4.292645263671875,0.3467031419277191,3.231544256210327,0.8937069773674011
1761380688951701500,4.302701416015625,0.027574412524700165,2.9541540145874023,0.6342740654945374
1761380688961757400,4.31275732421875,-0.15391859412193298,2.664264440536499,0.2180546522140503
1761380688971812600,4.3228125,-0.2302597016096115,2.48663067817688,-0.307563841342926
1761380688981868500,4.33286865234375,-0.20917676389217377,2.45261287689209,-0.8473346829414368
1761380688991924200,4.34292431640625,-0.12944838404655457,2.4312758445739746,-1.3041523694992065
1761380689001980400,4.35298046875,-0.035708583891391754,2.4476318359375,-1.6848002672195435
1761380689012036400,4.363036376953125,0.10584747791290283,2.384918689727783,-1.8920631408691406
1761380689022091300,4.37309130859375,0.2535954713821411,2.0701398849487305,-1.9420435428619385
1761380689032147500,4.3831474609375,0.5348218083381653,1.618797779083252,-1.7505617141723633
1761380689042203400,4.393203369140625,0.9870139956474304,1.0402973890304565,-1.426774501800537
1761380689052259300,4.40325927734375,1.3965460062026978,0.16545487940311432,-1.1117123365402222
1761380689062315500,4.4133154296875,1.682637333869934,-0.6951801180839539,-0.8329818248748779
1761380689072372500,4.42337255859375,1.811532974243164,-1.2846705913543701,-0.5909553170204163
1761380689082428400,4.433428466796875,1.6420059204101562,-1.6162679195404053,-0.34105628728866577
1761380689092484400,4.443484375,1.212406039237976,-1.6467965841293335,0.012267975136637688
1761380689102540500,4.45354052734375,0.6430214047431946,-1.4987256526947021,0.5076881647109985
1761380689112596200,4.46359619140625,0.15595635771751404,-1.4901069402694702,1.0049104690551758
1761380689122651400,4.4736513671875,-0.09097481518983841,-1.765700340270996,1.271122932434082
1761380689132707300,4.483707275390625,-0.11550012975931168,-2.0805983543395996,1.088975191116333
1761380689142763300,4.49376318359375,-0.04134634882211685,-2.2024242877960205,0.4633331894874573
1761380689152819500,4.5038193359375,-0.03188946470618248,-1.9319148063659668,-0.389690637588501
1761380689162875400,4.51387548828125,-0.2558269202709198,-1.1879769563674927,-1.2012478113174438
1761380689172930600,4.5239306640625,-0.770718514919281,-0.7543773055076599,-1.4175726175308228
1761380689182986500,4.533986572265625,-1.4822790622711182,-1.1245594024658203,-1.1298266649246216
1761380689193042200,4.544042236328125,-2.038404941558838,-2.1969380378723145,-0.9165560603141785
1761380689203098400,4.554098388671875,-1.9270789623260498,-3.2122249603271484,-0.8903049230575562
1761380689213154300,4.564154296875,-1.6027225255966187,-4.046174049377441,-1.031746506690979
1761380689223209500,4.57420947265625,-1.5661741495132446,-4.85331916809082,-1.2114192247390747
1761380689233265400,4.584265380859375,-1.4686763286590576,-5.18342399597168,-1.2182796001434326
1761380689243321300,4.5943212890625,-1.3343780040740967,-5.094544887542725,-1.126605749130249
1761380689253377500,4.60437744140625,-1.2952189445495605,-4.522458553314209,-0.8813983798027039
1761380689263433500,4.61443359375,-1.4316129684448242,-3.8442869186401367,-0.610087513923645
1761380689273488400,4.62448828125,-1.5442278385162354,-3.4400854110717773,-0.4819934368133545
1761380689283544300,4.63454443359375,-1.4919942617416382,-3.178865671157837,-0.6074652075767517
1761380689293600300,4.644600341796875,-1.2760233879089355,-2.8530120849609375,-0.8657510280609131
1761380689303656400,4.654656494140625,-1.0207083225250244,-2.4402570724487305,-1.2309232950210571
1761380689313712400,4.66471240234375,-0.8252195119857788,-2.0748515129089355,-1.6234474182128906
1761380689323767300,4.674767333984375,-0.6560467481613159,-2.078998565673828,-1.9792721271514893
1761380689333823500,4.684823486328125,-0.408312052488327,-2.123156785964966,-2.2471723556518555
1761380689343879400,4.69487939453125,-0.28724050521850586,-2.0400922298431396,-2.411437749862671
1761380689353935400,4.704935302734375,-0.24716763198375702,-2.031527280807495,-2.5391194820404053
1761380689363991600,4.714991455078125,-0.31131625175476074,-1.9069596529006958,-2.3936383724212646
1761380689374046200,4.725046142578125,-0.6082017421722412,-1.4112762212753296,-1.703131079673767
1761380689384102400,4.735102294921875,-0.8794641494750977,-1.0630052089691162,-0.7266722917556763
1761380689394158300,4.745158447265625,-1.1169406175613403,-0.7173272371292114,0.30034029483795166
1761380689404214300,4.75521435546875,-1.1402639150619507,-0.3794923722743988,1.1621675491333008
1761380689414270500,4.7652705078125,-1.0484962463378906,-0.16681820154190063,1.7011994123458862
1761380689424325400,4.775325439453125,-0.9101376533508301,0.25378096103668213,1.8250657320022583
1761380689434381600,4.785381591796875,-0.7447957992553711,0.8232343196868896,1.5522781610488892
1761380689444437500,4.7954375,-0.5690701603889465,1.2902106046676636,1.0877138376235962
1761380689454493200,4.8054931640625,-0.4991464614868164,1.4373291730880737,0.6233387589454651
1761380689464549400,4.81554931640625,-0.4434393644332886,1.4729489088058472,0.35962972044944763
1761380689474604300,4.825604248046875,-0.37010523676872253,1.5953350067138672,0.45306724309921265
1761380689484660500,4.835660400390625,-0.29099133610725403,1.8186116218566895,0.8157225251197815
1761380689494716400,4.84571630859375,-0.10423608869314194,2.101044178009033,1.2153524160385132
1761380689504772400,4.8557724609375,0.15287895500659943,2.2959959506988525,1.4972368478775024
1761380689514828500,4.86582861328125,0.3612750172615051,2.375269651412964,1.435624361038208
1761380689524883500,4.875883544921875,0.5245676636695862,2.115121364593506,1.1505696773529053
1761380689534939400,4.885939453125,0.8520827293395996,1.9106167554855347,1.0344496965408325
1761380689544995300,4.895995361328125,1.1984881162643433,1.8308137655258179,1.0050907135009766
1761380689555050800,4.90605078125,1.4596900939941406,1.688848614692688,0.7949308156967163
1761380689565107000,4.91610693359375,1.7499946355819702,1.5466386079788208,0.04122058302164078
1761380689575163000,4.926162841796875,2.1669909954071045,1.6056729555130005,-1.274283766746521
1761380689585218000,4.936218017578125,2.6432299613952637,2.1694986820220947,-2.550600528717041
1761380689595274000,4.94627392578125,2.8946218490600586,3.116924524307251,-3.1425304412841797
1761380689605330000,4.956329833984375,2.7258424758911133,3.7771708965301514,-2.9723479747772217
1761380689615386000,4.96638623046875,2.37044358253479,4.188223838806152,-2.265547513961792
1761380689625441800,4.97644189453125,2.0591070652008057,4.555030822753906,-1.287697196006775
1761380689635497000,4.9864970703125,1.867060661315918,4.633660316467285,-0.28503671288490295
1761380689645553000,4.996552978515625,1.788304328918457,4.166213035583496,0.6279792189598083
1761380689655608800,5.00660888671875,1.7068251371383667,3.4147086143493652,1.299989104270935
1761380689665665000,5.0166650390625,1.5216666460037231,2.8471391201019287,1.496854543685913
1761380689675721000,5.026720947265625,1.2541176080703735,2.536184072494507,1.258960485458374
1761380689685776000,5.03677587890625,0.9609671235084534,2.2305240631103516,0.8986618518829346
1761380689695831800,5.046831787109375,0.7220877408981323,1.7754522562026978,0.5662239789962769
1761380689705887700,5.0568876953125,0.5742449760437012,1.221170425415039,0.21546173095703125
1761380689715944000,5.06694384765625,0.5147417187690735,0.7586352229118347,-0.10899332910776138
1761380689725999900,5.076999755859375,0.5333911180496216,0.5215507745742798,-0.32476887106895447
1761380689736054800,5.0870546875,0.6101093292236328,0.5389215350151062,-0.4283865988254547
1761380689746111000,5.097111083984375,0.6712930798530579,0.6114300489425659,-0.4860248267650604
1761380689756167000,5.1071669921875,0.6630511283874512,0.647499680519104,-0.5790705680847168
1761380689766222800,5.117222900390625,0.641839861869812,0.5365451574325562,-0.680899441242218
1761380689776279000,5.127279052734375,0.5987523198127747,0.1997956484556198,-0.7036452293395996
1761380689786333700,5.137333740234375,0.5812807083129883,-0.37734007835388184,-0.6216924786567688
1761380689796390000,5.147389892578125,0.5956343412399292,-1.0298454761505127,-0.4781649112701416
1761380689806445800,5.15744580078125,0.6010875701904297,-1.5463284254074097,-0.3216220736503601
1761380689816501800,5.167501708984375,0.5168637633323669,-1.8116817474365234,-0.13605806231498718
1761380689826558000,5.177557861328125,0.3294122815132141,-1.7606645822525024,0.08149509131908417
1761380689836612900,5.18761279296875,0.03737403824925423,-1.4724375009536743,0.3132777214050293
1761380689846669000,5.1976689453125,-0.2618620991706848,-1.1808940172195435,0.5352240204811096
1761380689856725000,5.20772509765625,-0.4652428925037384,-0.9858360290527344,0.697862982749939
1761380689866781000,5.217781005859375,-0.7166631817817688,-1.0956531763076782,0.7435044050216675
1761380689876836900,5.2278369140625,-0.9333750009536743,-1.4276299476623535,0.732256293296814
1761380689886891800,5.237891845703125,-1.1009585857391357,-1.807684302330017,0.6001425385475159
1761380689896948000,5.247947998046875,-1.2561403512954712,-2.073852777481079,0.31456851959228516
1761380689907004000,5.25800390625,-1.386810541152954,-1.8919132947921753,-0.10256736725568771
1761380689917059800,5.268059814453125,-1.4908615350723267,-0.9684563279151917,-0.44145992398262024
1761380689927116000,5.278115966796875,-1.6969575881958008,-0.015299340710043907,-0.5162162184715271
1761380689937171000,5.2881708984375,-1.8994041681289673,0.07166805118322372,-0.23461250960826874
1761380689947227000,5.298226806640625,-1.9295510053634644,-1.0781642198562622,0.13520511984825134
1761380689957282800,5.30828271484375,-1.763192892074585,-2.5211915969848633,0.22673210501670837
1761380689967338800,5.3183388671875,-1.4995667934417725,-3.505979299545288,0.04074971005320549
1761380689977395000,5.32839501953125,-1.2815243005752563,-4.244102954864502,-0.24884775280952454
1761380689987449900,5.338449951171875,-1.1213266849517822,-4.724246501922607,-0.5436044335365295
1761380689997505800,5.348505859375,-1.0526325702667236,-4.594100475311279,-0.6736668348312378
1761380690007562000,5.35856201171875,-1.17082679271698,-4.392725944519043,-0.4559195637702942
1761380690017618000,5.368617919921875,-1.3178412914276123,-3.976999282836914,0.08605501055717468
1761380690027673900,5.378673828125,-1.4710825681686401,-3.425990343093872,0.58900386095047
1761380690037728800,5.388728759765625,-1.4595146179199219,-2.903214931488037,0.9071584343910217
1761380690047784700,5.39878466796875,-1.2077434062957764,-2.5198519229888916,0.926234781742096
1761380690057841000,5.4088408203125,-0.9224388003349304,-2.2752270698547363,0.6424494385719299
1761380690067896800,5.418896728515625,-0.6877707242965698,-2.186729669570923,0.20494185388088226
1761380690077952800,5.428952880859375,-0.519123375415802,-2.1724300384521484,-0.25461214780807495
1761380690088008000,5.439008056640625,-0.38358068466186523,-2.1518514156341553,-0.5890994071960449
1761380690098064000,5.44906396484375,-0.36290788650512695,-2.0104262828826904,-0.7178440690040588
1761380690108120000,5.4591201171875,-0.48007702827453613,-1.7197831869125366,-0.6314520239830017
1761380690118176000,5.469176025390625,-0.6584388017654419,-1.2390258312225342,-0.3781670033931732
1761380690128232000,5.47923193359375,-0.8645914196968079,-0.6441053152084351,-0.045069340616464615
1761380690138287900,5.489287841796875,-1.0769226551055908,-0.06805448979139328,0.29261869192123413
1761380690148342800,5.4993427734375,-1.2968612909317017,0.25886109471321106,0.5739008188247681
1761380690158399000,5.50939892578125,-1.5598971843719482,0.3180253505706787,0.7310441136360168
1761380690168455000,5.519454833984375,-1.7083016633987427,0.299014687538147,0.7949796915054321
1761380690178510800,5.5295107421875,-1.6789413690567017,0.21795284748077393,0.8051058053970337
1761380690188567000,5.539567138671875,-1.6039834022521973,0.05676959455013275,0.7316487431526184
1761380690198622000,5.5496220703125,-1.4851633310317993,-0.1871940791606903,0.6519307494163513
1761380690208678000,5.559677978515625,-1.148093342781067,-0.3618118464946747,0.6579647660255432
1761380690218733800,5.56973388671875,-0.7321065664291382,-0.5609686374664307,0.6828288435935974
1761380690228789800,5.579789794921875,-0.26039138436317444,-0.539031982421875,0.7604068517684937
1761380690238846000,5.589845947265625,0.26502180099487305,-0.4592607617378235,0.7793576717376709
1761380690248900900,5.59990087890625,0.6414950489997864,-0.30788642168045044,0.5495625734329224
1761380690258956800,5.609956787109375,0.8391737937927246,0.10864714533090591,-0.022270087152719498
1761380690269013000,5.620012939453125,0.8489415645599365,0.9457550644874573,-0.7076231837272644
1761380690279069000,5.63006884765625,0.6402320265769958,2.028743028640747,-0.9867358207702637
1761380690289124900,5.640124755859375,0.5638505220413208,2.936581611633301,-0.7226698994636536
1761380690299179800,5.6501796875,0.7623782157897949,3.059680700302124,-0.46222126483917236
1761380690309235700,5.660235595703125,1.2317253351211548,2.4526877403259277,-0.9520094990730286
1761380690319292000,5.6702919921875,1.9890716075897217,1.9629212617874146,-1.951392412185669
1761380690329347800,5.680347900390625,2.6374828815460205,1.9608060121536255,-2.7447760105133057
1761380690339403800,5.69040380859375,2.677814483642578,2.1581456661224365,-3.1117513179779053
1761380690349459000,5.700458984375,2.3569366931915283,2.543980836868286,-2.8414371013641357
1761380690359515000,5.710514892578125,2.02588152885437,2.5264487266540527,-1.7886852025985718
1761380690369571000,5.720571044921875,1.8201172351837158,2.3007705211639404,-0.12107950448989868
1761380690379627000,5.730626953125,1.5252104997634888,2.4621195793151855,1.1808773279190063
1761380690389683000,5.740682861328125,1.1386473178863525,2.77268123626709,1.5630358457565308
1761380690399739000,5.75073876953125,0.8351053595542908,2.957667827606201,1.2953269481658936
1761380690409793800,5.760793701171875,0.7499147653579712,3.2440381050109863,0.7339304685592651
1761380690419850000,5.77085009765625,0.6978608965873718,3.3326756954193115,0.04610811918973923
1761380690429906000,5.780906005859375,0.772335410118103,3.132646083831787,-0.6831045746803284
1761380690439961900,5.7909619140625,1.05769681930542,2.863572359085083,-1.3181015253067017
1761380690450018000,5.80101806640625,1.2539175748825073,2.4452152252197266,-1.7625991106033325
1761380690460073000,5.811072998046875,1.375733733177185,2.0288946628570557,-1.890688419342041
1761380690470129000,5.82112890625,1.4630305767059326,1.7345712184906006,-1.7031242847442627
1761380690480184800,5.831184814453125,1.3162336349487305,1.4556972980499268,-1.26128089427948
1761380690490240800,5.84124072265625,1.1606398820877075,1.1795310974121094,-0.48309651017189026
1761380690500296700,5.851296630859375,1.0211392641067505,0.766924262046814,0.40244343876838684
1761380690510352000,5.861351806640625,0.8526459336280823,0.31398069858551025,1.124389410018921
1761380690520407800,5.87140771484375,0.573005735874176,-0.09398655593395233,1.4923416376113892
1761380690530464000,5.881464111328125,0.3026815354824066,-0.40389782190322876,1.489066243171692
1761380690540520000,5.89152001953125,0.08711410313844681,-0.5451779961585999,1.1555993556976318
1761380690550575900,5.901575927734375,-0.08419639617204666,-0.4204440414905548,0.5828313827514648
1761380690560634400,5.91163427734375,-0.2626050114631653,-0.07588721066713333,-0.028769396245479584
1761380690570690300,5.921690185546875,-0.3922445476055145,0.4060230553150177,-0.4276316463947296
1761380690580746500,5.93174658203125,-0.6121094822883606,0.722480058670044,-0.6659249067306519
1761380690590802400,5.941802490234375,-0.7979416847229004,0.9549088478088379,-0.6459401249885559
1761380690600858400,5.9518583984375,-0.9773663282394409,0.8196972608566284,-0.4832713007926941
1761380690610914600,5.96191455078125,-1.0971317291259766,0.23298045992851257,-0.2889927923679352
1761380690620969200,5.97196923828125,-1.1484556198120117,-0.5278766751289368,-0.12175319343805313
1761380690631025400,5.982025390625,-1.2462495565414429,-1.3093457221984863,-0.18729187548160553
1761380690641081300,5.992081298828125,-1.307198405265808,-1.871317982673645,-0.40959417819976807
1761380690651137300,6.00213720703125,-1.3299858570098877,-2.0598032474517822,-0.5796629786491394
1761380690661193500,6.012193359375,-1.3955936431884766,-1.8696715831756592,-0.34342384338378906
1761380690671248400,6.022248291015625,-1.510967493057251,-2.205878496170044,0.17818771302700043
1761380690681304600,6.0323046875,-1.3820315599441528,-3.1664016246795654,0.4916638433933258
1761380690691360500,6.042360595703125,-1.1493793725967407,-3.769242286682129,0.2001957893371582
1761380690701416400,6.05241650390625,-1.0822153091430664,-3.560427665710449,-0.5352403521537781
1761380690711472400,6.062472412109375,-1.2149370908737183,-3.1294240951538086,-1.4053152799606323
1761380690721527300,6.07252734375,-1.383796215057373,-3.0827746391296387,-1.750457525253296
1761380690731583200,6.082583251953125,-1.4909964799880981,-3.259463310241699,-1.3173632621765137
1761380690741639400,6.092639404296875,-1.4714040756225586,-3.342716932296753,-0.3418921232223511
1761380690751695400,6.1026953125,-1.4781765937805176,-3.012593984603882,0.5263996124267578
1761380690761751300,6.112751220703125,-1.6505331993103027,-2.365288019180298,0.7892323136329651
1761380690771806500,6.122806396484375,-1.8213813304901123,-1.8115369081497192,0.6526199579238892
1761380690781862400,6.1328623046875,-1.8458303213119507,-1.4643546342849731,0.34533166885375977
1761380690791918300,6.14291845703125,-1.7669579982757568,-1.2817866802215576,-0.061512891203165054
1761380690801974300,6.152974365234375,-1.693293809890747,-1.2661216259002686,-0.5146319270133972
1761380690812030200,6.1630302734375,-1.4984345436096191,-1.3585573434829712,-0.922812283039093
1761380690822085400,6.17308544921875,-1.1954174041748047,-1.5835249423980713,-1.2303478717803955
1761380690832141300,6.183141357421875,-0.9285876750946045,-1.814502239227295,-1.3783687353134155
1761380690842197500,6.193197509765625,-0.7461009621620178,-2.0314512252807617,-1.3560184240341187
1761380690852253400,6.20325341796875,-0.6341454982757568,-2.1936028003692627,-1.1771517992019653
1761380690862309400,6.213309326171875,-0.44435617327690125,-2.101912260055542,-0.8546576499938965
1761380690872364300,6.2233642578125,-0.32303768396377563,-1.6876375675201416,-0.5279569625854492
1761380690882420200,6.233420166015625,-0.4128924608230591,-1.0983355045318604,-0.29586783051490784
1761380690892476400,6.243476318359375,-0.5844277739524841,-0.5394839644432068,-0.14476777613162994
1761380690902532400,6.253532470703125,-0.8445930480957031,-0.224512979388237,0.025483321398496628
1761380690912588300,6.26358837890625,-1.0393205881118774,-0.12130524218082428,0.17584003508090973
1761380690922644500,6.27364453125,-1.0396246910095215,0.0279697272926569,0.25433167815208435
1761380690932699400,6.283699462890625,-0.9378970265388489,0.2655814588069916,0.2545667588710785
1761380690942755600,6.293755615234375,-0.7531293034553528,0.7329462766647339,0.2713875472545624
1761380690952811500,6.3038115234375,-0.5791150331497192,1.3058773279190063,0.35447052121162415
1761380690962867500,6.313867431640625,-0.3832416534423828,1.9702084064483643,0.5018344521522522
1761380690972923400,6.32392333984375,-0.14440223574638367,2.6951639652252197,0.6125066876411438
1761380690982978300,6.333978271484375,-0.0033556255511939526,3.1824591159820557,0.5912914276123047
1761380690993034200,6.3440341796875,0.25179120898246765,3.3454720973968506,0.5613337159156799
1761380691003090400,6.35409033203125,0.4793599247932434,3.0156915187835693,0.443340539932251
1761380691013146400,6.364146484375,0.7024139165878296,2.423098564147949,0.49086305499076843
1761380691023202300,6.374202392578125,0.972122073173523,1.9314923286437988,0.929909884929657
1761380691033257500,6.384257568359375,1.2440437078475952,1.664379358291626,1.588934063911438
1761380691043313400,6.3943134765625,1.537922739982605,1.224955677986145,1.931288480758667
1761380691053369300,6.404369384765625,1.9719526767730713,0.5109193325042725,1.601157546043396
1761380691063425300,6.41442529296875,2.640141725540161,0.36831748485565186,0.8104767799377441
1761380691073481200,6.424481201171875,3.2203948497772217,0.9105119109153748,0.12471868097782135
1761380691083537400,6.434537353515625,3.197044849395752,1.643367886543274,-0.24645459651947021
1761380691093592300,6.44459228515625,2.820693254470825,2.471766710281372,-0.3382314145565033
1761380691103648500,6.4546484375,2.293552875518799,3.1607017517089844,-0.2657843828201294
1761380691113704400,6.464704345703125,1.8497556447982788,3.7221627235412598,-0.026057694107294083
1761380691123760400,6.474760498046875,1.4260497093200684,3.9098496437072754,0.262746125459671
1761380691133816600,6.484816650390625,1.110588550567627,3.817295789718628,0.5942224860191345
1761380691143871200,6.494871337890625,1.003222942352295,3.5661373138427734,0.8618975877761841
1761380691153927400,6.504927490234375,1.0645356178283691,3.073795795440674,0.9178083539009094
1761380691163983400,6.5149833984375,1.1542171239852905,2.4558656215667725,0.7100231647491455
1761380691174039300,6.525039306640625,1.1997439861297607,1.8733464479446411,0.2869487404823303
1761380691184095500,6.535095458984375,1.2782371044158936,1.3424018621444702,-0.19436436891555786
1761380691194150400,6.545150390625,1.3738226890563965,0.9694608449935913,-0.588271975517273
1761380691204206600,6.55520654296875,1.3207154273986816,0.7282415628433228,-0.8703463077545166
1761380691214262500,6.565262451171875,1.280569076538086,0.7326948046684265,-0.9086604714393616
1761380691224318500,6.575318359375,1.2084672451019287,0.8602900505065918,-0.8241506218910217
1761380691234374400,6.58537451171875,1.0578447580337524,0.942261278629303,-0.617926299571991
1761380691244429300,6.59542919921875,0.9327059984207153,0.8957366347312927,-0.3071271777153015
1761380691254485200,6.6054853515625,0.9804284572601318,0.637196958065033,0.05545269325375557
1761380691264541400,6.61554150390625,1.1564933061599731,0.011979936622083187,0.27940163016319275
1761380691274597400,6.625597412109375,1.3680644035339355,-0.760342538356781,0.28609028458595276
1761380691284653300,6.6356533203125,1.5265967845916748,-1.3525409698486328,0.1219375729560852
1761380691294709500,6.64570947265625,1.6204829216003418,-1.6191514730453491,-0.12490543723106384
1761380691304764400,6.655764404296875,1.6170320510864258,-1.5571244955062866,-0.3425714373588562
1761380691314820400,6.6658203125,1.4393270015716553,-1.1595690250396729,-0.38232502341270447
1761380691324876300,6.675876220703125,1.0487343072891235,-0.5857861638069153,-0.2980799376964569
1761380691334932200,6.68593212890625,0.5548803210258484,-0.04022498428821564,-0.08260378986597061
1761380691344988400,6.695988525390625,0.0673535019159317,0.27559101581573486,0.2840075194835663
1761380691355043300,6.706043212890625,-0.3361463248729706,0.27727583050727844,0.6717122197151184
1761380691365099500,6.716099609375,-0.6673972010612488,0.038671232759952545,0.9309842586517334
1761380691375155500,6.726155517578125,-0.9055015444755554,-0.35432249307632446,0.9139824509620667
1761380691385211400,6.73621142578125,-1.0334962606430054,-0.8080066442489624,0.6404232978820801
1761380691395267600,6.746267578125,-1.1090856790542603,-1.029504656791687,0.25516316294670105
1761380691405322200,6.756322265625,-1.1837825775146484,-0.7995636463165283,-0.06954808533191681
1761380691415378400,6.76637841796875,-1.3767144680023193,-0.7897768020629883,-0.3178907036781311
1761380691425434400,6.776434326171875,-1.3649462461471558,-1.2834054231643677,-0.43834415078163147
1761380691435490300,6.786490234375,-1.1092114448547363,-2.049391031265259,-0.7452624440193176
1761380691445546500,6.79654638671875,-0.7214652895927429,-2.3484787940979004,-1.3447884321212769
1761380691455602400,6.8066025390625,-0.49299418926239014,-2.7765085697174072,-1.8632824420928955
1761380691465657600,6.81665771484375,-0.5272762775421143,-3.3803699016571045,-1.8259785175323486
1761380691475713500,6.826713623046875,-0.6229190230369568,-3.7050139904022217,-1.2507542371749878
1761380691485769500,6.83676953125,-0.8204536437988281,-3.244441509246826,-0.3306672275066376
1761380691495825400,6.846825439453125,-1.1056464910507202,-2.2707395553588867,0.6406892538070679
1761380691505881300,6.85688134765625,-1.3617336750030518,-1.5616092681884766,1.1375243663787842
1761380691515936300,6.866936279296875,-1.4138319492340088,-1.2999656200408936,0.9797111749649048
1761380691525992400,6.876992431640625,-1.20879065990448,-1.0144253969192505,0.3782312273979187
1761380691536048400,6.88704833984375,-1.1112562417984009,-0.7142543792724609,-0.3715813457965851
1761380691546104300,6.897104248046875,-0.9978724122047424,-0.46588051319122314,-0.9319703578948975
1761380691556157000,6.907156982421875,-0.8121292591094971,-0.46921688318252563,-1.2099965810775757
1761380691566211600,6.917211669921875,-0.6251676082611084,-0.6346977353096008,-1.1508269309997559
1761380691576267800,6.927267822265625,-0.5490375757217407,-0.9577602744102478,-0.8499104380607605
1761380691586323700,6.93732373046875,-0.47915515303611755,-1.3133817911148071,-0.42096149921417236
1761380691596379600,6.947379638671875,-0.30751538276672363,-1.516313076019287,0.013684965670108795
1761380691606435800,6.957435791015625,-0.20887510478496552,-1.5767641067504883,0.25149327516555786
1761380691616490800,6.96749072265625,-0.20324251055717468,-1.3126097917556763,0.17316392064094543
1761380691626547000,6.977546875,-0.29508161544799805,-0.8312157392501831,-0.12437241524457932
1761380691636603000,6.987602783203125,-0.5593132376670837,-0.24239088594913483,-0.4759892225265503
1761380691646658600,6.997658447265625,-0.9011344909667969,0.4162495732307434,-0.7816346287727356
1761380691656714800,7.00771484375,-1.1068695783615112,0.9939066767692566,-0.8980770707130432
1761380691666770700,7.017770751953125,-1.1825096607208252,1.5265499353408813,-0.8481060266494751
1761380691676825900,7.027825927734375,-1.1399205923080444,1.9483298063278198,-0.6940356492996216
1761380691686881800,7.0378818359375,-0.9946886301040649,2.239494562149048,-0.41637131571769714
1761380691696937700,7.047937744140625,-0.7617021203041077,2.5203816890716553,-0.08537697792053223
1761380691706994000,7.057993896484375,-0.4619401693344116,2.71028995513916,0.24421608448028564
1761380691717049900,7.0680498046875,-0.059834178537130356,2.952131986618042,0.5633916854858398
1761380691727104800,7.078104736328125,0.34923267364501953,3.0071840286254883,0.6961166858673096
1761380691737160700,7.08816064453125,0.7492508888244629,2.7305686473846436,0.7580406069755554
1761380691747216600,7.098216552734375,1.1054145097732544,2.0503227710723877,0.7912619113922119
1761380691757272800,7.10827294921875,1.4635108709335327,1.2187843322753906,0.777087390422821
1761380691767328800,7.118328857421875,1.795842170715332,0.6201225519180298,0.809139609336853
1761380691777383700,7.1283837890625,1.950042724609375,0.20036210119724274,0.9203178882598877
1761380691787439900,7.13843994140625,1.7586517333984375,-0.04439784958958626,1.195251703262329
1761380691797495800,7.148495849609375,1.5825735330581665,0.3462110757827759,1.844738245010376
1761380691807551700,7.1585517578125,1.3789674043655396,0.8303596377372742,1.941593885421753
1761380691817608000,7.16860791015625,1.480531930923462,1.5425018072128296,0.8675995469093323
1761380691827663600,7.17866357421875,1.9993181228637695,2.3474578857421875,-0.9673408269882202
1761380691837718800,7.18871875,2.3740546703338623,2.7979941368103027,-2.4877047538757324
1761380691847774700,7.198774658203125,2.4091997146606445,3.288421869277954,-3.066877603530884
1761380691857830700,7.20883056640625,2.1736788749694824,3.6581709384918213,-2.8926587104797363
1761380691867886800,7.218886962890625,1.9350299835205078,3.8898367881774902,-2.3361659049987793
1761380691877942800,7.22894287109375,1.6540980339050293,3.771766424179077,-1.545944094657898
1761380691887998000,7.238998046875,1.3235092163085938,3.160342216491699,-0.46079328656196594
1761380691898054000,7.249053955078125,1.095211148262024,2.108964681625366,0.4581986665725708
1761380691908109600,7.259109619140625,1.0654844045639038,1.4001818895339966,0.832146406173706
1761380691918165800,7.269165771484375,0.9941916465759277,1.0911039113998413,0.6378915309906006
1761380691928221700,7.2792216796875,0.9579553604125977,0.9142099022865295,0.08719536662101746
1761380691938276900,7.28927685546875,1.0855070352554321,0.9010118246078491,-0.5793939828872681
1761380691948332800,7.299332763671875,1.1881414651870728,0.9443283677101135,-1.1640833616256714
1761380691958388700,7.309388671875,1.2129871845245361,0.9446098804473877,-1.5242774486541748
1761380691968445000,7.31944482421875,1.2212973833084106,0.863370954990387,-1.620133638381958
1761380691978500900,7.3295009765625,1.1535325050354004,0.7008841037750244,-1.4984219074249268
1761380691988556800,7.339556884765625,1.00795578956604,0.5548177361488342,-1.2286280393600464
1761380691998611700,7.34961181640625,0.8731389045715332,0.4542938768863678,-0.9591753482818604
1761380692008667600,7.359667724609375,0.7795745730400085,0.3603314459323883,-0.8090242147445679
1761380692018723800,7.369723876953125,0.6954246163368225,0.39205166697502136,-0.7920783162117004
1761380692028779800,7.37977978515625,0.6525930166244507,0.5039563179016113,-0.872294008731842
1761380692038835700,7.389835693359375,0.5988947749137878,0.4754098951816559,-1.0134358406066895
1761380692048891000,7.399890869140625,0.5836060643196106,0.29450857639312744,-1.1534194946289062
1761380692058946800,7.40994677734375,0.5540071129798889,0.033153705298900604,-1.1501315832138062
1761380692069002800,7.420002685546875,0.42063573002815247,-0.2048487365245819,-0.9223514795303345
1761380692079059000,7.430058837890625,0.297532320022583,-0.2905505299568176,-0.4087938666343689
1761380692089114600,7.440114501953125,-0.08337320387363434,-0.5885524153709412,0.22214600443840027
1761380692099170600,7.450170654296875,-0.4064619839191437,-0.9858478307723999,1.0447195768356323
1761380692109225700,7.460225830078125,-0.6676881909370422,-1.5037420988082886,1.9424704313278198
1761380692119281700,7.47028173828125,-0.9164462685585022,-1.9710750579833984,2.66507887840271
1761380692129337900,7.480337890625,-1.0530402660369873,-2.1920034885406494,3.050368547439575
1761380692139393800,7.490393798828125,-1.083628535270691,-2.2383010387420654,2.9594907760620117
1761380692149449700,7.50044970703125,-1.0625656843185425,-2.125434398651123,2.3770484924316406
1761380692159504600,7.510504638671875,-1.085461974143982,-1.9352585077285767,1.6547836065292358
1761380692169560600,7.520560546875,-1.0413358211517334,-1.9625005722045898,0.9446119666099548
1761380692179616800,7.53061669921875,-0.9479408860206604,-2.0363376140594482,-0.12629078328609467
1761380692189672700,7.540672607421875,-0.8974971771240234,-1.7089210748672485,-1.4599400758743286
1761380692199728600,7.550728759765625,-0.9800809025764465,-1.4334120750427246,-2.342407703399658
1761380692209784800,7.560784912109375,-0.933944046497345,-1.4310003519058228,-2.1561732292175293
1761380692219839700,7.57083984375,-0.903033971786499,-1.4303948879241943,-1.250138759613037
1761380692229896000,7.58089599609375,-0.9922996759414673,-1.5174778699874878,-0.06467072665691376
1761380692239952000,7.590951904296875,-1.1108531951904297,-1.5234675407409668,1.0528454780578613
1761380692250007800,7.6010078125,-1.3421971797943115,-1.424149751663208,2.024864435195923
1761380692260063700,7.611063720703125,-1.5907998085021973,-1.7271171808242798,2.2454724311828613
1761380692270118700,7.62111865234375,-1.6839460134506226,-2.303083896636963,1.4934818744659424
1761380692280174800,7.6311748046875,-1.617063283920288,-2.7654314041137695,0.3132217228412628
1761380692290230800,7.641230712890625,-1.4890611171722412,-3.0533716678619385,-0.6433447003364563
1761380692300286700,7.65128662109375,-1.453176498413086,-3.0756683349609375,-1.0426311492919922
1761380692310343000,7.661343017578125,-1.555671215057373,-2.963408946990967,-0.8476403951644897
