time,seconds_elapsed,z,y,x
1761380429693730800,0.081730712890625,-0.02001753663420677,-0.011252813561446964,0.032688665161514655
1761380429703814000,0.09181396484375,-0.023102058646082876,-0.013661555203609168,0.03068811159459874
1761380429713895700,0.101895751953125,0.11762333986163138,0.035223581333458424,-0.04368206060179509
1761380429723977700,0.111977783203125,0.07300970663130282,0.02261372713986784,-0.020033857581345363
1761380429734060800,0.122060791015625,-0.01819850451350212,-0.012120499774068594,0.02389237790671177
1761380429744142800,0.132142822265625,0.055412675142288204,0.012759564862586557,-0.0010637567739933728
1761380429754225000,0.142224853515625,0.10264262835085392,0.03228106160815805,-0.03314677505940199
1761380429764307700,0.1523076171875,0.023206688064336775,0.0017100187882781027,0.006628706557909026
1761380429774389800,0.1623896484375,0.021297639572620392,-0.0067430079868063325,0.013518749199435114
1761380429784471800,0.172471923828125,0.08709376156330108,0.025884017514809964,-0.023056794732250273
1761380429794554600,0.1825546875,0.06822422592043877,0.012714337481372058,-0.014184948890050873
1761380429804636700,0.19263671875,0.010200491496920585,-0.000809343621507287,0.015089396049641072
1761380429814718700,0.20271875,0.03234218067824841,0.004635002856887877,-0.006627062590094283
1761380429824801800,0.2128017578125,0.07571721202433108,0.023995390756614506,-0.019892293686186894
1761380429834883600,0.222883544921875,0.042214755395054815,0.01158303189650178,0.0054610784174874425
1761380429844965600,0.232965576171875,0.01888473321199417,0.0028279169023036955,0.013265669487509875
1761380429855049000,0.243049072265625,0.054767947497963904,0.019507139426656068,-0.010473052227450534
1761380429865130800,0.253130859375,0.05806055930256843,0.014978081162273883,-0.012475761218834668
1761380429875212500,0.263212646484375,0.02411445055902004,0.0018616291534155607,0.0023286530101206153
1761380429885295900,0.2732958984375,0.05104629662632942,0.01076152291316539,0.00006004135785624385
1761380429895378000,0.2833779296875,0.07362170104980469,0.020543862063251435,-0.016681871139165014
1761380429905460000,0.2934599609375,0.04026128323972225,0.007985811122134328,-0.0024971049122046677
1761380429915542800,0.303542724609375,0.029947979018092152,0.005486066728271543,0.0016753767331596464
1761380429925624800,0.313624755859375,0.06091536421179771,0.014808935140445827,-0.011476521048415452
1761380429935707000,0.323706787109375,0.05119301162064075,0.009594415362551808,-0.006416132386308163
1761380429945789700,0.333789794921875,0.0365425549775362,0.006220664613135159,0.0008095902166794985
1761380429955871700,0.343871826171875,0.053445174461603163,0.016270130266807972,-0.010402635606052353
1761380429965953800,0.353953857421875,0.05986790098547935,0.009466989590600132,-0.0017758505661040543
1761380429976036900,0.364036865234375,0.040272389155626295,0.0094681221017614,-0.0028597002800554035
1761380429986119000,0.374118896484375,0.036085458859801293,0.006612184681370854,-0.00299698985889554
1761380429996200000,0.384199951171875,0.05029460147619247,0.017783092113025485,-0.004258022770658136
1761380430006282800,0.39428271484375,0.05284194787144661,0.018013393737562,-0.0034257275318261234
1761380430016364800,0.40436474609375,0.04117781356275081,0.007537336702272295,-0.0031401520560961215
1761380430026446800,0.41444677734375,0.04760521626174449,0.007260529054887593,-0.01306516934619285
1761380430036530000,0.424530029296875,0.054041971310973165,0.013457045607455073,-0.005196143870986998
1761380430046612000,0.434612060546875,0.04312953215241432,0.014887772530317306,0.00009271978475153446
1761380430056693800,0.44469384765625,0.04508066622018814,0.01171319761481136,-0.008225145436497404
1761380430066777000,0.454777099609375,0.05360591798126697,0.012667758393287657,-0.007473130625952035
1761380430076859000,0.46485888671875,0.0446294153213501,0.004848389879241586,-0.010274789708992465
1761380430086941000,0.47494091796875,0.04149462442696094,0.007138071718998253,-0.003445208550430834
1761380430097024000,0.48502392578125,0.05226619381010532,0.014350377717986702,-0.00893712963075377
1761380430107106000,0.49510595703125,0.05151800579130649,0.015569653847254812,-0.007645317988237366
1761380430117188000,0.50518798828125,0.03834814309477806,0.006546352903544902,-0.004649634170439094
1761380430127271000,0.51527099609375,0.04193769201934337,0.007848411945439875,0.00041770482226274907
1761380430137353000,0.52535302734375,0.05105857158601284,0.019799729165062306,-0.004342769311508164
1761380430147435800,0.535435791015625,0.05435059886872768,0.013225501873902975,-0.0106085151753854
1761380430157517800,0.545517822265625,0.043130701196193694,0.007893602794036269,-0.011697525121644138
1761380430167599900,0.555599853515625,0.059733460950851434,0.01587207085993141,-0.0034397560571786012
1761380430177683000,0.565682861328125,0.05329027616083622,0.016666436108015478,-0.005898775715008377
1761380430187765000,0.575764892578125,0.05030103121697902,0.009307597777806221,-0.00800213206927292
1761380430197846800,0.5858466796875,0.050903088763356204,0.01135897734966129,-0.0072631685365457084
1761380430207929900,0.595929931640625,0.04582359354197979,0.011145772990398109,-0.005923188637057319
1761380430218012000,0.606011962890625,0.0423854357868433,0.014065350231528282,-0.003321865298552438
1761380430228094000,0.616093994140625,0.0426817883849144,0.0059153249910101294,-0.0045105636264663185
1761380430238176800,0.6261767578125,0.04552490285634994,0.008322313067503273,0.0007573759722523391
1761380430248258800,0.6362587890625,0.04163490968048572,0.012965499230846762,0.003667399933747947
1761380430258340900,0.6463408203125,0.043722237348556514,0.014179332000017164,-0.003734245491726324
1761380430268423700,0.656423583984375,0.050153147178888316,0.014879844952188432,-0.004476679623173549
1761380430278505700,0.666505615234375,0.053153498038649556,0.011855820955894887,0.0030347828523255883
1761380430288587800,0.676587890625,0.049263504862785336,0.00885210909526795,-0.0002391333849634975
1761380430298671000,0.686671142578125,0.03997954368889332,0.011587708071619272,-0.006301630028011277
1761380430308753000,0.6967529296875,0.041623219242691994,0.011643785640411079,-0.008999463410396128
1761380430318835000,0.7068349609375,0.042673605078458784,0.009044124536029994,-0.00565062790652737
1761380430328918000,0.71691796875,0.03698737613558769,0.010654299679026006,-0.005746507762745022
1761380430339000000,0.727,0.0411783980846405,0.009544036882184446,-0.0022654881134163587
1761380430349082000,0.73708203125,0.04716740936636925,0.018448095360398292,-0.009980199809744954
1761380430359165000,0.7471650390625,0.04701543367505073,0.012499416089057922,-0.0006155472156126052
1761380430369247000,0.7572470703125,0.04193535393178463,0.008433445291779935,-0.006395719785941764
1761380430379329000,0.7673291015625,0.046430327263474465,0.010552702468074857,-0.012754495961824432
1761380430389411800,0.777411865234375,0.04568038567900658,0.009694368605688213,-0.004239646863751113
1761380430399494000,0.787493896484375,0.06289689341783523,0.008379303951747715,0.0030663196349050847
1761380430409576000,0.797575927734375,0.048532852500677105,0.0038822117282077667,-0.00046901488439179956
1761380430419659000,0.807658935546875,0.044943303576111794,0.011464008626714348,-0.008294283416261896
1761380430429740800,0.81774072265625,0.045243747827410696,0.012440890834853053,-0.011804273431748152
1761380430439822800,0.82782275390625,0.038213118538260454,0.013702617866359651,-0.005297403155220672
1761380430449906000,0.837906005859375,0.05213175377547741,0.01036558239813894,-0.007501087211957201
1761380430459988000,0.847988037109375,0.049286301216483114,0.01247545069158077,-0.00731762953698635
1761380430470069800,0.85806982421875,0.04749474162459373,0.00968508932068944,-0.0010220273909624666
1761380430480152800,0.86815283203125,0.04555120634138584,0.0126133613249287,-0.005560081812553108
1761380430490235000,0.87823486328125,0.05677636471092701,0.008964556493796407,-0.005243590608751401
1761380430500317000,0.88831689453125,0.046751814302802085,0.008495148883759974,-0.002540076404251158
1761380430510399700,0.898399658203125,0.051986792346835134,0.015209332634881138,-0.0009848280525766313
1761380430520481800,0.908481689453125,0.04659750052392483,0.012597579233907162,-0.008731843716464936
1761380430530563800,0.918563720703125,0.05198211617171764,0.007521518078632652,0.004622600033041089
1761380430540647000,0.92864697265625,0.05422726475000381,0.01155150424707681,-0.006446207864163443
1761380430550728700,0.938728759765625,0.04584229824244976,0.007758176378719508,-0.0019077515837736428
1761380430560810800,0.948810791015625,0.03956102601587772,0.008700243001803755,-0.0012127641900908201
1761380430570894000,0.95889404296875,0.04195639671981335,0.009296090003103018,-0.006237734478944912
1761380430580976000,0.96897607421875,0.050635962259769435,0.01677347667906433,-0.005010366374766454
1761380430591058000,0.979057861328125,0.042701077607274054,0.0035290509089827534,-0.00912288886066526
1761380430601141000,0.98914111328125,0.04584229824244976,0.014025566210411488,-0.004664183285599574
1761380430611223000,0.99922314453125,0.04808744682073593,0.0017133797891438006,-0.007264849036978558
1761380430621305900,1.009305908203125,0.04703939907252788,0.008353694586455821,-0.005826505063241347
1761380430631388000,1.019387939453125,0.05707037922143936,0.013583558063954114,-0.004690815564198419
1761380430641470000,1.029469970703125,0.04180500555038452,0.012159845403768122,-0.009594168767379596
1761380430651552000,1.039552001953125,0.03656652037501335,0.016093531590886414,-0.014342696735030039
1761380430661634800,1.049634765625,0.04943184716701507,0.01179488454889506,-0.012660159608721732
1761380430671716900,1.059716796875,0.043592473489046095,0.011298698529787361,-0.0029202348282560704
1761380430681800000,1.069800048828125,0.0446422748029232,0.012579860914126037,-0.0027639300216920674
1761380430691882000,1.079882080078125,0.03985328696072101,0.012744951815344392,-0.0012693440823815763
1761380430701963800,1.0899638671875,0.0531646039545536,0.0015148980749770998,-0.005705298969522118
1761380430712046800,1.100046875,0.04508475787341595,0.011967829963006079,0.008217555785086006
1761380430722129000,1.11012890625,0.03954933557808399,0.016221870678290725,0.003559446047246456
1761380430732211000,1.1202109375,0.054362289306521414,0.011593991681933402,-0.008466278982302174
1761380430742293800,1.130293701171875,0.045233226433396334,0.007104059851542115,-0.009730873824330046
1761380430752375800,1.140375732421875,0.05062777895331382,0.010374240628629922,-0.007872779201716184
1761380430762457900,1.150457763671875,0.04104804970324039,0.012670059948228299,-0.0027067930069752037
1761380430772541000,1.160541015625,0.04554126946926117,0.0037189109252765773,-0.007210753362718969
1761380430782622700,1.170622802734375,0.04614508058130741,0.00792783385720104,-0.007677521491097286
1761380430792704800,1.180704833984375,0.052578913021087643,0.009149776867590845,-0.011971748086297885
1761380430802788000,1.1907880859375,0.0386643694370985,0.004024360145255923,-0.010152003579540178
1761380430812870000,1.200869873046875,0.045397477084398265,-0.0014560805598273871,-0.0059926371440757065
1761380430822951700,1.21095166015625,0.0385118092238903,0.003542239184118807,0.00013591960566118358
1761380430833035000,1.221034912109375,0.052283729466795915,0.011188479620963334,-0.008399817016813903
1761380430843117000,1.231116943359375,0.045398061606287954,0.0052251873023808,-0.002951406284654513
1761380430853199000,1.24119921875,0.05482639968693256,0.00865154502186924,-0.0104140885818284
1761380430863282000,1.251281982421875,0.05003507375717163,0.011834412841685116,0.0011556271753739565
1761380430873364000,1.261364013671875,0.049282209563255304,0.01541113881729543,-0.0022331476132385433
1761380430883446000,1.271446044921875,0.0443459222048521,0.009228358529135585,0.000004055120609700679
1761380430893528800,1.28152880859375,0.04614040440618992,0.020751915323361753,-0.007541939812153577
1761380430903611000,1.29161083984375,0.05616203220486641,0.010754143324308097,-0.007162082782248035
1761380430913693000,1.30169287109375,0.044787236231565476,0.0006024959377944469,-0.0009822799024637788
1761380430923776000,1.31177587890625,0.04763736496567726,0.010475253317691386,-0.0005988883417565376
1761380430933857800,1.32185791015625,0.044341830551624294,0.0027727891815826295,-0.0034905455294996497
1761380430943939800,1.33193994140625,0.04897708913683891,0.0056517056187614795,-0.008584188007237389
1761380430954023000,1.34202294921875,0.05421849692165851,0.011821224566549063,-0.006512596764415502
1761380430964105000,1.35210498046875,0.053766076979041094,0.014430457216873764,-0.010452493496611714
1761380430974187000,1.36218701171875,0.06574293049871921,0.008593458159081637,-0.0014836352870333939
1761380430984269800,1.372269775390625,0.040453590941429134,0.016367562759295105,-0.001962861038185656
1761380430994351900,1.382351806640625,0.039247137761116026,0.0025253902917727828,-0.003218404924077913
1761380431004434000,1.392433837890625,0.04568330828845501,0.00791102885287255,-0.0073063226916827255
1761380431014516700,1.402516845703125,0.05032324304878712,0.006848733383603394,-0.0030690047823358326
1761380431024598800,1.412598876953125,0.05017185187935829,0.008078202113322913,-0.000850625479966402
1761380431034680800,1.422680908203125,0.04897299748361111,0.006298369491845369,-0.002606337440339848
1761380431044764000,1.432763916015625,0.05181318934559822,0.010295001379959284,-0.008811201696144416
1761380431054845700,1.442845703125,0.05735036520659923,0.01686601380072534,0.000051355727901682253
1761380431064927700,1.452927734375,0.04597849184274673,0.013325747377984224,-0.005015627071773633
1761380431075011000,1.463010986328125,0.042839609295129776,0.006919314401783049,-0.006745099479192868
1761380431085093000,1.473093017578125,0.045531332597136494,0.007731434502266347,-0.0054844227604568
1761380431095176000,1.483176025390625,0.0443371543765068,0.016149901420623062,-0.004098256498528644
1761380431105258000,1.493258056640625,0.04778232639431953,0.019818470398150382,-0.004208630670979619
1761380431115340000,1.503340087890625,0.050319735917448996,0.01616816772967577,-0.006050988868344574
1761380431125422800,1.5134228515625,0.0360983183413744,0.005115808643773197,-0.005702568156318739
1761380431135505000,1.5235048828125,0.04956394911408424,0.015899945247545837,0.0002089757087174803
1761380431145587000,1.5335869140625,0.052110126465559,0.01734038984682411,-0.0066837977460119866
1761380431155670000,1.543669921875,0.05420856004953384,0.005017243640124797,-0.020490113448863846
1761380431165751800,1.553751708984375,0.049721770024299616,0.0042026393216103314,-0.015110283574042841
1761380431175833900,1.563833740234375,0.05660451527535915,0.016736432604305445,-0.000885797258047387
1761380431185917000,1.5739169921875,0.04897065939605236,0.015107041304185985,-0.014320932427793741
1761380431195999000,1.5839990234375,0.049717093849182124,0.00868826030306518,-0.01169922388838604
1761380431206081000,1.5940810546875,0.05241057071685791,0.009266754310764371,-0.0029288473929744213
1761380431216163800,1.604163818359375,0.04553016355335712,0.00545026476252824,-0.006225724380742758
1761380431226246000,1.614245849609375,0.04134089516997337,0.00645958793554455,-0.012407509155059233
1761380431236328000,1.624327880859375,0.04104571161568164,0.019691775278560815,-0.015213853546371683
1761380431246410800,1.63441064453125,0.03386018402576446,0.007209821780957281,-0.010532974854297935
1761380431256492800,1.644492919921875,0.054803603333234786,0.011392368162609636,-0.004266881930548697
1761380431266574800,1.654574951171875,0.04582125545442104,0.011035736744664609,0.00016030512824654578
1761380431276658000,1.664657958984375,0.0627326427668333,0.007166128769703209,-0.007346526837907731
1761380431286739700,1.67473974609375,0.04477379222810268,0.009744052966311574,-0.00814592445413582
1761380431296821800,1.68482177734375,0.041481764945387835,0.01571750135272741,-0.008040582649828865
1761380431306904800,1.69490478515625,0.051207624667882916,0.006180953657254577,-0.012455604346795006
1761380431316987000,1.70498681640625,0.046566520863771436,0.01248765258602798,-0.001933406614838168
1761380431327069000,1.71506884765625,0.05135433966219425,0.015213351222872732,-0.006556554637150838
1761380431337152000,1.725152099609375,0.044475101542472834,0.015708404730819164,-0.01641668086433783
1761380431347234000,1.735234130859375,0.04956278007030487,0.008812032813206314,-0.0076303396148141465
1761380431357316000,1.745316162109375,0.04747369883656501,0.002440269291587174,-0.013718326892144977
1761380431367399000,1.75539892578125,0.048373862546682356,0.018349420758895577,-0.007556068802205845
1761380431377481000,1.76548095703125,0.03744856390655041,0.014603219967894255,-0.01263557315673679
1761380431387563000,1.77556298828125,0.05032265852689743,0.007430807587876916,-0.000518717511324212
1761380431397645800,1.785645751953125,0.043889410609006876,0.012518559180945157,0.0012249295519199221
1761380431407727900,1.795727783203125,0.05121873058378696,0.014210202062316239,-0.0020067549788393077
1761380431417810000,1.805809814453125,0.04643208082914352,0.011982041151449083,-0.01106899056029506
1761380431427893000,1.81589306640625,0.04029343194365501,0.007445712896063924,-0.004472387040546164
1761380431437975000,1.82597509765625,0.047478959533572195,0.008021430424787104,-0.002060667990008369
1761380431448056800,1.836056884765625,0.054659810948371884,0.0077747256547212595,-0.0074487177039030935
1761380431458140000,1.846139892578125,0.0437444491803646,0.006404350616969168,-0.007779136968357488
1761380431468222000,1.856221923828125,0.04090367279648781,0.00622033581957221,-0.007419117150083184
1761380431478304000,1.866303955078125,0.04194879793524742,0.005344904691912233,-0.010787168811075389
1761380431488386800,1.87638671875,0.0488338812738657,0.008853095475956797,-0.012535912174545227
1761380431498468900,1.88646875,0.03896189107894897,0.0060529798960313195,-0.013003958944557234
1761380431508551000,1.896551025390625,0.04330196610987186,0.013791099867410957,-0.010232402738835663
1761380431518633700,1.9066337890625,0.0425508554816246,0.0112787151876837,-0.005846552337426692
1761380431528715800,1.9167158203125,0.057064534002542494,0.010114018789865077,-0.004354112689429894
1761380431538798800,1.926798828125,0.04868482819199562,0.010561762557365,-0.004211398016801104
1761380431548881000,1.936880859375,0.05303074844181537,0.01810899959914386,-0.005108620851160958
1761380431558963000,1.946962890625,0.04555529799461364,0.012023176879435778,-0.006758908808836713
1761380431569046000,1.9570458984375,0.05034779296815395,0.008502053548581898,-0.006386988490214571
1761380431579127800,1.9671279296875,0.05243862776756286,0.009624116381071508,-0.005555506102135404
1761380431589209900,1.9772099609375,0.05213818351626396,0.005443469695560634,-0.007718173161894082
1761380431599293000,1.98729296875,0.04495557853579521,0.012641601038724184,-0.0024428448411636054
1761380431609375000,1.997375,0.037623335951566694,0.003402428854629397,-0.007266885730437934
1761380431619457000,2.00745703125,0.06798983264267444,0.012757117177173495,-0.010336803828226401
1761380431629539800,2.017539794921875,0.048534606066346166,0.0119429877826944,-0.003863141701556742
1761380431639622000,2.027621826171875,0.05526654466986656,0.004962700441293418,0.0019911646840628234
1761380431649704000,2.037703857421875,0.055416182273626324,0.008943805966712534,-0.006827699728729203
1761380431659787000,2.047787109375,0.04449029911160469,0.014955284808576106,-0.006349743486056104
1761380431669869000,2.057869140625,0.04583879111111164,0.012963599534705281,-0.002897219278849661
1761380431679950800,2.067950927734375,0.047487727361917496,0.009130451112613082,-0.005794292427226901
1761380431690034000,2.078033935546875,0.04105681753158569,0.010393237590044737,-0.007694810552615672
1761380431700116000,2.088115966796875,0.04300678255558014,0.016878179162554442,-0.010330903810402378
1761380431710198000,2.098197998046875,0.04330722680687904,0.011901742456853388,-0.001823333836486563
1761380431720280800,2.10828076171875,0.05692307970523834,0.013100852580927311,-0.009972683223569765
1761380431730363000,2.11836279296875,0.04764905540347099,0.01360938662495464,-0.012651117785740643
1761380431740445000,2.12844482421875,0.04525836087465286,0.002862659422121942,-0.009293322657281533
1761380431750527700,2.13852783203125,0.04735913254618644,0.011124328343570232,-0.012199446761794387
1761380431760609800,2.14860986328125,0.044513095465302466,0.012369396501220762,-0.000594166500866413
1761380431770691800,2.15869189453125,0.042861236605048175,-0.0006482347756624221,0.0013082147880457342
1761380431780775000,2.16877490234375,0.035375849285721774,0.0033220205621793866,-0.005284269679011777
1761380431790857000,2.17885693359375,0.048989364096522325,0.007304222066141664,-0.017546415546629578
1761380431800938800,2.188938720703125,0.039864392876625056,0.015330840122699736,-0.00536820336910896
1761380431811021800,2.199021728515625,0.046454877182841296,0.005533997523225843,0.004459335762728006
1761380431821103900,2.209103759765625,0.05124503406882286,0.006422215067222714,-0.011473899833066388
1761380431831186000,2.21918603515625,0.045863341030478476,0.0007357303960248828,-0.01044834704445675
1761380431841269000,2.22926904296875,0.03374620225727558,0.00498370669670403,-0.012255204670177771
1761380431851351000,2.23935107421875,0.047054596641659736,0.0017292349454015492,-0.00955686896429397
1761380431861432800,2.249432861328125,0.05049333891868591,0.00508362340722233,-0.007022044123895466
1761380431871516000,2.259515869140625,0.04061901063621044,0.00733395961727947,-0.01003445074763149
1761380431881598000,2.269597900390625,0.04571078081727028,0.00884049172271043,-0.013419079084089024
1761380431891680000,2.279679931640625,0.05243979681134223,0.010826550973393023,-0.012280238646734505
1761380431901763000,2.28976318359375,0.049290977391600606,0.011242072971723973,-0.01900326329143718
1761380431911844900,2.299844970703125,0.04973346046209335,0.014197598309069871,-0.011972597469668835
1761380431921927000,2.309927001953125,0.03835807996690273,0.0134882809959352,-0.015678932041162625
1761380431932010000,2.320010009765625,0.0489776736587286,0.006856551363877952,-0.008844318514456972
1761380431942092000,2.330092041015625,0.047186114066839216,0.011843326800502835,-0.012125431677512824
1761380431952174800,2.3401748046875,0.04449439076483249,0.0068712740089744324,0.0024422785855829714
1761380431962257000,2.3502568359375,0.04644026413559913,0.009007409254834056,-0.010895414958521723
1761380431972339000,2.3603388671875,0.03940554319322109,0.007549465531483292,-0.0032870771129615605
1761380431982421000,2.3704208984375,0.05137947410345077,0.009854527603462337,-0.0076432812947779885
1761380431992503800,2.38050390625,0.046293549141287804,0.013963278096541762,-0.00669651109711267
1761380432002585900,2.3905859375,0.049877837368845934,0.006166121414303779,-0.007132454828964546
1761380432012669000,2.4006689453125,0.048372693502902984,0.011292962908744812,-0.00422410223474726
1761380432022751000,2.4107509765625,0.054365796437859534,0.00920252996813506,-0.010078180291503668
1761380432032832800,2.420832763671875,0.05421498979032039,0.01821699001826346,-0.0076884356107562776
1761380432042915800,2.430915771484375,0.057060442349314684,0.005906228369101881,-0.004793682283628732
1761380432052998000,2.440997802734375,0.044045477953553194,0.012198679576814173,-0.0067220291308593
1761380432063080000,2.451079833984375,0.0441980381667614,0.008073891264386474,-0.006568747398443519
1761380432073162800,2.461162841796875,0.05662263545393943,0.0017043196998536587,-0.0064758997495286165
1761380432083244800,2.471244873046875,0.047800446572899814,0.005621602741442621,-0.0020004257027525455
1761380432093326800,2.481326904296875,0.04809913725852966,0.008486709848977625,-0.0047106345095206045
1761380432103409700,2.49140966796875,0.051091304811835284,0.0026450346160680053,-0.010149400630500167
1761380432113491700,2.50149169921875,0.04271452161073684,0.013769436024874447,-0.009307588644651695
1761380432123573800,2.51157373046875,0.040024551874399183,0.012956219945847988,-0.0022041133149992673
1761380432133656800,2.52165673828125,0.044211482170224185,0.01748958905916661,-0.007350326230190694
1761380432143738600,2.531738525390625,0.05543605601787567,0.007687156969122588,-0.0036904702820815143
1761380432153820700,2.541820556640625,0.05558627814352512,0.004181377337872982,-0.008914068415574728
1761380432163903700,2.55190380859375,0.04241407735943794,0.010439086025767028,-0.0043862065944354975
1761380432173985800,2.56198583984375,0.04840191959738731,0.009065605715475976,-0.006680683340318501
1761380432184067800,2.57206787109375,0.04406067552268505,0.004664667342789471,-0.012583167116064577
1761380432194150700,2.582150634765625,0.03897942673563957,0.009264562353678047,-0.019189387847529722
1761380432204232700,2.592232666015625,0.05275193150043487,0.004799143910035491,-0.008058008708665148
1761380432214314800,2.602314697265625,0.052156303694844246,0.008060739521868527,-0.005694019523682072
1761380432224397800,2.612397705078125,0.053660278517007824,0.004926167823188007,-0.0060062912100926034
1761380432234479600,2.622479736328125,0.048284430697560304,0.010519786579161881,-0.012749801520397886
1761380432244561700,2.632561767578125,0.048441667085886,0.010820084699988365,-0.016360859023872763
1761380432254645000,2.64264501953125,0.04829086043834686,0.005585106655955315,-0.0026526516669429837
1761380432264726800,2.652726806640625,0.04650105441212654,0.0054622474612668155,-0.007517252895468845
1761380432274808800,2.662808837890625,0.05982873801887035,0.010516571708768605,-0.00852671306580305
1761380432284892000,2.672891845703125,0.03169803755581379,0.003907163506373763,-0.0035760592553298917
1761380432294974000,2.682973876953125,0.037241058635711664,0.01727221998143941,0.000811882638465613
1761380432305055700,2.6930556640625,0.05309972202479839,0.014340294715389609,0.00043726803925819694
1761380432315138800,2.703138916015625,0.05429506928920746,0.004991597742214799,-0.009170783123001456
1761380432325220900,2.713220947265625,0.04367372203171253,0.011035225288011133,-0.004303907738998532
1761380432335303000,2.723302978515625,0.051151510566473005,0.014578158591873943,-0.0005728862508200109
1761380432345385700,2.7333857421875,0.052502340653538704,0.01089296727310866,-0.004589611078891903
1761380432355467800,2.7434677734375,0.04292962566614151,0.007086012738198042,-0.0011830175057984888
1761380432365549800,2.7535498046875,0.036790392258763314,0.009091982265748083,-0.001896216409606859
1761380432375632600,2.763632568359375,0.05251052395999431,0.0009779416540637612,-0.0013533599708694963
1761380432385714700,2.773714599609375,0.04712532379031181,0.009646985800005494,-0.004996904104994609
1761380432395796700,2.783796630859375,0.03680675887167453,0.004880611648410559,-0.0056226713205222035
1761380432405879800,2.7938798828125,0.04803133271932602,0.0012572335194796322,-0.0073965491252485655
1761380432415961900,2.8039619140625,0.054770285585522646,0.0026975319882854816,-0.004796075170114636
1761380432426043600,2.814043701171875,0.035922377252578734,0.0037535438472405076,-0.010529403790878132
1761380432436126700,2.824126708984375,0.04953647658526897,0.003521305993944406,-0.006249826775537803
1761380432446208800,2.834208740234375,0.05776654479205608,0.006645794690027833,-0.009556512771267444
1761380432456290800,2.844290771484375,0.045801381710171694,0.011909816165454685,-0.00574656256167218
1761380432466373600,2.85437353515625,0.05552841047644615,0.009028378977626561,-0.008345748742017895
1761380432476455700,2.86445556640625,0.05612812993526459,0.012134418701566755,-0.0038813532116822895
1761380432486537700,2.874537841796875,0.04236322395503521,0.007435593360848724,-0.002859298421256244
1761380432496620800,2.884620849609375,0.042515784168243406,0.004127126399986446,0.0014679262612480668
1761380432506702600,2.89470263671875,0.04625672426223754,0.006188442843966186,-0.008477384898206219
1761380432516784600,2.90478466796875,0.04864741879105568,0.00973269132208079,-0.0059109958757646375
1761380432526868000,2.914867919921875,0.0426554848998785,0.00895809022039175,-0.005886135429143905
1761380432536949800,2.92494970703125,0.051931262767314905,0.0025562603540718555,-0.016256403135554865
1761380432547031800,2.93503173828125,0.04489595730304718,0.012352518431656061,-0.012623024202417581
1761380432557115000,2.945114990234375,0.048937341648340224,0.01013794765472412,-0.0012414148958399891
1761380432567197000,2.955197021484375,0.04309855249226093,0.008214907170273364,-0.002599779835389927
1761380432577279000,2.965279052734375,0.05402034400105476,0.00867496243007481,-0.014788960931496694
1761380432587361800,2.97536181640625,0.0511778140515089,0.010042780184559523,0.0017469989309553055
1761380432597443800,2.98544384765625,0.04908756377398967,0.004566759926266968,-0.006243990689795464
1761380432607526700,2.995526611328125,0.05103109905719757,0.00412708986736834,-0.0022930245743133125
1761380432617608700,3.005608642578125,0.039514264264702795,0.00875982770193368,-0.0009858235664200038
1761380432627690800,3.015690673828125,0.045947512182593346,-0.0004522738121449947,-0.009299323139805346
1761380432637772800,3.025772705078125,0.049537645629048346,0.004931209324486554,-0.0038194669566117227
1761380432647855900,3.03585595703125,0.048939095214009284,0.009260580298304557,-0.00938974136961624
1761380432657937700,3.045937744140625,0.048041854113340374,0.004290025344118475,-0.0041979357470292595
1761380432668019700,3.056019775390625,0.04520107772946357,0.006757584501430392,-0.009937630176497623
1761380432678102800,3.066102783203125,0.0435574021756649,0.01493391322698444,0.0014624007027596235
1761380432688184800,3.076184814453125,0.055225628137588495,0.007263670860044658,0.001951937785372138
1761380432698267600,3.086267578125,0.049234863290190695,0.0013883125532418489,0.001442070300783962
1761380432708349700,3.096349609375,0.05281739795207977,0.0044458369603380555,-0.006985611970489844
1761380432718431700,3.106431640625,0.058199090990424154,0.006916684053279459,-0.011947353430557995
1761380432728514600,3.1165146484375,0.041294133418798444,0.008330350243486464,-0.010240805240999906
1761380432738596600,3.1265966796875,0.047132922574877736,0.011409428895264863,-0.00854386513000354
1761380432748678700,3.1366787109375,0.051474751171469685,0.008076375482417643,-0.008198641022061928
1761380432758762000,3.146761962890625,0.049828737530112265,0.000987257471680641,0.0012437347170896828
1761380432768843800,3.15684375,0.04398761028647422,0.00870912042800337,-0.00621480112792924
1761380432778925800,3.16692578125,0.04997252991497517,0.008865078174695371,-0.007446242619026452
1761380432789009000,3.1770087890625,0.04548457084596157,0.003898176482319832,-0.003835623506968841
1761380432799091000,3.187091064453125,0.04264145637452602,0.0029816461592912674,-0.004210649098129943
1761380432809173000,3.197173095703125,0.0384551106005907,0.005856178682297468,-0.007849973714863881
1761380432819255800,3.207255859375,0.04878068978190422,0.005960333176515996,-0.003579356324113905
1761380432829337900,3.217337890625,0.05507189888060093,0.004354980339109898,-0.0010286580611485988
1761380432839420000,3.227419921875,0.045805473363399504,-0.0021530498480424286,-0.00804618127355352
1761380432849502700,3.237502685546875,0.04820025954544544,0.004611366252973675,-0.006127469904348254
1761380432859584800,3.247584716796875,0.04760170913040638,0.007909457950294017,-0.010602441627625376
1761380432869666800,3.257666748046875,0.056879240563511846,0.010623320018872617,-0.005923818824719637
1761380432879750000,3.26775,0.05418693273961544,0.004996858439221978,-0.00680799951441586
1761380432889831700,3.277831787109375,0.048208442851901054,0.006328435836546123,-0.004680312436493113
1761380432899913700,3.287913818359375,0.0444721789330244,0.005638736539334058,-0.004281622841954231
1761380432909996800,3.297996826171875,0.04566694167554378,0.00692782650180161,-0.005692631284194067
1761380432920078800,3.308078857421875,0.04880816231071949,0.00744143857974559,-0.013255623017530888
1761380432930160600,3.31816064453125,0.05284779309034347,0.00999853918403387,-0.009495841225748881
1761380432940243700,3.32824365234375,0.049856210058927534,0.002254573993757367,-0.008884120801882818
1761380432950325800,3.33832568359375,0.046270752787590026,0.004659735439345241,-0.0025644345273729413
1761380432960407800,3.34840771484375,0.048969490352272986,0.007522540991939604,-0.01179438222539611
1761380432970490600,3.35849072265625,0.05316285038888454,0.004281805505044758,-0.005979503667866811
1761380432980572700,3.36857275390625,0.043892333218455315,0.009036160425283015,-0.0035985724812373516
1761380432990654700,3.37865478515625,0.056011225557327265,0.005023308054730296,-0.006339623950840905
1761380433000738600,3.388738525390625,0.0358060573965311,0.0033182942351326346,0.001277308193128556
1761380433010820600,3.398820556640625,0.04238426674306393,0.012734795747511088,-0.005232877418491989
1761380433020902700,3.408902587890625,0.044480946761369704,0.008172748528979718,-0.013822472253208979
1761380433030985500,3.4189853515625,0.04911562082469463,0.010222776393964886,-0.0039523269555065774
1761380433041067500,3.429067626953125,0.04612286874949932,0.013434687645174562,-0.013802013987069948
1761380433051149600,3.439149658203125,0.030554712739586827,0.010099296144768595,-0.011504130574548617
1761380433061232600,3.449232666015625,0.03520166176259518,0.010321158734522759,-0.005876600415818393
1761380433071314700,3.459314697265625,0.03416121279895305,0.010319733962416647,-0.011888188855536282
1761380433081396500,3.469396484375,0.0477794037848711,0.00463840039037168,-0.008373696194868534
1761380433091479600,3.4794794921875,0.045236733564734455,0.004148571046814323,-0.007500292627513408
1761380433101561600,3.4895615234375,0.04538227951526642,0.015205788970924913,0.0015624726769048719
1761380433111643600,3.4996435546875,0.04239245004951954,0.007185673720389604,-0.00684961929959245
1761380433121726500,3.5097265625,0.04987666832506656,0.009037767860479653,-0.010681845273077487
1761380433131808500,3.51980859375,0.05316869560778141,0.008911474599689245,-0.007944008673867211
1761380433141890600,3.529890625,0.04539104734361171,0.010363646169379353,-0.005264724728325382
1761380433151973400,3.539973388671875,0.05451601856350898,-0.00020739567298442123,-0.003226222904352471
1761380433162055400,3.550055419921875,0.052127077600359915,0.00295479468498379,-0.005595947710378095
1761380433172137500,3.560137451171875,0.04778758709132671,0.007884433106891811,-0.004292527828458697
1761380433182220500,3.570220458984375,0.05362696076929569,0.003738127082400024,-0.00399747213833034
1761380433192302600,3.580302490234375,0.042405309531092644,0.007168393792025745,-0.0024588552610483017
1761380433202384400,3.59038427734375,0.04584814346134662,0.007277808983251452,-0.007418578293966129
1761380433212467500,3.600467529296875,0.05901449902653694,0.0017248875638470054,-0.00207063226159662
1761380433222549500,3.610549560546875,0.05003039758205414,0.009764803493395447,-0.006378010599315166
1761380433232631600,3.620631591796875,0.03580722644031047,0.004986629306152463,-0.008415964434016496
1761380433242714600,3.630714599609375,0.04733399810492992,0.0056618982192128894,-0.009200566339911892
1761380433252796400,3.64079638671875,0.03925999724268913,0.011620697025768458,-0.009938808353431522
1761380433262878500,3.65087841796875,0.05033785609602928,0.011671769625879824,-0.007177152487216517
1761380433272961500,3.66096142578125,0.048094461083412164,0.008722856692411005,-0.002582344643399119
1761380433283043600,3.671043701171875,0.04285480686426162,-0.0014050444923341273,-0.003822636161232367
1761380433293125600,3.681125732421875,0.04435878168642521,0.005151099152863025,-0.008245247509609907
1761380433303208700,3.691208740234375,0.04884966336488723,0.006804273187369108,-0.008710536066954955
1761380433313290500,3.70129052734375,0.05618541308045387,0.007483049231767654,-0.010133618539478629
1761380433323372500,3.71137255859375,0.04257014470398426,0.004595182303152978,-0.0001253890784922987
1761380433333455600,3.72145556640625,0.05663198780417442,0.00005801379755139351,-0.001338856521481648
1761380433343537700,3.73153759765625,0.049741059246659274,0.0023105784973129627,0.000198563912557438
1761380433353619500,3.741619384765625,0.041812019813060756,0.0062158057749271385,-0.014016688784211874
1761380433363702500,3.75170263671875,0.04270809186995029,0.00410352632869035,-0.009086621104041114
1761380433373784600,3.76178466796875,0.04943886142969131,0.003789893802255392,-0.010282580289803445
1761380433383866600,3.77186669921875,0.05003215114772319,0.0076447060668841,-0.013053369310544802
1761380433393949400,3.781949462890625,0.03790916715562343,0.001132291965559125,-0.01466411070912145
1761380433404031500,3.792031494140625,0.04763268879055976,0.006577624824643135,-0.009041411989135667
1761380433414113500,3.802113525390625,0.04897650461494922,0.011902582707069814,-0.008271240467391907
1761380433424196600,3.812196533203125,0.044187516772747036,0.014316183187440037,-0.016303402348747477
1761380433434278400,3.8222783203125,0.05032032043933868,-0.00023559885416179894,-0.007213228447595611
1761380433444360400,3.8323603515625,0.04762567452788353,0.006869922302104532,0.0012760752172674983
1761380433454443500,3.842443603515625,0.054657472860813135,-0.00015135463681071996,-0.008335830136202276
1761380433464525600,3.852525634765625,0.04688040911853313,0.007214278760366142,-0.0077645056548062705
1761380433474607400,3.862607421875,0.04688391624987125,0.004618818907067179,-0.005416800884343684
1761380433484690400,3.8726904296875,0.0500274749726057,0.008144216554239391,-0.001168861116282642
1761380433494772500,3.8827724609375,0.042401802399754523,0.004274645111896097,-0.005890491943852975
1761380433504854500,3.8928544921875,0.046886838859319685,0.004396846719458699,-0.0034759690148755905
1761380433514937600,3.9029375,0.04987725284695625,0.0035776392910629507,-0.0019082173746544867
1761380433525019600,3.91301953125,0.04374561822414398,0.0055595338232815265,-0.0034864995420444754
1761380433535101400,3.923101318359375,0.04525017756819725,0.005530673054978251,-0.006196680949348956
1761380433545184500,3.9331845703125,0.043755555096268654,0.004443206611834466,-0.007530422904295847
1761380433555266600,3.9432666015625,0.04643909509181976,-0.004737586448527872,-0.002927815346512943
1761380433565348600,3.9533486328125,0.04703823002874851,0.0013730784514918923,-0.008078110781777649
1761380433575431700,3.963431640625,0.040461189725995064,0.00795059367828071,-0.0028953378490172324
1761380433585513500,3.973513427734375,0.04255786974430084,0.008174502094648779,-0.0029661197965964673
1761380433595595500,3.983595458984375,0.044947979751229286,0.015335552830435334,0.0003815831961110234
1761380433605678600,3.9936787109375,0.04883855744898319,0.01219122692272067,-0.00413738293251954
1761380433615760600,4.0037607421875,0.04554477660059929,0.0035424583798274395,0.0009198456581216305
1761380433625842700,4.0138427734375,0.048829789620637894,0.000705481388233602,-0.0012358528047334402
1761380433635925500,4.023925537109375,0.0416401703774929,0.0049287616390734906,-0.011745857775397599
1761380433646007600,4.034007568359375,0.04791968903839588,0.013392565536499023,-0.0009305497152265161
1761380433656089600,4.044089599609375,0.045671033328771586,0.009599858722649514,-0.0026342483605723828
1761380433666172400,4.05417236328125,0.03923720088899135,0.008205737483128904,-0.011553184747509658
1761380433676254500,4.06425439453125,0.039683775612711907,0.00511730648111552,-0.006187757857376709
1761380433686336500,4.07433642578125,0.04611702353060245,0.011887933127209543,-0.003917904096096754
1761380433696419600,4.084419677734375,0.04701309558749198,0.010312500504031777,-0.009674175201030448
1761380433706501400,4.09450146484375,0.04103168309032917,0.008710289471782743,-0.005023591182520613
1761380433716583400,4.10458349609375,0.04821779520213604,0.008796725646220147,-0.004826022783806548
1761380433726666500,4.11466650390625,0.04029050933420658,0.008012552998587488,-0.005855758557189256
1761380433736748500,4.12474853515625,0.04373042065501213,0.0059600774481892585,-0.011253690344281494
1761380433746830300,4.134830322265625,0.045080081698298455,-0.0005467836951836944,-0.005391145853279158
1761380433756913400,4.144913330078125,0.0467249262958765,0.012395809584110974,0.006222144184168428
1761380433766995500,4.154995361328125,0.051668227916955946,0.007312259242124855,-0.004859788056090474
1761380433777077500,4.165077392578125,0.04868015201687813,0.00976955273374915,-0.004611877709627152
1761380433787160600,4.17516064453125,0.054365796437859534,0.006472155156172812,-0.0009458112164400517
1761380433797242600,4.18524267578125,0.050019876188039776,0.004062536731176078,-0.008940591096319258
1761380433807324700,4.19532470703125,0.03550152149200439,0.007914755179919302,-0.008747370079159737
1761380433817407500,4.205407470703125,0.056305824589729304,0.0010801599195227026,-0.007506640169909223
1761380433827489500,4.215489501953125,0.06453939992785454,0.008447766078077255,-0.0014050444923341273
1761380433837571600,4.225571533203125,0.05017477448880672,0.004365392135269939,-0.008202760074753315
1761380433847654700,4.235654541015625,0.046426235610246655,0.007707834430970251,-0.01285899751591496
1761380433857736700,4.24573681640625,0.05376023176014423,0.0097442356294021,-0.004209498320659622
1761380433867818500,4.255818603515625,0.04253156625926494,0.011887421670556068,-0.0024703630357515065
1761380433877901600,4.265901611328125,0.05030687643587589,0.013959844030439853,-0.00687020542989485
1761380433887983600,4.275983642578125,0.047014849153161044,0.00786572840642184,-0.01095615043612197
1761380433898065700,4.286065673828125,0.04281798198521137,0.009943374930694698,0.0026995230159722267
1761380433908148500,4.2961484375,0.04835398880243301,0.009967997915297747,-0.00672010203525424
1761380433918230500,4.30623046875,0.046399347603321074,0.006718458067439496,-0.0037248109431006014
1761380433928312600,4.3163125,0.04744622630774974,0.009322722281701862,-0.014068747765012084
1761380433938394600,4.32639453125,0.05148351899981499,0.016412790140509604,-0.005295969249960035
1761380433948477400,4.3364775390625,0.049238370421528815,0.008462963647209108,-0.007781018398189917
1761380433958559500,4.3465595703125,0.04894494043290615,0.0038061873499304053,-0.005442510714335367
1761380433968641500,4.3566416015625,0.044157121634483334,-0.004393777979537845,-0.007256373469578102
1761380433978724400,4.366724365234375,0.04431201993525028,0.004453143483959138,0.0030873441566247493
1761380433988806400,4.376806396484375,0.03742927468419075,0.013151815583184361,-0.0022102233953773974
1761380433998891500,4.3868916015625,0.04671089777052402,0.0046373044118285175,-0.00914715565224178
1761380434008974600,4.396974609375,0.04895838443636894,0.0014162600060924886,-0.011700867856200784
1761380434019056600,4.407056640625,0.050754620203375816,0.008884403929673134,-0.008274227008922025
1761380434029138700,4.417138671875,0.04371873021721839,0.007911211515963077,-0.002278128399280831
1761380434039221500,4.427221435546875,0.04836041854321956,0.010538527812249957,-0.010349590244563295
1761380434049303600,4.437303466796875,0.04596037166416645,0.008149659914337097,-0.0002968731878791004
1761380434059385600,4.447385498046875,0.04042202675938606,0.004443571938015521,0.0016261307639535516
1761380434069468400,4.457468505859375,0.04132043690383434,0.01430127787925303,-0.008442907239869237
1761380434079550500,4.467550537109375,0.05014788648188114,0.01420811970308423,-0.010010339219681919
1761380434089632500,4.477632568359375,0.050745852375030515,0.00957019423674792,0.0007246062138117849
1761380434099715600,4.487715576171875,0.05537935739457607,0.00937529271915555,-0.004012843237398192
1761380434109797400,4.49779736328125,0.04490180252194404,0.004032579984329641,-0.0020015125481411813
1761380434119879400,4.50787939453125,0.04714402849078178,0.00890003989022225,-0.005830806779023259
1761380434129962500,4.51796240234375,0.05327566311359405,0.008348945346102117,-0.004613421212742105
1761380434140044500,4.52804443359375,0.04714227492511272,0.006370959804020822,-0.007860559040959924
1761380434150126300,4.538126220703125,0.04594458957314491,0.01284680475462228,-0.011389482085779308
1761380434160209400,4.54820947265625,0.048638650962710375,0.004960033560171723,-0.0055245812409091734
1761380434170291500,4.55829150390625,0.04878945761024952,0.006913176921941339,-0.005875751032447442
1761380434180373500,4.56837353515625,0.050288171735405916,0.004507759748026728,-0.00607090827836655
1761380434190456600,4.57845654296875,0.04984276605546474,0.008738857979141175,-0.002650487109320238
1761380434200538600,4.58853857421875,0.05029810860753059,0.012059636432304977,-0.014658238090761005
1761380434210620700,4.59862060546875,0.05254968692660331,0.0025152707565575835,-0.00577916792333126
1761380434220703500,4.608703369140625,0.04566518810987472,0.0010497282486408948,-0.0011503025462850929
1761380434230785500,4.61878564453125,0.05135433966219425,-0.0014332111408933996,-0.010173493892140686
1761380434240867600,4.62886767578125,0.04911152917146683,0.008299553246423601,-0.001945782039221376
1761380434250950700,4.63895068359375,0.040732992404699325,0.00811206785030663,-0.006763603250263258
1761380434261032700,4.64903271484375,0.04058043219149112,-0.001873027330264449,-0.005637567495554685
1761380434271114500,4.659114501953125,0.050904842329025264,0.012471870495006442,-0.009342194167152047
1761380434281197600,4.669197509765625,0.05120528658032417,0.009768529820442198,-0.003721851801034063
1761380434291279600,4.679279541015625,0.04642155943512916,0.006931479763612151,0.0014369283347856253
1761380434301361700,4.689361572265625,0.04612111518383026,0.008032938199490308,-0.005075120440358296
1761380434311444500,4.699444580078125,0.05151157605051994,0.002939195257052779,0.005388396773766726
1761380434321526500,4.709526611328125,0.04567980115711689,0.005105871771648526,0.0024813410874921825
1761380434331608600,4.719608642578125,0.05271218401193618,0.008850866986252367,-0.003560742955189198
1761380434341691400,4.72969140625,0.0405856928884983,0.007188377134129405,-0.009136826054472476
1761380434351773400,4.7397734375,0.04358195209503173,0.009476926462724805,-0.006923616117564961
1761380434361855500,4.74985546875,0.03639759354889393,0.011714476256445049,-0.0007694043367635459
1761380434371938600,4.7599384765625,0.05286065257191658,0.004819894437119364,-0.0025711382627952844
1761380434382020400,4.770020263671875,0.04478489814400673,0.0063476154610514635,0.0020742398576345292
1761380434392102400,4.780102294921875,0.04179448415637016,0.00810943750180304,0.0030684933256823568
1761380434402185500,4.790185546875,0.04762742809355259,0.00872322201859206,-0.0054802945746108885
1761380434412267500,4.800267578125,0.04628244322538375,0.004510828487947583,-0.006607645503571256
1761380434422349600,4.810349609375,0.04015256216824054,0.006173683666251599,-0.0033035441905725745
1761380434432432400,4.820432373046875,0.04779109422266483,0.01231112697534263,-0.01397157100085169
1761380434442514400,4.830514404296875,0.05422258857488632,0.006863784822262823,-0.01155488351425156
1761380434452596500,4.840596435546875,0.041352585607767105,0.010528700537979602,-0.00545900519140996
1761380434462679600,4.850679443359375,0.04539104734361171,0.005882847493514419,-0.004837667555827647
1761380434472761600,4.86076171875,0.044642859324812885,0.004677380693890154,-0.001574765902897343
1761380434482843600,4.87084375,0.04613981988430023,0.0013378244750201702,-0.00957404842795804
1761380434492926700,4.8809267578125,0.042104865279793735,0.007844502955302595,-0.005249919884838163
1761380434503008500,4.891008544921875,0.042699324041604994,0.014484562024287878,-0.006715407593827694
1761380434513090600,4.901090576171875,0.040756957802176474,0.0024596315791830417,-0.009784695503953843
1761380434523173600,4.911173583984375,0.04449965146183967,0.007665785387530923,-0.0033334370053373277
1761380434533255700,4.921255615234375,0.047643794706463814,0.00510002655275166,-0.007758057647710666
1761380434543337500,4.93133740234375,0.04555120634138584,0.0011028101427480578,-0.005498652215208858
1761380434553419500,4.94141943359375,0.051692777836322784,0.005999386545270681,-0.01018425274817273
1761380434563502600,4.951502685546875,0.04196516454815864,0.0006669029435142875,-0.008922863643383606
1761380434573584600,4.961584716796875,0.037924949246644975,0.0027730449099093676,-0.00875229284944944
1761380434583666700,4.971666748046875,0.04271569065451622,0.005108100261352956,0.0011404387393966317
1761380434593749500,4.98174951171875,0.045558805125951764,0.001136383618786931,-0.00527136453166604
1761380434603831600,4.99183154296875,0.05229191277325153,-0.0006572217997163534,-0.010825829454185441
1761380434613913600,5.00191357421875,0.041971009767055506,0.00026646891646087167,-0.00983844411834143
1761380434623996400,5.011996337890625,0.03883037365376949,0.0042304771766066545,-0.004960426285816356
1761380434634078500,5.022078369140625,0.05095686477720737,0.001726896857842803,-0.00931180816204287
1761380434644160500,5.032160400390625,0.04451894068419933,0.014368570961803197,-0.004605447968840598
1761380434654243600,5.04224365234375,0.05558686266541481,0.009119966251216829,-0.0030954269983805714
1761380434664325400,5.052325439453125,0.04017535852193832,0.01284545304775238,-0.003525781239662319
1761380434674407400,5.062407470703125,0.032248072654008864,0.0015225333921611308,-0.006226984756067395
1761380434684490500,5.072490478515625,0.04945639708638191,0.00767488200943917,-0.010975320927472785
1761380434694572500,5.082572509765625,0.0419803621172905,0.006807049666345119,-0.007412705675605684
1761380434704654300,5.092654296875,0.040786183896660805,0.0022516879169270396,0.0003876567438710481
1761380434714737400,5.1027373046875,0.042435704669356346,0.006815269505418837,0.000566757904132828
1761380434724819500,5.1128193359375,0.040194063222408295,0.006153882987238467,0.0035944260290823875
1761380434734901500,5.122901611328125,0.04722410798966884,0.0050641149891540406,-0.0015608287090901284
1761380434744984600,5.132984619140625,0.0500666379392147,0.0032996625998988746,-0.0049620976530946785
1761380434755066600,5.143066650390625,0.05515548551082611,0.008938070345669985,-0.003932708939583972
1761380434765148700,5.153148681640625,0.04333762194514274,0.004217471564561128,0.0001200827157124877
1761380434775231500,5.1632314453125,0.040650574818253515,0.001851546150818467,-0.004252396747469901
1761380434785313500,5.1733134765625,0.05621697726249694,0.008636566648446023,-0.002271552528021857
1761380434795395600,5.1833955078125,0.03871697640717029,0.003659801149182021,-0.006254804344754666
1761380434805478700,5.193478759765625,0.03632277474701404,0.009072035456262529,-0.00921347148725763
1761380434815560700,5.203560791015625,0.03901099091768265,0.0066371364595368505,-0.009291596491076052
1761380434825642500,5.213642578125,0.042754853621125216,0.0036749256530776617,0.0007812317718751728
1761380434835725600,5.2237255859375,0.04514905528128147,0.003791135911270976,0.0005591865190304815
1761380434845807600,5.2338076171875,0.04948679222464561,0.0056486003462225196,-0.007659894502861425
1761380434855889700,5.2438896484375,0.04425122965872288,0.0013633973076939581,-0.0062589416637551035
1761380434865972500,5.253972412109375,0.05113748204112053,-0.00019574176780879496,-0.00294507700856775
1761380434876054500,5.264054443359375,0.04949380648732185,0.005689699541591107,-0.002140793154668063
1761380434886136600,5.274136474609375,0.04724515077769756,-0.000526690755225718,-0.0024020835725124924
1761380434896219400,5.284219482421875,0.04111819233000278,0.0033652386493980883,-0.00625547106503509
1761380434906301400,5.294301513671875,0.04126724541187286,0.007007686804980039,-0.007669931839685886
1761380434916383500,5.304383544921875,0.0524894811719656,0.00509739620424807,-0.0038518713888712223
1761380434926465500,5.314465576171875,0.044561026260256764,0.00016815964113920927,-0.00263210206925869
1761380434936548400,5.32454833984375,0.0521931285738945,-0.0010659121984615922,-0.00420654831174761
1761380434946630400,5.33463037109375,0.05084522109627723,0.007645363654009998,-0.007916755340760574
1761380434956712400,5.34471240234375,0.0472562566936016,0.01054751483630389,-0.005437633609818295
1761380434966795500,5.35479541015625,0.04830781157314777,0.004327873136475682,-0.009717877345439045
1761380434976877600,5.364877685546875,0.039485038170218464,-0.0029366745064035057,-0.005663743116427212
1761380434986959400,5.37495947265625,0.045775662747025485,0.005927380754984915,-0.0044773554766085
1761380434997042400,5.38504248046875,0.04308569301068783,0.0006325257498770952,-0.003803840129217133
1761380435007121000,5.395120849609375,0.043243513920903205,0.004380151312984526,0.0025226320791058242
1761380435017203000,5.405202880859375,0.053417701932787894,0.004388444217294454,-0.00561852486836724
1761380435027285800,5.41528564453125,0.04309679892659187,0.005803790907934308,-0.00987615491338074
1761380435037367800,5.425367919921875,0.04160217645466328,-0.0022164704730734228,-0.005036742925038561
1761380435047449900,5.435449951171875,0.03950257382690906,0.0012392960039898752,-0.006891403481550515
1761380435057532700,5.44553271484375,0.04339139795899391,0.004732179621048271,-0.007010773811209946
1761380435067614700,5.45561474609375,0.042646132549643515,0.004507650150172412,-0.004462587165739387
1761380435077696800,5.46569677734375,0.0543149430334568,0.002567037476412952,-0.009522647034283727
1761380435087780000,5.475780029296875,0.04443652309775352,0.013665062334947287,-0.002410568273067474
1761380435097862000,5.48586181640625,0.03830371943116188,0.0026622780118137597,-0.009485657758451997
1761380435107944000,5.49594384765625,0.05640460878908634,0.00031136750411242244,-0.004282755353115499
1761380435118027000,5.506027099609375,0.04742167638838291,0.0012200798468664288,0.003310129194986075
1761380435128109000,5.516109130859375,0.04621814581751823,0.0050134442478418344,-0.0022824027155991643
1761380435138191000,5.526191162109375,0.03304945216476917,0.0019067834693938493,-0.005687608049204573
1761380435148274000,5.53627392578125,0.05804594625532627,0.007723908782936632,-0.0008478398678358643
1761380435158356000,5.54635595703125,0.05415712212324142,0.004509622911550104,-0.005837428316054865
1761380435168438000,5.55643798828125,0.04473462926149368,-0.0037845235073938966,-0.004042343326518312
1761380435178520800,5.566520751953125,0.04638999525308609,-0.002797192970477044,-0.001993530171085149
1761380435188603000,5.576602783203125,0.04325403531491756,0.006968487305752932,-0.0064939377297181635
1761380435198685000,5.586684814453125,0.04819266076087951,0.007865947602130472,-0.004189204451302066
1761380435208768000,5.59676806640625,0.05806815808713436,-0.00035213790591806174,-0.006618632688466459
1761380435218849800,5.606849853515625,0.05208090037107467,-0.0008855506628751755,-0.006541859391517937
1761380435228931800,5.616931884765625,0.04460194279253483,0.0002342471472918987,-0.0032538232973311093
1761380435239014000,5.627013916015625,0.05013911865353584,0.0015744097098708153,-0.009950864117406309
1761380435249097000,5.637096923828125,0.043857261905074114,0.0019486863823607564,-0.0006942841407842934
1761380435259178800,5.6471787109375,0.04625380165278911,0.0006476137211546302,-0.002574051739089191
1761380435269260800,5.6572607421875,0.05223696771562099,0.0010119900541380048,-0.001995585130853578
1761380435279343900,5.66734375,0.048048868376016615,0.002754084481112659,0.001435832356242463
1761380435289426000,5.677426025390625,0.04220598756670951,0.008150098305754363,0.002706491612875834
1761380435299508000,5.687508056640625,0.04520049320757389,0.00884845583345741,-0.01272211892902851
1761380435309590800,5.6975908203125,0.047590603214502335,0.0031142960956320165,-0.007954265206400305
1761380435319672800,5.7076728515625,0.048641573572158814,0.005428564387373626,-0.007749088889965787
1761380435329755000,5.7177548828125,0.044299160453677176,-0.0004905965285375714,-0.007037807948607951
1761380435339837700,5.727837646484375,0.04549567676186561,-0.0003124634826555848,-0.0034160281217191367
1761380435349919700,5.737919677734375,0.05133212783038616,0.002083747471496463,-0.0012822674960363655
1761380435360001800,5.748001708984375,0.04354921886920929,0.0054461365766823285,-0.005221798902051523
1761380435370085000,5.758085205078125,0.047589434170722957,0.0015789762871339917,-0.009680842403834685
1761380435380167000,5.7681669921875,0.05208323845863342,0.004319361036457121,-0.006012775749806314
1761380435390249000,5.7782490234375,0.04520633842647075,0.003268902135454118,0.0013795081922784447
1761380435400332000,5.78833203125,0.03353635889887809,-0.0005167173504829406,-0.003104167427262291
1761380435410414000,5.7984140625,0.04939268420040607,0.0037977483151480553,-0.004645040193712338
1761380435420496000,5.808495849609375,0.03577098608314991,0.0016873685650527477,-0.009116851845523343
1761380435430579000,5.818578857421875,0.04864508070349693,0.004955320852436125,-0.004272718016291037
1761380435440661000,5.828660888671875,0.0408691860049963,0.008393442074954509,-0.003997791798738762
1761380435450743000,5.838742919921875,0.0461105937898159,0.006959281085990369,0.0014137118559796361
1761380435460825900,5.848825927734375,0.04312134884595871,0.0010249591335654258,-0.005152578723896294
1761380435470908000,5.858907958984375,0.04012684320509433,0.0016426161078736184,-0.004189880304737016
1761380435480990000,5.868989990234375,0.04760813887119293,0.0024391733130440115,-0.014426877020299433
1761380435491072800,5.87907275390625,0.038028994143009184,0.0029886604219675063,-0.00716299609770067
1761380435501154800,5.88915478515625,0.037434535381197925,0.006144895963184535,-0.009926834787847474
1761380435511236900,5.89923681640625,0.05749240402579307,0.0034299013834446666,-0.0033315373091958463
1761380435521320000,5.90931982421875,0.05060790520906448,-0.0025481135802343487,-0.005192244014004245
1761380435531402000,5.919402099609375,0.04477028509676456,0.00032090251743793486,-0.0010698029222898184
1761380435541483800,5.92948388671875,0.041027006915211675,0.00036740854028612373,-0.0012338343775831163
1761380435551565800,5.93956591796875,0.05030512287020683,0.0033348435111343858,-0.003969278090307489
1761380435561649000,5.94964892578125,0.04073357692658901,0.0051508068919181825,0.0017610183231532572
1761380435571731000,5.95973095703125,0.044023266121745105,0.010876417997106909,-0.0012811897838022558
1761380435581812700,5.969812744140625,0.045070729348063464,0.006356017963215708,-0.006778408093750477
1761380435591895800,5.979895751953125,0.0488163456171751,0.002952529662661254,-0.0037377891556825485
1761380435601977900,5.989977783203125,0.05629471867382526,0.0020572978559881445,0.0018443218255881218
1761380435612060000,6.000059814453125,0.055393970441818235,0.007545958400145172,-0.006630332259414717
1761380435622142700,6.010142822265625,0.038488428348302836,0.0023739625897258518,0.002675484553258866
1761380435632224800,6.020224853515625,0.0358019657433033,0.008302950779907404,0.00606432327395305
1761380435642306800,6.030306884765625,0.05420856004953384,0.015564429682865737,-0.004663543964782729
1761380435652390000,6.040389892578125,0.05421265170276165,0.003994878322444856,-0.0033114900350105017
1761380435662472000,6.050471923828125,0.04763444235622882,0.001448956699296832,-0.002249450294068083
1761380435672554000,6.060553955078125,0.043435237100720406,0.002378931025788188,-0.00258221677923575
1761380435682637000,6.070636962890625,0.04387888921499252,-0.00028228754010051487,-0.003602801131783053
1761380435692719000,6.080718994140625,0.03744856390655041,-0.005628909265063702,0.000008475567400455475
1761380435702801000,6.09080078125,0.045526656422019,0.0062243178749457,-0.0015774145177099852
1761380435712884000,6.100884033203125,0.04881985274851322,0.007289937812462449,-0.006831033330131322
1761380435722966000,6.110966064453125,0.04298690881133079,0.007843480041995645,-0.008112031317688524
1761380435733048000,6.121048095703125,0.04164075489938259,0.0073396587057039135,-0.00462577837081626
1761380435743131000,6.131130859375,0.057504094463586806,-0.0019166472762823105,0.0022160046821925786
1761380435753213000,6.141212890625,0.04613514370918274,0.0048923020862042905,0.0003180803726892918
1761380435763295000,6.151294921875,0.04134323325753212,0.006356492887251079,-0.00636615576473996
1761380435773377800,6.161377685546875,0.04208791414499283,0.006298113763518631,-0.007543081456469371
1761380435783459800,6.1714599609375,0.05540624540150165,-0.002071618642285466,-0.003606700988765806
1761380435793542000,6.1815419921875,0.04687924007475376,0.005487016576342285,-0.005266049035731702
1761380435803625000,6.191625,0.039996494823694224,0.0035749358773231503,-0.011892116111982614
1761380435813706800,6.201706787109375,0.05032791922390461,0.002400850596651435,-0.005177366105280816
1761380435823788800,6.211788818359375,0.05152502005398273,0.0009201470522210002,-0.004246834656363353
1761380435833870800,6.221870849609375,0.037763621205091476,0.005280607284046709,0.002234919445216656
1761380435843954000,6.231953857421875,0.04509469474554061,0.0031730040129274127,-0.002988578223576769
1761380435854036000,6.242035888671875,0.044343584117293354,0.005135426659695803,-0.004794659531163052
1761380435864117800,6.25211767578125,0.0401543157339096,-0.0006816986538469791,-0.003952993675787002
1761380435874200800,6.262200927734375,0.053473816034197805,0.00016048779133707284,-0.01263732672240585
1761380435884283000,6.272282958984375,0.03955868792831897,0.00005695435162633657,-0.006904884017631411
1761380435894365000,6.282364990234375,0.041653614380955696,0.0008028773481026291,-0.007084058243129402
1761380435904447700,6.29244775390625,0.049130233871936796,-0.0004500087898224592,-0.0007568005835171789
1761380435914529800,6.30252978515625,0.051074938198924065,-0.0019342194655910133,0.002515124626085162
1761380435924611800,6.31261181640625,0.04359481157660484,0.0035878684241324663,0.0006883110577240585
1761380435934695000,6.32269482421875,0.046593993392586706,-0.0008926014581695198,0.001368155681202188
1761380435944777000,6.33277685546875,0.040758711367845535,0.0061279082957655185,-0.0005687671981286257
1761380435954859000,6.34285888671875,0.03762041334211826,0.004904978904686868,-0.002919851235765964
1761380435964942000,6.352942138671875,0.04749357258081436,0.0023479148330166934,-0.0027737755622714755
1761380435975023900,6.36302392578125,0.05243395159244537,0.005833820720016956,-0.005282114254543557
1761380435985106000,6.37310595703125,0.043455110844969745,0.004192519786395133,-0.006945161229092628
1761380435995189000,6.38318896484375,0.0433089803725481,0.006366539357230067,-0.004643743285769596
1761380436005270800,6.393270751953125,0.046457215270400046,0.01519172391295433,-0.0010255893212277442
1761380436015352800,6.403352783203125,0.04346680128276348,0.005051182442344725,-0.006543969150213524
1761380436025435600,6.413435546875,0.036732524591684336,0.006285692673362792,-0.0011140713222790508
1761380436035517700,6.423517578125,0.04136602961122989,0.0013034472813829778,-0.0016605079575907438
1761380436045599700,6.433599853515625,0.05079027603864669,0.001399235806055367,-0.0046141427319496865
1761380436055682600,6.4436826171875,0.04151800530254841,0.001428534965775907,-0.0022944219469558445
1761380436065764600,6.4537646484375,0.04464928906559944,0.005513027800433337,-0.008409552959538996
1761380436075846700,6.4638466796875,0.05600304225087165,0.009257548091001808,-0.013421809897292405
1761380436085928700,6.4739287109375,0.03954933557808399,0.0035573636880144475,0.0017162658659741281
1761380436096011500,6.484011474609375,0.035948096215724944,0.004730900979414582,-0.00404745789305307
1761380436106093600,6.494093505859375,0.06868775177896022,0.008656696121022104,-0.01689728572182357
1761380436116175600,6.504175537109375,0.053392567491531366,0.003770568047277629,-0.007645400186628103
1761380436126258700,6.5142587890625,0.05691314283311367,0.011079831614717841,-0.011890828337194397
1761380436136340700,6.5243408203125,0.07221651042699813,0.014798998268321156,-0.018178840831806882
1761380436146422500,6.534422607421875,0.06385375575125217,0.010320976071432232,-0.015384460872923954
1761380436156505600,6.544505615234375,0.06503858162164687,0.01156144111920148,-0.02078685877257958
1761380436166587600,6.554587646484375,0.03977846815884113,0.003012406623736024,-0.007880341453664005
1761380436176669700,6.564669677734375,-0.002039396873116493,-0.00850943313743919,0.016244813162460923
1761380436186752500,6.57475244140625,-0.06585983487665653,-0.04540547772776335,0.070108267835062
1761380436196834600,6.58483447265625,-0.062189621931314464,-0.04087251047324389,0.06522020353255793
1761380436206916600,6.59491650390625,0.14324994854927062,0.0339914091899991,-0.05640139391869306
1761380436216999700,6.604999755859375,0.28085166207849976,0.08648713743966072,-0.11567239759010262
