time,seconds_elapsed,z,y,x
1761380429687429600,0.0754296875,0.011522432789206505,-0.027958396822214127,-0.008156197145581245
1761380429697511700,0.08551171875,0.012462262064218521,-0.03086284175515175,-0.011567173525691032
1761380429707594800,0.0955947265625,0.012371182441711426,0.014939534477889538,0.018191786482930183
1761380429717676800,0.1056767578125,0.013513412326574326,0.0024921861477196217,0.011519769206643105
1761380429727758800,0.1157587890625,0.013555223122239113,-0.028922727331519127,-0.01432034932076931
1761380429737842000,0.125842041015625,0.015096927061676979,-0.00743181724101305,0.002532399957999587
1761380429747924000,0.135924072265625,0.012402873486280441,0.007904794998466969,0.01498294435441494
1761380429758005800,0.146005859375,0.013575463555753231,-0.013245764188468456,-0.0028999161440879107
1761380429768088800,0.1560888671875,0.011869176290929317,-0.019528161734342575,-0.006912234704941511
1761380429778171000,0.1661708984375,0.016174975782632828,0.004789428785443306,0.011578625068068504
1761380429788253000,0.1762529296875,0.013391172513365746,-0.0037145770620554686,0.007870705798268318
1761380429798335700,0.186335693359375,0.0142356613650918,-0.022536734119057655,-0.00475507415831089
1761380429808417800,0.196417724609375,0.013215404003858566,-0.009009473957121372,0.005285043269395828
1761380429818500900,0.2065009765625,0.014258298091590405,0.0005717806634493172,0.006338589824736118
1761380429828582700,0.216582763671875,0.014433267526328564,-0.01381088700145483,0.00010253170330543071
1761380429838664700,0.226664794921875,0.01324230246245861,-0.0149800144135952,-0.001085504423826933
1761380429848747800,0.236747802734375,0.012249208986759186,-0.00003328951424919069,0.007750597782433033
1761380429858829800,0.246829833984375,0.016274843364953995,-0.006012618541717529,0.002679672557860613
1761380429868911600,0.25691162109375,0.01242151577025652,-0.014660702086985111,-0.0010213222121819854
1761380429878994700,0.26699462890625,0.016292154788970947,-0.006700247060507536,0.0001608549355296418
1761380429889076700,0.27707666015625,0.0149813462048769,-0.005118062719702721,0.006425941362977028
1761380429899158800,0.28715869140625,0.012946425005793571,-0.014024206437170506,0.000028495824153651483
1761380429909241600,0.29724169921875,0.012703011743724346,-0.013966416008770466,0.0008471515611745417
1761380429919323600,0.30732373046875,0.012338158674538136,-0.0051747881807386875,0.0016889767721295357
1761380429929405700,0.31740576171875,0.01492169126868248,-0.007650196552276611,0.0006828344776295125
1761380429939488800,0.32748876953125,0.013273194432258606,-0.011680890806019306,-0.0018133464036509395
1761380429949570800,0.33757080078125,0.014636999927461147,-0.008743157610297203,0.0052352421917021275
1761380429959652600,0.347652587890625,0.012466789223253727,-0.004744421225041151,0.005588643718510866
1761380429969736000,0.35773583984375,0.012744557112455368,-0.008897887542843819,0.0011379687348380685
1761380429979818000,0.36781787109375,0.014733405783772469,-0.009940781630575657,0.00031558459158986807
1761380429989899800,0.377899658203125,0.013368003070354462,-0.0051928977482020855,0.0021869877818971872
1761380429999981800,0.38798193359375,0.013055614195764065,-0.009210542775690556,0.0019406455103307962
1761380430010064000,0.39806396484375,0.012084625661373138,-0.012738165445625782,-0.0009616674506105483
1761380430020146000,0.40814599609375,0.015061241574585438,-0.00848802737891674,0.00364746549166739
1761380430030228700,0.418228759765625,0.014002634212374687,-0.006676544900983572,0.003506850451231003
1761380430040310800,0.428310791015625,0.009791644290089607,-0.010275008156895638,0.0010689928894862533
1761380430050392800,0.438392822265625,0.014043115079402924,-0.008856608532369137,0.0010719223646447062
1761380430060476000,0.448475830078125,0.010909372940659523,-0.007683486212044954,0.00112465291749686
1761380430070558000,0.458557861328125,0.013731790706515312,-0.00666402792558074,0.0010697918478399515
1761380430080639700,0.4686396484375,0.013640977442264557,-0.012058793567121029,0.0016945693641901016
1761380430090722800,0.478722900390625,0.01564553938806057,-0.005842176266014576,0.002883404493331909
1761380430100804900,0.488804931640625,0.015252988785505295,-0.009706955403089523,0.0026871294248849154
1761380430110887000,0.498886962890625,0.01417440827935934,-0.01002333965152502,0.00350418733432889
1761380430120970000,0.508969970703125,0.01372300274670124,-0.012256666086614132,0.0033995250705629587
1761380430131052000,0.519052001953125,0.014221546240150928,-0.006097307428717613,0.004679440520703793
1761380430141134000,0.529134033203125,0.013333914801478386,-0.008324508555233479,0.0031318773981183767
1761380430151217000,0.539216796875,0.011634019203484058,-0.008283229544758797,0.0034048515371978283
1761380430161299000,0.549298828125,0.01647990755736828,-0.009549296461045742,0.002245843643322587
1761380430171381000,0.559381103515625,0.013647369109094143,-0.006310892757028341,0.005653092171996832
1761380430181464000,0.569464111328125,0.01383991539478302,-0.01073972973972559,0.0006295712664723396
1761380430191545900,0.5795458984375,0.01443859376013279,-0.008200937882065773,0.003540406236425042
1761380430201628000,0.5896279296875,0.010929080657660961,-0.008875250816345215,-0.0002234392159152776
1761380430211711000,0.5997109375,0.013325126841664314,-0.006958307232707739,0.001315335277467966
1761380430221793000,0.60979296875,0.013334181159734726,-0.010281133465468884,0.0021281319204717875
1761380430231874800,0.619874755859375,0.013409015722572803,-0.007090666331350803,0.003073554253205657
1761380430241958000,0.6299580078125,0.013219664804637432,-0.011962653137743473,0.0017496967921033502
1761380430252040000,0.6400400390625,0.01462634652853012,-0.007792409509420395,0.0022117553744465113
1761380430262122000,0.6501220703125,0.012798353098332882,-0.009941047988831997,0.003534813644364476
1761380430272204800,0.660204833984375,0.01378052681684494,-0.008761799894273281,-0.0005033374181948602
1761380430282286800,0.670286865234375,0.012486230581998825,-0.008185491897165775,-0.0005645901546813548
1761380430292369000,0.680368896484375,0.014436996541917324,-0.006875482853502035,0.004537227563560009
1761380430302452000,0.690451904296875,0.013856959529221058,-0.011189005337655544,0.002130528911948204
1761380430312533800,0.70053369140625,0.011771438643336296,-0.008528240956366062,0.002001631772145629
1761380430322615800,0.71061572265625,0.014332866296172142,-0.009851032868027687,0.000713993504177779
1761380430332699000,0.720698974609375,0.012292885221540928,-0.0057372478768229485,0.00004207794336252846
1761380430342781000,0.730781005859375,0.012467854656279087,-0.010948787443339825,0.0021872541401535273
1761380430352862700,0.74086279296875,0.01264149323105812,-0.008221444673836231,0.0026072347536683083
1761380430362945800,0.75094580078125,0.011691010557115078,-0.010654508136212826,0.0008980178972706199
1761380430373027800,0.76102783203125,0.01341487467288971,-0.00881106872111559,0.0019622170366346836
1761380430383111000,0.77111083984375,0.01260900218039751,-0.009367402642965317,0.0020394488237798214
1761380430393193000,0.78119287109375,0.014390124939382076,-0.009412942454218864,0.002397377509623766
1761380430403275000,0.79127490234375,0.013141901232302189,-0.009186840616166592,0.002531867241486907
1761380430413358000,0.801358154296875,0.012467321939766407,-0.008301605470478535,0.000940095866099
1761380430423440000,0.81143994140625,0.013586915098130703,-0.007183610461652279,0.0006519418093375862
1761380430433522000,0.82152197265625,0.013879862613976002,-0.00857164990156889,-0.00043835630640387535
1761380430443605000,0.83160498046875,0.014317953027784824,-0.006888266187161207,0.00213665422052145
1761380430453687000,0.84168701171875,0.014754445292055607,-0.00842730700969696,-0.0006322344415821135
1761380430463768800,0.851768798828125,0.015081214718520641,-0.010602843016386032,0.00036245622322894633
1761380430473852000,0.861851806640625,0.011275557801127434,-0.008048072457313538,0.001398425898514688
1761380430483934000,0.871933837890625,0.011395932175219059,-0.010143980383872986,0.0020271982066333294
1761380430494016000,0.88201611328125,0.01312325894832611,-0.0073415362276136875,0.0029963224660605192
1761380430504098800,0.892098876953125,0.014385064132511616,-0.011668640188872814,0.0022423816844820976
1761380430514180900,0.902180908203125,0.013195430859923363,-0.01091789547353983,0.0007858988246880472
1761380430524263000,0.912262939453125,0.013556554913520813,-0.008274441584944725,0.004269313532859087
1761380430534346000,0.922345947265625,0.013283581472933292,-0.00968538410961628,-0.00003222424857085571
1761380430544427800,0.932427734375,0.011069961823523045,-0.005974003113806248,0.004228833597153425
1761380430554509800,0.942509765625,0.013814881443977356,-0.008132761344313622,0.0013193299528211355
1761380430564593000,0.952593017578125,0.012737366370856762,-0.00881106872111559,0.005702094174921513
1761380430574675000,0.962675048828125,0.012707538902759552,-0.00965848658233881,0.00418249424546957
1761380430584756700,0.9727568359375,0.013924604281783104,-0.0065375277772545815,0.0015326491557061672
1761380430594839800,0.98283984375,0.013515808619558811,-0.008594021201133728,0.0006673881434835494
1761380430604921900,0.992921875,0.013609818182885647,-0.00860600546002388,-0.0014176006661728024
1761380430615004000,1.00300390625,0.016199743375182152,-0.010891796089708805,0.0014570154016837478
1761380430625087000,1.0130869140625,0.013794109225273132,-0.008256864733994007,0.0008125304593704641
1761380430635168800,1.023168701171875,0.014366156421601772,-0.009673399850726128,0.006368150934576988
1761380430645250800,1.033250732421875,0.010381534695625305,-0.009485380724072456,0.005377188324928284
1761380430655334000,1.043333984375,0.012790629640221596,-0.008658469654619694,0.0015012238873168826
1761380430665416000,1.053416015625,0.012312592938542366,-0.007535414304584265,0.00481339730322361
1761380430675498000,1.063498046875,0.01188329141587019,-0.009355418384075165,0.0025044367648661137
1761380430685581000,1.0735810546875,0.011745072901248932,-0.005906358826905489,0.001675128354690969
1761380430695662800,1.083662841796875,0.011375692673027515,-0.008468319661915302,0.001341966912150383
1761380430705745000,1.093744873046875,0.014058294706046581,-0.00845740083605051,0.00316010694950819
1761380430715828000,1.103827880859375,0.009681123308837414,-0.00809334684163332,0.003413107246160507
1761380430725910000,1.113909912109375,0.012533634901046753,-0.008439024910330772,0.002360359765589237
1761380430735992000,1.123991943359375,0.012732572853565216,-0.009639577940106392,0.0027771443128585815
1761380430746075000,1.134074951171875,0.012462794780731201,-0.007336742244660854,0.0021672805305570364
1761380430756157000,1.144156982421875,0.013128585182130337,-0.009909356012940407,0.00321896281093359
1761380430766239000,1.154239013671875,0.012104599736630917,-0.009554089978337288,-0.0004809668753296137
1761380430776321800,1.16432177734375,0.014159761369228363,-0.006013417616486549,-0.0006186523241922259
1761380430786403800,1.17440380859375,0.012751481495797634,-0.010755974799394608,0.000904409505892545
1761380430796486000,1.18448583984375,0.011318434961140156,-0.007727161981165409,0.00250603468157351
1761380430806569000,1.19456884765625,0.012767460197210312,-0.009122924879193306,0.0062333946116268635
1761380430816650800,1.204650634765625,0.013737383298575878,-0.00851572398096323,0.0007568703731521964
1761380430826732800,1.21473291015625,0.01380982156842947,-0.007841144688427448,-0.0014658038271591067
1761380430836816000,1.22481591796875,0.01245347410440445,-0.008421714417636395,0.004583300091326237
1761380430846898000,1.23489794921875,0.01293657161295414,-0.007269364316016436,0.0024644893128424883
1761380430856980000,1.24497998046875,0.014825019054114819,-0.0067716194316744804,0.001591771375387907
1761380430867062800,1.255062744140625,0.012575712986290455,-0.009506153874099255,0.0028631645254790783
1761380430877144800,1.265144775390625,0.01267025526612997,-0.009078449569642544,-0.000027963191314483993
1761380430887228000,1.275227783203125,0.012493154965341091,-0.011840680614113808,0.002695385366678238
1761380430897310000,1.28531005859375,0.013397830538451672,-0.00751996785402298,0.001844505313783884
1761380430907391700,1.295391845703125,0.01443779468536377,-0.009382316842675209,0.0033369408920407295
1761380430917475000,1.30547509765625,0.013636982999742031,-0.0060240705497562885,-0.0008655273704789579
1761380430927556900,1.315556884765625,0.012572516687214375,-0.009820672683417797,0.003201119601726532
1761380430937639000,1.325638916015625,0.014731275849044323,-0.005781190004199743,0.0011757856700569391
1761380430947722000,1.335721923828125,0.014117683283984661,-0.007815578952431679,0.0009526127250865102
1761380430957804000,1.345803955078125,0.015352857299149036,-0.006953247357159853,0.00293267285451293
1761380430967886000,1.355885986328125,0.012266519479453564,-0.0073202308267354965,0.0010455570882186294
1761380430977969000,1.365968994140625,0.01266839075833559,-0.007469900418072939,0.0025803367607295513
1761380430988051000,1.376051025390625,0.012665994465351105,-0.009297627955675125,0.004230697639286518
1761380430998133000,1.386133056640625,0.009404154494404793,-0.00729519734159112,0.0021076255943626165
1761380431008215800,1.3962158203125,0.011797537095844746,-0.00953864399343729,0.0044197821989655495
1761380431018297900,1.4062978515625,0.012918195687234402,-0.00759933004155755,0.0013872405979782343
1761380431028380000,1.4163798828125,0.013846307061612606,-0.01056236308068037,0.0014101437991485
1761380431038463000,1.426462890625,0.01273097563534975,-0.00902784988284111,0.0041036647744476795
1761380431048544800,1.436544677734375,0.010719489306211472,-0.008250473067164421,0.0034999263007193804
1761380431058626800,1.446626708984375,0.015569372102618217,-0.009955162182450294,0.002433330286294222
1761380431068710000,1.4567099609375,0.014869227074086666,-0.009738381020724773,0.0011017497163265944
1761380431078792000,1.4667919921875,0.013701165094971657,-0.0076147764921188354,0.0027593011036515236
1761380431088874000,1.4768740234375,0.011603925377130508,-0.007029946427792311,0.002609098795801401
1761380431098956800,1.486956787109375,0.012620453722774982,-0.00902731716632843,0.0012354403734207153
1761380431109038800,1.497038818359375,0.014448714442551136,-0.0080310283228755,0.001413339632563293
1761380431119121000,1.507120849609375,0.013194099068641663,-0.010999121703207493,0.004974518436938524
1761380431129203700,1.51720361328125,0.013850834220647812,-0.008374310098588467,0.0033720945939421654
1761380431139285800,1.52728564453125,0.01272831205278635,-0.010997789911925793,0.0007249124464578927
1761380431149367800,1.537367919921875,0.014164554886519909,-0.009308014065027237,0.004219246096909046
1761380431159451000,1.547450927734375,0.014688665047287941,-0.006457899231463671,0.002606169320642948
1761380431169533000,1.557532958984375,0.012884372845292091,-0.007391870021820068,0.0007621967233717442
1761380431179615000,1.567614990234375,0.013769075274467468,-0.007731422781944275,0.003221892286092043
1761380431189698000,1.577697998046875,0.013192767277359962,-0.006834203843027353,0.0032498554792255163
1761380431199780000,1.587780029296875,0.0126420259475708,-0.006175071466714144,0.005314870737493038
1761380431209862000,1.59786181640625,0.01306067407131195,-0.006923153530806303,0.0007299724384211004
1761380431219945000,1.607945068359375,0.012377307750284672,-0.00833542738109827,0.0028884646017104387
1761380431230027000,1.618027099609375,0.013195164501667023,-0.007678159512579441,-0.00019361180602572858
1761380431240109000,1.628109130859375,0.01332645770162344,-0.00908271037042141,0.001683650421909988
1761380431250192000,1.63819189453125,0.013169331476092339,-0.007020891644060612,0.0017755294684320688
1761380431260274000,1.64827392578125,0.014701182022690773,-0.009371397085487843,0.00384374032728374
1761380431270356000,1.65835595703125,0.012689163908362389,-0.006037119776010513,0.0016189356101676822
1761380431280438800,1.668438720703125,0.012988503091037273,-0.01001961063593626,0.0041127195581793785
1761380431290520800,1.678520751953125,0.01429132092744112,-0.007980694994330406,0.002683933824300766
1761380431300603000,1.688602783203125,0.012607404962182045,-0.009090700186789036,0.0036647759843617678
1761380431310686000,1.69868603515625,0.012597550638020039,-0.0073106433264911175,0.003491936717182398
1761380431320768000,1.70876806640625,0.014841264113783836,-0.01088753528892994,0.0004114583716727793
1761380431330850800,1.718850830078125,0.012359464541077614,-0.009431052021682262,0.003352653468027711
1761380431340932900,1.728932861328125,0.013948572799563408,-0.007276555057615042,0.0018916432745754719
1761380431351015000,1.739014892578125,0.015399462543427944,-0.011382617056369781,0.00216568261384964
1761380431361097700,1.74909765625,0.014475611969828606,-0.008295746520161629,0.003313771216198802
1761380431371179800,1.7591796875,0.014225008897483349,-0.008476841263473034,0.000666589243337512
1761380431381261800,1.76926171875,0.01483673695474863,-0.007466171868145466,0.0031124362722039223
1761380431391345200,1.77934521484375,0.014097442850470543,-0.008258196525275707,0.0018160095205530524
1761380431401426700,1.7894267578125,0.012530971318483353,-0.008506668731570244,0.004342017695307732
1761380431411508700,1.7995087890625,0.012358665466308594,-0.006941263098269701,-0.000791491474956274
1761380431421592000,1.809592041015625,0.011885954067111015,-0.008081096224486828,0.0031193606555461884
1761380431431674000,1.819674072265625,0.01317891851067543,-0.010522415861487389,0.0031704932916909456
1761380431441756000,1.829755859375,0.015357917174696922,-0.01085903961211443,0.0016708672046661377
1761380431451839000,1.8398388671875,0.014252439141273499,-0.007860053330659866,0.0030927290208637714
1761380431461921000,1.849921142578125,0.013517939485609531,-0.008266718126833439,0.0005347627447918057
1761380431472003000,1.860003173828125,0.01293284259736538,-0.009517072699964046,0.00148151651956141
1761380431482086000,1.8700859375,0.015156581997871399,-0.007015565410256386,0.0011147991754114628
1761380431492168000,1.88016796875,0.013948040083050728,-0.009425725787878036,0.0019502328941598535
1761380431502250000,1.89025,0.013265738263726234,-0.007710916455835104,0.001353684812784195
1761380431512332800,1.900332763671875,0.013866547495126724,-0.008960205130279064,0.002892192918807268
1761380431522414800,1.910414794921875,0.01426282525062561,-0.00782676413655281,0.003507116809487343
1761380431532497000,1.920496826171875,0.014533935114741325,-0.01004863902926445,0.0015209312550723553
1761380431542580000,1.930580078125,0.014640195295214653,-0.006095709279179573,-0.0005424859118647873
1761380431552662000,1.940662109375,0.012199142016470432,-0.009608418680727482,0.00007590009045088664
1761380431562743800,1.950743896484375,0.013832191936671734,-0.009562878869473934,0.0035385421942919493
1761380431572827000,1.960826904296875,0.013568006455898285,-0.009471531957387924,0.002454369328916073
1761380431582909000,1.970908935546875,0.014597584493458271,-0.006612895056605339,0.002861832967028022
1761380431592991000,1.980990966796875,0.013408749364316463,-0.008053132332861423,0.002368615474551916
1761380431603073800,1.99107373046875,0.012679043225944042,-0.008560997433960438,0.002855707658454776
1761380431613155800,2.00115576171875,0.012781575322151184,-0.00800013542175293,0.0037494644057005644
1761380431623238000,2.01123779296875,0.013582654297351837,-0.008380968123674393,0.0021108214277774096
1761380431633320700,2.02132080078125,0.011388209648430347,-0.01044278685003519,0.003762513864785433
1761380431643402800,2.03140283203125,0.013843909837305546,-0.005152950529009104,0.0017361147329211235
1761380431653484800,2.04148486328125,0.013088637962937355,-0.008931709453463554,0.003261040663346648
1761380431663568100,2.051568115234375,0.012970127165317535,-0.0093905720859766,0.0021441110875457525
1761380431673649700,2.061649658203125,0.014022075571119785,-0.007900000549852848,0.0028602350503206253
1761380431683731700,2.071731689453125,0.012401009909808636,-0.007167365401983261,0.0016591493040323257
1761380431693815000,2.08181494140625,0.010993262752890587,-0.00900015328079462,0.0017129451734945178
1761380431703897000,2.09189697265625,0.014506504870951176,-0.006795587949454784,0.0026351979468017817
1761380431713979000,2.101978759765625,0.014800784178078175,-0.008450742810964584,0.0010580739472061396
1761380431724062000,2.11206201171875,0.015442073345184326,-0.008585498668253422,0.0014817827614024282
1761380431734144000,2.12214404296875,0.010432400740683079,-0.008928780443966389,0.0023939155507832766
1761380431744226800,2.132226806640625,0.012999954633414745,-0.008238755166530609,0.0004849616379942745
1761380431754308900,2.142308837890625,0.015179485082626343,-0.00890854001045227,0.002369148191064596
1761380431764391000,2.152390869140625,0.013376791961491108,-0.009013202041387558,0.004061853047460318
1761380431774474000,2.162473876953125,0.013919011689722538,-0.008164453320205212,0.003870105603709817
1761380431784556000,2.17255615234375,0.012591691687703133,-0.009614810347557068,0.0028493159916251898
1761380431794637800,2.182637939453125,0.016086025163531303,-0.006650712341070175,0.0006005428149364889
1761380431804721000,2.192720947265625,0.013967746868729591,-0.011508584022521973,0.003207511268556118
1761380431814803000,2.202802978515625,0.015311844646930695,-0.008322378620505333,0.00242161238566041
1761380431824885000,2.212885009765625,0.012065185233950615,-0.00791704561561346,-0.0006436860421672463
1761380431834967800,2.2229677734375,0.012684635818004608,-0.008679508231580257,0.0003400856803636998
1761380431845049900,2.2330498046875,0.013205284252762794,-0.007137005217373371,0.004017910920083523
1761380431855132000,2.2431318359375,0.011157047003507614,-0.006295446306467056,0.002633333671838045
1761380431865214700,2.253214599609375,0.012711534276604652,-0.006880809087306261,0.0036639769095927477
1761380431875296800,2.263296875,0.013551228679716587,-0.0062576294876635075,0.0029254823457449675
1761380431885378800,2.27337890625,0.011018030345439911,-0.008859537541866302,0.0036858150269836187
1761380431895462000,2.2834619140625,0.012484099715948105,-0.007809986360371113,0.003028813051059842
1761380431905543700,2.293543701171875,0.01116130780428648,-0.0076334187760949135,0.0035180358681827784
1761380431915625700,2.303625732421875,0.012765063904225826,-0.0070275492034852505,0.003655987558886409
1761380431925709000,2.313708984375,0.013069462962448597,-0.009350624866783619,0.0038898130878806114
1761380431935791000,2.323791015625,0.012913933955132961,-0.007308512926101685,0.0024194817524403334
1761380431945873000,2.333872802734375,0.013976269401609898,-0.009911220520734787,0.0026841999497264624
1761380431955956000,2.3439560546875,0.014683072455227375,-0.009679525159299374,0.0010381002211943269
1761380431966038000,2.3540380859375,0.011548797599971294,-0.009301888756453991,0.0034442662727087736
1761380431976120000,2.3641201171875,0.013249225914478302,-0.006844590418040752,0.0033902039285749197
1761380431986203000,2.374202880859375,0.012680375017225742,-0.007714911364018917,0.0028426581993699074
1761380431996284700,2.38428466796875,0.012715795077383518,-0.007089867256581783,0.0003856257244478911
1761380432006366700,2.39436669921875,0.012536298483610153,-0.008168980479240417,0.004399542231112719
1761380432016449800,2.40444970703125,0.01455976814031601,-0.008213188499212265,0.0022090920247137547
1761380432026531600,2.414531494140625,0.012753612361848354,-0.009092031978070736,0.003762513864785433
1761380432036613600,2.424613525390625,0.013646836392581463,-0.008613195270299911,0.003400324145331979
1761380432046696700,2.43469677734375,0.012438826262950897,-0.00980309583246708,0.001026382320560515
1761380432056778800,2.44477880859375,0.014068414457142353,-0.009248092770576477,0.00210682675242424
1761380432066860800,2.45486083984375,0.011756790801882744,-0.011551194824278355,0.004393683280795813
1761380432076944000,2.46494384765625,0.015519837848842144,-0.009843842126429081,0.0010133327450603247
1761380432087026000,2.47502587890625,0.015103052370250225,-0.0101951127871871,0.0014421016676351428
1761380432097108000,2.48510791015625,0.01296453457325697,-0.007931159809231758,0.0023065637797117233
1761380432107190800,2.495190673828125,0.013125655241310596,-0.006433132104575634,0.0021763353142887354
1761380432117272800,2.50527294921875,0.012210327200591564,-0.007583351340144873,0.0020580908749252558
1761380432127355000,2.51535498046875,0.011304053477942944,-0.008888832293450832,0.0021949773654341698
1761380432137437700,2.525437744140625,0.012320581823587418,-0.0070770843885838985,0.002514823107048869
1761380432147519700,2.535519775390625,0.016625581309199333,-0.007340204436331987,-0.00036938043194822967
1761380432157601800,2.545601806640625,0.013423663564026356,-0.00806431844830513,0.005097024142742157
1761380432167684900,2.555684814453125,0.014992531388998032,-0.009562346152961254,0.000865793670527637
1761380432177767000,2.565766845703125,0.010952250100672245,-0.010481935925781727,0.004293282050639391
1761380432187848700,2.5758486328125,0.012477176263928413,-0.00857591163367033,-0.0015715312911197543
1761380432197931800,2.585931884765625,0.015291604213416576,-0.009443835355341434,0.0014689996605738997
1761380432208013800,2.596013916015625,0.01034584827721119,-0.007790278643369675,0.0021145499777048826
1761380432218095900,2.606095947265625,0.010333064943552017,-0.01074052881449461,0.00115421402733773
1761380432228178700,2.6161787109375,0.012825516983866692,-0.008578574284911156,-0.0003406183095648885
1761380432238260700,2.6262607421875,0.012325108982622623,-0.008696286007761955,0.00040293627534992993
1761380432248342800,2.6363427734375,0.013861486688256264,-0.007614243775606155,0.0035979305393993855
1761380432258425600,2.646425537109375,0.01284815464168787,-0.00929443258792162,-0.0006386260502040386
1761380432268507600,2.656507568359375,0.012829245999455452,-0.010748251341283321,0.000892691605258733
1761380432278590700,2.6665908203125,0.014326740987598896,-0.010868360288441181,0.0004647216119337827
1761380432288672800,2.6766728515625,0.012924054637551308,-0.010172209702432156,0.001258876291103661
1761380432298754800,2.6867548828125,0.014028999954462051,-0.006878412328660488,0.00279019377194345
1761380432308838000,2.696837890625,0.014331535436213017,-0.007534881588071585,0.002424275502562523
1761380432318920000,2.706919921875,0.014029266312718391,-0.008931176736950874,0.00026365293888375163
1761380432329001700,2.717001708984375,0.012836968526244164,-0.008835835382342339,0.002172074280679226
1761380432339084800,2.727084716796875,0.01293310895562172,-0.008142082020640373,0.002430134452879429
1761380432349166800,2.737166748046875,0.012636699713766575,-0.008808405138552189,0.0011470235185697675
1761380432359249000,2.747248779296875,0.014407968148589134,-0.008701612241566181,0.002222407842054963
1761380432369331700,2.757331787109375,0.013622335158288479,-0.00890640914440155,0.0006551376427523792
1761380432379413800,2.767413818359375,0.013575197197496891,-0.010041715577244759,0.0037974014412611723
1761380432389495800,2.777495849609375,0.012841762974858284,-0.008887501433491707,0.0009171926649287343
1761380432399579000,2.787578857421875,0.014372281730175018,-0.007981494069099426,0.0037199032958596945
1761380432409661000,2.797660888671875,0.011389806866645813,-0.00999377854168415,0.0032956618815660477
1761380432419742700,2.80774267578125,0.013975203968584538,-0.008957276120781898,-0.0007608651067130268
1761380432429825800,2.81782568359375,0.01317838579416275,-0.0049287122674286366,0.0021901836153119802
1761380432439907800,2.827907958984375,0.011843076907098293,-0.009778328239917755,0.00046046054922044277
1761380432449990000,2.837989990234375,0.012564794160425663,-0.00942226406186819,0.000708134553860873
1761380432460072700,2.84807275390625,0.014554175548255444,-0.0070730894804000854,0.0024916534312069416
1761380432470154800,2.85815478515625,0.012416722252964973,-0.00788428820669651,0.00341577036306262
1761380432480236800,2.86823681640625,0.013281184248626232,-0.008346879854798317,0.002058889716863632
1761380432490319600,2.878319580078125,0.01185186579823494,-0.011314705945551395,0.0018224010709673166
1761380432500401700,2.888401611328125,0.011795406229794025,-0.006049104034900665,0.00367116741836071
1761380432510483700,2.898483642578125,0.013620204292237759,-0.0068147629499435425,0.002965696156024933
1761380432520566800,2.90856689453125,0.01404604408890009,-0.009729060344398022,0.0021781993564218283
1761380432530648800,2.91864892578125,0.015368569642305374,-0.008502141572535038,0.0021936458069831133
1761380432540730600,2.928730712890625,0.010468619875609875,-0.009091232903301716,0.0037143107037991285
1761380432550813700,2.938813720703125,0.014444719068706036,-0.010772219859063625,0.0022887205705046654
1761380432560895700,2.948895751953125,0.012031096033751965,-0.007020625285804272,0.0019204054260626435
1761380432570977800,2.958977783203125,0.015486281365156174,-0.009160208515822887,0.005134840961545706
1761380432581060900,2.969060791015625,0.012359730899333954,-0.008594819344580173,0.0024743429385125637
1761380432591143000,2.979142822265625,0.013567473739385605,-0.009245430119335651,0.003063966752961278
1761380432601225000,2.989224853515625,0.012494486756622791,-0.007760451175272465,0.004294081125408411
1761380432611307800,2.999307861328125,0.013467338867485523,-0.007518636528402567,0.0022005699574947357
1761380432621389800,3.009389892578125,0.013786119408905506,-0.008872853592038155,0.005188636481761932
1761380432631471900,3.019471923828125,0.012599415145814419,-0.008651545271277428,0.0023337281309068203
1761380432641555000,3.029554931640625,0.014417022466659546,-0.008833439089357853,0.007254184223711491
1761380432651636700,3.03963671875,0.013047625310719013,-0.008528507314622402,0.003603257006034255
1761380432661718800,3.04971875,0.013726198114454746,-0.006804110016673803,0.0033542513847351074
1761380432671801900,3.0598017578125,0.013872671872377396,-0.010701912455260754,0.0008825715631246567
1761380432681884000,3.0698837890625,0.014313425868749619,-0.009258479811251163,0.0007342335302382708
1761380432691965700,3.079965576171875,0.012621252797544003,-0.008357798680663109,0.002910302486270666
1761380432702048800,3.090048828125,0.013423397205770016,-0.005929794628173113,0.004584365524351597
1761380432712130800,3.100130859375,0.013597034849226475,-0.007387076038867235,0.0028336034156382084
1761380432722212900,3.110212890625,0.01257944107055664,-0.0068115671165287495,0.001683650421909988
1761380432732295700,3.120295654296875,0.012117915786802769,-0.00908350944519043,0.0005848301807418466
1761380432742377700,3.130377685546875,0.013138971291482449,-0.00866086594760418,0.0007699198904447258
1761380432752459800,3.140459716796875,0.013806093484163284,-0.008932508528232574,0.0004135889175813645
1761380432762542800,3.15054296875,0.012868660502135754,-0.008203068748116493,0.002560629276558757
1761380432772624600,3.160624755859375,0.014433001168072224,-0.008581237867474556,0.0027718180790543556
1761380432782706700,3.170706787109375,0.013080648146569729,-0.00863023940473795,0.0023784691002219915
1761380432792789800,3.180789794921875,0.010696852579712868,-0.006837932392954826,0.0017619474092498422
1761380432802871800,3.190871826171875,0.012048407457768917,-0.009101352654397488,0.0019765980541706085
1761380432812953600,3.20095361328125,0.012947224080562592,-0.006160424090921879,0.0032258869614452124
1761380432823036700,3.21103662109375,0.015230884775519371,-0.009378587827086449,0.004441886208951473
1761380432833118700,3.22111865234375,0.012889433652162552,-0.007543670013546944,0.0007424892974086106
1761380432843200800,3.23120068359375,0.013174124993383884,-0.00800040178000927,0.0015763250412419438
1761380432853283800,3.241283935546875,0.013566674664616585,-0.006424609571695328,0.0022591594606637955
1761380432863366000,3.251365966796875,0.015975771471858025,-0.006344182416796684,0.002117745578289032
1761380432873448000,3.261447998046875,0.011181548237800598,-0.005215800832957029,0.004451207350939512
1761380432883530800,3.27153076171875,0.013174657709896564,-0.008962868712842464,0.0004884237423539162
1761380432893612800,3.28161279296875,0.013161341659724712,-0.008356200531125069,-0.000589091214351356
1761380432903694800,3.29169482421875,0.0136036928743124,-0.011654791422188282,0.004610730800777674
1761380432913778000,3.30177783203125,0.01581518165767193,-0.008222243748605251,0.003777693957090378
1761380432923859700,3.311859619140625,0.0131522873416543,-0.008643555454909801,0.0007222492713481188
1761380432933941800,3.321941650390625,0.014485998079180717,-0.008740228600800037,0.002615224104374647
1761380432944024800,3.33202490234375,0.012500878423452377,-0.00939110480248928,0.000737695605494082
1761380432954107000,3.34210693359375,0.013292902149260044,-0.010850783437490463,0.0018783274572342634
1761380432964189000,3.35218896484375,0.013073457404971123,-0.008666991256177425,0.002225870033726096
1761380432974271700,3.362271728515625,0.013935789465904236,-0.008704009465873241,-0.0004964132094755769
1761380432984353800,3.372353759765625,0.01384231261909008,-0.008894424885511398,0.0014173343079164624
1761380432994435800,3.382435791015625,0.012536298483610153,-0.007760451175272465,0.005751096177846193
1761380433004519400,3.39251953125,0.013191968202590942,-0.010210559703409672,0.0029377329628914595
1761380433014601500,3.4026015625,0.01335788331925869,-0.008949552662670612,-0.00042823629337362945
1761380433024683500,3.41268359375,0.01447081845253706,-0.011362376622855663,0.0025004418566823006
1761380433034766300,3.422766357421875,0.013185842894017696,-0.006975884083658457,0.0026013758033514023
1761380433044848400,3.432848388671875,0.013909690082073212,-0.007677627261728048,0.0028298748657107353
1761380433054930400,3.442930419921875,0.013604491949081421,-0.006102900020778179,-0.00008708536915946752
1761380433065013800,3.453013671875,0.012228969484567642,-0.010725081898272038,0.0021113541442900896
1761380433075095300,3.46309521484375,0.012889167293906212,-0.009758088737726212,0.003534813644364476
1761380433085177300,3.47317724609375,0.013516607694327831,-0.007844340987503529,0.0019217369845137
1761380433095260700,3.4832607421875,0.013401293195784092,-0.006286657880991697,0.0020471718162298203
1761380433105342700,3.4933427734375,0.012586099095642567,-0.008528240956366062,0.0022303974255919456
1761380433115424500,3.503424560546875,0.012612731195986271,-0.006681338418275118,0.003665574826300144
1761380433125507600,3.513507568359375,0.01417574007064104,-0.009681922383606434,0.003156378399580717
1761380433135589600,3.523589599609375,0.012538428418338299,-0.011082745157182217,0.0046568033285439014
1761380433145671700,3.533671630859375,0.012532303109765053,-0.00621022516861558,0.00395852280780673
1761380433155754500,3.54375439453125,0.01119086891412735,-0.010215619578957558,-0.0017571536591276526
1761380433165836500,3.55383642578125,0.013463610783219337,-0.008212655782699585,0.002552906284108758
1761380433175918600,3.563918701171875,0.012575712986290455,-0.008463792502880096,-0.00038296254933811724
1761380433186001700,3.574001708984375,0.014645255170762539,-0.008200937882065773,0.005346029531210661
1761380433196083500,3.58408349609375,0.011894476599991322,-0.007700263988226652,0.0008857673965394497
1761380433206165500,3.59416552734375,0.012953349389135838,-0.008731439709663391,-0.0006740460521541536
1761380433216248600,3.60424853515625,0.013190370053052902,-0.007215568795800209,0.0044115264900028706
1761380433226330600,3.61433056640625,0.016531039029359818,-0.007555920630693436,0.0015219965716823936
1761380433236412400,3.624412353515625,0.013310479000210762,-0.008432633243501186,0.0008913599886000156
1761380433246495500,3.63449560546875,0.012478507123887539,-0.008897088468074799,0.0020394488237798214
1761380433256577500,3.64457763671875,0.013295565731823444,-0.006967362016439438,0.002754773711785674
1761380433266659600,3.65465966796875,0.013748835772275925,-0.0070405988954007626,0.00021971078240312636
1761380433276742400,3.664742431640625,0.015326757915318012,-0.010557303205132484,0.0028730181511491537
1761380433286824400,3.674824462890625,0.012489426881074905,-0.00893943291157484,0.0012681973166763783
1761380433296906500,3.684906494140625,0.01363165583461523,-0.010134926065802574,0.002633866388350725
1761380433306989300,3.6949892578125,0.017129983752965927,-0.00990136619657278,0.00039601203752681613
1761380433317071400,3.7050712890625,0.013020726852118969,-0.007846738211810589,-0.0006570018595084548
1761380433327153400,3.7151533203125,0.013441773131489754,-0.007911186665296555,0.003879160387441516
1761380433337236700,3.72523681640625,0.011929896660149097,-0.006567355245351791,0.002557699801400304
1761380433347318500,3.735318603515625,0.012385030277073383,-0.009307214990258217,0.0032466596458107233
1761380433357400300,3.745400390625,0.012677978724241257,-0.0056741307489573956,0.00361790438182652
1761380433367483600,3.755483642578125,0.014269483275711536,-0.009987386874854565,0.0035175031516700983
1761380433377565700,3.765565673828125,0.013532586395740509,-0.008702411316335201,0.0019542276859283447
1761380433387647700,3.775647705078125,0.014086524024605751,-0.007754325866699219,0.002822684356942773
1761380433397730600,3.78573046875,0.011657455004751682,-0.009197226725518703,0.0027201527263969183
1761380433407812600,3.7958125,0.016444221138954163,-0.008469385094940662,0.0017369136912748218
1761380433417894700,3.805894775390625,0.015447399578988552,-0.008591623976826668,0.002569950418546796
1761380433427977500,3.8159775390625,0.011987687088549137,-0.0065202172845602036,0.00560968229547143
1761380433438059500,3.8260595703125,0.012740562669932842,-0.009310411289334297,0.002810966456308961
1761380433448141600,3.8361416015625,0.013944577425718307,-0.0075817531906068325,0.00410499656572938
1761380433458224600,3.846224609375,0.012027101591229439,-0.008497081696987152,0.0022178804501891136
1761380433468306400,3.856306396484375,0.014737134799361229,-0.008853944949805737,0.0041039311327040195
1761380433478388500,3.866388427734375,0.011575696058571339,-0.0086054727435112,0.002017078222706914
1761380433488471600,3.876471435546875,0.015368303284049034,-0.008534632623195648,0.00040480049210600555
1761380433498553600,3.8865537109375,0.01540478877723217,-0.007065898738801479,0.004275705199688673
1761380433508635600,3.8966357421875,0.014170680195093155,-0.005832855589687824,0.00022556974727194756
1761380433518718500,3.906718505859375,0.013680391944944859,-0.008132494986057281,0.0011893677292391658
1761380433528800500,3.916800537109375,0.015110775828361511,-0.009130114689469337,0.0023497070651501417
1761380433538882600,3.926882568359375,0.011785552836954594,-0.007370031904429197,0.00180855265352875
1761380433548965400,3.93696533203125,0.014667359180748463,-0.009305085055530071,0.005305016878992319
1761380433559047400,3.94704736328125,0.015145929530262947,-0.008189219981431961,0.0016402408946305513
1761380433569129500,3.95712939453125,0.013142700307071209,-0.010294449515640736,-0.000529436394572258
1761380433579212500,3.967212646484375,0.013615677133202553,-0.007100253831595182,0.00001304948909819359
1761380433589294300,3.97729443359375,0.01296293642371893,-0.00881186779588461,0.002395247109234333
1761380433599376400,3.98737646484375,0.014062821865081787,-0.008232896216213703,0.005892776418477297
1761380433609459700,3.997459716796875,0.013849502429366112,-0.008563661016523838,0.003935619257390499
1761380433619541800,4.007541748046875,0.013585316948592663,-0.009924801997840405,0.004157194402068853
1761380433629623300,4.017623291015625,0.011063570156693459,-0.00977300200611353,0.0026205505710095167
1761380433639706600,4.02770654296875,0.013502758927643299,-0.008502674289047718,0.0023758059833198786
1761380433649788700,4.03778857421875,0.015382152050733566,-0.009906427003443241,0.002401106059551239
1761380433659870700,4.04787060546875,0.016387229785323143,-0.0070768180303275585,0.0012748552253469825
1761380433669953500,4.05795361328125,0.011255317367613316,-0.008986570872366428,0.0035691685043275356
1761380433680035600,4.06803564453125,0.013971742242574692,-0.003912716172635555,0.0027539748698472977
1761380433690117600,4.07811767578125,0.017611218616366386,-0.009916813112795353,0.0024775387719273567
1761380433700200400,4.088200439453125,0.012280368246138096,-0.007196926511824131,0.00043649208964779973
1761380433710282500,4.098282470703125,0.01233469694852829,-0.008159392513334751,0.0033816818613559008
1761380433720364500,4.108364501953125,0.014127003960311413,-0.007162838242948055,0.003855990944430232
1761380433730447600,4.118447509765625,0.013134710490703583,-0.010546917095780373,0.0025390577502548695
1761380433740529700,4.12852978515625,0.012701946310698986,-0.010702445171773434,0.001222390914335847
1761380433750611500,4.138611572265625,0.012075837701559067,-0.011693141423165798,0.0024804682470858097
1761380433760694500,4.148694580078125,0.011599398218095303,-0.007408647798001766,0.0005819007055833936
1761380433770776600,4.158776611328125,0.013097159564495087,-0.009976201690733433,0.0015033544041216373
1761380433780858600,4.168858642578125,0.015051120892167091,-0.008160990662872791,0.0024410535115748644
1761380433790941400,4.17894140625,0.013423397205770016,-0.007321828510612249,0.0046243127435445786
1761380433801023500,4.1890234375,0.011683819815516472,-0.006101568229496479,0.004420847166329622
1761380433811105500,4.19910546875,0.014421549625694752,-0.009892311878502369,0.003312173532322049
1761380433821188400,4.209188232421875,0.013609818182885647,-0.007789480034261942,0.0015033544041216373
1761380433831270400,4.2192705078125,0.011383149772882462,-0.007558317389339209,0.0027001791168004274
1761380433841352400,4.2293525390625,0.011465707793831825,-0.007626760751008987,0.00464694993570447
1761380433851435500,4.239435546875,0.013863883912563324,-0.00812290795147419,0.0009209210984408855
1761380433861517300,4.249517333984375,0.011356784030795097,-0.009487245231866837,0.004159591160714626
1761380433871599400,4.259599365234375,0.014100639149546623,-0.008185758255422115,0.001987517112866044
1761380433881682700,4.2696826171875,0.015088671818375587,-0.00954024214297533,-0.00014700648898724467
1761380433891764700,4.2797646484375,0.01392913144081831,-0.005859753116965294,0.0018674085149541497
1761380433901846500,4.289846435546875,0.013174124993383884,-0.0075668394565582275,0.00202320353128016
1761380433911929600,4.2999296875,0.013908358290791512,-0.007377754896879196,0.0034019220620393753
1761380433922011600,4.31001171875,0.014399711973965168,-0.009260077029466629,0.0020911141764372587
1761380433932093700,4.32009375,0.014436197467148304,-0.009649431332945824,0.0028695559594780207
1761380433942176500,4.330176513671875,0.015006912872195244,-0.009917345829308033,0.004267183132469654
1761380433952258600,4.340258544921875,0.013308348134160042,-0.007221161387860775,0.003306314582005143
1761380433962340600,4.350340576171875,0.012783173471689224,-0.011946408078074455,0.0028154938481748104
1761380433972423700,4.360423583984375,0.014218617230653763,-0.006607036106288433,0.0016527577536180615
1761380433982505500,4.37050537109375,0.015441274270415306,-0.010374876670539379,0.0021877868566662073
1761380433992587500,4.38058740234375,0.013978400267660618,-0.008941829204559326,0.0014152037911117077
1761380434002673700,4.390673583984375,0.012464392930269241,-0.01070990227162838,0.0014660701854154468
1761380434012755700,4.400755615234375,0.011832957156002522,-0.009321596473455429,0.0020698087755590677
1761380434022837800,4.410837646484375,0.013425261713564396,-0.008817726746201515,0.002588326344266534
1761380434032920600,4.420920654296875,0.01088913343846798,-0.0060174125246703625,0.0011446266435086727
1761380434043002600,4.431002685546875,0.012603409588336945,-0.008815595880150795,0.0017363809747621417
1761380434053084700,4.441084716796875,0.01576405018568039,-0.009273393079638481,0.0028767467010766268
1761380434063167500,4.45116748046875,0.012284362688660622,-0.008313856087625027,0.0024048343766480684
1761380434073249500,4.46124951171875,0.012880644761025906,-0.007534881588071585,0.0033302828669548035
1761380434083331600,4.47133154296875,0.013009541667997837,-0.009490174241364002,0.00282055395655334
1761380434093414700,4.48141455078125,0.012780776247382164,-0.007158310618251562,0.0041374871507287025
1761380434103496400,4.491496337890625,0.011758655309677124,-0.012882242910563946,0.003775030840188265
1761380434113578500,4.50157861328125,0.012862268835306168,-0.006902647204697132,0.0044080642983317375
1761380434123661600,4.51166162109375,0.014148309826850891,-0.010867294855415821,0.0016354472609236836
1761380434133743600,4.52174365234375,0.011965849436819553,-0.007212372962385416,0.000016777914424892515
1761380434143825400,4.531825439453125,0.012956278398633003,-0.009616408497095108,0.003999269101768732
1761380434153908500,4.541908447265625,0.014052702113986015,-0.00863237027078867,0.0005121259018778801
1761380434163990500,4.551990478515625,0.013169864192605019,-0.009893910028040409,0.0006908240029588342
1761380434174072600,4.562072509765625,0.015238340944051743,-0.00920548290014267,0.0035803536884486675
1761380434184155400,4.5721552734375,0.013294766657054424,-0.007951133884489536,0.0005539375124499202
1761380434194237400,4.582237548828125,0.012543488293886185,-0.008941829204559326,0.0033044503070414066
1761380434204319500,4.592319580078125,0.013351491652429104,-0.01031628716737032,0.0022008363157510757
1761380434214401500,4.602401611328125,0.012703810818493366,-0.006061621010303497,0.0018186726374551654
1761380434224484400,4.612484375,0.014301441609859467,-0.009896572679281235,0.004126035608351231
1761380434234566400,4.62256640625,0.015014635398983955,-0.008476841263473034,0.002931075170636177
1761380434244648400,4.6326484375,0.012714196927845478,-0.009782057255506516,0.002016811864450574
1761380434254731500,4.6427314453125,0.013144031167030334,-0.006000368390232325,0.0006817692192271352
1761380434264813300,4.652813232421875,0.01375123206526041,-0.009815612807869911,0.004163319710642099
1761380434274895400,4.662895263671875,0.014312893152236938,-0.007229683455079794,0.0028631645254790783
1761380434284978700,4.672978759765625,0.01404817495495081,-0.010881676338613033,-0.00025513084256090224
1761380434295060700,4.683060791015625,0.014115818776190281,-0.008086156100034714,0.002715891692787409
1761380434305142500,4.693142578125,0.015480422414839268,-0.008469651453197002,0.00040506679215468466
1761380434315225600,4.7032255859375,0.014362161047756672,-0.010916030965745449,0.0006085322820581496
1761380434325307600,4.7133076171875,0.01173228956758976,-0.008012386038899422,0.0020538298413157463
1761380434335389700,4.7233896484375,0.01327186357229948,-0.007444334216415882,0.0034357442054897547
1761380434345472500,4.733472412109375,0.01227584108710289,-0.008261924609541893,0.00039787625428289175
1761380434355554600,4.743554443359375,0.0116776954382658,-0.007928230799734592,0.005407814867794514
1761380434365636600,4.75363671875,0.014390124939382076,-0.009533850476145744,0.004101534374058247
1761380434375719400,4.763719482421875,0.014913968741893768,-0.008006793446838856,0.001058872789144516
1761380434385801500,4.773801513671875,0.013341105543076992,-0.009649964049458504,0.0006412891671061516
1761380434395883500,4.783883544921875,0.01278556976467371,-0.0060355220921337605,0.003619768423959613
1761380434405966600,4.793966552734375,0.014524880796670914,-0.008081628940999508,0.0016825852217152715
1761380434416048600,4.804048583984375,0.014741928316652775,-0.012822321616113186,0.0006780407857149839
1761380434426130400,4.81413037109375,0.012826316058635712,-0.008245679549872875,0.0032296155113726854
1761380434436213500,4.824213623046875,0.014117683283984661,-0.008450210094451904,0.0017757958266884089
1761380434446295600,4.834295654296875,0.012804212048649788,-0.008043811656534672,0.002088717184960842
1761380434456377600,4.844377685546875,0.011408715508878231,-0.007041930686682463,-0.0005755090969614685
1761380434466460400,4.85446044921875,0.013617008924484253,-0.008627576753497124,0.005653624422848225
1761380434476542500,4.86454248046875,0.012651346623897552,-0.010936270467936993,0.0014745922526344657
1761380434486624500,4.87462451171875,0.013224725611507893,-0.010152502916753292,0.002228799508884549
1761380434496707300,4.884707275390625,0.015275625512003899,-0.007985754869878292,0.0033598439767956734
1761380434506789400,4.894789306640625,0.012977584265172482,-0.008300540037453175,0.003456783015280962
1761380434516871400,4.904871337890625,0.01338664535433054,-0.006701045669615269,0.0020969731267541647
1761380434526954500,4.91495458984375,0.01344470214098692,-0.006926083005964756,-0.001722532557323575
1761380434537036500,4.92503662109375,0.011461179703474045,-0.007553790230304003,0.003742806613445282
1761380434547118300,4.935118408203125,0.013972274959087372,-0.008673649281263351,0.00045806370326317847
1761380434557201700,4.94520166015625,0.012101403437554836,-0.009046492166817188,0.0027262780349701643
1761380434567283700,4.95528369140625,0.014603976160287857,-0.007749798707664013,0.00037230990710668266
1761380434577365800,4.96536572265625,0.014027668163180351,-0.007537544704973698,0.000012783173588104546
1761380434587448600,4.975448486328125,0.014757374301552773,-0.010407366789877415,0.004732969682663679
1761380434597530600,4.985530517578125,0.012503008358180523,-0.007418235298246145,0.006109823938459158
1761380434607612700,4.99561279296875,0.011188472621142864,-0.010171676985919476,0.005709018558263779
1761380434617695500,5.005695556640625,0.012111790478229523,-0.00871945545077324,0.0035803536884486675
1761380434627777500,5.015777587890625,0.014375743456184864,-0.010331200435757637,0.0006255765329115093
1761380434637859600,5.025859619140625,0.012707538902759552,-0.006834203843027353,0.0016269250772893429
1761380434647942700,5.035942626953125,0.013124590739607811,-0.005886917468160391,0.001606685109436512
1761380434658024400,5.0460244140625,0.013259879313409328,-0.007921839132905006,0.0012205267557874322
1761380434668106500,5.0561064453125,0.014705176465213299,-0.008613195270299911,0.00015446334145963192
1761380434678189600,5.066189453125,0.011700864881277084,-0.006992661859840155,0.0021654162555933
1761380434688271600,5.076271728515625,0.014012754894793034,-0.00987287051975727,0.002409361768513918
1761380434698353400,5.086353515625,0.013621536083519459,-0.00797297153621912,0.005660815164446831
1761380434708436500,5.0964365234375,0.012587164528667927,-0.008069644682109356,0.0021848573815077543
1761380434718518500,5.1065185546875,0.015268701128661633,-0.00782756321132183,0.0021949773654341698
1761380434728600600,5.1166005859375,0.013281716965138912,-0.010782606899738312,0.004311125259846449
1761380434738682600,5.1266826171875,0.012553608976304531,-0.008086688816547394,0.002130262553691864
1761380434748765400,5.136765380859375,0.010878746397793293,-0.01008086372166872,0.0024487765040248632
1761380434758847500,5.146847412109375,0.012291553430259228,-0.008838765323162079,0.0017299894243478775
1761380434768929500,5.156929443359375,0.014149374328553677,-0.009936253540217876,0.0017369136912748218
1761380434779012400,5.167012451171875,0.01320794690400362,-0.008505071513354778,0.005316468421369791
1761380434789094400,5.177094482421875,0.013591175898909569,-0.009187373332679272,0.002654372714459896
1761380434799176400,5.187176513671875,0.013639645650982857,-0.007001183927059174,0.0005302353529259562
1761380434809259500,5.197259521484375,0.0163643267005682,-0.008615858852863312,0.00430127140134573
1761380434819341300,5.20734130859375,0.014278272166848183,-0.00427277572453022,0.0017177389236167073
1761380434829423400,5.21742333984375,0.011836685240268707,-0.008856874890625477,0.002409095410257578
1761380434839506700,5.227506591796875,0.013335779309272766,-0.007196127437055111,0.0028533106669783592
1761380434849588700,5.237588623046875,0.014345915988087654,-0.00817936658859253,0.004458930809050798
1761380434859670500,5.24767041015625,0.014184528030455112,-0.007256315089762211,0.00264771468937397
1761380434869753600,5.257753662109375,0.012918195687234402,-0.007256581448018551,0.0011078750248998404
1761380434879835600,5.267835693359375,0.013787983916699886,-0.007285077124834061,0.0022980417124927044
1761380434889917700,5.277917724609375,0.014082529582083225,-0.009632653556764126,0.001121989800594747
1761380434900000500,5.28800048828125,0.012079565785825253,-0.008625179529190063,0.005678924731910229
1761380434910082600,5.29808251953125,0.012912869453430176,-0.00923238042742014,0.0015390408225357533
1761380434920164600,5.30816455078125,0.015254586935043335,-0.005801962688565254,0.0021435783710330725
1761380434930247400,5.318247314453125,0.011951201595366001,-0.009122392162680626,-0.0017262609908357263
1761380434940329500,5.32832958984375,0.013462012633681297,-0.009250223636627197,0.001335841603577137
1761380434950411500,5.33841162109375,0.013062538579106331,-0.00714632635936141,0.0025150892324745655
1761380434960494600,5.34849462890625,0.0143547048792243,-0.006834470201283693,0.0017624800093472004
1761380434970576600,5.35857666015625,0.01437893882393837,-0.01067847665399313,0.002891926560550928
1761380434980658400,5.368658447265625,0.013853231444954872,-0.00839481595903635,0.002382996492087841
1761380434990741500,5.378741455078125,0.013736318796873093,-0.008510664105415344,-0.00037390782381407917
1761380435000820000,5.388820068359375,0.013754960149526596,-0.012072108685970306,0.0017915084026753902
1761380435010902000,5.398902099609375,0.013025520369410515,-0.006816626992076635,0.0022295983508229256
1761380435020984800,5.40898486328125,0.015684686601161957,-0.009488310664892197,0.0022924491204321384
1761380435031067000,5.41906689453125,0.013422065414488316,-0.0068243504501879215,0.0009403621661476791
1761380435041149000,5.42914892578125,0.013605557382106781,-0.007593204732984304,0.001716673607006669
1761380435051231700,5.439231689453125,0.014181066304445267,-0.008347944356501102,0.0012799152173101902
1761380435061313800,5.449313720703125,0.013911021873354912,-0.009138104505836964,-0.0006679208017885685
1761380435071395800,5.459395751953125,0.015187474898993969,-0.009574330411851406,0.006068012677133083
1761380435081478000,5.469477783203125,0.01353498362004757,-0.009051818400621414,0.00452950457111001
1761380435091561000,5.47956103515625,0.013647635467350483,-0.008083758875727654,0.00276169809512794
1761380435101642800,5.489642822265625,0.013511547818779945,-0.00865980051457882,0.00452790642157197
1761380435111724800,5.499724853515625,0.01404497865587473,-0.005769205745309591,0.00276116537861526
1761380435121808000,5.509807861328125,0.014243650250136852,-0.00818016566336155,0.00478516798466444
1761380435131890000,5.519889892578125,0.015249527059495449,-0.007844340987503529,0.0028567728586494923
1761380435141971700,5.5299716796875,0.011327755637466908,-0.008253668434917927,0.0012532835826277733
1761380435152054800,5.5400546875,0.013493171893060207,-0.00484162662178278,0.003680754918605089
1761380435162136800,5.55013671875,0.013863617554306984,-0.012045743875205517,0.002674346324056387
1761380435172219000,5.560218994140625,0.016818394884467125,-0.006247243378311396,0.0018524948973208666
1761380435182302000,5.570302001953125,0.01136903464794159,-0.010765562765300274,0.0030309436842799187
1761380435192384000,5.580384033203125,0.014933941885828972,-0.008010522462427616,0.0022682142443954945
1761380435202466000,5.590466064453125,0.014010624028742313,-0.009495234116911888,0.004018976353108883
1761380435212548900,5.600548828125,0.014146711677312851,-0.007182811852544546,0.001437308033928275
1761380435222631000,5.610630859375,0.012974920682609081,-0.010520551353693008,0.0019590212032198906
1761380435232713000,5.620712890625,0.013433783315122128,-0.008006260730326176,0.0035057852510362864
1761380435242796000,5.630796142578125,0.012733105570077896,-0.008462194353342056,0.0036914076190441847
1761380435252877800,5.6408779296875,0.012888368219137192,-0.003276220755651593,0.002915362361818552
1761380435262959900,5.6509599609375,0.011658254079520702,-0.009816411882638931,0.006143912672996521
1761380435273043000,5.66104296875,0.013068930245935917,-0.008102401159703732,0.003019758267328143
1761380435283125000,5.671125,0.014988803304731846,-0.008406800217926502,0.004327636677771807
1761380435293207000,5.68120703125,0.012557337060570717,-0.007497331127524376,0.00011478224041638896
1761380435303289900,5.691289794921875,0.014444719068706036,-0.009303220547735691,0.005273858085274696
1761380435313372000,5.701371826171875,0.014128602109849453,-0.00836898386478424,0.0022056300658732653
1761380435323454000,5.711453857421875,0.01341487467288971,-0.00896952673792839,0.0033300165086984634
1761380435333536800,5.721536865234375,0.01347532868385315,-0.008188155479729176,0.004756139125674963
1761380435343618800,5.731618896484375,0.012677179649472237,-0.009161007590591908,0.0013454289874061942
1761380435353700900,5.741700927734375,0.014966432936489582,-0.007865645922720432,0.002520682057365775
1761380435363784000,5.751783935546875,0.013552826829254627,-0.007475759368389845,0.0029001825023442507
1761380435373865700,5.76186572265625,0.014677746221423149,-0.007166832685470581,0.0023350596893578768
1761380435383947800,5.77194775390625,0.012477708980441093,-0.008253668434917927,0.0016500946367159486
1761380435394029800,5.78202978515625,0.01392939779907465,-0.008855010382831097,0.0027031085919588804
1761380435404113000,5.79211279296875,0.013773602433502674,-0.008734902366995811,0.0020394488237798214
1761380435414195000,5.80219482421875,0.013195697218179703,-0.009621202014386654,0.00038828887045383453
1761380435424276700,5.81227685546875,0.011985289864242077,-0.008607869036495686,0.0004889564006589353
1761380435434359800,5.82235986328125,0.013287842273712158,-0.007498928811401129,0.0030634342692792416
1761380435444441900,5.83244189453125,0.01399011816829443,-0.00782463327050209,0.0026961842086166143
1761380435454524000,5.84252392578125,0.011953066103160381,-0.011125088669359684,0.001976331928744912
1761380435464607000,5.85260693359375,0.011694206856191158,-0.008359395898878574,0.0026929883752018213
1761380435474689000,5.86268896484375,0.010724815540015697,-0.010995126329362392,0.0029225528705865145
1761380435484771000,5.87277099609375,0.01401595026254654,-0.007302653975784779,0.005167597904801369
1761380435494854000,5.88285400390625,0.012223110534250736,-0.010059824213385582,0.0004945489927195013
1761380435504936000,5.89293603515625,0.012196744792163372,-0.006126602180302143,0.002776611829176545
1761380435515018000,5.90301806640625,0.014915832318365574,-0.008377505466341972,0.0016863135388121009
1761380435525101000,5.91310107421875,0.011713647283613682,-0.006027532275766134,0.0025598304346203804
1761380435535182800,5.923182861328125,0.01429105456918478,-0.009709618985652924,0.0032953955233097076
1761380435545265000,5.933264892578125,0.014446050859987736,-0.00965928565710783,0.0022482406347990036
1761380435555348000,5.943347900390625,0.011893943883478642,-0.009651029482483864,0.002359294332563877
1761380435565430000,5.953429931640625,0.01386681292206049,-0.007651527877897024,0.001987250754609704
1761380435575511800,5.96351171875,0.014612232334911823,-0.00933011807501316,0.0013081447687000036
1761380435585595000,5.973594970703125,0.012687033042311668,-0.009372995235025883,0.0030714236199855804
1761380435595677000,5.983677001953125,0.011713114567101002,-0.009640643373131752,0.0012351741315796971
1761380435605759000,5.993759033203125,0.013273993507027626,-0.0075780246406793594,0.004677043296396732
1761380435615841800,6.003841796875,0.014249775558710098,-0.008929046802222729,0.0035151063930243254
1761380435625923800,6.013923828125,0.012978382408618927,-0.009009207598865032,0.0021654162555933
1761380435636006000,6.024005859375,0.012195413932204247,-0.006075469311326742,0.00464588450267911
1761380435646089000,6.0340888671875,0.012943228706717491,-0.00971441250294447,0.00021917815320193768
1761380435656170800,6.044170654296875,0.013124058023095131,-0.006964432541280985,-0.00020346550445538014
1761380435666252800,6.054252685546875,0.012399678118526936,-0.005946039687842131,0.0026988473255187273
1761380435676335900,6.0643359375,0.014887336641550064,-0.008117049001157284,0.001791242160834372
1761380435686418000,6.07441796875,0.01565246284008026,-0.00842384435236454,0.0007073355955071747
1761380435696499700,6.084499755859375,0.014317420311272144,-0.008677910082042217,0.003162237349897623
1761380435706581800,6.094581787109375,0.015133412554860115,-0.006359894759953022,0.0025590313598513603
1761380435716664800,6.104664794921875,0.012607404962182045,-0.009033708833158016,0.0010037453612312675
1761380435726747000,6.114746826171875,0.014113688841462135,-0.009797769598662853,0.0012471582740545273
1761380435736829000,6.124828857421875,0.01161804050207138,-0.005912750028073788,0.0015608787070959806
1761380435746912000,6.134912109375,0.01257810927927494,-0.009608685038983822,0.0021616879384964705
1761380435756994000,6.144994140625,0.012887036427855492,-0.009222793392837048,0.0028762139845639467
1761380435767076000,6.155076171875,0.013677729293704033,-0.008321313187479973,0.0034144388046115637
1761380435777159000,6.165158935546875,0.01489479374140501,-0.008670453913509846,0.0016503608785569668
1761380435787241000,6.175240966796875,0.01563914678990841,-0.00996182020753622,0.0027321369852870703
1761380435797323000,6.185322998046875,0.01113307848572731,-0.007130347657948732,0.0006841660942882299
1761380435807405800,6.19540576171875,0.015147794038057327,-0.008924252353608608,0.0021584921050816774
1761380435817488000,6.20548779296875,0.012632437981665134,-0.008837966248393059,0.0022799321450293064
1761380435827570000,6.21556982421875,0.01139966119080782,-0.01194028276950121,-0.00009081379539566115
1761380435837653000,6.225653076171875,0.017430122941732407,-0.004144411068409681,0.005263737868517637
1761380435847735000,6.235735107421875,0.010202303528785706,-0.00814820732921362,0.003864246653392911
1761380435857816800,6.24581689453125,0.015594938769936562,-0.008637163788080215,0.0025888588279485703
1761380435867900000,6.25589990234375,0.014355236664414406,-0.010304569266736507,0.0016642092959955335
1761380435877982000,6.26598193359375,0.014020211063325405,-0.00824115239083767,0.0028972530271857977
1761380435888064000,6.27606396484375,0.013457751832902431,-0.007459247950464487,0.0022530341520905495
1761380435898146800,6.286146728515625,0.014928082935512066,-0.007031544111669064,0.0030277478508651257
1761380435908228900,6.296228759765625,0.012503541074693203,-0.009676596149802208,0.0030570426024496555
1761380435918311000,6.306310791015625,0.014359764754772186,-0.007159908767789602,0.002959570847451687
1761380435928393700,6.316393798828125,0.012831908650696278,-0.008492288179695606,0.0033569145016372204
1761380435938475800,6.326475830078125,0.014038586989045143,-0.007938616909086704,0.004085821565240622
1761380435948557800,6.336557861328125,0.012754145078361034,-0.009956227615475655,0.00038216362008824944
1761380435958639900,6.346639892578125,0.013381319120526314,-0.011366637423634529,0.003212304785847664
1761380435968723000,6.356722900390625,0.01094798929989338,-0.010685933753848076,0.0005826996639370918
1761380435978804700,6.3668046875,0.0144710848107934,-0.005803826730698347,0.002596848411485553
1761380435988886800,6.37688671875,0.012826848775148392,-0.007420632056891918,0.005003546830266714
1761380435998969600,6.386969482421875,0.013889716938138008,-0.00806218758225441,0.0012231898726895452
1761380436009051600,6.3970517578125,0.013861753046512604,-0.009337308816611767,-0.0006399576086550951
1761380436019133400,6.407133544921875,0.012996225617825985,-0.007586546707898378,0.004102599807083607
1761380436029216800,6.417216796875,0.0148636344820261,-0.008207595907151699,0.0022327941842377186
1761380436039298800,6.427298828125,0.014430338516831398,-0.010009224526584148,0.006570817437022924
1761380436049380600,6.437380615234375,0.012372779659926891,-0.009848102927207947,0.0019355855183675885
1761380436059463700,6.447463623046875,0.013846307061612606,-0.005028580781072378,0.004644020460546017
1761380436069545700,6.457545654296875,0.013730193488299847,-0.004479969386011362,0.008532235398888588
1761380436079627800,6.467627685546875,0.012120312079787254,-0.010732272639870644,0.0009363674325868487
1761380436089710600,6.477710693359375,0.014787201769649982,-0.0035001926589757204,0.0033396040089428425
1761380436099792600,6.487792724609375,0.013629525899887085,-0.00002157160452043172,0.007291202433407307
1761380436109874700,6.497874755859375,0.012207663618028164,0.002558232517912984,0.006139118690043688
1761380436119957800,6.507957763671875,0.013670538552105427,0.007137804292142391,0.012956811115145683
1761380436130039800,6.518039794921875,0.01569720357656479,0.018441325053572655,0.020487697795033455
1761380436140121600,6.52812158203125,0.013501694425940514,0.02533092349767685,0.025373000651597977
1761380436150204700,6.53820458984375,0.01822534203529358,0.0331672728061676,0.029813822358846664
1761380436160286700,6.54828662109375,0.012864666059613228,0.026203639805316925,0.02503584511578083
1761380436170368800,6.55836865234375,0.0136036928743124,-0.015966182574629784,-0.0025483788922429085
1761380436180450600,6.568450439453125,0.0116776954382658,-0.09620136767625809,-0.05603477358818054
1761380436190533600,6.57853369140625,0.011710984632372856,-0.12300288677215576,-0.07384146749973297
1761380436200615700,6.58861572265625,0.012028966099023819,-0.015247129835188389,-0.0041039311327040195
1761380436210697700,6.59869775390625,0.014816496521234512,0.06388896703720093,0.0496320016682148
