time,seconds_elapsed,z,y,x
1761379806617595600,0.058595703125,-0.949462890625,-0.251251220703125,0.137908935546875
1761379806627678700,0.0686787109375,-0.9396514892578125,-0.2577972412109375,0.139434814453125
1761379806637761500,0.078761474609375,-0.922576904296875,-0.2548675537109375,0.152069091796875
1761379806647844600,0.0888447265625,-0.9286651611328125,-0.2524871826171875,0.16766357421875
1761379806657927400,0.098927490234375,-0.9447174072265625,-0.25677490234375,0.1811676025390625
1761379806668010800,0.1090107421875,-0.96014404296875,-0.2584228515625,0.1885528564453125
1761379806678093600,0.119093505859375,-0.9754791259765625,-0.25665283203125,0.1887359619140625
1761379806688176600,0.1291767578125,-0.990814208984375,-0.2603912353515625,0.1845550537109375
1761379806698259700,0.139259765625,-1.0040435791015625,-0.2588958740234375,0.1725616455078125
1761379806708342500,0.149342529296875,-1.01312255859375,-0.247467041015625,0.1523590087890625
1761379806718425600,0.159425537109375,-1.01593017578125,-0.2337188720703125,0.1406402587890625
1761379806728508700,0.1695087890625,-1.0087127685546875,-0.22998046875,0.1409149169921875
1761379806738591700,0.179591796875,-0.997894287109375,-0.24017333984375,0.1493072509765625
1761379806748674600,0.189674560546875,-0.9789886474609375,-0.24981689453125,0.151519775390625
1761379806758757600,0.199757568359375,-0.968658447265625,-0.25079345703125,0.1504364013671875
1761379806768840400,0.20984033203125,-0.9572906494140625,-0.254547119140625,0.14862060546875
1761379806778923500,0.219923583984375,-0.94512939453125,-0.259124755859375,0.148223876953125
1761379806789006600,0.230006591796875,-0.9348297119140625,-0.264923095703125,0.1479034423828125
1761379806799089700,0.240089599609375,-0.9232177734375,-0.2688140869140625,0.1476593017578125
1761379806809172700,0.2501728515625,-0.9120025634765625,-0.2675933837890625,0.1462554931640625
1761379806819255600,0.260255615234375,-0.9036712646484375,-0.2642364501953125,0.14178466796875
1761379806829338600,0.270338623046875,-0.904632568359375,-0.26251220703125,0.1408538818359375
1761379806839421400,0.28042138671875,-0.9091796875,-0.2657928466796875,0.1438140869140625
1761379806849504800,0.2905048828125,-0.9125213623046875,-0.26800537109375,0.1425018310546875
1761379806859587600,0.300587646484375,-0.9126129150390625,-0.267425537109375,0.140960693359375
1761379806869670700,0.310670654296875,-0.912078857421875,-0.26470947265625,0.1402130126953125
1761379806879753500,0.32075341796875,-0.9130706787109375,-0.261932373046875,0.1348114013671875
1761379806889836500,0.33083642578125,-0.9125213623046875,-0.2569427490234375,0.1313934326171875
1761379806899919600,0.340919677734375,-0.916473388671875,-0.2576751708984375,0.125946044921875
1761379806910002700,0.351002685546875,-0.9193572998046875,-0.2605133056640625,0.11956787109375
1761379806920085800,0.361085693359375,-0.9253387451171875,-0.25762939453125,0.115447998046875
1761379806930168600,0.37116845703125,-0.92462158203125,-0.2664947509765625,0.1147003173828125
1761379806940251600,0.381251708984375,-0.9297943115234375,-0.2761688232421875,0.11029052734375
1761379806950334500,0.39133447265625,-0.9376983642578125,-0.275054931640625,0.1048583984375
1761379806960417500,0.40141748046875,-0.9427947998046875,-0.27032470703125,0.1008453369140625
1761379806970500600,0.41150048828125,-0.9450836181640625,-0.27276611328125,0.1001739501953125
1761379806980583700,0.421583740234375,-0.9470672607421875,-0.2824249267578125,0.1045989990234375
1761379806990666800,0.431666748046875,-0.9488983154296875,-0.2921142578125,0.109283447265625
1761379807000749600,0.44174951171875,-0.9574127197265625,-0.294647216796875,0.110626220703125
1761379807010832600,0.45183251953125,-0.9639129638671875,-0.290771484375,0.1097564697265625
1761379807020915500,0.46191552734375,-0.9739990234375,-0.2836761474609375,0.1059417724609375
1761379807030998800,0.471998779296875,-0.98944091796875,-0.2728271484375,0.0979766845703125
1761379807041081600,0.48208154296875,-1.0118255615234375,-0.26470947265625,0.0907745361328125
1761379807051164700,0.49216455078125,-0.976654052734375,-0.2567901611328125,0.1025848388671875
1761379807061247500,0.50224755859375,-0.96820068359375,-0.2623138427734375,0.1250762939453125
1761379807071330600,0.51233056640625,-0.99603271484375,-0.266143798828125,0.1341552734375
1761379807081413600,0.52241357421875,-1.0041656494140625,-0.26068115234375,0.1275482177734375
1761379807091496700,0.53249658203125,-0.9849853515625,-0.250152587890625,0.1197509765625
1761379807101579800,0.542579833984375,-0.9901885986328125,-0.2381744384765625,0.1147613525390625
1761379807111662600,0.55266259765625,-0.973785400390625,-0.2454986572265625,0.12591552734375
1761379807121745700,0.56274560546875,-0.99078369140625,-0.25042724609375,0.1324462890625
1761379807131828500,0.572828369140625,-0.9831695556640625,-0.253326416015625,0.13470458984375
1761379807141911600,0.58291162109375,-0.9880523681640625,-0.2423248291015625,0.1244049072265625
1761379807151994600,0.59299462890625,-0.98223876953125,-0.228424072265625,0.11334228515625
1761379807162077700,0.60307763671875,-0.981658935546875,-0.2246246337890625,0.10546875
1761379807172160500,0.613160400390625,-0.9705657958984375,-0.224822998046875,0.1041717529296875
1761379807182243600,0.62324365234375,-0.9441986083984375,-0.239349365234375,0.10821533203125
1761379807192326700,0.63332666015625,-0.906463623046875,-0.253387451171875,0.1276702880859375
1761379807202409500,0.643409423828125,-0.9343109130859375,-0.2541656494140625,0.1342315673828125
1761379807212492800,0.653492919921875,-0.931732177734375,-0.2395782470703125,0.1263885498046875
1761379807222575600,0.66357568359375,-0.9155426025390625,-0.236083984375,0.1303253173828125
1761379807232658700,0.67365869140625,-0.9270782470703125,-0.242584228515625,0.1455078125
1761379807242741500,0.683741455078125,-0.92974853515625,-0.2516937255859375,0.156341552734375
1761379807252824600,0.693824462890625,-0.92437744140625,-0.2553253173828125,0.1595458984375
1761379807262907400,0.703907470703125,-0.922760009765625,-0.2573089599609375,0.1558837890625
1761379807272990700,0.71399072265625,-0.92340087890625,-0.2576904296875,0.151947021484375
1761379807283073500,0.724073486328125,-0.9254302978515625,-0.254638671875,0.14520263671875
1761379807293156600,0.734156494140625,-0.91552734375,-0.2593841552734375,0.1535491943359375
1761379807303239700,0.74423974609375,-0.9056549072265625,-0.2732086181640625,0.1653289794921875
1761379807313322500,0.754322509765625,-0.899810791015625,-0.2810211181640625,0.1646270751953125
1761379807323405600,0.764405517578125,-0.8920135498046875,-0.2865447998046875,0.168792724609375
1761379807333488600,0.774488525390625,-0.9150238037109375,-0.2870635986328125,0.1734771728515625
1761379807343572000,0.784572021484375,-0.9232025146484375,-0.2839508056640625,0.17596435546875
1761379807353654800,0.79465478515625,-0.930877685546875,-0.28155517578125,0.1777191162109375
1761379807363737900,0.80473779296875,-0.941802978515625,-0.278778076171875,0.1805419921875
1761379807373820700,0.814820556640625,-0.9480438232421875,-0.27703857421875,0.1781005859375
1761379807383904000,0.824904052734375,-0.9557647705078125,-0.272491455078125,0.1723480224609375
1761379807393986800,0.83498681640625,-0.956268310546875,-0.2712249755859375,0.17730712890625
1761379807404070000,0.84506982421875,-0.957489013671875,-0.2753753662109375,0.170684814453125
1761379807414153000,0.855153076171875,-0.9630889892578125,-0.2692413330078125,0.153076171875
1761379807424234800,0.86523486328125,-0.967437744140625,-0.2640380859375,0.1524658203125
1761379807434318800,0.87531884765625,-0.962677001953125,-0.270538330078125,0.1600799560546875
1761379807444401000,0.88540087890625,-0.954559326171875,-0.274505615234375,0.164886474609375
1761379807454484000,0.89548388671875,-0.9464874267578125,-0.27655029296875,0.1644439697265625
1761379807464567000,0.905567138671875,-0.9439697265625,-0.2733306884765625,0.1578369140625
1761379807474649900,0.91564990234375,-0.9384002685546875,-0.27178955078125,0.15087890625
1761379807484733000,0.92573291015625,-0.9326324462890625,-0.2736053466796875,0.1456756591796875
1761379807494815700,0.935815673828125,-0.9336700439453125,-0.2740936279296875,0.1423492431640625
1761379807504898800,0.94589892578125,-0.930206298828125,-0.2746124267578125,0.1458587646484375
1761379807514982000,0.95598193359375,-0.9313507080078125,-0.274078369140625,0.1509857177734375
1761379807525065000,0.96606494140625,-0.933837890625,-0.2710113525390625,0.1593017578125
1761379807535148000,0.97614794921875,-0.937713623046875,-0.2646026611328125,0.1631927490234375
1761379807545230800,0.98623095703125,-0.943511962890625,-0.26025390625,0.16455078125
1761379807555314000,0.99631396484375,-0.9486083984375,-0.2566070556640625,0.1620635986328125
1761379807565396700,1.006396728515625,-0.9481048583984375,-0.254302978515625,0.1584320068359375
1761379807575480000,1.01647998046875,-0.9504241943359375,-0.25750732421875,0.1594696044921875
1761379807585563000,1.02656298828125,-0.957855224609375,-0.2689208984375,0.16082763671875
1761379807595646000,1.03664599609375,-0.9600830078125,-0.2734222412109375,0.161163330078125
1761379807605728800,1.046728759765625,-0.9639434814453125,-0.2916717529296875,0.15936279296875
1761379807615811800,1.056811767578125,-0.9599761962890625,-0.3469696044921875,0.172698974609375
1761379807625895000,1.06689501953125,-0.9413604736328125,-0.3200225830078125,0.1751251220703125
1761379807635978000,1.07697802734375,-0.9314117431640625,-0.298736572265625,0.16461181640625
1761379807646061000,1.08706103515625,-0.9193878173828125,-0.2940216064453125,0.1549530029296875
1761379807656144000,1.097143798828125,-0.9091339111328125,-0.2909698486328125,0.149322509765625
1761379807666227000,1.10722705078125,-0.903076171875,-0.2818145751953125,0.14544677734375
1761379807676309800,1.117309814453125,-0.90252685546875,-0.27716064453125,0.1420440673828125
1761379807686392800,1.127392822265625,-0.902740478515625,-0.2637481689453125,0.138458251953125
1761379807696476000,1.137475830078125,-0.8992156982421875,-0.2480621337890625,0.1304168701171875
1761379807706559000,1.14755908203125,-0.921051025390625,-0.2742919921875,0.1252288818359375
1761379807716641800,1.157641845703125,-0.9273834228515625,-0.2991485595703125,0.137176513671875
1761379807726724900,1.167724853515625,-0.9253997802734375,-0.30877685546875,0.144073486328125
1761379807736808000,1.177807861328125,-0.9052581787109375,-0.3145904541015625,0.1484832763671875
1761379807746890800,1.187890869140625,-0.892791748046875,-0.295684814453125,0.1488189697265625
1761379807756974000,1.19797412109375,-0.894378662109375,-0.2864227294921875,0.1566009521484375
1761379807767057000,1.208056884765625,-0.91204833984375,-0.2996978759765625,0.1639251708984375
1761379807777140000,1.218139892578125,-0.9230194091796875,-0.3143768310546875,0.163330078125
1761379807787222800,1.228222900390625,-0.9215545654296875,-0.3167266845703125,0.1640777587890625
1761379807797305900,1.238305908203125,-0.9245147705078125,-0.31488037109375,0.1627197265625
1761379807807388700,1.248388671875,-0.927947998046875,-0.31964111328125,0.1668853759765625
1761379807817472000,1.258471923828125,-0.935821533203125,-0.3278350830078125,0.17236328125
1761379807827554800,1.268554931640625,-0.9381866455078125,-0.33001708984375,0.1694488525390625
1761379807837638000,1.278637939453125,-0.9307708740234375,-0.3332366943359375,0.1704254150390625
1761379807847721000,1.288720947265625,-0.922088623046875,-0.3613128662109375,0.195587158203125
1761379807857803800,1.2988037109375,-0.943756103515625,-0.387359619140625,0.2245941162109375
1761379807867886800,1.308886962890625,-0.987335205078125,-0.382476806640625,0.2335205078125
1761379807877970000,1.318969970703125,-1.0454559326171875,-0.3605194091796875,0.2038421630859375
1761379807888053000,1.329052978515625,-1.095703125,-0.320068359375,0.1444854736328125
1761379807898135800,1.3391357421875,-1.127105712890625,-0.2655029296875,0.079986572265625
1761379807908219000,1.349218994140625,-1.131591796875,-0.21392822265625,0.0357513427734375
1761379807918301700,1.3593017578125,-1.119232177734375,-0.170623779296875,0.023345947265625
1761379807928384800,1.369384765625,-1.1060028076171875,-0.1514739990234375,0.0479888916015625
1761379807938468000,1.379468017578125,-1.0946044921875,-0.1591339111328125,0.1078338623046875
1761379807948551000,1.389551025390625,-1.0869903564453125,-0.1831207275390625,0.16717529296875
1761379807958634000,1.399634033203125,-1.0876617431640625,-0.2032623291015625,0.2014923095703125
1761379807968716800,1.409716796875,-1.096435546875,-0.21734619140625,0.2162628173828125
1761379807978799900,1.4197998046875,-1.1022796630859375,-0.2196807861328125,0.205352783203125
1761379807988882700,1.429882568359375,-1.111083984375,-0.2026519775390625,0.172210693359375
1761379807998966000,1.439966064453125,-1.1165008544921875,-0.178253173828125,0.130462646484375
1761379808009048800,1.450048828125,-1.129302978515625,-0.1573944091796875,0.092071533203125
1761379808019132000,1.4601318359375,-1.13812255859375,-0.150238037109375,0.065399169921875
1761379808029215000,1.470215087890625,-1.138214111328125,-0.149200439453125,0.04010009765625
1761379808039297800,1.4802978515625,-1.127716064453125,-0.1414337158203125,0.0138397216796875
1761379808049380900,1.490380859375,-1.1132354736328125,-0.1248016357421875,-0.006378173828125
1761379808059464000,1.5004638671875,-1.0987701416015625,-0.108734130859375,-0.0169830322265625
1761379808069547000,1.510547119140625,-1.0803985595703125,-0.0944366455078125,-0.0086669921875
1761379808079629800,1.5206298828125,-1.0685272216796875,-0.082000732421875,0.0096435546875
1761379808089713000,1.530712890625,-1.0597991943359375,-0.0784149169921875,0.0360565185546875
1761379808099795700,1.540795654296875,-1.053802490234375,-0.0830841064453125,0.059173583984375
1761379808109878800,1.550878662109375,-1.05859375,-0.08941650390625,0.0767364501953125
1761379808119961900,1.5609619140625,-1.0592193603515625,-0.0969085693359375,0.087860107421875
1761379808130045000,1.571044921875,-1.0600128173828125,-0.1069183349609375,0.0884857177734375
1761379808140128000,1.5811279296875,-1.057220458984375,-0.117095947265625,0.076507568359375
1761379808150210800,1.5912109375,-1.0434417724609375,-0.124755859375,0.051483154296875
1761379808160294000,1.6012939453125,-1.0229949951171875,-0.1334075927734375,0.03302001953125
1761379808170376700,1.611376708984375,-0.9882659912109375,-0.14697265625,0.026275634765625
1761379808180460000,1.6214599609375,-0.951324462890625,-0.1573638916015625,0.0299835205078125
1761379808190542800,1.63154296875,-0.8998565673828125,-0.1682281494140625,0.0426025390625
1761379808200626000,1.6416259765625,-0.8567047119140625,-0.1872711181640625,0.058135986328125
1761379808210708700,1.651708740234375,-0.8145599365234375,-0.219635009765625,0.080780029296875
1761379808220791800,1.661791748046875,-0.7834930419921875,-0.2496337890625,0.1046295166015625
1761379808230875000,1.671875,-0.76531982421875,-0.266204833984375,0.1216888427734375
1761379808240958000,1.6819580078125,-0.7474212646484375,-0.2794189453125,0.1326446533203125
1761379808251041000,1.692041015625,-0.7340240478515625,-0.2974395751953125,0.142913818359375
1761379808261123800,1.702123779296875,-0.7349700927734375,-0.3159637451171875,0.1474761962890625
1761379808271207000,1.71220703125,-0.7462005615234375,-0.3154296875,0.1421661376953125
1761379808281289700,1.722289794921875,-0.755859375,-0.3101043701171875,0.13604736328125
1761379808291372800,1.732372802734375,-0.7688140869140625,-0.310638427734375,0.136962890625
1761379808301456000,1.742455810546875,-0.7714385986328125,-0.31109619140625,0.1410980224609375
1761379808311539000,1.7525390625,-0.7726287841796875,-0.309539794921875,0.1504364013671875
1761379808321622000,1.7626220703125,-0.7754974365234375,-0.3099822998046875,0.15777587890625
1761379808331704800,1.772704833984375,-0.77777099609375,-0.3109283447265625,0.1627349853515625
1761379808341788400,1.782788330078125,-0.7965850830078125,-0.3017120361328125,0.159332275390625
1761379808351871200,1.792871337890625,-0.814361572265625,-0.292938232421875,0.155487060546875
1761379808361954600,1.80295458984375,-0.8327178955078125,-0.2929534912109375,0.1561126708984375
1761379808372037400,1.813037353515625,-0.847320556640625,-0.296630859375,0.1551055908203125
1761379808382120400,1.823120361328125,-0.850616455078125,-0.2965240478515625,0.1483306884765625
1761379808392203300,1.833203369140625,-0.8532867431640625,-0.2995452880859375,0.1400604248046875
1761379808402286300,1.843286376953125,-0.85589599609375,-0.3070526123046875,0.1327667236328125
1761379808412369200,1.853369140625,-0.8574066162109375,-0.3148651123046875,0.132171630859375
1761379808422452500,1.863452392578125,-0.8628387451171875,-0.3327178955078125,0.14031982421875
1761379808432535300,1.873535400390625,-0.8719024658203125,-0.353973388671875,0.1391754150390625
1761379808442618400,1.883618408203125,-0.875,-0.3631134033203125,0.129608154296875
1761379808452701400,1.893701416015625,-0.87054443359375,-0.3631439208984375,0.1258697509765625
1761379808462784300,1.9037841796875,-0.8665008544921875,-0.3673248291015625,0.1317291259765625
1761379808472867300,1.913867431640625,-0.870880126953125,-0.377899169921875,0.138153076171875
1761379808482950400,1.923950439453125,-0.8778076171875,-0.3863677978515625,0.142303466796875
1761379808493033500,1.934033447265625,-0.889190673828125,-0.398406982421875,0.1525115966796875
1761379808503116300,1.9441162109375,-0.9140777587890625,-0.421783447265625,0.16571044921875
1761379808513199400,1.954199462890625,-0.9482421875,-0.4195404052734375,0.17327880859375
1761379808523282200,1.9642822265625,-0.96929931640625,-0.41583251953125,0.1722564697265625
1761379808533365200,1.974365234375,-0.9970703125,-0.412841796875,0.16748046875
1761379808543448600,1.984448486328125,-1.0253143310546875,-0.4055023193359375,0.162445068359375
1761379808553531400,1.994531494140625,-1.0525665283203125,-0.40045166015625,0.155487060546875
1761379808563614500,2.004614501953125,-1.06427001953125,-0.408203125,0.1705322265625
1761379808573697300,2.014697265625,-1.061859130859375,-0.4395599365234375,0.2122955322265625
1761379808583780400,2.0247802734375,-1.0941009521484375,-0.478271484375,0.2610015869140625
1761379808593863200,2.03486328125,-1.1366424560546875,-0.5042572021484375,0.289581298828125
1761379808603946500,2.044946533203125,-1.2018890380859375,-0.4943084716796875,0.2830963134765625
1761379808614029300,2.055029296875,-1.258758544921875,-0.4700927734375,0.24884033203125
1761379808624112400,2.0651123046875,-1.30767822265625,-0.4293670654296875,0.1963653564453125
1761379808634195200,2.0751953125,-1.3498687744140625,-0.3584442138671875,0.13726806640625
1761379808644278300,2.0852783203125,-1.368621826171875,-0.2686309814453125,0.09747314453125
1761379808654361300,2.095361328125,-1.340667724609375,-0.1899566650390625,0.0846099853515625
1761379808664444400,2.1054443359375,-1.2914581298828125,-0.1361236572265625,0.086212158203125
1761379808674527500,2.115527587890625,-1.2386474609375,-0.1139373779296875,0.1105804443359375
1761379808684610300,2.1256103515625,-1.171478271484375,-0.1298065185546875,0.1525115966796875
1761379808694693400,2.135693359375,-1.09967041015625,-0.1609649658203125,0.1811676025390625
1761379808704776200,2.145776123046875,-1.0377197265625,-0.18499755859375,0.1885986328125
1761379808714859300,2.155859375,-0.9765777587890625,-0.195709228515625,0.1816253662109375
1761379808724942300,2.1659423828125,-0.9253082275390625,-0.1983184814453125,0.1700592041015625
1761379808735025400,2.176025390625,-0.89361572265625,-0.1971282958984375,0.1605682373046875
1761379808745108500,2.1861083984375,-0.8788604736328125,-0.197265625,0.1483001708984375
1761379808755191300,2.19619140625,-0.8755950927734375,-0.1937255859375,0.1290435791015625
1761379808765274400,2.2062744140625,-0.88665771484375,-0.1866455078125,0.112030029296875
1761379808775357200,2.216357177734375,-0.9057159423828125,-0.17413330078125,0.08837890625
1761379808785440500,2.2264404296875,-0.9185028076171875,-0.15496826171875,0.062286376953125
1761379808795523300,2.2365234375,-0.9236602783203125,-0.1367034912109375,0.0424041748046875
1761379808805606400,2.2466064453125,-0.9286651611328125,-0.1272125244140625,0.0353240966796875
1761379808815689200,2.256689208984375,-0.9366302490234375,-0.1271209716796875,0.033416748046875
1761379808825772300,2.266772216796875,-0.9456024169921875,-0.1335906982421875,0.0264434814453125
1761379808835855400,2.27685546875,-0.9535980224609375,-0.13751220703125,0.0090484619140625
1761379808845938400,2.2869384765625,-0.9595184326171875,-0.140533447265625,-0.0111236572265625
1761379808856021500,2.297021484375,-0.9645233154296875,-0.1474761962890625,-0.025360107421875
1761379808866104300,2.307104248046875,-0.9615936279296875,-0.1502838134765625,-0.0302276611328125
1761379808876187400,2.3171875,-0.9479522705078125,-0.1478424072265625,-0.031463623046875
1761379808886270200,2.327270263671875,-0.931304931640625,-0.149078369140625,-0.0257415771484375
1761379808896353300,2.337353271484375,-0.9174652099609375,-0.1581878662109375,-0.0144195556640625
1761379808906436400,2.347436279296875,-0.90484619140625,-0.1653289794921875,-0.002960205078125
1761379808916519400,2.35751953125,-0.8987884521484375,-0.1721343994140625,0.008697509765625
1761379808926602200,2.367602294921875,-0.891998291015625,-0.180267333984375,0.0167388916015625
1761379808936685300,2.377685302734375,-0.8806915283203125,-0.1879119873046875,0.0201568603515625
1761379808946768400,2.387768310546875,-0.868865966796875,-0.1963043212890625,0.02337646484375
1761379808956851200,2.397851318359375,-0.8537445068359375,-0.210235595703125,0.0286407470703125
1761379808966934500,2.4079345703125,-0.8396759033203125,-0.22454833984375,0.03192138671875
1761379808977017300,2.418017333984375,-0.826202392578125,-0.2350006103515625,0.0310516357421875
1761379808987100400,2.428100341796875,-0.811614990234375,-0.2501678466796875,0.0304107666015625
1761379808997183200,2.438183349609375,-0.8048248291015625,-0.27252197265625,0.0326080322265625
1761379809007266300,2.448266357421875,-0.7964935302734375,-0.290802001953125,0.034576416015625
1761379809017349000,2.45834912109375,-0.793121337890625,-0.305999755859375,0.037384033203125
1761379809027432400,2.468432373046875,-0.802459716796875,-0.315948486328125,0.03765869140625
1761379809037515500,2.478515625,-0.8134765625,-0.322662353515625,0.042633056640625
1761379809047598300,2.488598388671875,-0.82879638671875,-0.3298492431640625,0.047515869140625
1761379809057681400,2.498681396484375,-0.84466552734375,-0.336639404296875,0.0513916015625
1761379809067764200,2.50876416015625,-0.8647613525390625,-0.3427276611328125,0.051177978515625
1761379809077847300,2.518847412109375,-0.8903350830078125,-0.34625244140625,0.0491485595703125
1761379809087930400,2.528930419921875,-0.908935546875,-0.3460235595703125,0.0460052490234375
1761379809098013400,2.539013427734375,-0.92315673828125,-0.3444061279296875,0.0440673828125
1761379809108096300,2.54909619140625,-0.9348602294921875,-0.343597412109375,0.0468292236328125
1761379809118179300,2.559179443359375,-0.940277099609375,-0.3435211181640625,0.056060791015625
1761379809128262400,2.569262451171875,-0.941650390625,-0.345428466796875,0.068267822265625
1761379809138345200,2.57934521484375,-0.9465484619140625,-0.3448944091796875,0.08074951171875
1761379809148428500,2.589428466796875,-0.9471588134765625,-0.3394317626953125,0.08746337890625
1761379809158511400,2.599511474609375,-0.939117431640625,-0.3311614990234375,0.087799072265625
1761379809168594400,2.609594482421875,-0.9322967529296875,-0.3279876708984375,0.0954742431640625
1761379809178677200,2.61967724609375,-0.9264373779296875,-0.335235595703125,0.1074066162109375
1761379809188760300,2.62976025390625,-0.924530029296875,-0.3426513671875,0.1127166748046875
1761379809198843100,2.639843017578125,-0.9196624755859375,-0.3422088623046875,0.1123504638671875
1761379809208926500,2.649926513671875,-0.9115142822265625,-0.3372039794921875,0.105316162109375
1761379809219009300,2.66000927734375,-0.9031982421875,-0.3298492431640625,0.094818115234375
1761379809229092400,2.67009228515625,-0.89996337890625,-0.3185577392578125,0.0859222412109375
1761379809239175400,2.680175537109375,-0.8974761962890625,-0.306488037109375,0.083831787109375
1761379809249258200,2.69025830078125,-0.8921356201171875,-0.294403076171875,0.080078125
1761379809259341300,2.70034130859375,-0.8945770263671875,-0.2839813232421875,0.0792236328125
1761379809269424400,2.71042431640625,-0.8970947265625,-0.2782745361328125,0.083038330078125
1761379809279507500,2.720507568359375,-0.890533447265625,-0.2915802001953125,0.1094970703125
1761379809289590300,2.73059033203125,-0.9029998779296875,-0.3207550048828125,0.1589813232421875
1761379809299673300,2.74067333984375,-0.9617919921875,-0.343109130859375,0.2060699462890625
1761379809309756200,2.750756103515625,-1.0352020263671875,-0.3560791015625,0.2222137451171875
1761379809319839200,2.760839111328125,-1.117889404296875,-0.3367767333984375,0.185302734375
1761379809329922600,2.770922607421875,-1.2075042724609375,-0.278594970703125,0.1061859130859375
1761379809340008200,2.78100830078125,-1.2825164794921875,-0.2177276611328125,0.0204315185546875
1761379809350091500,2.791091552734375,-1.3476715087890625,-0.1800384521484375,-0.047454833984375
1761379809360174300,2.80117431640625,-1.377349853515625,-0.1500244140625,-0.103118896484375
1761379809370257400,2.81125732421875,-1.388214111328125,-0.1182098388671875,-0.159210205078125
1761379809380340200,2.82134033203125,-1.366119384765625,-0.079254150390625,-0.19720458984375
1761379809390423300,2.83142333984375,-1.276153564453125,-0.06591796875,-0.21337890625
1761379809400506400,2.84150634765625,-1.1831207275390625,-0.0743255615234375,-0.1840972900390625
1761379809410589400,2.85158935546875,-1.093780517578125,-0.085845947265625,-0.1232147216796875
1761379809420672500,2.861672607421875,-0.9963226318359375,-0.1060333251953125,-0.08135986328125
1761379809430755300,2.87175537109375,-0.904571533203125,-0.1305084228515625,-0.0455322265625
1761379809440838400,2.88183837890625,-0.8407440185546875,-0.1513519287109375,-0.0101318359375
1761379809450921200,2.891921142578125,-0.8059539794921875,-0.1694793701171875,0.012939453125
1761379809461004300,2.90200439453125,-0.7930450439453125,-0.1766357421875,0.017303466796875
1761379809471087400,2.91208740234375,-0.797088623046875,-0.165191650390625,0.0086669921875
1761379809481170400,2.92217041015625,-0.8176116943359375,-0.1549835205078125,-0.0047454833984375
1761379809491253500,2.93225341796875,-0.842376708984375,-0.1491241455078125,-0.0191192626953125
1761379809501336300,2.94233642578125,-0.8627166748046875,-0.13427734375,-0.027679443359375
1761379809511419400,2.95241943359375,-0.8790283203125,-0.116729736328125,-0.0199432373046875
1761379809521502200,2.962502197265625,-0.8900299072265625,-0.108367919921875,0.0017242431640625
1761379809531585500,2.97258544921875,-0.8994293212890625,-0.111480712890625,0.0287322998046875
1761379809541668400,2.98266845703125,-0.9080352783203125,-0.117218017578125,0.056488037109375
1761379809551751400,2.99275146484375,-0.9223175048828125,-0.12542724609375,0.0787200927734375
1761379809561834200,3.002834228515625,-0.9427490234375,-0.1356353759765625,0.09259033203125
1761379809571917300,3.012917236328125,-0.965789794921875,-0.1498260498046875,0.0942535400390625
1761379809582000000,3.023000244140625,-0.9908599853515625,-0.16644287109375,0.0868072509765625
1761379809592083500,3.03308349609375,-1.011260986328125,-0.1801300048828125,0.0745697021484375
1761379809602166500,3.04316650390625,-1.0244293212890625,-0.1970062255859375,0.0635223388671875
1761379809612249300,3.053249267578125,-1.034027099609375,-0.2170257568359375,0.056793212890625
1761379809622332400,3.06333251953125,-1.0385284423828125,-0.2354278564453125,0.0508270263671875
1761379809632415200,3.073415283203125,-1.0423736572265625,-0.253509521484375,0.04449462890625
1761379809642498300,3.083498291015625,-1.043060302734375,-0.26751708984375,0.04351806640625
1761379809652581400,3.093581298828125,-1.0492095947265625,-0.2799835205078125,0.0452117919921875
1761379809662664400,3.10366455078125,-1.0528564453125,-0.2860565185546875,0.049896240234375
1761379809672747300,3.113747314453125,-1.0402069091796875,-0.28326416015625,0.05645751953125
1761379809682830300,3.123830322265625,-1.02838134765625,-0.28118896484375,0.064300537109375
1761379809692913400,3.133913330078125,-1.0204925537109375,-0.279541015625,0.072479248046875
1761379809702996200,3.143996337890625,-1.0171356201171875,-0.2725830078125,0.0752716064453125
1761379809713079600,3.15407958984375,-1.00115966796875,-0.2667236328125,0.0777587890625
1761379809723162400,3.164162353515625,-0.9798736572265625,-0.2668609619140625,0.08599853515625
1761379809733245400,3.174245361328125,-0.9480743408203125,-0.2758026123046875,0.1056976318359375
1761379809743328300,3.184328369140625,-0.9162139892578125,-0.2921905517578125,0.126495361328125
1761379809753411300,3.194411376953125,-0.892822265625,-0.30499267578125,0.140960693359375
1761379809763494100,3.204494140625,-0.873748779296875,-0.3170318603515625,0.14935302734375
1761379809773577500,3.214577392578125,-0.8610382080078125,-0.325836181640625,0.1512298583984375
1761379809783660300,3.224660400390625,-0.85479736328125,-0.3252716064453125,0.147064208984375
1761379809793743400,3.234743408203125,-0.849578857421875,-0.32025146484375,0.1479034423828125
1761379809803826400,3.244826416015625,-0.8455657958984375,-0.3159637451171875,0.155181884765625
1761379809813909200,3.2549091796875,-0.840484619140625,-0.3202362060546875,0.1603240966796875
1761379809823992300,3.264992431640625,-0.8316802978515625,-0.3178558349609375,0.1615447998046875
1761379809834075400,3.275075439453125,-0.8264312744140625,-0.3124542236328125,0.1638641357421875
1761379809844158500,3.285158447265625,-0.8290557861328125,-0.3112945556640625,0.16729736328125
1761379809854241300,3.2952412109375,-0.8331146240234375,-0.313385009765625,0.1746368408203125
1761379809864324400,3.305324462890625,-0.83856201171875,-0.3167572021484375,0.1806182861328125
1761379809874407200,3.3154072265625,-0.8437042236328125,-0.31915283203125,0.1850433349609375
1761379809884490200,3.325490234375,-0.851409912109375,-0.321685791015625,0.1821746826171875
1761379809894573600,3.335573486328125,-0.8633880615234375,-0.322784423828125,0.17724609375
1761379809904656400,3.345656494140625,-0.8816680908203125,-0.32177734375,0.1738128662109375
1761379809914739500,3.355739501953125,-0.897491455078125,-0.3210906982421875,0.168609619140625
1761379809924822300,3.365822265625,-0.9122467041015625,-0.3233642578125,0.160125732421875
1761379809934905300,3.3759052734375,-0.9261932373046875,-0.327545166015625,0.1522369384765625
1761379809944988200,3.38598828125,-0.9450225830078125,-0.330474853515625,0.1465606689453125
1761379809955071500,3.396071533203125,-0.9641571044921875,-0.336273193359375,0.1467742919921875
1761379809965154300,3.406154296875,-0.98199462890625,-0.3436431884765625,0.1486358642578125
1761379809975237400,3.4162373046875,-0.9836273193359375,-0.36297607421875,0.1634979248046875
1761379809985320400,3.426320556640625,-0.97015380859375,-0.4005584716796875,0.203338623046875
1761379809995403300,3.4364033203125,-1.000274658203125,-0.430206298828125,0.254180908203125
1761379810005486300,3.446486328125,-1.0443267822265625,-0.4375152587890625,0.2611236572265625
1761379810015569400,3.4565693359375,-1.1160888671875,-0.3992462158203125,0.210784912109375
1761379810025652500,3.466652587890625,-1.167449951171875,-0.341156005859375,0.143707275390625
1761379810035735300,3.4767353515625,-1.214111328125,-0.290679931640625,0.0789947509765625
1761379810045818400,3.486818359375,-1.241790771484375,-0.231719970703125,0.0339202880859375
1761379810055901200,3.496901123046875,-1.241790771484375,-0.1714935302734375,0.021636962890625
1761379810065984300,3.506984375,-1.2019195556640625,-0.1420440673828125,0.0441436767578125
1761379810076067300,3.5170673828125,-1.14007568359375,-0.1483001708984375,0.0954132080078125
1761379810086150400,3.527150390625,-1.0825347900390625,-0.18402099609375,0.1662445068359375
1761379810096233500,3.5372333984375,-1.0504150390625,-0.2371826171875,0.2398529052734375
1761379810106316300,3.54731640625,-1.042633056640625,-0.2847900390625,0.2840423583984375
1761379810116399400,3.5573994140625,-1.055328369140625,-0.3142242431640625,0.287506103515625
1761379810126482200,3.567482177734375,-1.0574951171875,-0.3288421630859375,0.2673187255859375
1761379810136565500,3.5775654296875,-1.0749053955078125,-0.3092193603515625,0.210357666015625
1761379810146648300,3.5876484375,-1.0447235107421875,-0.2620086669921875,0.1329345703125
1761379810156731400,3.5977314453125,-0.985107421875,-0.2014617919921875,0.0795135498046875
1761379810166814200,3.607814208984375,-0.926727294921875,-0.1561431884765625,0.087890625
1761379810176897300,3.617897216796875,-0.90057373046875,-0.1568145751953125,0.148223876953125
1761379810186980400,3.62798046875,-0.8797607421875,-0.177154541015625,0.221221923828125
1761379810197063400,3.6380634765625,-0.85687255859375,-0.18438720703125,0.262298583984375
1761379810207146500,3.648146484375,-0.8491058349609375,-0.1786956787109375,0.2677459716796875
1761379810217229300,3.658229248046875,-0.8572845458984375,-0.1584930419921875,0.2463531494140625
1761379810227312400,3.6683125,-0.87677001953125,-0.1306610107421875,0.2168121337890625
1761379810237395200,3.678395263671875,-0.9029541015625,-0.117523193359375,0.2001800537109375
1761379810247478300,3.688478271484375,-0.9293365478515625,-0.1164398193359375,0.188720703125
1761379810257561300,3.698561279296875,-0.9352874755859375,-0.1135406494140625,0.17120361328125
1761379810267644400,3.70864453125,-0.9211273193359375,-0.11175537109375,0.1507110595703125
1761379810277727500,3.7187275390625,-0.8927459716796875,-0.114410400390625,0.1403350830078125
1761379810287810300,3.728810302734375,-0.87933349609375,-0.1300811767578125,0.144683837890625
1761379810297893400,3.738893310546875,-0.8766937255859375,-0.1596221923828125,0.158843994140625
1761379810307976200,3.74897607421875,-0.8650970458984375,-0.1758880615234375,0.1607818603515625
1761379810318059500,3.7590595703125,-0.8327484130859375,-0.1744842529296875,0.148590087890625
1761379810328142300,3.769142333984375,-0.80865478515625,-0.182098388671875,0.15228271484375
1761379810338225400,3.779225341796875,-0.7996673583984375,-0.210601806640625,0.171112060546875
1761379810348309000,3.78930908203125,-0.795074462890625,-0.2383880615234375,0.1901397705078125
1761379810358392000,3.79939208984375,-0.7999267578125,-0.260498046875,0.2009735107421875
1761379810368475000,3.809474853515625,-0.8162994384765625,-0.2797088623046875,0.20050048828125
1761379810378558000,3.819557861328125,-0.8348236083984375,-0.2903594970703125,0.1918792724609375
1761379810388640800,3.829640869140625,-0.8537750244140625,-0.2946929931640625,0.17852783203125
1761379810398724000,3.83972412109375,-0.8772735595703125,-0.296112060546875,0.17120361328125
1761379810408807000,3.849806884765625,-0.9002227783203125,-0.2982330322265625,0.17095947265625
1761379810418890000,3.859889892578125,-0.9262237548828125,-0.294342041015625,0.166534423828125
1761379810428973000,3.86997314453125,-0.936187744140625,-0.2984771728515625,0.163726806640625
1761379810439056000,3.880055908203125,-0.957794189453125,-0.29791259765625,0.15521240234375
1761379810449139000,3.890138916015625,-0.969573974609375,-0.292572021484375,0.1453857421875
1761379810459222000,3.900221923828125,-0.957550048828125,-0.2926788330078125,0.1404266357421875
1761379810469305000,3.91030517578125,-0.951019287109375,-0.2970733642578125,0.1410675048828125
1761379810479388000,3.920387939453125,-0.9435272216796875,-0.3047332763671875,0.14862060546875
1761379810489471000,3.930470947265625,-0.9418792724609375,-0.31939697265625,0.1571502685546875
1761379810499553800,3.9405537109375,-0.945892333984375,-0.337432861328125,0.1585235595703125
1761379810509636900,3.950636962890625,-0.9410552978515625,-0.3469390869140625,0.15234375
1761379810519720200,3.96072021484375,-0.932159423828125,-0.3486480712890625,0.1450347900390625
1761379810529803000,3.970802978515625,-0.9188690185546875,-0.36285400390625,0.1449737548828125
1761379810539886000,3.980885986328125,-0.9167633056640625,-0.3794708251953125,0.15277099609375
1761379810549969000,3.990968994140625,-0.9132232666015625,-0.395965576171875,0.1595916748046875
1761379810560052000,4.001052001953125,-0.926727294921875,-0.409332275390625,0.1575775146484375
1761379810570134800,4.011134765625,-0.9351654052734375,-0.407562255859375,0.1514129638671875
1761379810580218000,4.021218017578125,-0.938751220703125,-0.3919677734375,0.145233154296875
1761379810590301000,4.031301025390625,-0.9547576904296875,-0.394073486328125,0.1436309814453125
1761379810600384000,4.041384033203125,-0.9787750244140625,-0.401153564453125,0.1465606689453125
1761379810610467000,4.051467041015625,-1.0086517333984375,-0.3990020751953125,0.14349365234375
1761379810620550000,4.0615498046875,-1.043243408203125,-0.3904571533203125,0.12982177734375
1761379810630633000,4.071633056640625,-1.0711669921875,-0.38043212890625,0.11395263671875
1761379810640716000,4.081716064453125,-1.0959625244140625,-0.3696746826171875,0.10125732421875
1761379810650799000,4.091799072265625,-1.1212615966796875,-0.3558502197265625,0.0868682861328125
1761379810660882000,4.1018818359375,-1.130828857421875,-0.3473052978515625,0.07781982421875
1761379810670965000,4.111965087890625,-1.112335205078125,-0.376495361328125,0.104339599609375
1761379810681047800,4.1220478515625,-1.1360931396484375,-0.396331787109375,0.145660400390625
1761379810691131000,4.132130859375,-1.158447265625,-0.380828857421875,0.1714935302734375
1761379810701214000,4.1422138671875,-1.171142578125,-0.349273681640625,0.1462860107421875
1761379810711297000,4.152297119140625,-1.177398681640625,-0.3082275390625,0.090179443359375
1761379810721380000,4.162380126953125,-1.1804351806640625,-0.27154541015625,0.0312347412109375
1761379810731463000,4.172462890625,-1.1840057373046875,-0.2307891845703125,-0.0099334716796875
1761379810741546000,4.1825458984375,-1.1615447998046875,-0.178802490234375,-0.0364837646484375
1761379810751628800,4.19262890625,-1.1323394775390625,-0.13946533203125,-0.044403076171875
1761379810761712000,4.202712158203125,-1.0939483642578125,-0.1368255615234375,-0.025726318359375
1761379810771795000,4.212794921875,-1.04388427734375,-0.1397552490234375,0.0010528564453125
1761379810781878000,4.2228779296875,-0.984710693359375,-0.1352996826171875,0.0244598388671875
1761379810791960800,4.2329609375,-0.9239044189453125,-0.122100830078125,0.04168701171875
1761379810802044000,4.2430439453125,-0.8899383544921875,-0.108062744140625,0.0487060546875
1761379810812127000,4.253126953125,-0.861846923828125,-0.117828369140625,0.044342041015625
1761379810822210000,4.2632099609375,-0.84771728515625,-0.1414947509765625,0.038665771484375
1761379810832293000,4.273293212890625,-0.8384552001953125,-0.1577606201171875,0.023223876953125
1761379810842376000,4.2833759765625,-0.8319854736328125,-0.1634674072265625,-0.001556396484375
1761379810852459000,4.293458984375,-0.8310546875,-0.17120361328125,-0.0303192138671875
1761379810862541800,4.303541748046875,-0.8349456787109375,-0.1801910400390625,-0.0630645751953125
1761379810872625000,4.313625,-0.8489532470703125,-0.1807098388671875,-0.08984375
1761379810882708000,4.3237080078125,-0.86883544921875,-0.17071533203125,-0.10272216796875
1761379810892791000,4.333791015625,-0.8936920166015625,-0.1587982177734375,-0.1043243408203125
1761379810902874000,4.3438740234375,-0.9139251708984375,-0.15850830078125,-0.0947113037109375
1761379810912957000,4.35395703125,-0.931365966796875,-0.167022705078125,-0.0706939697265625
1761379810923040000,4.3640400390625,-0.9423980712890625,-0.17413330078125,-0.03997802734375
1761379810933122800,4.374122802734375,-0.9449920654296875,-0.171142578125,-0.0140228271484375
1761379810943206100,4.3842060546875,-0.9373779296875,-0.1654510498046875,0.0145111083984375
1761379810953289000,4.3942890625,-0.925537109375,-0.17333984375,0.0514678955078125
1761379810963372000,4.4043720703125,-0.9081573486328125,-0.2012481689453125,0.0874176025390625
1761379810973454800,4.414454833984375,-0.8886871337890625,-0.2328948974609375,0.1124114990234375
1761379810983538000,4.424537841796875,-0.880279541015625,-0.25640869140625,0.1248779296875
1761379810993621000,4.43462109375,-0.86492919921875,-0.2725830078125,0.1262359619140625
1761379811003704000,4.4447041015625,-0.8461151123046875,-0.284393310546875,0.1183624267578125
1761379811013787100,4.454787109375,-0.8369903564453125,-0.308074951171875,0.1097869873046875
1761379811023870000,4.464869873046875,-0.82244873046875,-0.316558837890625,0.10455322265625
1761379811033953000,4.474953125,-0.8018341064453125,-0.324462890625,0.096588134765625
1761379811044035800,4.485035888671875,-0.79766845703125,-0.34075927734375,0.0893402099609375
1761379811054119000,4.495118896484375,-0.802886962890625,-0.34259033203125,0.0864715576171875
1761379811064202000,4.505201904296875,-0.8148956298828125,-0.33978271484375,0.08465576171875
1761379811074285000,4.51528515625,-0.832000732421875,-0.338623046875,0.0831756591796875
1761379811084368000,4.525367919921875,-0.85009765625,-0.3325347900390625,0.0865325927734375
1761379811094451000,4.535450927734375,-0.8702850341796875,-0.3234710693359375,0.095184326171875
1761379811104534000,4.545533935546875,-0.8832244873046875,-0.31781005859375,0.104583740234375
1761379811114616800,4.555616943359375,-0.8988494873046875,-0.31341552734375,0.11236572265625
1761379811124700200,4.5657001953125,-0.9150543212890625,-0.3122711181640625,0.1188812255859375
1761379811134783000,4.575782958984375,-0.92633056640625,-0.313629150390625,0.1154937744140625
1761379811144866000,4.585865966796875,-0.9362030029296875,-0.3096160888671875,0.10443115234375
1761379811154948900,4.595948974609375,-0.9390411376953125,-0.306060791015625,0.0933990478515625
1761379811165032000,4.606031982421875,-0.9365692138671875,-0.3066253662109375,0.07977294921875
1761379811175114800,4.61611474609375,-0.9286956787109375,-0.3117523193359375,0.0743865966796875
1761379811185198000,4.626197998046875,-0.9212646484375,-0.3221435546875,0.077392578125
1761379811195281200,4.63628125,-0.9166107177734375,-0.3338470458984375,0.084716796875
1761379811205364000,4.646364013671875,-0.909759521484375,-0.3466033935546875,0.0909423828125
1761379811215447000,4.656447021484375,-0.9070892333984375,-0.357513427734375,0.093048095703125
1761379811225529900,4.66652978515625,-0.9136962890625,-0.364532470703125,0.0943756103515625
1761379811235613000,4.676613037109375,-0.920562744140625,-0.370391845703125,0.100006103515625
1761379811245696000,4.686696044921875,-0.9297027587890625,-0.377410888671875,0.1077423095703125
1761379811255779000,4.696779052734375,-0.9442596435546875,-0.3837432861328125,0.1182403564453125
1761379811265862000,4.70686181640625,-0.959686279296875,-0.38922119140625,0.131744384765625
1761379811275945000,4.716945068359375,-0.9760894775390625,-0.391632080078125,0.1423797607421875
1761379811286028000,4.727028076171875,-0.990234375,-0.3922119140625,0.1495819091796875
1761379811296110800,4.73711083984375,-1.008087158203125,-0.393310546875,0.154632568359375
1761379811306194200,4.747194091796875,-1.0226593017578125,-0.3936920166015625,0.1614532470703125
1761379811316277000,4.757277099609375,-1.0280914306640625,-0.3955230712890625,0.1704864501953125
1761379811326360000,4.767360107421875,-1.0080108642578125,-0.424041748046875,0.2054595947265625
1761379811336443000,4.77744287109375,-1.013397216796875,-0.4608612060546875,0.26214599609375
1761379811346521600,4.787521484375,-1.04205322265625,-0.4618072509765625,0.3007049560546875
1761379811356605000,4.79760498046875,-1.0730438232421875,-0.44110107421875,0.27850341796875
1761379811366687700,4.807687744140625,-1.12530517578125,-0.388671875,0.21368408203125
1761379811376770800,4.817770751953125,-1.166534423828125,-0.3417510986328125,0.145111083984375
1761379811386853600,4.827853515625,-1.219451904296875,-0.3145751953125,0.0859832763671875
1761379811396936700,4.837936767578125,-1.2511444091796875,-0.2503204345703125,0.039825439453125
1761379811407019500,4.84801953125,-1.2486724853515625,-0.1731414794921875,0.0088958740234375
1761379811417102800,4.858102783203125,-1.212982177734375,-0.1399993896484375,0.00274658203125
1761379811427185700,4.868185546875,-1.1428680419921875,-0.1218414306640625,0.020965576171875
1761379811437268700,4.878268798828125,-1.0998687744140625,-0.0904388427734375,0.036102294921875
1761379811447351800,4.888351806640625,-1.056243896484375,-0.0796661376953125,0.0748291015625
1761379811457434600,4.8984345703125,-1.0104217529296875,-0.1015167236328125,0.1190032958984375
1761379811467517700,4.908517578125,-0.9733123779296875,-0.1411895751953125,0.1490325927734375
1761379811477600800,4.918600830078125,-0.9296112060546875,-0.15948486328125,0.1583709716796875
1761379811487683800,4.928683837890625,-0.898406982421875,-0.147308349609375,0.162109375
1761379811497766700,4.9387666015625,-0.88043212890625,-0.139892578125,0.17230224609375
1761379811507849700,4.948849609375,-0.8818817138671875,-0.1483917236328125,0.1866912841796875
1761379811517932500,4.9589326171875,-0.899139404296875,-0.1604461669921875,0.19415283203125
1761379811528015600,4.969015625,-0.9187164306640625,-0.167266845703125,0.182342529296875
1761379811538098700,4.9790986328125,-0.935028076171875,-0.156768798828125,0.1380462646484375
1761379811548181800,4.989181640625,-0.9517059326171875,-0.137603759765625,0.0929412841796875
1761379811558264800,4.999264892578125,-0.9530029296875,-0.12939453125,0.0641326904296875
1761379811568347600,5.00934765625,-0.9495391845703125,-0.1239471435546875,0.0519561767578125
1761379811578430700,5.0194306640625,-0.936859130859375,-0.1257476806640625,0.06439208984375
1761379811588513500,5.029513427734375,-0.9138336181640625,-0.1403350830078125,0.095855712890625
1761379811598596900,5.039596923828125,-0.8943328857421875,-0.1590728759765625,0.1271209716796875
1761379811608679700,5.0496796875,-0.8780059814453125,-0.174835205078125,0.144195556640625
1761379811618762800,5.0597626953125,-0.86578369140625,-0.1871490478515625,0.150390625
1761379811628845600,5.069845458984375,-0.8615264892578125,-0.1953887939453125,0.1509552001953125
1761379811638928600,5.0799287109375,-0.8651275634765625,-0.2017822265625,0.1458892822265625
1761379811649011700,5.09001171875,-0.86956787109375,-0.207763671875,0.137481689453125
1761379811659094800,5.1000947265625,-0.8579559326171875,-0.2110595703125,0.13592529296875
1761379811669177900,5.110177734375,-0.8614501953125,-0.222320556640625,0.138580322265625
1761379811679260700,5.1202607421875,-0.8720550537109375,-0.2460479736328125,0.1443939208984375
1761379811689343700,5.13034375,-0.865936279296875,-0.2571258544921875,0.1537017822265625
1761379811699426600,5.140426513671875,-0.86956787109375,-0.257476806640625,0.157958984375
1761379811709509600,5.150509521484375,-0.88348388671875,-0.2646636962890625,0.161590576171875
1761379811719592700,5.1605927734375,-0.8933563232421875,-0.2734375,0.15606689453125
1761379811729675800,5.17067578125,-0.8983306884765625,-0.276763916015625,0.142974853515625
1761379811739758800,5.1807587890625,-0.9035491943359375,-0.27752685546875,0.131683349609375
1761379811749841700,5.190841552734375,-0.9085693359375,-0.2850799560546875,0.12725830078125
1761379811759924700,5.2009248046875,-0.9139556884765625,-0.292755126953125,0.1256561279296875
1761379811770007600,5.211007568359375,-0.9175262451171875,-0.293426513671875,0.1218414306640625
1761379811780091000,5.2210908203125,-0.9156341552734375,-0.2968902587890625,0.119842529296875
1761379811790173700,5.231173583984375,-0.9095916748046875,-0.3009033203125,0.117950439453125
1761379811800256800,5.2412568359375,-0.9132537841796875,-0.3047027587890625,0.11541748046875
1761379811810339600,5.251339599609375,-0.90960693359375,-0.311981201171875,0.113677978515625
1761379811820422700,5.261422607421875,-0.8952789306640625,-0.3197174072265625,0.11383056640625
1761379811830505700,5.271505615234375,-0.884521484375,-0.3263397216796875,0.1120758056640625
1761379811840588800,5.2815888671875,-0.87066650390625,-0.3365325927734375,0.1163330078125
1761379811850671900,5.291671875,-0.860992431640625,-0.3476715087890625,0.130767822265625
1761379811860754700,5.301754638671875,-0.8571624755859375,-0.350433349609375,0.1381072998046875
1761379811870837800,5.311837646484375,-0.8533935546875,-0.352020263671875,0.1464385986328125
1761379811880920600,5.321920654296875,-0.85589599609375,-0.35162353515625,0.1492156982421875
1761379811891003600,5.332003662109375,-0.856842041015625,-0.3443450927734375,0.1449127197265625
1761379811901086700,5.342086669921875,-0.8586883544921875,-0.3394622802734375,0.1432952880859375
1761379811911169800,5.352169677734375,-0.857818603515625,-0.34332275390625,0.1435546875
1761379811921252600,5.362252685546875,-0.8625335693359375,-0.3422393798828125,0.14508056640625
1761379811931335700,5.372335693359375,-0.8760833740234375,-0.341033935546875,0.139617919921875
1761379811941418800,5.382418701171875,-0.89471435546875,-0.3314361572265625,0.12884521484375
1761379811951501600,5.39250146484375,-0.926666259765625,-0.320220947265625,0.1146697998046875
1761379811961585000,5.4025849609375,-0.9629364013671875,-0.3105010986328125,0.1001739501953125
1761379811971667700,5.412667724609375,-0.9964447021484375,-0.296356201171875,0.075592041015625
1761379811981750800,5.422750732421875,-1.0234832763671875,-0.279876708984375,0.0518646240234375
1761379811991833600,5.43283349609375,-1.027862548828125,-0.297393798828125,0.0646209716796875
1761379812001916700,5.442916748046875,-1.0392303466796875,-0.33380126953125,0.1103973388671875
1761379812011999500,5.45299951171875,-1.11688232421875,-0.30938720703125,0.1387176513671875
1761379812022082800,5.463082763671875,-1.1860809326171875,-0.27874755859375,0.1426849365234375
1761379812032166000,5.473165771484375,-1.2430267333984375,-0.2595367431640625,0.1141204833984375
1761379812042248700,5.483248779296875,-1.286163330078125,-0.2530975341796875,0.072418212890625
1761379812052331800,5.493331787109375,-1.332550048828125,-0.2174530029296875,0.001617431640625
1761379812062414600,5.50341455078125,-1.36663818359375,-0.1436614990234375,-0.08026123046875
1761379812072497700,5.51349755859375,-1.3670654296875,-0.084320068359375,-0.1426544189453125
1761379812082580700,5.523580810546875,-1.3544921875,-0.03741455078125,-0.166046142578125
1761379812092663800,5.533663818359375,-1.3233795166015625,-0.007537841796875,-0.1510162353515625
1761379812102746600,5.54374658203125,-1.2825927734375,-0.005889892578125,-0.11834716796875
1761379812112829700,5.55382958984375,-1.235504150390625,-0.0131378173828125,-0.0861053466796875
1761379812122912800,5.563912841796875,-1.1887969970703125,-0.0223541259765625,-0.0507354736328125
1761379812132995600,5.57399560546875,-1.156707763671875,-0.05059814453125,-0.0325775146484375
1761379812143079000,5.584078857421875,-1.123931884765625,-0.0907745361328125,-0.038818359375
1761379812153161700,5.59416162109375,-1.0710601806640625,-0.113311767578125,-0.0647430419921875
1761379812163244800,5.604244873046875,-1.030517578125,-0.1278076171875,-0.097991943359375
1761379812173327600,5.61432763671875,-1.0181427001953125,-0.1573486328125,-0.1215972900390625
1761379812183410700,5.62441064453125,-1.0086212158203125,-0.179779052734375,-0.13470458984375
1761379812193493500,5.634493408203125,-0.9758148193359375,-0.170135498046875,-0.143463134765625
1761379812203576800,5.644576904296875,-0.9498138427734375,-0.14544677734375,-0.1521453857421875
1761379812213659600,5.65465966796875,-0.9153594970703125,-0.1309967041015625,-0.144561767578125
1761379812223742700,5.66474267578125,-0.8746337890625,-0.1226043701171875,-0.130645751953125
1761379812233825800,5.67482568359375,-0.8506927490234375,-0.1167755126953125,-0.1169281005859375
1761379812243908600,5.68490869140625,-0.8455047607421875,-0.1196746826171875,-0.0973358154296875
1761379812253991700,5.69499169921875,-0.855682373046875,-0.1229095458984375,-0.0873870849609375
1761379812264074800,5.70507470703125,-0.8720245361328125,-0.1143646240234375,-0.0989990234375
1761379812274157800,5.71515771484375,-0.89581298828125,-0.1036376953125,-0.1092987060546875
1761379812284240600,5.72524072265625,-0.9277191162109375,-0.0964508056640625,-0.1172027587890625
1761379812294323700,5.73532373046875,-0.9656524658203125,-0.0886993408203125,-0.1237335205078125
1761379812304406500,5.745406494140625,-1.0020599365234375,-0.0698089599609375,-0.1311187744140625
1761379812314489600,5.755489501953125,-1.024658203125,-0.043487548828125,-0.1353302001953125
1761379812324573000,5.765572998046875,-1.03521728515625,-0.0246429443359375,-0.1313018798828125
1761379812334655700,5.77565576171875,-1.0413360595703125,-0.0164337158203125,-0.1201019287109375
1761379812344739000,5.785739013671875,-1.03802490234375,-0.000213623046875,-0.1070404052734375
1761379812354822100,5.795822265625,-1.0659332275390625,-0.001861572265625,-0.0988616943359375
1761379812364905200,5.8059052734375,-1.087249755859375,-0.0237579345703125,-0.0849151611328125
1761379812374988300,5.81598828125,-1.0917510986328125,-0.0226898193359375,-0.075836181640625
1761379812385071400,5.8260712890625,-1.0902099609375,-0.020294189453125,-0.061737060546875
1761379812395154200,5.836154296875,-1.087249755859375,-0.0380096435546875,-0.03363037109375
1761379812405237200,5.8462373046875,-1.080352783203125,-0.06451416015625,-0.0135345458984375
1761379812415320000,5.856320068359375,-1.07855224609375,-0.084991455078125,-0.0052947998046875
1761379812425403100,5.866403076171875,-1.0784149169921875,-0.1029205322265625,-0.0128631591796875
1761379812435486200,5.876486328125,-1.061798095703125,-0.1080780029296875,-0.020721435546875
1761379812445569300,5.8865693359375,-1.062164306640625,-0.1165008544921875,-0.0142364501953125
1761379812455652400,5.89665234375,-1.063873291015625,-0.133331298828125,-0.0001983642578125
1761379812465735200,5.906735107421875,-1.053497314453125,-0.1474456787109375,0.01171875
1761379812475818200,5.916818359375,-1.0338134765625,-0.15411376953125,0.020172119140625
1761379812485901000,5.926901123046875,-1.022247314453125,-0.16094970703125,0.0351104736328125
1761379812495984400,5.936984375,-1.0115509033203125,-0.166595458984375,0.05194091796875
1761379812506067200,5.947067138671875,-0.9969940185546875,-0.167755126953125,0.0648651123046875
1761379812516150300,5.957150390625,-0.9795989990234375,-0.168548583984375,0.0748138427734375
1761379812526233000,5.967233154296875,-0.96795654296875,-0.1715087890625,0.0840606689453125
1761379812536316200,5.977316162109375,-0.96075439453125,-0.1741485595703125,0.090789794921875
1761379812546399200,5.987399169921875,-0.9635162353515625,-0.1795501708984375,0.1009063720703125
1761379812556482300,5.997482421875,-0.964935302734375,-0.1791839599609375,0.1114654541015625
1761379812566565400,6.0075654296875,-0.9645538330078125,-0.1717987060546875,0.1078033447265625
1761379812576648200,6.017648193359375,-0.9691619873046875,-0.1800689697265625,0.097076416015625
1761379812586731300,6.027731201171875,-0.946746826171875,-0.189849853515625,0.0992279052734375
1761379812596814000,6.03781396484375,-0.9454345703125,-0.2045135498046875,0.10797119140625
1761379812606897200,6.047897216796875,-0.9517974853515625,-0.2236328125,0.11669921875
1761379812616980200,6.057980224609375,-0.9384765625,-0.227783203125,0.121429443359375
1761379812627063300,6.068063232421875,-0.9368133544921875,-0.2316131591796875,0.1275634765625
1761379812637146000,6.07814599609375,-0.94598388671875,-0.2420806884765625,0.1341552734375
1761379812647229200,6.088229248046875,-0.94256591796875,-0.25347900390625,0.1343231201171875
1761379812657312300,6.098312255859375,-0.938873291015625,-0.2615203857421875,0.12335205078125
1761379812667395000,6.10839501953125,-0.962310791015625,-0.2620086669921875,0.1090087890625
1761379812677478400,6.118478515625,-0.96923828125,-0.26092529296875,0.092681884765625
1761379812687561200,6.128561279296875,-0.9249114990234375,-0.2792205810546875,0.092010498046875
1761379812697644300,6.138644287109375,-0.8885955810546875,-0.341552734375,0.137481689453125
1761379812707727000,6.14872705078125,-0.8871917724609375,-0.3769989013671875,0.20758056640625
1761379812717810200,6.15881005859375,-0.9312744140625,-0.364501953125,0.25335693359375
1761379812727893000,6.16889306640625,-1.0319366455078125,-0.350433349609375,0.23052978515625
1761379812737976300,6.178976318359375,-1.1112823486328125,-0.3131866455078125,0.1559295654296875
1761379812748059400,6.189059326171875,-1.169097900390625,-0.261566162109375,0.0739288330078125
1761379812758142200,6.19914208984375,-1.1554718017578125,-0.2119903564453125,0.0163421630859375
1761379812768225300,6.209225341796875,-1.1181640625,-0.1669769287109375,-0.0203857421875
1761379812778308000,6.21930810546875,-1.05645751953125,-0.1837158203125,-0.0231475830078125
1761379812788391200,6.22939111328125,-0.9909210205078125,-0.191802978515625,0.0217742919921875
1761379812798474200,6.23947412109375,-0.9932861328125,-0.2205963134765625,0.08404541015625
1761379812808557300,6.249557373046875,-0.9401397705078125,-0.251800537109375,0.1537628173828125
1761379812818640100,6.25964013671875,-0.9051666259765625,-0.2516021728515625,0.190582275390625
1761379812828723200,6.26972314453125,-0.9312744140625,-0.2618408203125,0.196746826171875
1761379812838806300,6.27980615234375,-0.9283294677734375,-0.2619781494140625,0.177581787109375
1761379812848889000,6.28988916015625,-0.9183349609375,-0.24493408203125,0.1399993896484375
1761379812858972400,6.299972412109375,-0.8992919921875,-0.23974609375,0.1222991943359375
1761379812869055200,6.31005517578125,-0.874725341796875,-0.2418212890625,0.133148193359375
1761379812879138300,6.32013818359375,-0.8608856201171875,-0.2603912353515625,0.1508331298828125
1761379812889221000,6.33022119140625,-0.8548736572265625,-0.282073974609375,0.1779937744140625
1761379812899304200,6.34030419921875,-0.85919189453125,-0.2769622802734375,0.1981658935546875
1761379812909387000,6.350386962890625,-0.8777923583984375,-0.2585906982421875,0.2075653076171875
1761379812919470300,6.36047021484375,-0.902099609375,-0.2380523681640625,0.2055816650390625
1761379812929553200,6.37055322265625,-0.9160919189453125,-0.21405029296875,0.2082672119140625
1761379812939636200,6.38063623046875,-0.9385528564453125,-0.1886138916015625,0.21453857421875
1761379812949719300,6.39071923828125,-0.9662628173828125,-0.163299560546875,0.2163238525390625
1761379812959802000,6.400802001953125,-0.98236083984375,-0.140106201171875,0.214385986328125
1761379812969885200,6.41088525390625,-0.97052001953125,-0.1315765380859375,0.2142181396484375
1761379812979968300,6.42096826171875,-0.97613525390625,-0.12982177734375,0.220672607421875
1761379812990051300,6.43105126953125,-0.96044921875,-0.1352081298828125,0.2389373779296875
1761379813000134100,6.441134033203125,-0.9329681396484375,-0.13763427734375,0.249114990234375
1761379813010217200,6.45121728515625,-0.920013427734375,-0.14935302734375,0.2548065185546875
1761379813020300000,6.461300048828125,-0.911895751953125,-0.1668853759765625,0.262786865234375
1761379813030383000,6.471383056640625,-0.901214599609375,-0.1789093017578125,0.26385498046875
1761379813040466400,6.481466552734375,-0.9015655517578125,-0.1881103515625,0.263763427734375
1761379813050549200,6.49154931640625,-0.9181976318359375,-0.1966400146484375,0.2584991455078125
1761379813060632300,6.50163232421875,-0.932952880859375,-0.2030181884765625,0.248992919921875
1761379813070715100,6.511715087890625,-0.9328155517578125,-0.2057952880859375,0.233673095703125
1761379813080798200,6.521798095703125,-0.9219512939453125,-0.2116241455078125,0.22216796875
1761379813090881000,6.531881103515625,-0.9012908935546875,-0.2220611572265625,0.219024658203125
1761379813100964400,6.54196435546875,-0.876708984375,-0.23480224609375,0.2214508056640625
1761379813111047200,6.552047119140625,-0.8636474609375,-0.2513885498046875,0.2306976318359375
1761379813121130200,6.562130126953125,-0.8683929443359375,-0.24932861328125,0.2377471923828125
1761379813131213300,6.57221337890625,-0.8931884765625,-0.236541748046875,0.2435302734375
1761379813141296000,6.582296142578125,-0.910858154296875,-0.2340545654296875,0.244781494140625
1761379813151379200,6.592379150390625,-0.9226226806640625,-0.224578857421875,0.24200439453125
1761379813161462300,6.602462158203125,-0.935699462890625,-0.219268798828125,0.2453460693359375
1761379813171545300,6.61254541015625,-0.9193572998046875,-0.221099853515625,0.250640869140625
1761379813181628200,6.622628173828125,-0.8996124267578125,-0.2199554443359375,0.257965087890625
1761379813191711200,6.632711181640625,-0.8907623291015625,-0.2299346923828125,0.2706146240234375
1761379813201794000,6.6427939453125,-0.890472412109375,-0.2503204345703125,0.2801055908203125
1761379813211877000,6.652877197265625,-0.8841094970703125,-0.2633209228515625,0.2977447509765625
1761379813221960200,6.662960205078125,-0.8898468017578125,-0.277862548828125,0.3045196533203125
1761379813232043300,6.673043212890625,-0.89300537109375,-0.30059814453125,0.300323486328125
1761379813242126300,6.683126220703125,-0.88592529296875,-0.3130035400390625,0.287933349609375
1761379813252209200,6.693209228515625,-0.88055419921875,-0.3250885009765625,0.2705230712890625
1761379813262292200,6.703292236328125,-0.888916015625,-0.33544921875,0.252166748046875
1761379813272375000,6.713375,-0.9081878662109375,-0.339752197265625,0.238922119140625
1761379813282458400,6.723458251953125,-0.9183807373046875,-0.33953857421875,0.2283477783203125
1761379813292541200,6.733541259765625,-0.9162445068359375,-0.3347015380859375,0.2299346923828125
1761379813302624300,6.743624267578125,-0.919189453125,-0.337921142578125,0.24810791015625
1761379813312707000,6.75370703125,-0.915313720703125,-0.3504180908203125,0.2649993896484375
1761379813322790100,6.7637900390625,-0.9061737060546875,-0.3601531982421875,0.2711944580078125
1761379813332873200,6.773873291015625,-0.9224090576171875,-0.375823974609375,0.280364990234375
1761379813342956300,6.783956298828125,-0.942108154296875,-0.3902587890625,0.2776947021484375
1761379813353043200,6.794043212890625,-0.9396209716796875,-0.3873291015625,0.2557830810546875
1761379813363126000,6.8041259765625,-0.9537811279296875,-0.393585205078125,0.247650146484375
1761379813373209000,6.814208984375,-0.9819488525390625,-0.3973388671875,0.2398834228515625
1761379813383292200,6.824292236328125,-0.9848480224609375,-0.3833160400390625,0.2166900634765625
1761379813393375200,6.834375244140625,-0.9744720458984375,-0.3667755126953125,0.1918182373046875
1761379813403458000,6.8444580078125,-0.9749603271484375,-0.3528289794921875,0.189697265625
1761379813413541000,6.854541015625,-0.94091796875,-0.3229827880859375,0.20233154296875
1761379813423624000,6.8646240234375,-0.9882659912109375,-0.3261260986328125,0.2817230224609375
1761379813433707000,6.87470703125,-1.09918212890625,-0.4321441650390625,0.3958587646484375
1761379813443790000,6.8847900390625,-1.0366058349609375,-0.4479522705078125,0.3819122314453125
1761379813453873200,6.894873046875,-1.0200347900390625,-0.392974853515625,0.3131256103515625
1761379813463956200,6.904956298828125,-1.0204315185546875,-0.366363525390625,0.235260009765625
1761379813474039000,6.9150390625,-1.05078125,-0.327423095703125,0.18023681640625
1761379813484122000,6.9251220703125,-1.0654296875,-0.2837066650390625,0.14483642578125
1761379813494205000,6.935204833984375,-1.054351806640625,-0.2453765869140625,0.11358642578125
1761379813504288300,6.945288330078125,-1.0137481689453125,-0.20562744140625,0.1009674072265625
