time,seconds_elapsed,z,y,x
1761380404316194300,0.0751943359375,-0.000041332095861434937,-0.01946908049285412,-0.00985600147396326
1761380404326276400,0.0852763671875,-0.0017966218292713165,0.009788140654563904,0.006728568114340305
1761380404336358400,0.0953583984375,-0.0017041312530636787,0.014169474132359028,0.006949659436941147
1761380404346441200,0.105441162109375,0.002092204988002777,-0.014524487778544426,-0.008108118548989296
1761380404356523300,0.115523193359375,0.002132517285645008,-0.006274239160120487,-0.005043680779635906
1761380404366605300,0.125605224609375,0.00033514946699142456,0.014545287936925888,0.007913131266832352
1761380404376688400,0.1356884765625,-0.0005328180268406868,-0.00025488343089818954,-0.0002611735835671425
1761380404386770400,0.1457705078125,-0.00042948778718709946,-0.015074841678142548,-0.006569136865437031
1761380404396852200,0.155852294921875,-0.0027424655854701996,0.00478868093341589,0.0020290056709200144
1761380404406935600,0.165935546875,0.0008136536926031113,0.0064209322445094585,0.003723841393366456
1761380404417017300,0.176017333984375,-0.000019247643649578094,-0.006559913046658039,-0.006575108505785465
1761380404427099400,0.186099365234375,0.0020596161484718323,-0.004181976430118084,-0.003230178263038397
1761380404437182500,0.196182373046875,0.00010771583765745163,0.00744157237932086,0.006480882875621319
1761380404447264500,0.206264404296875,0.0008302312344312668,-0.003182309679687023,0.0012272647581994534
1761380404457346600,0.2163466796875,-0.00014742184430360794,-0.005515590310096741,-0.003087705932557583
1761380404467429400,0.226429443359375,0.0013269037008285522,0.001502638217061758,0.002636758843436837
1761380404477511400,0.236511474609375,0.00010575447231531143,0.005480008199810982,0.0031725745648145676
1761380404487593500,0.246593505859375,-0.0002449844032526016,-0.005545479245483875,-0.0016650573816150427
1761380404497676300,0.25667626953125,0.000840112566947937,-0.0008487077429890633,-0.003705161390826106
1761380404507758300,0.26675830078125,0.0006518270820379257,0.006367127411067486,0.0035439631901681423
1761380404517840400,0.27684033203125,-0.0002956623211503029,-0.0011696787551045418,-0.00044945895206183195
1761380404527923500,0.28692333984375,0.0022460585460066795,-0.0039303116500377655,-0.0002553146332502365
1761380404538005200,0.297005126953125,0.0009950976818799973,0.00304205808788538,0.002313516801223159
1761380404548087300,0.30708740234375,0.0007415646687150002,0.00062151113525033,0.00464404933154583
1761380404558170400,0.31717041015625,-0.0003826776519417763,-0.0031424881890416145,-0.0017200411530211568
1761380404568252400,0.32725244140625,-0.0020199883729219437,-0.0025861533358693123,-0.0001706141047179699
1761380404578334200,0.337334228515625,0.001924886368215084,0.001596677117049694,0.002518843160942197
1761380404588417300,0.347417236328125,0.0003163367509841919,-0.0023248279467225075,-0.0016732385847717524
1761380404598499300,0.357499267578125,0.0013474104925990105,-0.0005704779177904129,-0.0018470050999894738
1761380404608581400,0.367581298828125,0.002710948698222637,0.0007563089020550251,-0.00017800205387175083
1761380404618664200,0.377664306640625,0.001852705143392086,0.0023806151002645493,0.0017189502250403166
1761380404628746200,0.387746337890625,0.001533658243715763,-0.004329485818743706,-0.002214804757386446
1761380404638828300,0.397828369140625,-0.00020272936671972275,-0.0013406537473201752,-0.00355630274862051
1761380404648911400,0.407911376953125,0.001702495850622654,0.002384842373430729,-0.00210434733889997
1761380404658993400,0.417993408203125,-0.0030318740755319595,0.002555201295763254,-0.0018556811846792698
1761380404669075200,0.4280751953125,0.001947704702615738,0.002307527232915163,-0.0005145133472979069
1761380404679158500,0.438158447265625,-0.0006966181099414825,0.0026076301001012325,0.0019451184198260307
1761380404689240600,0.448240478515625,0.0012698601931333542,-0.0001569977030158043,0.0018114279955625534
1761380404699322400,0.458322265625,0.00038747210055589676,-0.0023475224152207375,-0.0009054605616256595
1761380404709405400,0.468405517578125,0.00020744279026985168,0.0006274948827922344,-0.000550194876268506
1761380404719487500,0.478487548828125,-0.00004653073847293854,0.0000330386683344841,0.0017003084067255259
1761380404729569500,0.488569580078125,-0.002739252522587776,0.000013863667845726013,0.0006089447997510433
1761380404739651300,0.4986513671875,-0.0009444188326597214,-0.0013258866965770721,0.00018477719277143478
1761380404749734400,0.508734375,0.00010273605585098267,0.0015002596192061901,-0.000989943160675466
1761380404759816400,0.51881640625,-0.0007926570251584053,0.0010432112030684948,0.00045534386299550533
1761380404769898500,0.5288984375,-0.0013452628627419472,-0.00003430340439081192,-0.0007284312741830945
1761380404779981300,0.538981201171875,-0.0015479596331715584,-0.0016171960160136223,0.0013212827034294605
1761380404790063400,0.5490634765625,0.001079781912267208,0.000017719343304634094,0.0026464718393981457
1761380404800145400,0.5591455078125,-0.002194034866988659,-0.0022387513890862465,-0.0012350940378382802
1761380404810228200,0.569228271484375,-0.0009926827624440193,-0.0005060993134975433,-0.0005309542175382376
1761380404820310300,0.579310302734375,-0.001254519447684288,-0.001976586878299713,0.0019563627429306507
1761380404830392300,0.589392333984375,0.0021300921216607094,-0.0008828267455101013,-0.0006623235531151295
1761380404840475400,0.599475341796875,0.0005600284785032272,-0.0017529195174574852,0.0018399187829345465
1761380404850557400,0.609557373046875,0.000716622918844223,0.0025819074362516403,-0.0024791955947875977
1761380404860639200,0.61963916015625,0.0022399351000785828,-0.0036103129386901855,-0.000020223204046487808
1761380404870722300,0.629722412109375,-0.0017337678000330925,0.0003106584772467613,0.0005038867238909006
1761380404880804400,0.639804443359375,-0.00010209903120994568,-0.000859883613884449,-0.00016943365335464478
1761380404890886400,0.649886474609375,-0.0007676230743527412,-0.00004788581281900406,0.0007861084304749966
1761380404900969200,0.65996923828125,0.000581592321395874,0.00020583905279636383,-0.001445552334189415
1761380404911051300,0.67005126953125,-0.00025197677314281464,0.0014945422299206257,0.000815737759694457
1761380404921133300,0.68013330078125,0.0016484130173921585,0.00003906525671482086,0.0005898468662053347
1761380404931216400,0.69021630859375,0.0014026034623384476,0.0006726309657096863,0.0011712147388607264
1761380404941298400,0.70029833984375,0.0005309693515300751,-0.0024032946676015854,-0.000433880602940917
1761380404951380200,0.710380126953125,0.00020020455121994019,0.0013395114801824093,-0.0008855527266860008
1761380404961463600,0.720463623046875,-0.0003059208393096924,-0.001325482502579689,-0.0004176427610218525
1761380404971545300,0.73054541015625,0.001976674422621727,0.0003030402585864067,0.0007568113505840302
1761380404981627400,0.74062744140625,0.002019505947828293,-0.0027880482375621796,0.0000060051679611206055
1761380404991710500,0.75071044921875,-0.0011523189023137093,-0.002368333749473095,0.002080607460811734
1761380405001792500,0.76079248046875,0.0004948945716023445,-0.0010727448388934135,0.0013318583369255066
1761380405011874600,0.77087451171875,0.0003633350133895874,0.001159250270575285,-0.0010985424742102623
1761380405021957400,0.780957275390625,-0.000531541183590889,-0.002451458014547825,0.0015694834291934967
1761380405032039400,0.791039306640625,-0.0027914997190237045,-0.001364355906844139,-0.0018577384762465954
1761380405042121500,0.80112158203125,0.0009971419349312782,0.0019525019451975822,0.00026023294776678085
1761380405052204300,0.811204345703125,-0.0011717360466718674,-0.0013018809258937836,-0.0010652221972122788
1761380405062286300,0.821286376953125,0.0002688504755496979,-0.0002696588635444641,0.0002540729474276304
1761380405072368400,0.831368408203125,0.00014208350330591202,0.001358598005026579,-0.00016058143228292465
1761380405082451500,0.841451416015625,0.002305525355041027,0.0006940844468772411,0.00021437718532979488
1761380405092533200,0.851533203125,-0.0020791031420230865,-0.0020460421219468117,-0.002810441190376878
1761380405102615300,0.861615234375,-0.0007189949974417686,0.00019316840916872025,0.0015493796672672033
1761380405112698400,0.871698486328125,-0.0005927616730332375,0.0003055538982152939,0.0005621458403766155
1761380405122780400,0.881780517578125,-0.0001859869807958603,-0.00007905717939138412,-0.0010458127362653613
1761380405132862200,0.8918623046875,-0.000952710397541523,-0.0015539154410362244,-0.0011869602603837848
1761380405142945300,0.9019453125,0.0003443406894803047,-0.003712122328579426,0.0031831751111894846
1761380405153027300,0.91202734375,-0.0028692958876490593,-0.0009040851145982742,0.001114431768655777
1761380405163109400,0.922109375,-0.0005735903978347778,-0.0006776554509997368,-0.0022274015937000513
1761380405173192200,0.932192138671875,-0.0010231314226984978,0.0016366317868232727,-0.002746984362602234
1761380405183274200,0.942274169921875,-0.00060989148914814,-0.0005064895376563072,-0.0007595997303724289
1761380405193356300,0.952356201171875,-0.0015385355800390244,0.0004983209073543549,-0.0032166321761906147
1761380405203439400,0.962439453125,-0.000483793206512928,0.002064960077404976,0.0007122706156224012
1761380405213521400,0.972521484375,0.0009662974625825882,0.0022031781263649464,0.0019359930884093046
1761380405223603500,0.982603515625,-0.0010893568396568298,0.0012491089291870594,0.0015697102062404156
1761380405233686500,0.9926865234375,0.002983948215842247,-0.002654818817973137,-0.0014828051207587123
1761380405243768600,1.0027685546875,0.00023754313588142395,-0.00039570778608322144,0.001232996815815568
1761380405253850400,1.012850341796875,-0.0020229481160640717,0.0006581046618521214,0.00044123921543359756
1761380405263933400,1.022933349609375,0.0008004149422049522,0.0010581370443105698,-0.000751344719901681
1761380405274015500,1.033015380859375,-0.0002720402553677559,-0.0037233028560876846,0.001507015898823738
1761380405284097500,1.04309765625,-0.0012987731024622917,0.00014374218881130219,0.0014509428292512894
1761380405294180400,1.053180419921875,-2.1513551473617554e-7,0.0008151247166097164,0.0011777025647461414
1761380405304262400,1.063262451171875,0.0009163115173578262,0.0016591111198067665,-0.0007765105692669749
1761380405314344400,1.073344482421875,-0.0006413720548152924,-0.002454673871397972,0.00047544133849442005
1761380405324427300,1.08342724609375,-0.0010827630758285522,0.0011351457796990871,-0.0010248918551951647
1761380405334509300,1.09350927734375,0.00003310106694698334,-0.003341361880302429,-0.0008909349562600255
1761380405344591400,1.10359130859375,-0.0005457643419504166,-0.0020834989845752716,0.0013317640405148268
1761380405354674400,1.11367431640625,0.0024694669991731644,-0.0023833708837628365,-0.0019463208736851811
1761380405364756200,1.123756103515625,0.0016812700778245926,0.0009048795327544212,0.0022008882369846106
1761380405374838300,1.13383837890625,0.0006245272234082222,-0.0002429429441690445,0.000004046596586704254
1761380405384921300,1.14392138671875,0.0011297324672341347,-0.00022954028099775314,-0.0007421362679451704
1761380405395003400,1.15400341796875,-0.0006220955401659012,-0.00037628039717674255,-0.00039246317464858294
1761380405405085400,1.16408544921875,0.00012056995183229446,-0.0001155417412519455,-0.001229065121151507
1761380405415168300,1.174168212890625,-0.0007276469841599464,0.0009979261085391045,0.0007123793475329876
1761380405425250300,1.184250244140625,0.002196427434682846,0.0012425631284713745,-0.00011310609988868237
1761380405435332400,1.194332275390625,0.0005513932555913925,-0.0015255259349942207,-0.002907827263697982
1761380405445415200,1.204415283203125,-0.0015933364629745483,0.001144124660640955,0.0001209992915391922
1761380405455497200,1.214497314453125,-0.00014830566942691803,-0.0001222081482410431,0.00026188045740127563
1761380405465579300,1.224579345703125,-0.002183171920478344,-0.0007335776463150978,-0.0027384876739233732
1761380405475662600,1.23466259765625,-0.0011506648734211922,-0.0031125787645578384,0.00023359991610050201
1761380405485744400,1.244744384765625,0.001211770810186863,0.0002346700057387352,0.0006160843186080456
1761380405495826400,1.254826416015625,-0.0005131587386131287,-0.0008401824161410332,-0.0004518431378528476
1761380405505909500,1.264909423828125,-0.001700037159025669,-0.0034236768260598183,0.0010469043627381325
1761380405515991600,1.274991455078125,-0.0009695328772068024,-0.000010569579899311066,0.0021169628016650677
1761380405526073300,1.2850732421875,-0.0007213689386844635,0.00027777813374996185,0.0011071509215980768
1761380405536156400,1.295156494140625,-0.000978098250925541,-0.002597902901470661,0.0007287159096449614
1761380405546238500,1.305238525390625,-0.0011218246072530746,-0.0016378453001379967,0.0005129824858158827
1761380405556320500,1.315320556640625,0.0010944586247205734,0.00025513023138046265,0.003006499959155917
1761380405566403300,1.3254033203125,0.0007996447384357452,-0.0012326817959547043,0.000259733060374856
1761380405576485400,1.3354853515625,0.001056106761097908,-0.00023665931075811386,-0.0009256399935111403
1761380405586567400,1.3455673828125,-0.0013253334909677505,0.0009656669571995735,0.00000835023820400238
1761380405596650200,1.355650146484375,-0.0008917711675167084,-0.00041251908987760544,0.0010051713325083256
1761380405606732300,1.365732177734375,0.0005536843091249466,-0.0010949019342660904,0.00019489089027047157
1761380405616814300,1.375814453125,0.000898030586540699,-0.0004892991855740547,-0.0008770314743742347
1761380405626897400,1.3858974609375,-0.0018824487924575806,-0.001999562606215477,0.0012827839236706495
1761380405636979500,1.3959794921875,-0.0006046639755368233,-0.0020275255665183067,-0.000015773577615618706
1761380405647061200,1.406061279296875,0.000996055081486702,-0.00038360990583896637,-0.0008594834944233298
1761380405657144300,1.416144287109375,0.000196041539311409,0.0001708604395389557,0.00009019975550472736
1761380405667226400,1.426226318359375,-0.0017288709059357643,-0.001620294526219368,-0.00040958006866276264
1761380405677308400,1.436308349609375,0.00013347715139389038,0.00042554643005132675,-0.003484199522063136
1761380405687390200,1.44639013671875,0.0006709611043334007,0.00219570379704237,0.0010699902195483446
1761380405697473300,1.456473388671875,0.0008802851662039757,0.0024902494624257088,0.000004725763574242592
1761380405707555300,1.466555419921875,-0.00040418002754449844,-0.0004389965906739235,-0.0001072566956281662
1761380405717638100,1.47663818359375,0.001379339024424553,-0.0001479126513004303,-0.0012034138198941946
1761380405727720200,1.48672021484375,0.0013962285593152046,0.00036125630140304565,-0.0017183467280119658
1761380405737802200,1.49680224609375,0.0004438823089003563,-0.0008094692602753639,0.001119517721235752
1761380405747885600,1.506885498046875,-0.00017049629241228104,-0.0005393372848629951,-0.0003511791583150625
1761380405757967400,1.51696728515625,0.0010654767975211143,-0.00023893266916275024,0.0008616242557764053
1761380405768049400,1.52704931640625,0.0006881114095449448,-0.0010394779965281487,-0.0018530207453295588
1761380405778132500,1.537132568359375,0.0021475236862897873,-0.00027461815625429153,0.0005976201500743628
1761380405788214500,1.547214599609375,0.0015994003042578697,0.00041529908776283264,0.0005822579842060804
1761380405798296600,1.557296630859375,-0.0018965313211083412,0.0021514142863452435,-0.0013669095933437347
1761380405808378400,1.56737841796875,-0.0019398173317313194,0.0008456157520413399,-0.0012841469142585993
1761380405818461400,1.57746142578125,0.001120154745876789,0.0006631892174482346,-0.00019145198166370392
1761380405828543500,1.58754345703125,-0.0007603112608194351,-0.0014246832579374313,0.0034583741798996925
1761380405838626300,1.597626220703125,-0.0006806831806898117,-0.0004507657140493393,-0.0027563786134123802
1761380405848708400,1.607708251953125,0.0019384641200304031,0.0014345785602927208,-0.0007776222191751003
1761380405858790400,1.617790283203125,-0.0017055394127964973,-0.0017380453646183014,0.00027672317810356617
1761380405868872400,1.62787255859375,-0.000014645978808403015,-0.00026226043701171875,-0.001280655968002975
1761380405878955300,1.637955322265625,0.0011326437816023827,0.001156405545771122,0.0007180464453995228
1761380405889037300,1.648037353515625,0.001971237361431122,0.00047383271157741547,-0.0026565389707684517
1761380405899119400,1.658119384765625,0.0000628158450126648,0.0006205728277564049,-0.0011321455240249634
1761380405909202400,1.668202392578125,0.0005459673702716827,0.0019772108644247055,-0.00043516105506569147
1761380405919284200,1.6782841796875,0.001011488027870655,0.0010933075100183487,0.001333177788183093
1761380405929367300,1.6883671875,0.00032202713191509247,-0.0014420822262763977,-0.000650451285764575
1761380405939449300,1.698449462890625,0.004754326306283474,0.0006088176742196083,-0.0007716250838711858
1761380405949531400,1.708531494140625,0.00007269438356161118,0.0003419676795601845,-0.00133128697052598
1761380405959613400,1.718613525390625,-0.0007992247119545937,-0.00119094830006361,-0.00230147666297853
1761380405969696300,1.7286962890625,-0.001615137793123722,0.0007798429578542709,0.0010493334848433733
1761380405979778000,1.738778076171875,0.0007833056151866913,-0.0016359109431505203,-0.0005387094570323825
1761380405989860000,1.748860107421875,0.0009056329727172852,0.0011693788692355156,0.0003118379972875118
1761380405999943000,1.75894287109375,-0.00004005618393421173,-0.0019571715965867043,0.0021504841279238462
1761380406010025000,1.76902490234375,0.0016807010397315025,0.0007053837180137634,-0.0003837288822978735
1761380406020107000,1.77910693359375,0.00010890327394008636,-0.0034464849159121513,-0.002382165053859353
1761380406030190000,1.789190185546875,0.0018826862797141075,0.001384424977004528,0.0007370803505182266
1761380406040272000,1.79927197265625,0.000687992200255394,-0.0005122777074575424,0.0022707947064191103
1761380406050354000,1.80935400390625,0.0018677478656172752,-0.0006691934540867805,-0.002935797441750765
1761380406060437000,1.81943701171875,-0.0013309754431247711,-0.0005962224677205086,0.0011345779057592154
1761380406070519000,1.82951904296875,0.0005838321521878242,0.0008235904388129711,-0.0009508309885859489
1761380406080601000,1.83960107421875,0.0002879546955227852,0.0009484929032623768,0.00042043067514896393
1761380406090684000,1.849683837890625,0.003252854570746422,-0.001158575527369976,0.001560394885018468
1761380406100766000,1.859765869140625,0.0004070000723004341,0.0011956589296460152,0.0011212397366762161
1761380406110848000,1.869847900390625,0.00004177447408437729,0.0014282525517046452,0.00019206595607101917
1761380406120930800,1.879930908203125,0.0018015913665294647,-0.0005837660282850266,0.0028195406775921583
1761380406131012900,1.890012939453125,0.0017593298107385635,-0.0011824918910861015,0.0010276951361447573
1761380406141095000,1.900094970703125,0.0020562727004289627,-0.001390485092997551,0.0008591169025748968
1761380406151178000,1.910177978515625,0.0006674677133560181,0.003596802242100239,0.0008865352720022202
1761380406161259800,1.920259765625,-0.002265205606818199,-0.0008176537230610847,-0.0015481265727430582
1761380406171341800,1.930341796875,-0.0009767217561602592,-0.0006987415254116058,-0.001268173335120082
1761380406181425200,1.940425048828125,-0.0001455489546060562,0.0005896957591176033,-0.000051641371101140976
1761380406191507200,1.950507080078125,-0.0003653513267636299,-0.00011655688285827637,-0.0007593425689265132
1761380406201589000,1.960589111328125,0.0005486449226737022,0.002355655189603567,-0.0018115575658157468
1761380406211672000,1.970672119140625,0.001700480468571186,0.003340937662869692,-0.0023403901141136885
1761380406221754000,1.980754150390625,0.0020775841549038887,0.0017803255468606949,0.0021411774214357138
1761380406231836200,1.990836181640625,-0.0013706730678677559,-0.0011496096849441528,-0.00041491107549518347
1761380406241919000,2.0009189453125,0.0004780935123562813,-0.0013099322095513344,0.0012096171267330647
1761380406252001000,2.0110009765625,-0.0010350532829761505,0.0012065432965755463,-0.0016564361285418272
1761380406262083000,2.0210830078125,0.00039319973438978195,0.002330397255718708,0.0019627995789051056
1761380406272166000,2.031165771484375,-0.00027807150036096573,0.0017953142523765564,-0.002659633057191968
1761380406282248000,2.041248046875,-0.00046475883573293686,0.0029205000028014183,-0.0006814369698986411
1761380406292330000,2.051330078125,0.00051884725689888,-0.00032361503690481186,0.0008163419552147388
1761380406302413000,2.0614130859375,-0.001311010681092739,0.0013086367398500443,0.0028374148532748222
1761380406312495000,2.0714951171875,-0.0009055864065885544,0.0015437612310051918,-0.0005994217935949564
1761380406322577000,2.081576904296875,0.0008310610428452492,-0.0010714633390307426,0.0007798292208462954
1761380406332660000,2.091659912109375,0.0008665155619382858,-0.0007552653551101685,-0.000018085818737745285
1761380406342742000,2.101741943359375,-0.0005244538187980652,0.00020507071167230606,-0.0010468647815287113
1761380406352824000,2.111823974609375,-0.00018567126244306564,0.0000016242265701293945,-0.001110462355427444
1761380406362907000,2.121906982421875,-0.00042615458369255066,0.0009915214031934738,-0.0029294013511389494
1761380406372989000,2.131989013671875,0.002077762968838215,-0.0015002787113189697,-0.0007476017344743013
1761380406383071000,2.142071044921875,0.0007784068584442139,0.0016196146607398987,-0.002239770954474807
1761380406393153800,2.15215380859375,-0.00032690446823835373,-0.00003671739250421524,0.0009202486835420132
1761380406403235800,2.16223583984375,-0.00027710292488336563,0.0015305527485907078,-0.002313627628609538
1761380406413318000,2.17231787109375,-0.000296969898045063,-0.0008770972490310669,-0.0016745342873036861
1761380406423401000,2.18240087890625,-0.0005393177270889282,0.0007554208859801292,-0.0012079485459253192
1761380406433483000,2.19248291015625,0.00024696439504623413,0.0017569400370121002,0.0010824494529515505
1761380406443566000,2.202566162109375,-0.00019032694399356842,-0.0015110252425074577,-0.00025152787566185
1761380406453648100,2.212648193359375,-0.00010756123811006546,-0.0005499934777617455,0.0014688237570226192
1761380406463730200,2.222730224609375,0.0001251986250281334,0.0003677317872643471,0.0021050528157502413
1761380406473812200,2.232812255859375,0.0010629314929246902,-0.0019056815654039383,0.0005175224505364895
1761380406483895000,2.24289501953125,0.0010394956916570663,0.0007902360521256924,0.0006024772301316261
1761380406493977000,2.25297705078125,-0.0006229523569345474,-0.0013794554397463799,0.00013733655214309692
1761380406504059100,2.26305908203125,0.002400534227490425,0.002146836370229721,0.0004020547494292259
1761380406514142000,2.273141845703125,0.0013819988816976547,0.0012219357304275036,0.0018084892071783543
1761380406524224000,2.28322412109375,-0.0018558716401457787,-0.002136576920747757,-0.0010189888998866081
1761380406534306000,2.29330615234375,0.0035849502310156822,-0.0007067136466503143,-0.000868413015268743
1761380406544389000,2.30338916015625,0.00043283216655254364,-0.0011932728812098503,-0.0003088829107582569
1761380406554471000,2.313470947265625,-0.0026519130915403366,-0.0006614457815885544,-0.00024426192976534367
1761380406564553000,2.323552978515625,0.0008514756336808205,0.001028063241392374,0.002144860103726387
1761380406574636000,2.333635986328125,-0.003150063566863537,-0.0007209666073322296,0.0005985074676573277
1761380406584718000,2.343718017578125,0.0024993009865283966,0.0016119624488055706,-0.0001101598609238863
1761380406594799900,2.3537998046875,-0.001299300231039524,0.0012632859870791435,-0.0015344859566539526
1761380406604883000,2.363883056640625,-0.0014910483732819557,-0.0015301043167710304,0.0011585026513785124
1761380406614965000,2.373965087890625,-0.001020398922264576,0.0013214340433478355,-0.0018287632847204804
1761380406625047800,2.3840478515625,0.002879001200199127,-0.0018075136467814445,0.002839757828041911
1761380406635129900,2.3941298828125,-0.0004109395667910576,0.0014280094765126705,-0.0011908153537660837
1761380406645212000,2.4042119140625,0.00023114867508411407,0.0016634329222142696,0.0018846029415726662
1761380406655294000,2.4142939453125,0.0006556427106261253,0.0002750502899289131,0.0007295142859220505
1761380406665377000,2.424376953125,0.0005355346947908401,-0.0027487026527523994,-0.0019504246301949024
1761380406675458800,2.434458740234375,0.0007795421406626701,-0.00015471968799829483,-0.0007733828388154507
1761380406685540900,2.444540771484375,-0.0009483164176344872,0.0013776635751128197,-0.0007813723059371114
1761380406695624000,2.4546240234375,-0.00037894025444984436,0.0013547297567129135,0.002460980787873268
1761380406705706000,2.4647060546875,-0.0003009093925356865,-0.0023739617317914963,-0.0015798333333805203
1761380406715787800,2.474787841796875,-0.002681984566152096,-0.0005281111225485802,-0.002686337335035205
1761380406725871000,2.48487109375,-0.0026731956750154495,0.0019470304250717163,0.0010644588619470596
1761380406735953200,2.494953125,0.00010413769632577896,-0.0013535832986235619,-0.00006866897456347942
1761380406746035200,2.50503515625,0.0009829811751842499,-0.0020883502438664436,-0.0011480482062324882
1761380406756118000,2.515117919921875,0.000613408163189888,-0.0007548164576292038,0.0007390882819890976
1761380406766200000,2.525199951171875,-0.00010963995009660721,-0.00027784425765275955,0.00015345914289355278
1761380406776282000,2.5352822265625,0.00030838511884212494,0.0022161868400871754,0.0001918594352900982
1761380406786365000,2.545364990234375,0.0006769662722945213,-0.0013457909226417542,0.0012874838430434465
1761380406796447000,2.555447021484375,-0.00017833895981311798,0.0008643362671136856,0.000551651930436492
1761380406806529000,2.565529052734375,-0.0010681012645363808,-0.001353011466562748,0.00045391381718218327
1761380406816612000,2.575612060546875,0.000689532607793808,0.0009554787538945675,0.001008412567898631
1761380406826694000,2.58569384765625,0.002910342998802662,-0.00036651454865932465,-0.0013751164078712463
1761380406836776000,2.59577587890625,-0.0006593214347958565,0.002537770662456751,0.0008906428702175617
1761380406846859000,2.60585888671875,-0.00007023010402917862,-0.00012033060193061829,-0.0003085786011070013
1761380406856941000,2.615941162109375,0.0023129070177674294,0.0002615600824356079,-0.0007636739173904061
1761380406867023000,2.626023193359375,-0.0007931366562843323,0.0008352049626410007,0.0000983912032097578
1761380406877106000,2.63610595703125,-0.0015518758445978165,0.0004967721179127693,-0.002901029773056507
1761380406887188000,2.64618798828125,0.002216762863099575,0.00021101534366607666,-0.0006914049154147506
1761380406897270000,2.65627001953125,0.0009599979966878891,0.0013718712143599987,0.0010957925114780664
1761380406907352800,2.666352783203125,0.000023365020751953125,0.001564151607453823,0.00016395235434174538
1761380406917435000,2.676434814453125,-0.0006575370207428932,-0.0008155256509780884,0.0004907108377665281
1761380406927517000,2.686516845703125,0.0026557017117738724,-0.0002719741314649582,-0.0016829612432047725
1761380406937600000,2.69660009765625,0.0014694985002279282,0.000013523735105991364,0.0023789224214851856
1761380406947681800,2.706681884765625,-0.0006029736250638962,-0.0004573231562972069,-0.001175065990537405
1761380406957763800,2.716763916015625,-0.0002744114026427269,-0.0012161675840616226,-0.001972367987036705
1761380406967847200,2.72684716796875,-0.0009503215551376343,-0.0008862018585205078,-0.0009579698089510202
1761380406977929500,2.736929443359375,-0.0007081115618348122,0.000010554678738117218,-0.0016924689989537
1761380406988011500,2.747011474609375,-0.0006923992186784744,-0.0007135588675737381,0.00012913323007524014
1761380406998094600,2.757094482421875,0.0004989355802536011,-0.001226905733346939,-0.0007027669344097376
1761380407008176600,2.7671767578125,0.0017420994117856026,0.0031372159719467163,-0.00006627151742577553
1761380407018258700,2.7772587890625,0.0016748514026403427,-0.0019022682681679726,-0.0002635049168020487
1761380407028341500,2.787341552734375,-0.0003819074481725693,0.0002072211354970932,0.0026824837550520897
1761380407038423600,2.797423583984375,-0.0014495812356472015,0.00003365054726600647,0.0007474652957171202
1761380407048505600,2.807505615234375,-0.0014328034594655037,0.0002821236848831177,0.0013866238296031952
1761380407058588400,2.81758837890625,0.000694996677339077,-0.003915820270776749,0.0005211799871176481
1761380407068670500,2.82767041015625,0.00019245781004428864,-0.00011069606989622116,0.0009507478680461645
1761380407078752500,2.83775244140625,0.0009340178221464157,-0.0027893558144569397,0.0006037328857928514
1761380407088835600,2.847835693359375,-0.0016298070549964905,0.0027321758680045605,0.0003051925450563431
1761380407098917400,2.85791748046875,-0.0007184520363807678,-0.0021224049851298332,0.0017563956789672375
1761380407108999400,2.86799951171875,-0.0008135270327329636,0.0005231797695159912,-0.0016897345194593072
1761380407119082500,2.87808251953125,0.0009939484298229218,-0.0001080753281712532,0.0005009963642805815
1761380407129164500,2.88816455078125,0.0003063203766942024,-0.0012953123077750206,-0.0028207646682858467
1761380407139246300,2.898246337890625,-0.00030158553272485733,0.00074054766446352,-0.00003417418338358402
1761380407149329400,2.908329345703125,-0.00048374664038419724,0.0017072749324142933,0.00028780195862054825
1761380407159411500,2.918411376953125,0.0010975375771522522,0.0006266869604587555,0.000538188498467207
1761380407169493500,2.928493408203125,-0.00003457162529230118,-0.0003184685483574867,0.002576305530965328
1761380407179576600,2.93857666015625,0.0014665760099887848,-0.002479441463947296,-0.0008574818493798375
1761380407189658600,2.94865869140625,0.00023885909467935562,0.0029360963962972164,-0.0002625316847115755
1761380407199740700,2.95874072265625,0.00012050103396177292,0.0012108436785638332,-0.0004661442944779992
1761380407209823500,2.968823486328125,-0.0007420964539051056,-0.0014219572767615318,0.00112003437243402
1761380407219905500,2.978905517578125,0.0008779391646385193,-0.0011295396834611893,0.0024223532527685165
1761380407229987600,2.988987548828125,-0.00013086572289466858,0.000154104083776474,-0.0002807553391903639
1761380407240070700,2.999070556640625,-0.002519533969461918,-0.0008222311735153198,0.0027767543215304613
1761380407250152700,3.009152587890625,0.0005976958200335503,0.00009070057421922684,0.002334935823455453
1761380407260234500,3.019234375,-0.0001668473705649376,-0.0013446314260363579,0.0010745765175670385
1761380407270317600,3.029317626953125,0.0003258371725678444,0.00045300181955099106,0.001476447330787778
1761380407280399600,3.039399658203125,-0.0014871042221784592,-0.0006455434486269951,-0.0004990835441276431
1761380407290481700,3.049481689453125,-0.0010593999177217484,0.002698321361094713,0.0010218475945293903
1761380407300564500,3.059564453125,0.0004880223423242569,0.0007839212194085121,0.003347740974277258
1761380407310646500,3.069646484375,0.001493898220360279,0.0010009692050516605,-0.0017921598628163338
1761380407320728600,3.079728515625,0.00007726345211267471,-0.0005140425637364388,-0.002072954783216119
1761380407330811400,3.089811279296875,-0.002815462648868561,-0.0009505348280072212,-0.00005001761019229889
1761380407340893400,3.0998935546875,0.0004464108496904373,0.0003277631476521492,0.0004361167084425688
1761380407350975500,3.1099755859375,-0.0002004709094762802,-0.0004642615094780922,0.0017312117852270603
1761380407361058600,3.12005859375,0.0030710743740200996,0.0012247399426996708,-0.0007629903266206384
1761380407371140600,3.130140625,-0.00015907268971204758,-0.001979309134185314,-0.002320939442142844
1761380407381222400,3.140222412109375,-0.0017487164586782455,-0.001586555503308773,-0.001074557309038937
1761380407391305500,3.150305419921875,0.00006489641964435577,0.00031547434628009796,0.0009292052127420902
1761380407401387500,3.160387451171875,0.0020187990739941597,0.0024950560182332993,-0.00016118516214191914
1761380407411469600,3.170469482421875,-0.00014022551476955414,0.0005165934562683105,-0.001903691329061985
1761380407421552400,3.180552490234375,0.0012519201263785362,-0.0009516729041934013,-0.0009541991166770458
1761380407431634400,3.190634521484375,0.00091556366533041,-0.001798558048903942,0.0006032173987478018
1761380407441716500,3.200716552734375,0.0009126681834459305,-0.0002422630786895752,0.002415770897641778
1761380407451799600,3.210799560546875,-0.0009099990129470825,-0.0001882016658782959,0.00014089862816035748
1761380407461881600,3.220881591796875,-0.00002993084490299225,0.003047285135835409,0.00017411122098565102
1761380407471963600,3.230963623046875,-0.001848071813583374,-0.0009706262499094009,-0.0008735763840377331
1761380407482046700,3.241046630859375,0.0007575172930955887,-0.001017637550830841,-0.0012763552367687225
1761380407492128500,3.25112841796875,-0.0021756887435913086,-0.0016727745532989502,0.0018323524855077267
1761380407502210600,3.26121044921875,0.0003270236775279045,0.0015348982997238636,-0.00041113991755992174
1761380407512293600,3.271293701171875,0.0008695097640156746,-0.0013738060370087624,-0.0015267380513250828
1761380407522375700,3.281375732421875,-0.00037673208862543106,-0.0011537810787558556,0.0034050368703901768
1761380407532457500,3.29145751953125,0.0005857348442077637,-0.004330932162702084,0.001750947441905737
1761380407542540500,3.30154052734375,-0.00015210546553134918,-0.0004898207262158394,0.00008111889474093914
1761380407552622600,3.31162255859375,0.0014993203803896904,0.00036292336881160736,-0.0006065093912184238
1761380407562704600,3.32170458984375,-0.00002019200474023819,0.00040966831147670746,-0.000527853611856699
1761380407572787500,3.331787353515625,-0.0009901151061058044,0.002619026694446802,-0.001057822722941637
1761380407582869500,3.341869384765625,-0.0003225049003958702,-0.0008225245401263237,-0.0011282573686912656
1761380407592951600,3.35195166015625,-0.0009896261617541313,-0.0013825874775648117,-0.0010896414751186967
1761380407603034600,3.36203466796875,0.0019110003486275673,0.0010215570218861103,0.0018090393859893084
1761380407613116400,3.372116455078125,-0.0009875847026705742,0.0002905195578932762,-0.0023731885012239218
1761380407623198500,3.382198486328125,0.0005588037893176079,-0.0008708750829100609,-0.0005103008588775992
1761380407633281500,3.392281494140625,0.0015465710312128067,0.0017158538103103638,0.00038185808807611465
1761380407643363600,3.402363525390625,0.0007662707939743996,-0.0014113541692495346,0.0008216169662773609
1761380407653445400,3.4124453125,-0.0002742260694503784,0.001265122089534998,-0.001752062002196908
1761380407663528400,3.422528564453125,-0.0027202581986784935,0.001915385015308857,0.0007974745240062475
1761380407673610500,3.432610595703125,0.0019123107194900513,-0.0032476847991347313,-0.003442277666181326
1761380407683692500,3.442692626953125,-0.00018549524247646332,-0.00345693901181221,0.0005937069654464722
1761380407693775400,3.452775390625,0.00203052069991827,0.0003998512402176857,0.002979100216180086
1761380407703857400,3.462857421875,0.0007601296529173851,0.0015753814950585365,0.000862443121150136
1761380407713939500,3.472939453125,0.00019980035722255707,0.000417172908782959,-0.0007642157142981887
1761380407724022500,3.4830224609375,-0.003837384283542633,0.00000819377601146698,0.0005526365712285042
1761380407734104600,3.4931044921875,-0.000014683231711387634,-0.003091192804276943,-0.0007565733976662159
1761380407744186600,3.5031865234375,0.0020439159125089645,-0.0011270483955740929,-0.0016292801592499018
1761380407754269700,3.513269775390625,-0.0019761258736252785,0.001150487456470728,0.0020011411979794502
1761380407764351500,3.5233515625,0.0010466491803526878,0.0014507225714623928,-0.0018232277361676097
1761380407774433500,3.53343359375,-0.0007248856127262115,0.0006384579464793205,-0.000821346533484757
1761380407784516600,3.5435166015625,-0.001316050998866558,-0.001073296181857586,-0.0015655388124287128
1761380407794598700,3.5535986328125,0.00039209984242916107,-0.0013614501804113388,0.0006731143221259117
1761380407804680700,3.5636806640625,-0.00047150813043117523,0.0014888984151184559,-0.000020758481696248055
1761380407814763500,3.573763427734375,-0.0012534121051430702,-0.0009481599554419518,0.00015714089386165142
1761380407824845600,3.583845458984375,-0.001263975165784359,-0.0019654231145977974,0.003239805344492197
1761380407834927600,3.593927734375,-0.0005869995802640915,0.003530542366206646,-0.001089695724658668
1761380407845010400,3.604010498046875,-0.000966876745223999,0.00006579607725143433,0.00237992568872869
1761380407855092500,3.614092529296875,-0.0011919140815734863,0.002610180526971817,0.0014185244217514992
1761380407865174500,3.624174560546875,0.001969234086573124,-0.0006288327276706696,-0.00042987032793462276
1761380407875257600,3.634257568359375,0.0015178285539150238,0.0003890274092555046,0.0010106335394084454
1761380407885339400,3.64433935546875,-0.00021679513156414032,0.0009162104688584805,0.00030134967528283596
1761380407895421400,3.65442138671875,-0.0014415830373764038,0.0011982391588389874,0.0015660850331187248
1761380407905504500,3.66450439453125,0.00047261733561754227,-0.0004690438508987427,0.001105532981455326
1761380407915586600,3.674586669921875,-0.0009066341444849968,0.0011618761345744133,0.0009577274322509766
1761380407925668400,3.68466845703125,0.0020201578736305237,-0.00038971100002527237,0.0016869991086423397
1761380407935751400,3.69475146484375,-0.00021503306925296783,0.00048300623893737793,0.0009740709792822599
1761380407945833500,3.70483349609375,-0.00009697768837213516,-0.00038490910083055496,0.00046993885189294815
1761380407955915500,3.71491552734375,0.00008225347846746445,0.0034875934943556786,-0.0005548455519601703
1761380407965998600,3.72499853515625,-0.000872122123837471,-0.0018242662772536278,-0.0017088521271944046
1761380407976080000,3.735079833984375,-0.000768790952861309,0.00031851325184106827,0.0021537968423217535
1761380407986162000,3.745161865234375,0.0003499221056699753,-0.0021530380472540855,0.0026895608752965927
1761380407996245000,3.755244873046875,0.00009372550994157791,-0.0014739315956830978,-0.0011752182617783546
1761380408006327000,3.7653271484375,0.001073494553565979,-0.001886766403913498,0.003195360070094466
1761380408016408800,3.775408935546875,0.0010961312800645828,-0.0009285612031817436,-0.0005815346958115697
1761380408026492000,3.785491943359375,-0.0011535799130797386,0.000008132308721542358,-0.002602164400741458
1761380408036574000,3.795573974609375,0.0001020999625325203,-0.00003288034349679947,-0.003988073207437992
1761380408046656000,3.805656005859375,-0.0009856130927801132,0.0018186667002737522,0.0009424304589629173
1761380408056739000,3.815739013671875,0.002881031483411789,0.0005946783348917961,-0.0006093933479860425
1761380408066821000,3.825821044921875,-0.0004649721086025238,-0.0006835460662841797,-0.00009146891534328461
1761380408076903200,3.835903076171875,-0.0011099893599748611,-0.001124299131333828,-0.0007407476659864187
1761380408086986000,3.845986083984375,-0.00014643091708421707,-0.0018368903547525406,0.0013578315265476704
1761380408097068000,3.856068115234375,-0.00013471301645040512,0.000374598428606987,-0.0010898797772824764
1761380408107150000,3.866150146484375,-0.0001977197825908661,0.0004806164652109146,-9.487848728895187e-7
1761380408117233200,3.876233154296875,0.0017818072810769081,-0.0032033342868089676,0.0000786797609180212
1761380408127315000,3.88631494140625,0.0003965534269809723,-0.0020170053467154503,-0.0025219570379704237
1761380408137397000,3.89639697265625,-0.0004655122756958008,0.0017087571322917938,0.0016546784900128841
1761380408147480000,3.90647998046875,0.0006105527281761169,0.0024044010788202286,0.00009037484414875507
1761380408157562000,3.91656201171875,-0.0016142521053552628,-0.0034012896940112114,0.0008299346081912518
1761380408167644000,3.926643798828125,0.001766946166753769,0.0005630282685160637,0.000958216143772006
1761380408177727000,3.93672705078125,0.000322180800139904,-0.0013256855309009552,0.0024948599748313427
1761380408187809000,3.94680908203125,-0.001091834157705307,0.005461704917252064,0.0013484617229551077
1761380408197891000,3.95689111328125,-0.000969327986240387,-0.002614331431686878,-0.0006811334751546383
1761380408207974000,3.966973876953125,0.0011359304189682007,0.000227474607527256,-0.000511514488607645
1761380408218056000,3.977055908203125,-0.000042518600821495056,-0.00033099018037319183,0.0011950391344726086
1761380408228138000,3.987137939453125,-0.00016307085752487183,0.0007854285649955273,-0.002111705020070076
1761380408238221000,3.997220947265625,-0.0007500313222408295,-0.0008904989808797836,0.0027387100271880627
1761380408248302800,4.007302734375,0.002040333114564419,0.001064792275428772,0.0018846651073545218
1761380408258385000,4.017385009765625,0.00247016828507185,-0.0018921149894595146,0.0022300768177956343
1761380408268468000,4.027468017578125,-0.0010672183707356453,-0.00015381723642349243,0.0005163548048585653
1761380408278550000,4.037550048828125,-0.0009883884340524673,-0.0010451776906847954,0.001148589188233018
1761380408288631800,4.0476318359375,0.0006692903116345406,-0.002038121223449707,0.002001654589548707
1761380408298715000,4.05771484375,0.0007622344419360161,-0.0006554080173373222,0.0010567652061581612
1761380408308797000,4.067796875,-0.0020089875906705856,-0.0004933755844831467,0.00223932764492929
1761380408318879000,4.07787890625,-0.0006118929013609886,-0.0005767326802015305,0.0013311896473169327
1761380408328962000,4.087962158203125,-0.0015877019613981247,0.0018865615129470825,0.00024224724620580673
1761380408339044000,4.098044189453125,-0.0022407090291380882,0.0014841575175523758,0.00019431044347584248
1761380408349126100,4.108126220703125,0.0007746554911136627,0.0007163342088460922,0.0009806347079575062
1761380408359209000,4.118208984375,0.0006406987085938454,-0.0024344520643353462,0.001577715389430523
1761380408369291000,4.128291015625,0.0016232626512646675,-0.001196100376546383,-0.00108697812538594
1761380408379373000,4.138373046875,0.0021164799109101295,-0.0010850466787815094,0.0023506302386522293
1761380408389456100,4.1484560546875,-0.0022131288424134254,-0.0010838918387889862,-0.0023265713825821877
1761380408399538000,4.158537841796875,0.0013299407437443733,-0.0013920199126005173,-0.0016304210294038057
1761380408409620000,4.168619873046875,-0.00014271587133407593,0.001379162073135376,0.0007799784652888775
1761380408419703000,4.178703125,-0.002471916377544403,-0.0002437680959701538,0.00011445465497672558
1761380408429785000,4.18878515625,0.0016533676534891129,-0.00007377099245786667,0.0012302605900913477
1761380408439867100,4.1988671875,-0.0001770230010151863,-0.0033702319487929344,0.0002635330893099308
1761380408449950000,4.208949951171875,-0.0015399260446429253,0.00024070683866739273,0.000808516051620245
1761380408460032000,4.219031982421875,0.000036133453249931335,0.0015445901080965996,0.0012857546098530293
1761380408470114000,4.229114013671875,-6.612390279769897e-8,-0.0013862624764442444,-0.0017779666231945157
1761380408480196900,4.23919677734375,-0.0012669321149587631,0.00004358869045972824,-0.00010869721882045269
1761380408490279000,4.24927880859375,0.0005675302818417549,0.0016670078039169312,0.001006340142339468
1761380408500361000,4.25936083984375,-0.002104152925312519,0.0026718187145888805,-0.0011721255723387003
1761380408510444000,4.269444091796875,-0.0011514704674482346,-0.0018228227272629738,-0.00004546879790723324
1761380408520525800,4.27952587890625,-0.0004848809912800789,0.0006448626518249512,-0.001020452007651329
1761380408530607900,4.28960791015625,-0.00106071587651968,-0.00009026285260915756,-0.0015664983075112104
1761380408540691000,4.29969091796875,-0.0010687056928873062,0.0012458446435630322,-0.0005196096608415246
1761380408550773000,4.30977294921875,-0.0010476913303136826,0.00028689857572317123,0.0015426680911332369
1761380408560854800,4.319854736328125,0.0008466150611639023,-0.0009488081559538841,0.00024570850655436516
1761380408570938000,4.329938232421875,0.0013936851173639297,-0.0019357604905962944,-0.0017046809662133455
1761380408581020000,4.34002001953125,-0.0006729280576109886,0.0010581649839878082,-0.004007250070571899
1761380408591102000,4.35010205078125,-0.0001485440880060196,-0.002362828701734543,0.0011308363173156977
1761380408601185000,4.36018505859375,-0.0015746671706438065,-0.001010475680232048,0.0007140515372157097
1761380408611267000,4.37026708984375,-0.0018010903149843216,0.0004883185029029846,0.0004161675460636616
1761380408621349000,4.38034912109375,0.0002394234761595726,0.0008526383899152279,0.00026143784634768963
1761380408631432000,4.390431884765625,0.0007107406854629517,0.0002385694533586502,-0.0028730735648423433
1761380408641514000,4.400513916015625,-0.0014541428536176682,-0.00019552558660507202,0.001034316373988986
1761380408651596000,4.410595947265625,0.0016216607764363289,-0.0005338666960597038,0.0022792769595980644
1761380408661679000,4.42067919921875,0.0013231206685304642,-0.00022866856306791306,0.0006832447834312916
1761380408671761200,4.43076123046875,-0.0006915926933288574,0.0006446810439229012,-0.000398365780711174
1761380408681843000,4.440843017578125,-0.00035816431045532227,-0.0011023525148630142,-0.00043272064067423344
1761380408691926000,4.450926025390625,0.0012397067621350288,-0.0015715891495347023,0.000926159555092454
1761380408702008000,4.461008056640625,-0.0004242360591888428,0.001592512708157301,0.0007839465979486704
1761380408712090000,4.471090087890625,-0.0001398976892232895,-0.00026911962777376175,-0.0008499616524204612
1761380408722173000,4.4811728515625,-0.000878659076988697,-0.0012145424261689186,0.0007029275875538588
1761380408732255000,4.4912548828125,0.00046050455421209335,-0.0012765629217028618,0.0010256371460855007
1761380408742337000,4.5013369140625,0.00003253389149904251,-0.0013308916240930557,0.00023441179655492306
1761380408752419800,4.511419921875,-0.00010839011520147324,-0.0007141493260860443,-0.000012653181329369545
1761380408762502000,4.521501953125,0.0013409024104475975,0.0018366258591413498,-0.0012475608382374048
1761380408772584000,4.531583984375,0.0007793419063091278,-0.0008719451725482941,-0.0018720286898314953
1761380408782667000,4.5416669921875,-0.0008387947455048561,0.0007685618475079536,-0.001109299249947071
1761380408792749000,4.5517490234375,-0.002227938733994961,0.0005731657147407532,-0.0009321982506662607
1761380408802830800,4.561830810546875,0.0031748153269290924,-0.00003882870078086853,-0.0014011809835210443
1761380408812914000,4.571913818359375,-0.00023749005049467087,0.000059157609939575195,0.0022224385756999254
1761380408822996000,4.581995849609375,-0.0012593446299433708,0.0029811779968440533,0.00045782793313264847
1761380408833078000,4.592078125,0.0011596567928791046,-0.0007887119427323341,-0.0002804605755954981
1761380408843161000,4.6021611328125,-0.0021812785416841507,-0.00031759869307279587,0.000894526019692421
1761380408853243000,4.612242919921875,-0.0012122299522161484,0.0011483323760330677,-0.0018969530938193202
1761380408863325000,4.622324951171875,-0.0017627058550715446,-0.0020756907761096954,0.00036460324190557003
1761380408873408000,4.632407958984375,0.00011273659765720367,-0.00025818590074777603,0.002376832067966461
1761380408883490000,4.642489990234375,-0.000782085582613945,0.0013045566156506538,-0.00039711641147732735
1761380408893572000,4.652572021484375,-0.00004037562757730484,-0.0004593776538968086,-0.001989519689232111
1761380408903655200,4.6626552734375,0.0002155536785721779,-0.00278485007584095,0.0015383700374513865
1761380408913737000,4.672737060546875,-0.00002288818359375,-0.0016642911359667778,0.000865924172103405
1761380408923819000,4.682819091796875,-0.0018610013648867607,-0.0009737331420183182,-0.0005609976360574365
1761380408933902000,4.692902099609375,0.0009490940719842911,-0.0007280446588993073,0.0009260121732950211
1761380408943984000,4.702984130859375,0.0006335088983178139,-0.0010617384687066078,-0.0005294053116813302
1761380408954066000,4.71306591796875,0.0005403291434049606,-0.0008244551718235016,-0.001520312624052167
1761380408964149000,4.72314892578125,-0.0026088589802384377,-0.0015826569870114326,0.002143132034689188
1761380408974231000,4.73323095703125,0.0003221072256565094,0.000700642354786396,-0.0017403486417606473
1761380408984317200,4.743317138671875,-0.0019860537722706795,0.0010553756728768349,-0.0002891921903938055
1761380408994400300,4.753400146484375,-0.001101645641028881,0.0033086570911109447,-0.0008452812908217311
1761380409004482300,4.763482421875,0.00026934966444969177,-0.0005955370143055916,0.00010573351755738258
1761380409014564400,4.773564453125,0.0009973365813493729,0.0021180235780775547,-0.00019438611343502998
1761380409024647200,4.783647216796875,0.0007472662255167961,0.0024682292714715004,-0.0020543376449495554
1761380409034729200,4.793729248046875,-0.0010246215388178825,-0.00015561189502477646,0.002605776535347104
1761380409044811300,4.803811279296875,0.0010814061388373375,0.0013711783103644848,-0.0015932295937091112
1761380409054894300,4.813894287109375,0.000034487806260585785,-0.00005259644240140915,-0.0011462216498330235
1761380409064976100,4.82397607421875,-0.00005739182233810425,-0.0012411652132868767,-0.003447725437581539
1761380409075059200,4.83405908203125,0.0014325780794024467,-0.000327063724398613,0.0009594699367880821
1761380409085141200,4.844141357421875,0.0002959407866001129,-0.002572108991444111,0.0005488106980919838
1761380409095223300,4.854223388671875,0.0016082515940070152,0.00027856137603521347,-0.00024280790239572525
1761380409105306000,4.86430615234375,-0.0008628955110907555,-0.0004884293302893639,-0.0007911527063697577
1761380409115388200,4.87438818359375,-0.0008838968351483345,0.004277694970369339,-0.0004695071838796139
1761380409125470200,4.88447021484375,-0.0020620785653591156,-0.0006544794887304306,0.00009295251220464706
1761380409135553300,4.89455322265625,0.0003321869298815727,-0.0006259437650442123,-0.0003836674150079489
1761380409145635000,4.904635009765625,-0.0015248358249664307,0.0007884614169597626,-0.0003730147145688534
1761380409155717000,4.914717041015625,0.0015318412333726883,-0.0015214597806334496,0.0012790488544851542
1761380409165800400,4.924800537109375,0.002321203239262104,-0.001903090626001358,-0.001065065385773778
1761380409175882200,4.93488232421875,0.0017215060070157051,-0.00018233619630336761,-0.001089041237719357
1761380409185964300,4.94496435546875,-0.0023792292922735214,-0.00035277847200632095,0.0027064960449934006
1761380409196047400,4.95504736328125,0.0003418661653995514,-0.0010893875733017921,-0.0011622983729466796
1761380409206129400,4.96512939453125,0.0008851503953337669,-0.00028697680681943893,0.001180750783532858
1761380409216211200,4.975211181640625,0.0003723474219441414,-0.0009269909933209419,-0.0025178834330290556
1761380409226294300,4.985294189453125,0.0006799427792429924,0.0017398986965417862,-0.0009894953109323978
1761380409236376300,4.995376220703125,0.0007501449435949326,-0.0033392105251550674,-0.0010521175572648644
1761380409246458400,5.005458251953125,-0.00008102785795927048,0.001637705136090517,0.0003702768590301275
1761380409256541200,5.015541259765625,0.00011449120938777924,-0.0009551607072353363,-0.00012700026854872704
1761380409266623200,5.025623291015625,-0.0003329198807477951,0.0017205174081027508,0.002136952942237258
1761380409276705300,5.035705322265625,0.0008752886205911636,-0.0014502182602882385,-0.0029901880770921707
1761380409286788400,5.045788330078125,0.0014055240899324417,0.001150358933955431,-0.0018612740095704794
1761380409296870100,5.0558701171875,-0.002951335161924362,0.0011319443583488464,-0.0005543947918340564
1761380409306952200,5.0659521484375,-0.0006490321829915047,-0.0008087009191513062,0.0006677298806607723
1761380409317035300,5.07603515625,-0.0007292153313755989,-0.0016399463638663292,0.0022627110593020916
1761380409327117300,5.086117431640625,-0.0013313563540577888,0.0001624803990125656,0.0019242237322032452
1761380409337199000,5.09619921875,-0.00012520980089902878,0.00037515629082918167,0.0012852409854531288
1761380409347282200,5.1062822265625,-0.0012195026502013206,0.0006867460906505585,0.0009843036532402039
1761380409357364200,5.1163642578125,0.0018213288858532906,-0.00034558214247226715,0.00030047609470784664
1761380409367446300,5.1264462890625,-0.000697488896548748,0.0013005174696445465,0.0009377705864608288
1761380409377529000,5.136529052734375,-0.0004491237923502922,0.0003852555528283119,0.0008437354117631912
1761380409387611100,5.146611083984375,0.0010773995891213417,0.0016220277175307274,-0.0010788006475195289
1761380409397693200,5.156693115234375,-0.0010681161656975746,-0.002012510783970356,-0.0014445038978010416
1761380409407776300,5.1667763671875,-0.00026890169829130173,0.0016440092585980892,-0.001252489979378879
1761380409417858000,5.176858154296875,-0.001055295579135418,0.0005547711625695229,-0.0005998453125357628
1761380409427940000,5.186940185546875,0.00028347503393888474,-0.0017430037260055542,0.0021117853466421366
1761380409438023400,5.1970234375,-0.0018288586288690567,0.002183834556490183,-0.0009010479552671313
1761380409448105200,5.207105224609375,0.0027022426947951317,0.0006250869482755661,-0.00007653329521417618
1761380409458187300,5.217187255859375,-0.0008128657937049866,0.0015276684425771236,0.0016029293183237314
1761380409468270300,5.227270263671875,0.0024793334305286407,-0.0010827621445059776,-0.002885296009480953
1761380409478352400,5.237352294921875,0.0014338018372654915,0.002212798222899437,0.0006113848648965359
1761380409488434400,5.247434326171875,-0.0004173610359430313,-0.0010583624243736267,-0.0025769516360014677
1761380409498517200,5.257517333984375,-0.001480787992477417,0.00011994410306215286,0.001523040933534503
1761380409508599300,5.267599365234375,-0.0008618691936135292,-0.0006880592554807663,0.0009307537693530321
1761380409518681300,5.277681396484375,-0.0006995610892772675,-0.00014640018343925476,0.001010640524327755
1761380409528764200,5.28776416015625,0.0008623823523521423,-0.0023602861911058426,-0.001264764228835702
1761380409538846200,5.29784619140625,0.001540064811706543,0.0006614867597818375,0.0015776357613503933
1761380409548928300,5.30792822265625,-0.00136597640812397,-0.0021249791607260704,-0.000006944872438907623
1761380409559011300,5.31801123046875,-0.0011892123147845268,0.0011212858371436596,-0.001706854673102498
1761380409569093000,5.328093017578125,-0.0019279727712273598,0.003083502873778343,0.0002252685371786356
1761380409579175200,5.338175048828125,-0.00012901704758405685,0.0029129390604794025,0.00038900249637663364
1761380409589258200,5.34825830078125,-0.002938385121524334,-0.0010612960904836655,-0.0017953221686184406
1761380409599340300,5.35834033203125,0.0010212166234850883,0.0018550078384578228,0.0017305489163845778
1761380409609422000,5.368422119140625,0.000868883915245533,-0.0015312014147639275,-0.0008657668950036168
1761380409619505200,5.378505126953125,0.0011155037209391594,0.0005615483969449997,0.0013039913028478622
1761380409629587200,5.388587158203125,0.000691528432071209,0.002134677954018116,0.00019185524433851242
1761380409639669200,5.398669189453125,0.0009934836998581886,0.0019458727911114693,-0.0028465287759900093
1761380409649752000,5.408751953125,0.0018744571134448051,-0.0007481807842850685,0.00010398728772997856
1761380409659834000,5.418834228515625,-0.0004695020616054535,0.0005346694961190224,0.003636766690760851
1761380409669916200,5.428916259765625,0.000079374760389328,-0.0018131732940673828,0.0021603102795779705
1761380409679999200,5.438999267578125,-0.0005909595638513565,0.0012539410963654518,-0.0012115114368498325
1761380409690081300,5.449081298828125,0.0006980104371905327,-0.0015306603163480759,0.0015014507807791233
1761380409700163000,5.4591630859375,-0.00024432968348264694,-0.0003523826599121094,0.002725763013586402
1761380409710246400,5.469246337890625,-0.0004131738096475601,0.0004606805741786957,0.000978995580226183
1761380409720328400,5.479328369140625,0.0009397538378834724,0.0018019713461399078,-0.0001536684576421976
1761380409730410200,5.48941015625,-0.000874924473464489,-0.0014875652268528938,0.002207223791629076
1761380409740493300,5.499493408203125,0.00024146214127540588,0.0017225942574441433,0.000984863843768835
1761380409750575400,5.509575439453125,0.0007527889683842659,-0.0007461560890078545,-0.003051955718547106
1761380409760657400,5.519657470703125,0.0017454028129577637,0.000020011328160762787,0.00037502101622521877
1761380409770740200,5.529740234375,0.0008601685985922813,-0.0022886833176016808,-0.0015512433601543307
1761380409780822300,5.539822265625,-0.000016782432794570923,-0.0011019865050911903,0.001096611376851797
1761380409790904300,5.549904296875,-0.0005629975348711014,-0.0003174189478158951,0.0020223259925842285
1761380409800987100,5.559987060546875,0.0020297765731811523,0.000018085353076457977,-0.003205068176612258
1761380409811069200,5.570069091796875,-0.00032632239162921906,0.0015225047245621681,-0.0010790666565299034
1761380409821151200,5.580151123046875,0.0006283540278673172,-0.0013865884393453598,-0.0015745952259749174
1761380409831234300,5.590234375,-0.0027583884075284004,0.00033993925899267197,0.00038043130189180374
1761380409841316000,5.600316162109375,0.0019824160262942314,0.002007273491472006,-0.0007059534545987844
1761380409851398100,5.610398193359375,0.001799190416932106,-0.0012609576806426048,0.0019183254335075617
1761380409861481200,5.620481201171875,-0.0004045190289616585,-0.0013717357069253922,0.0011196248233318329
1761380409871563300,5.630563232421875,0.00017818063497543335,0.0004799598827958107,-0.0009166280506178737
1761380409881645300,5.640645263671875,-0.0016256673261523247,-0.0005534375086426735,-0.00011423486284911633
1761380409891728100,5.65072802734375,-0.0000802353024482727,-0.00016008876264095306,-0.0016372966347262263
1761380409901810200,5.66081005859375,-0.0014185989275574684,0.001946854405105114,0.0016288990154862404
1761380409911892200,5.670892333984375,0.00044454820454120636,-0.00015890691429376602,-0.0004885803209617734
1761380409921975000,5.68097509765625,0.0002437615767121315,-0.0005322303622961044,-0.0007339050062000751
1761380409932057000,5.69105712890625,-0.00037276092916727066,-0.0009719179943203926,-0.0017576240934431553
1761380409942139100,5.70113916015625,0.0005238335579633713,-0.0008856449276208878,-0.002688597422093153
1761380409952222500,5.711222412109375,-0.0000684540718793869,0.00023874174803495407,0.0003591240383684635
1761380409962304300,5.72130419921875,0.001497015357017517,-0.00017106160521507263,0.0011802525259554386
1761380409972386300,5.73138623046875,-0.0006654718890786171,0.0033224732615053654,-0.00020938506349921227
1761380409982465500,5.741465576171875,-0.000596669502556324,-0.00202336348593235,0.00013525458052754402
1761380409992547600,5.751547607421875,-0.0010818969458341599,-0.00047473516315221786,-0.0028168593998998404
1761380410002629600,5.761629638671875,0.0005950713530182838,-0.00041956547647714615,-0.001371570397168398
1761380410012712400,5.77171240234375,0.0007093204185366631,0.0015048342756927013,-0.00021416065283119678
1761380410022794500,5.78179443359375,0.0004862966015934944,0.0018229950219392776,-0.0015891124494373798
1761380410032876500,5.79187646484375,-0.0006620585918426514,-0.0013096807524561882,-0.00009960634633898735
1761380410042959400,5.80195947265625,0.0003843149170279503,-0.0013451576232910156,0.003936245106160641
1761380410053041400,5.81204150390625,0.00036247726529836655,0.0007480867207050323,0.00022433162666857243
1761380410063123500,5.82212353515625,0.0008422369137406349,-0.002445679157972336,-0.0008805133402347565
1761380410073206500,5.83220654296875,0.0010145427659153938,-0.0020709726959466934,-0.00046772335190325975
1761380410083288300,5.842288330078125,-0.00008145440369844437,-0.00035920552909374237,0.0002893295604735613
1761380410093370400,5.852370361328125,0.0009369384497404099,-0.000040957704186439514,-0.001645456999540329
1761380410103453400,5.862453369140625,0.0005481811240315437,0.00011710356920957565,0.0019635427743196487
1761380410113535500,5.872535400390625,-0.0006883246824145317,-0.0012301895767450333,-0.00015633320435881615
1761380410123617500,5.882617431640625,0.0018796417862176895,0.00016684643924236298,-0.0013842666521668434
1761380410133700600,5.89270068359375,0.002089499495923519,0.002307495102286339,-0.001091585261747241
1761380410143782400,5.902782470703125,0.00087745301425457,-0.00007965788245201111,0.0022881892509758472
1761380410153864400,5.912864501953125,0.0009397715330123901,0.0010511204600334167,0.0004881585482507944
1761380410163947500,5.922947509765625,0.0005658511072397232,0.0026046293787658215,0.0001915344037115574
1761380410174029600,5.933029541015625,-0.0008054105564951897,-0.000500882975757122,0.001082894392311573
1761380410184111600,5.943111572265625,-0.0017065433785319328,0.00013840943574905396,-0.0009598350152373314
1761380410194194400,5.9531943359375,-0.00199043657630682,0.0018865084275603294,0.00033472757786512375
1761380410204276500,5.9632763671875,-0.0012190695852041245,-0.00014382041990756989,0.0010851952247321606
1761380410214359600,5.973359619140625,-0.00015273969620466232,-0.0010732635855674744,-0.0007995240157470107
1761380410224441600,5.983441650390625,-0.0030095838010311127,0.0028997929766774178,-0.0004241911228746176
1761380410234523600,5.993523681640625,0.000833624042570591,0.0010888436809182167,0.0011049958411604166
1761380410244605400,6.00360546875,0.0017025871202349663,0.001032295636832714,-0.002813101513311267
1761380410254688500,6.0136884765625,0.00010495632886886597,0.0006575891748070717,-0.0015270611038431525
1761380410264770600,6.0237705078125,-0.0007993476465344429,0.0030165696516633034,-0.00579230347648263
1761380410274853400,6.033853271484375,0.00318926852196455,0.002293254714459181,0.004234763793647289
1761380410284935400,6.043935302734375,-0.0019580693915486336,-0.0007919995114207268,-0.0016745245084166527
1761380410295017500,6.054017578125,-0.00015990342944860458,-0.0002865307033061981,-0.0006444138707593083
1761380410305100500,6.0641005859375,0.0005656657740473747,-0.0001294584944844246,-0.0017536666709929705
1761380410315182300,6.074182373046875,-0.0009257039055228233,-0.0007060328498482704,-0.0010897406609728932
1761380410325264400,6.084264404296875,-0.0027549713850021362,0.0018278886564075947,0.0010865102522075176
1761380410335347500,6.094347412109375,-0.00014107860624790192,0.0015610395930707455,-0.0007382876938208938
1761380410345429500,6.104429443359375,0.0008407356217503548,0.0004855329170823097,0.0001347742509096861
1761380410355511600,6.114511474609375,0.000034596771001815796,-0.0008870605379343033,-0.0019025439396500587
1761380410365594400,6.124594482421875,0.0009070532396435738,-0.00021557416766881943,0.0016117687337100506
1761380410375676400,6.134676513671875,-0.002841079607605934,0.0006273165345191956,0.0007475728634744883
1761380410385758500,6.144758544921875,0.0007599201053380966,0.0012489617802202702,-0.0012501151068136096
1761380410395841500,6.154841552734375,0.0008685775101184845,-0.0011103330180048943,0.001996278064325452
1761380410405923600,6.164923583984375,0.0002893758937716484,0.0024453322403132915,0.0006769730243831873
1761380410416005600,6.175005615234375,-0.00029678549617528915,0.0002903025597333908,-0.00036379043012857437
1761380410426088400,6.18508837890625,-0.0016538193449378014,0.000048113055527210236,0.0006775532383471727
1761380410436170500,6.19517041015625,0.0011672675609588623,0.0006888695061206818,-0.00039303756784647703
1761380410446252500,6.20525244140625,-0.001175285317003727,0.00019933097064495087,-0.00042511627543717623
1761380410456335600,6.215335693359375,-0.0005137566477060318,-0.0009426325559616089,0.0003884793259203434
1761380410466417700,6.225417724609375,-0.00008403882384300232,-0.0018110722303390503,0.0006835665553808212
1761380410476499500,6.23549951171875,0.0007966682314872742,0.0016603576950728893,0.0007027413230389357
1761380410486582500,6.24558251953125,0.002965454012155533,0.00009211990982294083,-0.002472425578162074
1761380410496664600,6.25566455078125,0.0006165448576211929,0.0016023986972868443,-0.0004292484372854233
1761380410506746600,6.26574658203125,0.0017213402315974236,-0.0004921257495880127,-0.00012751948088407516
1761380410516829400,6.275829345703125,0.0009452942758798599,0.0016783508472144604,-0.0012439165730029345
1761380410526911500,6.285911376953125,0.0009881453588604927,0.0013388735242187977,-0.0038604880683124065
1761380410536993500,6.29599365234375,-0.00027286168187856674,0.0005290061235427856,-0.0002883903216570616
1761380410547076400,6.306076416015625,-0.0021253349259495735,0.0015603583306074142,-0.00004425225779414177
1761380410557158400,6.316158447265625,-0.0006020069122314453,0.0020322706550359726,0.0008005024865269661
1761380410567240400,6.326240478515625,0.0021098311990499496,-0.0014509903267025948,-0.0016818244475871325
1761380410577323500,6.336323486328125,0.002665100619196892,-0.000027264468371868134,-0.00011135847307741642
1761380410587405600,6.346405517578125,-0.0009768474847078323,-0.0023437412455677986,0.00031251832842826843
1761380410597487400,6.3564873046875,-0.002959570847451687,0.0021021398715674877,-0.0023892587050795555
1761380410607570400,6.3665703125,-0.004026417620480061,0.0014461181126534939,0.000575630459934473
1761380410617652500,6.376652587890625,0.00038777198642492294,0.0005917754024267197,-0.0018044364405795932
1761380410627734500,6.386734619140625,-0.0003723548725247383,-0.0004658671095967293,-0.0029696919955313206
1761380410637817300,6.3968173828125,0.0009309966117143631,-0.0004080766811966896,-0.0008548757759854198
1761380410647899400,6.4068994140625,-0.0008895508944988251,-0.0017515476793050766,-0.002191773150116205
1761380410657981400,6.4169814453125,0.0009538885205984116,0.002026944886893034,0.0005350373685359955
1761380410668064500,6.427064453125,-0.0008903779089450836,-0.0004188651219010353,-0.002769672777503729
1761380410678146600,6.437146484375,-0.002730090171098709,0.0021920977160334587,-0.0011906845029443502
1761380410688228600,6.447228515625,-0.0010534310713410378,0.0012904200702905655,-0.000722082331776619
1761380410698311700,6.457311767578125,-0.0012078937143087387,0.0020960262045264244,0.000351704191416502
1761380410708393500,6.4673935546875,-0.0000615287572145462,-0.001348266378045082,-0.0004293374950066209
1761380410718475500,6.4774755859375,0.0005067894235253334,0.0004791943356394768,0.0000031597446650266647
1761380410728558600,6.48755859375,-0.00031367409974336624,-0.003111746162176132,-0.0019206523429602385
1761380410738640600,6.497640625,-0.0014686863869428635,0.0003652777522802353,-0.002196023240685463
1761380410748722400,6.507722412109375,0.0015618903562426567,0.000025404617190361023,-0.001020396826788783
1761380410758805500,6.517805419921875,0.0010761292651295662,0.0004160897806286812,-0.00021745380945503712
1761380410768887600,6.527887451171875,0.00029795803129673004,-0.000004139728844165802,0.0006586490198969841
1761380410778970400,6.537970458984375,-0.0018794424831867218,-0.003195672295987606,-0.0006942367181181908
1761380410789052400,6.548052490234375,0.0017172815278172493,0.001329757273197174,0.0009884943719953299
1761380410799134500,6.558134521484375,0.0005225874483585358,-0.0012894617393612862,0.00040899054147303104
1761380410809217500,6.568217529296875,-0.0006496654823422432,0.015074322931468487,0.0067621031776070595
1761380410819299600,6.578299560546875,0.0011951066553592682,0.05031859874725342,0.03357933461666107
1761380410829381400,6.58838134765625,0.00003221537917852402,0.04685376212000847,0.031851816922426224
1761380410839464400,6.59846435546875,0.002787788398563862,0.03562454506754875,0.022993076592683792
1761380410849546500,6.60854638671875,0.0009733298793435097,0.042208991944789886,0.026016559451818466
1761380410859628500,6.618628662109375,0.0015752045437693596,0.033183541148900986,0.02068837359547615
1761380410869711400,6.62871142578125,-0.0008725160732865334,-0.007159068249166012,-0.0028556883335113525
1761380410879793400,6.63879345703125,0.001059340313076973,-0.0771232396364212,-0.049443695694208145
1761380410889875500,6.64887548828125,-0.0012012822553515434,-0.11861997097730637,-0.08065921813249588
1761380410899958500,6.65895849609375,-0.0013940958306193352,-0.055601052939891815,-0.03559906408190727
1761380410910040300,6.669040283203125,0.0034859860315918922,0.047497496008872986,0.02832552045583725
