time,seconds_elapsed,z,y,x
1761380606735495700,0.06849560546875,-0.620697021484375,-1.3197784423828125,0.3207550048828125
1761380606745552000,0.0785517578125,-0.6549835205078125,-1.338226318359375,0.3160552978515625
1761380606755607800,0.08860791015625,-0.7336578369140625,-1.3254852294921875,0.299346923828125
1761380606765663000,0.0986630859375,-0.7856903076171875,-1.28729248046875,0.251800537109375
1761380606775719000,0.108718994140625,-0.7701873779296875,-1.29132080078125,0.2010345458984375
1761380606785774800,0.11877490234375,-0.7769622802734375,-1.31280517578125,0.2132415771484375
1761380606795831000,0.1288310546875,-0.7753753662109375,-1.3463592529296875,0.2751922607421875
1761380606805886000,0.138885986328125,-0.7731781005859375,-1.3556365966796875,0.29150390625
1761380606815942000,0.14894189453125,-0.792449951171875,-1.330047607421875,0.263092041015625
1761380606825997800,0.158997802734375,-0.7684326171875,-1.3339385986328125,0.23974609375
1761380606836053800,0.1690537109375,-0.720947265625,-1.355560302734375,0.188934326171875
1761380606846110000,0.17910986328125,-0.5980377197265625,-1.31304931640625,0.1244354248046875
1761380606856164900,0.189164794921875,-0.4606475830078125,-1.2468719482421875,0.04913330078125
1761380606866221000,0.199220947265625,-0.34161376953125,-1.1951141357421875,-0.0120086669921875
1761380606876277000,0.209277099609375,-0.232574462890625,-1.15179443359375,-0.0646514892578125
1761380606886333000,0.2193330078125,-0.118804931640625,-1.1092071533203125,-0.1231689453125
1761380606896389000,0.22938916015625,-0.082427978515625,-1.016448974609375,-0.1856536865234375
1761380606906443800,0.23944384765625,-0.1295928955078125,-0.9198150634765625,-0.2403717041015625
1761380606916500000,0.2495,-0.2303466796875,-0.871917724609375,-0.291839599609375
1761380606926556000,0.259555908203125,-0.377777099609375,-0.7964935302734375,-0.3319549560546875
1761380606936611800,0.26961181640625,-0.4346771240234375,-0.6915740966796875,-0.3350830078125
1761380606946668000,0.27966796875,-0.4229736328125,-0.6209869384765625,-0.29449462890625
1761380606956723000,0.289722900390625,-0.3969573974609375,-0.5827178955078125,-0.2430877685546875
1761380606966779000,0.29977880859375,-0.3674163818359375,-0.547454833984375,-0.197174072265625
1761380606976835000,0.3098349609375,-0.2987823486328125,-0.48248291015625,-0.185302734375
1761380606986890800,0.319890869140625,-0.235198974609375,-0.3921966552734375,-0.2027435302734375
1761380606996946000,0.32994580078125,-0.18231201171875,-0.368988037109375,-0.221160888671875
1761380607007001900,0.340001953125,-0.25830078125,-0.33221435546875,-0.224212646484375
1761380607017057800,0.350057861328125,-0.423492431640625,-0.2746124267578125,-0.2272186279296875
1761380607027114000,0.360114013671875,-0.548675537109375,-0.256805419921875,-0.2290802001953125
1761380607037170000,0.370169921875,-0.5916595458984375,-0.2736358642578125,-0.2442626953125
1761380607047225000,0.38022509765625,-0.535003662109375,-0.3520660400390625,-0.30963134765625
1761380607057281000,0.390281005859375,-0.3303070068359375,-0.4498291015625,-0.4087371826171875
1761380607067336700,0.400336669921875,-0.22943115234375,-0.5783233642578125,-0.50054931640625
1761380607077393000,0.410392822265625,-0.279815673828125,-0.8004608154296875,-0.5510101318359375
1761380607087448800,0.42044873046875,-0.42803955078125,-1.1150054931640625,-0.53155517578125
1761380607097504000,0.43050390625,-0.6636505126953125,-1.425506591796875,-0.48150634765625
1761380607107560000,0.440559814453125,-1.047271728515625,-1.6642913818359375,-0.4545440673828125
1761380607117615900,0.450615966796875,-1.38702392578125,-1.67706298828125,-0.43817138671875
1761380607127672000,0.460672119140625,-1.5231170654296875,-1.40643310546875,-0.3823089599609375
1761380607137728000,0.47072802734375,-1.5375518798828125,-1.232940673828125,-0.285736083984375
1761380607147783000,0.480782958984375,-1.5482177734375,-1.24078369140625,-0.180389404296875
1761380607157838800,0.4908388671875,-1.590240478515625,-1.2838897705078125,-0.0659637451171875
1761380607167894800,0.500894775390625,-1.4706878662109375,-1.311920166015625,0.05859375
1761380607177951000,0.510950927734375,-1.2844085693359375,-1.2980804443359375,0.122894287109375
1761380607188006000,0.521005859375,-1.1330718994140625,-1.26904296875,0.13250732421875
1761380607198061800,0.531061767578125,-0.9499664306640625,-1.219879150390625,0.161651611328125
1761380607208118000,0.541117919921875,-0.785980224609375,-1.1197509765625,0.210357666015625
1761380607218174000,0.551174072265625,-0.6315460205078125,-1.035614013671875,0.2662811279296875
1761380607228230000,0.56122998046875,-0.4940643310546875,-0.9845428466796875,0.3190460205078125
1761380607238284800,0.571284912109375,-0.3920440673828125,-0.9882965087890625,0.358428955078125
1761380607248340700,0.5813408203125,-0.3753814697265625,-0.986419677734375,0.3681640625
1761380607258397000,0.59139697265625,-0.2897491455078125,-0.8630523681640625,0.30511474609375
1761380607268452900,0.601452880859375,-0.147796630859375,-0.634796142578125,0.1889801025390625
1761380607278508800,0.6115087890625,-0.0086822509765625,-0.4210662841796875,0.09613037109375
1761380607288564000,0.62156396484375,0.064910888671875,-0.34466552734375,0.009063720703125
1761380607298620000,0.631619873046875,0.1808624267578125,-0.339813232421875,0.0141754150390625
1761380607308676000,0.641676025390625,0.1410064697265625,-0.303924560546875,-0.00341796875
1761380607318732000,0.65173193359375,0.1934967041015625,-0.204986572265625,0.02587890625
1761380607328787700,0.66178759765625,0.1876373291015625,-0.1287841796875,0.087249755859375
1761380607338843000,0.6718427734375,0.0848541259765625,-0.082305908203125,0.1446075439453125
1761380607348898800,0.68189892578125,-0.0344085693359375,-0.009307861328125,0.206787109375
1761380607358955000,0.691955078125,-0.1164703369140625,0.013671875,0.283172607421875
1761380607369011000,0.702010986328125,-0.160308837890625,-0.0234832763671875,0.3843841552734375
1761380607379066000,0.712066162109375,-0.179840087890625,-0.049072265625,0.4949493408203125
1761380607389122000,0.7221220703125,-0.169952392578125,-0.0586395263671875,0.5842132568359375
1761380607399178000,0.732177978515625,-0.2039794921875,-0.0481719970703125,0.6343841552734375
1761380607409234000,0.74223388671875,-0.229736328125,-0.082611083984375,0.657073974609375
1761380607419289900,0.752289794921875,-0.3546600341796875,-0.1235809326171875,0.6475067138671875
1761380607429344800,0.7623447265625,-0.47662353515625,-0.252655029296875,0.57513427734375
1761380607439401000,0.77240087890625,-0.5531463623046875,-0.4053802490234375,0.4935455322265625
1761380607449457000,0.782456787109375,-0.6214599609375,-0.5521697998046875,0.4283294677734375
1761380607459512800,0.792512939453125,-0.6082305908203125,-0.829376220703125,0.3841400146484375
1761380607469568800,0.80256884765625,-0.6729736328125,-1.1776580810546875,0.341339111328125
1761380607479623700,0.812623779296875,-0.964874267578125,-1.6424713134765625,0.313446044921875
1761380607489680000,0.822679931640625,-1.1455841064453125,-2.037689208984375,0.3154144287109375
1761380607499735800,0.83273583984375,-1.3252716064453125,-2.027679443359375,0.2243499755859375
1761380607509791700,0.842791748046875,-1.6374664306640625,-1.74981689453125,0.043548583984375
1761380607519848000,0.852847900390625,-1.9958648681640625,-1.48162841796875,-0.0197906494140625
1761380607529902600,0.862902587890625,-2.1979217529296875,-1.32159423828125,0.121307373046875
1761380607539958800,0.872958740234375,-2.178741455078125,-1.3145904541015625,0.303680419921875
1761380607550014700,0.8830146484375,-2.0564117431640625,-1.3424530029296875,0.4022064208984375
1761380607560070700,0.893070556640625,-1.815887451171875,-1.343353271484375,0.4121856689453125
1761380607570126800,0.903126953125,-1.6016845703125,-1.3096160888671875,0.3350982666015625
1761380607580181800,0.913181640625,-1.3692474365234375,-1.2689208984375,0.2034454345703125
1761380607590238000,0.923238037109375,-1.12347412109375,-1.2375335693359375,0.0373992919921875
1761380607600294000,0.9332939453125,-0.840728759765625,-1.1649322509765625,-0.13250732421875
1761380607610349800,0.943349853515625,-0.6630859375,-1.0604095458984375,-0.2552490234375
1761380607620404700,0.95340478515625,-0.5519256591796875,-0.9892578125,-0.2949371337890625
1761380607630460700,0.963460693359375,-0.4553985595703125,-0.9214630126953125,-0.270263671875
1761380607640516900,0.973516845703125,-0.3784332275390625,-0.8437347412109375,-0.240753173828125
1761380607650572800,0.98357275390625,-0.3017425537109375,-0.7497100830078125,-0.2233123779296875
1761380607660628700,0.993628662109375,-0.256256103515625,-0.6351776123046875,-0.217987060546875
1761380607670684000,1.003683837890625,-0.1709442138671875,-0.518890380859375,-0.2099761962890625
1761380607680739800,1.01373974609375,-0.103118896484375,-0.380645751953125,-0.210968017578125
1761380607690795800,1.023795654296875,-0.1457061767578125,-0.2715911865234375,-0.2237548828125
1761380607700851700,1.033851806640625,-0.19427490234375,-0.2364044189453125,-0.24542236328125
1761380607710907600,1.04390771484375,-0.25128173828125,-0.2029266357421875,-0.2872772216796875
1761380607720962800,1.053962890625,-0.2969818115234375,-0.1556243896484375,-0.3660125732421875
1761380607731018800,1.064018798828125,-0.328704833984375,-0.1299896240234375,-0.444915771484375
1761380607741074700,1.07407470703125,-0.2820892333984375,-0.137420654296875,-0.46990966796875
1761380607751131000,1.084130859375,-0.16351318359375,-0.161163330078125,-0.4613189697265625
1761380607761186800,1.094186767578125,-0.089385986328125,-0.18597412109375,-0.457733154296875
1761380607771242000,1.104241943359375,-0.1075439453125,-0.17559814453125,-0.465972900390625
1761380607781297700,1.114297607421875,-0.167236328125,-0.1802978515625,-0.4954376220703125
1761380607791353600,1.124353515625,-0.2542724609375,-0.18353271484375,-0.5307159423828125
1761380607801409800,1.134409912109375,-0.2866668701171875,-0.2193756103515625,-0.5604400634765625
1761380607811465700,1.1444658203125,-0.2951507568359375,-0.3028564453125,-0.5698394775390625
1761380607821521000,1.15452099609375,-0.3008880615234375,-0.4498138427734375,-0.5514373779296875
1761380607831576800,1.164576904296875,-0.3172760009765625,-0.6413726806640625,-0.53411865234375
1761380607841632800,1.1746328125,-0.3710479736328125,-0.80340576171875,-0.5990753173828125
1761380607851689000,1.18468896484375,-0.5251007080078125,-0.9367523193359375,-0.7189483642578125
1761380607861745000,1.194744873046875,-0.85174560546875,-1.14666748046875,-0.823883056640625
1761380607871799800,1.2047998046875,-1.2054290771484375,-1.4015045166015625,-0.834381103515625
1761380607881855700,1.214855712890625,-1.4174041748046875,-1.815521240234375,-0.7927093505859375
1761380607891911700,1.22491162109375,-1.601318359375,-2.18365478515625,-0.7447509765625
1761380607901968000,1.2349677734375,-1.893890380859375,-2.166229248046875,-0.754852294921875
1761380607912022800,1.245022705078125,-2.1187286376953125,-1.9059295654296875,-0.81121826171875
1761380607922078700,1.25507861328125,-2.183624267578125,-1.773284912109375,-0.8636322021484375
1761380607932135000,1.265135009765625,-2.03125,-1.5857696533203125,-0.757354736328125
1761380607942190800,1.27519091796875,-1.7778472900390625,-1.2993316650390625,-0.4578704833984375
1761380607952246800,1.285246826171875,-1.62408447265625,-1.2136383056640625,-0.069427490234375
1761380607962301700,1.2953017578125,-1.437255859375,-1.2106170654296875,0.3479461669921875
1761380607972357600,1.305357666015625,-1.114898681640625,-1.1811676025390625,0.7202606201171875
1761380607982413800,1.315413818359375,-0.7843170166015625,-1.121002197265625,0.957733154296875
1761380607992469800,1.3254697265625,-0.5116119384765625,-1.067047119140625,1.054534912109375
1761380608002525700,1.335525634765625,-0.278961181640625,-0.9528350830078125,1.0189056396484375
1761380608012580900,1.345580810546875,-0.05010986328125,-0.7951507568359375,0.87884521484375
1761380608022636800,1.35563671875,-0.080352783203125,-0.6714324951171875,0.696502685546875
1761380608032692700,1.365692626953125,-0.0919342041015625,-0.5458221435546875,0.53570556640625
1761380608042748700,1.375748779296875,-0.0459442138671875,-0.32806396484375,0.3790130615234375
1761380608052804600,1.3858046875,-0.04669189453125,-0.1463623046875,0.1834259033203125
1761380608062859800,1.39585986328125,-0.03875732421875,0.0073394775390625,0.0004730224609375
1761380608072915700,1.405915771484375,0.0797882080078125,0.1342010498046875,-0.1031341552734375
1761380608082972000,1.415971923828125,0.235076904296875,0.1514434814453125,-0.0847015380859375
1761380608093027800,1.42602783203125,0.2085418701171875,0.068359375,0.0695648193359375
1761380608103083800,1.436083740234375,0.16558837890625,-0.038177490234375,0.334625244140625
1761380608113138700,1.446138671875,0.0970916748046875,-0.132659912109375,0.591644287109375
1761380608123194600,1.456194580078125,-0.0633087158203125,-0.216766357421875,0.805419921875
1761380608133250800,1.466250732421875,-0.1407470703125,-0.26666259765625,0.9294891357421875
1761380608143306800,1.476306640625,-0.102752685546875,-0.2501983642578125,0.9338531494140625
1761380608153362700,1.48636279296875,-0.074920654296875,-0.3162841796875,0.9006500244140625
1761380608163417900,1.49641796875,-0.1211700439453125,-0.3903045654296875,0.905853271484375
1761380608173473800,1.506473876953125,-0.208038330078125,-0.494873046875,0.920806884765625
1761380608183529700,1.51652978515625,-0.3481597900390625,-0.695953369140625,0.933013916015625
1761380608193586000,1.5265859375,-0.5733184814453125,-0.912322998046875,0.954620361328125
1761380608203641900,1.536641845703125,-0.7266998291015625,-1.063751220703125,0.9774322509765625
1761380608213696800,1.54669677734375,-0.8203887939453125,-1.1258392333984375,1.0166015625
1761380608223752700,1.556752685546875,-0.944244384765625,-1.1791534423828125,1.005157470703125
1761380608233808600,1.56680859375,-1.1434478759765625,-1.3559722900390625,0.9889678955078125
1761380608243864800,1.57686474609375,-1.4091339111328125,-1.6012420654296875,0.9125518798828125
1761380608253919700,1.586919677734375,-1.7626495361328125,-1.8499603271484375,0.686676025390625
1761380608263976000,1.596975830078125,-1.8422698974609375,-1.94415283203125,0.5271148681640625
1761380608274031900,1.607031982421875,-1.4519805908203125,-1.7980194091796875,0.4510955810546875
1761380608284087800,1.617087890625,-1.48968505859375,-1.4719085693359375,0.2819061279296875
1761380608294143700,1.627143798828125,-1.70745849609375,-1.141845703125,0.0923919677734375
1761380608304198700,1.63719873046875,-1.8758697509765625,-0.955718994140625,-0.0311431884765625
1761380608314254800,1.6472548828125,-2.149200439453125,-0.889190673828125,-0.0847930908203125
1761380608324310800,1.657310791015625,-2.2169952392578125,-0.9569854736328125,-0.02874755859375
1761380608334366700,1.66736669921875,-1.9797821044921875,-1.02642822265625,0.08648681640625
1761380608344423000,1.6774228515625,-1.690032958984375,-1.0339508056640625,0.0610198974609375
1761380608354477800,1.687477783203125,-1.360870361328125,-0.938232421875,-0.039154052734375
1761380608364534000,1.697533935546875,-0.961639404296875,-0.8325653076171875,-0.0797882080078125
1761380608374589700,1.707589599609375,-0.61407470703125,-0.7711181640625,-0.1183929443359375
1761380608384645600,1.717645751953125,-0.4022216796875,-0.6906890869140625,-0.2053375244140625
1761380608394701800,1.727701904296875,-0.2471160888671875,-0.637939453125,-0.30328369140625
1761380608404756700,1.7377568359375,-0.096588134765625,-0.580841064453125,-0.38812255859375
1761380608414813000,1.74781298828125,-0.0390777587890625,-0.467376708984375,-0.4471435546875
1761380608424868900,1.757868896484375,-0.053985595703125,-0.3434600830078125,-0.469879150390625
1761380608434924800,1.7679248046875,-0.151275634765625,-0.234130859375,-0.4674835205078125
1761380608444980700,1.777980712890625,-0.1360931396484375,-0.2188873291015625,-0.4344635009765625
1761380608455035600,1.78803564453125,-0.0027618408203125,-0.2820281982421875,-0.3307342529296875
1761380608465091600,1.798091552734375,0.028076171875,-0.336334228515625,-0.213775634765625
1761380608475148300,1.808148193359375,-0.0103759765625,-0.34039306640625,-0.170166015625
1761380608485204200,1.818204345703125,-0.0400848388671875,-0.3310089111328125,-0.2714080810546875
1761380608495259100,1.828259033203125,-0.1480560302734375,-0.3082122802734375,-0.3701324462890625
1761380608505315000,1.838315185546875,-0.22381591796875,-0.27764892578125,-0.475799560546875
1761380608515371000,1.84837109375,-0.2322845458984375,-0.2876129150390625,-0.566497802734375
1761380608525427200,1.85842724609375,-0.25537109375,-0.3272247314453125,-0.586090087890625
1761380608535483100,1.868483154296875,-0.3444976806640625,-0.3666839599609375,-0.5592041015625
1761380608545538300,1.878538330078125,-0.4690093994140625,-0.439422607421875,-0.5061492919921875
1761380608555594200,1.88859423828125,-0.6467437744140625,-0.48199462890625,-0.4033660888671875
1761380608565650200,1.898650146484375,-0.7351837158203125,-0.5038299560546875,-0.321624755859375
1761380608575706000,1.9087060546875,-0.6454925537109375,-0.5339508056640625,-0.3281097412109375
1761380608585762000,1.918761962890625,-0.6214141845703125,-0.706817626953125,-0.4006195068359375
1761380608595817200,1.928817138671875,-0.78619384765625,-1.0521697998046875,-0.4197998046875
1761380608605873200,1.938873046875,-1.158599853515625,-1.4737548828125,-0.379150390625
1761380608615929000,1.94892919921875,-1.7262115478515625,-1.7484130859375,-0.319091796875
1761380608625985000,1.958985107421875,-2.1780242919921875,-1.460662841796875,-0.1766357421875
1761380608636041200,1.969041259765625,-2.24755859375,-1.1078643798828125,-0.0814208984375
1761380608646096100,1.97909619140625,-2.0140533447265625,-0.855224609375,-0.1823577880859375
1761380608656152000,1.989152099609375,-1.7872161865234375,-0.6595001220703125,-0.34173583984375
1761380608666208000,1.9992080078125,-1.5392303466796875,-0.6825408935546875,-0.364105224609375
1761380608676264000,2.009263916015625,-1.1838836669921875,-0.8764190673828125,-0.21246337890625
1761380608686319000,2.019319091796875,-0.8260955810546875,-1.0451812744140625,-0.029693603515625
1761380608696375000,2.029375,-0.4891815185546875,-1.1791534423828125,0.1356353759765625
1761380608706431200,2.03943115234375,-0.161773681640625,-1.2646636962890625,0.3128204345703125
1761380608716487200,2.049487060546875,-0.103759765625,-1.2410430908203125,0.4282684326171875
1761380608726543000,2.059543212890625,-0.33148193359375,-1.110931396484375,0.4687652587890625
1761380608736598000,2.069597900390625,-0.6008758544921875,-1.006103515625,0.49102783203125
1761380608746654000,2.079654052734375,-0.8553619384765625,-0.908843994140625,0.4757232666015625
1761380608756710100,2.089710205078125,-0.9483489990234375,-0.8385467529296875,0.39703369140625
1761380608766766000,2.09976611328125,-0.8963470458984375,-0.695037841796875,0.3074798583984375
1761380608776822000,2.109822021484375,-0.81201171875,-0.51898193359375,0.195892333984375
1761380608786877200,2.119877197265625,-0.6197357177734375,-0.35986328125,0.109100341796875
1761380608796933000,2.12993310546875,-0.444061279296875,-0.2738800048828125,0.1046142578125
1761380608806989300,2.1399892578125,-0.3478851318359375,-0.2750091552734375,0.1447906494140625
1761380608817045200,2.150045166015625,-0.18719482421875,-0.258819580078125,0.1964111328125
1761380608827100200,2.16010009765625,-0.071014404296875,-0.2241363525390625,0.24591064453125
1761380608837156000,2.170156005859375,-0.044158935546875,-0.2249298095703125,0.318756103515625
1761380608847212000,2.1802119140625,-0.0184478759765625,-0.20770263671875,0.41876220703125
1761380608857268000,2.19026806640625,0.0413360595703125,-0.22882080078125,0.5649871826171875
1761380608867324200,2.20032421875,0.1170654296875,-0.2850799560546875,0.724029541015625
1761380608877379000,2.210379150390625,0.068572998046875,-0.2793121337890625,0.8383941650390625
1761380608887435300,2.220435302734375,-0.045654296875,-0.2670745849609375,0.9288787841796875
1761380608897491200,2.2304912109375,-0.1632232666015625,-0.2375030517578125,0.9554290771484375
1761380608907547100,2.240547119140625,-0.253631591796875,-0.1866302490234375,0.8895111083984375
1761380608917603000,2.25060302734375,-0.320037841796875,-0.2762298583984375,0.7751617431640625
1761380608927658000,2.260657958984375,-0.3734130859375,-0.4268035888671875,0.679962158203125
1761380608937714200,2.270714111328125,-0.50616455078125,-0.53668212890625,0.6601715087890625
1761380608947770000,2.28077001953125,-0.8219146728515625,-0.7231292724609375,0.68267822265625
1761380608957826000,2.290825927734375,-1.43121337890625,-0.9062652587890625,0.60821533203125
1761380608967881200,2.300881103515625,-2.0800323486328125,-1.0258636474609375,0.5646209716796875
1761380608977937200,2.310937255859375,-2.09564208984375,-1.204559326171875,0.7630462646484375
1761380608987993000,2.3209931640625,-2.080596923828125,-0.9781036376953125,0.5839080810546875
1761380608998049000,2.331049072265625,-2.1484222412109375,-0.6947021484375,0.1475830078125
1761380609008105000,2.34110498046875,-2.0005035400390625,-0.5980377197265625,-0.0257415771484375
1761380609018160000,2.35116015625,-1.8665008544921875,-0.500213623046875,-0.0166778564453125
1761380609028216000,2.361216064453125,-1.8216094970703125,-0.5247650146484375,-0.0053253173828125
1761380609038272300,2.371272216796875,-1.73724365234375,-0.6638946533203125,-0.017425537109375
1761380609048328200,2.381328125,-1.5944366455078125,-0.82257080078125,-0.076934814453125
1761380609058383000,2.391383056640625,-1.510955810546875,-0.93768310546875,-0.1618194580078125
1761380609068439000,2.40143896484375,-1.389678955078125,-0.980621337890625,-0.293701171875
1761380609078495000,2.411494873046875,-1.2236175537109375,-0.9652557373046875,-0.41766357421875
1761380609088551200,2.42155126953125,-1.05694580078125,-0.9239044189453125,-0.426727294921875
1761380609098607000,2.431607177734375,-0.911712646484375,-0.875274658203125,-0.3470611572265625
1761380609108662000,2.441662109375,-0.79766845703125,-0.84027099609375,-0.272003173828125
1761380609118718200,2.45171826171875,-0.7400970458984375,-0.7497100830078125,-0.2450103759765625
1761380609128774100,2.461774169921875,-0.6464080810546875,-0.61865234375,-0.221405029296875
1761380609138830000,2.471830078125,-0.567291259765625,-0.496429443359375,-0.190673828125
1761380609148886300,2.48188623046875,-0.4227294921875,-0.419219970703125,-0.1746826171875
1761380609158941000,2.49194091796875,-0.186431884765625,-0.396759033203125,-0.158599853515625
1761380609168997000,2.5019970703125,0.006561279296875,-0.4217681884765625,-0.1044464111328125
1761380609179053000,2.512052978515625,0.087493896484375,-0.4674530029296875,-0.0806121826171875
1761380609189109000,2.52210888671875,0.01348876953125,-0.355255126953125,-0.2261962890625
1761380609199164200,2.5321640625,0.0309600830078125,-0.2279205322265625,-0.40386962890625
1761380609209220000,2.54222021484375,0.039154052734375,-0.1771240234375,-0.5202178955078125
1761380609219276300,2.5522763671875,-0.0850067138671875,-0.1642303466796875,-0.588958740234375
1761380609229332200,2.562332275390625,-0.2252960205078125,-0.1932220458984375,-0.6147003173828125
1761380609239388200,2.57238818359375,-0.33154296875,-0.2528228759765625,-0.5995635986328125
1761380609249443000,2.582443115234375,-0.3479766845703125,-0.293304443359375,-0.559051513671875
1761380609259499000,2.5924990234375,-0.337005615234375,-0.3113250732421875,-0.5309906005859375
1761380609269555200,2.60255517578125,-0.3655242919921875,-0.3192901611328125,-0.546234130859375
1761380609279611100,2.612611083984375,-0.438018798828125,-0.378082275390625,-0.5775604248046875
1761380609289666000,2.622666015625,-0.46795654296875,-0.514923095703125,-0.57464599609375
1761380609299722200,2.63272216796875,-0.484100341796875,-0.631683349609375,-0.5011444091796875
1761380609309778200,2.642778076171875,-0.48919677734375,-0.637786865234375,-0.4634857177734375
1761380609319834000,2.652834228515625,-0.6176910400390625,-0.698150634765625,-0.472259521484375
1761380609329890000,2.66289013671875,-0.7877197265625,-0.9706878662109375,-0.4249114990234375
1761380609339945000,2.672945068359375,-1.023529052734375,-1.4449005126953125,-0.355438232421875
1761380609350001200,2.683001220703125,-1.45220947265625,-1.833831787109375,-0.3755340576171875
1761380609360057000,2.69305712890625,-1.8739013671875,-1.7446136474609375,-0.545745849609375
1761380609370113000,2.703113037109375,-1.8809356689453125,-1.361053466796875,-0.718475341796875
1761380609380169200,2.713169189453125,-1.7082977294921875,-1.0919342041015625,-0.7784271240234375
1761380609390224100,2.72322412109375,-1.505340576171875,-1.047637939453125,-0.7177886962890625
1761380609400280300,2.7332802734375,-1.220672607421875,-1.122406005859375,-0.4469146728515625
1761380609410336000,2.7433359375,-1.091949462890625,-1.283172607421875,-0.085601806640625
1761380609420392000,2.753391845703125,-1.0520172119140625,-1.4590301513671875,0.219268798828125
1761380609430447000,2.763447021484375,-0.9515838623046875,-1.47479248046875,0.3854217529296875
1761380609440503000,2.7735029296875,-0.8349609375,-1.3909149169921875,0.43243408203125
1761380609450559200,2.783559326171875,-0.741180419921875,-1.3064422607421875,0.3960723876953125
1761380609460615200,2.793615234375,-0.695526123046875,-1.1982269287109375,0.2970733642578125
1761380609470672000,2.803671875,-0.630645751953125,-1.0778656005859375,0.1915130615234375
1761380609480727000,2.81372705078125,-0.5449676513671875,-0.9134674072265625,0.0948028564453125
1761380609490783000,2.823782958984375,-0.4929046630859375,-0.7617034912109375,0.0317840576171875
1761380609500838700,2.833838623046875,-0.4405517578125,-0.6154632568359375,-0.0045623779296875
1761380609510894800,2.843894775390625,-0.3785400390625,-0.492218017578125,-0.043121337890625
1761380609520949800,2.85394970703125,-0.296539306640625,-0.38360595703125,-0.0723876953125
1761380609531006000,2.864005859375,-0.2010040283203125,-0.2734832763671875,-0.085418701171875
1761380609541062000,2.874061767578125,-0.1089630126953125,-0.198577880859375,-0.0597076416015625
1761380609551117800,2.884117919921875,-0.038055419921875,-0.1401519775390625,0.022064208984375
1761380609561174000,2.894174072265625,-0.0216522216796875,-0.0812225341796875,0.1681671142578125
1761380609571229000,2.90422900390625,-0.060760498046875,-0.1002197265625,0.3751373291015625
1761380609581284900,2.914284912109375,-0.094024658203125,-0.1493682861328125,0.6259307861328125
1761380609591340800,2.9243408203125,-0.141815185546875,-0.2327880859375,0.90325927734375
1761380609601396700,2.934396728515625,-0.14288330078125,-0.3327484130859375,1.118377685546875
1761380609611453000,2.944452880859375,-0.0806121826171875,-0.3731231689453125,1.167999267578125
1761380609621507800,2.9545078125,0.0510711669921875,-0.3435516357421875,1.092010498046875
1761380609631563800,2.964563720703125,0.196533203125,-0.3074798583984375,0.989410400390625
1761380609641620000,2.974619873046875,0.204620361328125,-0.3552703857421875,0.871490478515625
1761380609651676000,2.984676025390625,0.0786285400390625,-0.420989990234375,0.779266357421875
1761380609661730800,2.994730712890625,-0.0392913818359375,-0.527191162109375,0.7361907958984375
1761380609671786800,3.004786865234375,-0.1107025146484375,-0.6596221923828125,0.711212158203125
1761380609681842700,3.0148427734375,-0.22314453125,-0.7098541259765625,0.6371307373046875
1761380609691899000,3.02489892578125,-0.3862152099609375,-0.791595458984375,0.522308349609375
1761380609701954800,3.034954833984375,-0.62249755859375,-1.0272369384765625,0.39666748046875
1761380609712010000,3.045010009765625,-1.008392333984375,-1.4232177734375,0.300628662109375
1761380609722066000,3.05506591796875,-1.255889892578125,-1.7310028076171875,0.23297119140625
1761380609732121900,3.065121826171875,-1.4571685791015625,-1.7781829833984375,0.190032958984375
1761380609742178000,3.075177978515625,-1.69073486328125,-1.6754302978515625,0.13970947265625
1761380609752234000,3.08523388671875,-1.9703521728515625,-1.5335235595703125,0.09674072265625
1761380609762289000,3.095288818359375,-2.08673095703125,-1.2591705322265625,0.081146240234375
1761380609772344800,3.1053447265625,-2.02679443359375,-1.0508575439453125,0.0872039794921875
1761380609782400800,3.11540087890625,-1.864990234375,-1.1236419677734375,-0.0071258544921875
1761380609792457000,3.12545703125,-1.4952850341796875,-1.265625,-0.0753021240234375
1761380609802512000,3.135511962890625,-1.1480712890625,-1.236236572265625,-0.10650634765625
1761380609812568000,3.145568115234375,-0.90313720703125,-1.138336181640625,-0.219207763671875
1761380609822624000,3.1556240234375,-0.8235321044921875,-1.1045379638671875,-0.3151702880859375
1761380609832680000,3.165679931640625,-0.783966064453125,-1.098907470703125,-0.3452606201171875
1761380609842735900,3.17573583984375,-0.6861419677734375,-1.0155487060546875,-0.326080322265625
1761380609852790800,3.185790771484375,-0.6571044921875,-0.91290283203125,-0.331817626953125
1761380609862847000,3.195846923828125,-0.6959075927734375,-0.81671142578125,-0.38262939453125
1761380609872903000,3.20590283203125,-0.658782958984375,-0.6716156005859375,-0.4500732421875
1761380609882958800,3.215958740234375,-0.5592803955078125,-0.5246429443359375,-0.5201873779296875
1761380609893014000,3.226013916015625,-0.395843505859375,-0.39990234375,-0.5579071044921875
1761380609903070000,3.236070068359375,-0.2129669189453125,-0.2816925048828125,-0.54241943359375
1761380609913125600,3.246125732421875,-0.092193603515625,-0.2369537353515625,-0.4728851318359375
1761380609923181800,3.256181884765625,-0.0382232666015625,-0.2637939453125,-0.4169921875
1761380609933237800,3.26623779296875,0.0200958251953125,-0.2731170654296875,-0.4382171630859375
1761380609943293700,3.276293701171875,0.0323944091796875,-0.2889404296875,-0.49700927734375
1761380609953348900,3.286348876953125,0.0443878173828125,-0.36767578125,-0.5557708740234375
1761380609963404800,3.29640478515625,-0.0458984375,-0.439544677734375,-0.60992431640625
1761380609973461000,3.3064609375,-0.167572021484375,-0.469512939453125,-0.66119384765625
1761380609983517000,3.316516845703125,-0.181671142578125,-0.468231201171875,-0.664520263671875
1761380609993571800,3.32657177734375,-0.2091217041015625,-0.4977874755859375,-0.6447296142578125
1761380610003627800,3.336627685546875,-0.2707977294921875,-0.49822998046875,-0.6265869140625
1761380610013683700,3.34668359375,-0.370269775390625,-0.499725341796875,-0.5986328125
1761380610023740000,3.356739990234375,-0.4969024658203125,-0.542236328125,-0.6040496826171875
1761380610033795800,3.3667958984375,-0.6558837890625,-0.63763427734375,-0.6590576171875
1761380610043851000,3.37685107421875,-0.734161376953125,-0.788818359375,-0.6500701904296875
1761380610053907000,3.386906982421875,-0.64056396484375,-0.8938140869140625,-0.56732177734375
1761380610063963000,3.396962890625,-0.8223876953125,-0.885223388671875,-0.46771240234375
1761380610074019000,3.40701904296875,-1.2451934814453125,-0.954437255859375,-0.3596343994140625
1761380610084075000,3.417074951171875,-1.567962646484375,-1.23138427734375,-0.321929931640625
1761380610094130000,3.4271298828125,-1.7721710205078125,-1.4364776611328125,-0.3490753173828125
1761380610104185900,3.437185791015625,-1.9630126953125,-1.236114501953125,-0.296142578125
1761380610114241800,3.44724169921875,-1.9471893310546875,-0.943145751953125,-0.0878753662109375
1761380610124298000,3.457298095703125,-1.943084716796875,-0.725372314453125,0.0231170654296875
1761380610134353000,3.467352783203125,-1.71075439453125,-0.6302337646484375,-0.09881591796875
1761380610144408800,3.477408935546875,-1.3076629638671875,-0.6972808837890625,-0.2198028564453125
1761380610154465000,3.487465087890625,-0.9182586669921875,-0.826324462890625,-0.20623779296875
1761380610164521000,3.49752099609375,-0.724609375,-0.9136810302734375,-0.134735107421875
1761380610174576600,3.50757666015625,-0.61590576171875,-0.95721435546875,0.039031982421875
1761380610184631800,3.5176318359375,-0.509735107421875,-0.9761962890625,0.2416534423828125
1761380610194687700,3.527687744140625,-0.537872314453125,-0.9630584716796875,0.33612060546875
1761380610204744000,3.537743896484375,-0.7259368896484375,-0.895843505859375,0.3777618408203125
1761380610214800000,3.5477998046875,-0.7989959716796875,-0.7900390625,0.3898468017578125
1761380610224855800,3.557855712890625,-0.7734832763671875,-0.666168212890625,0.2887115478515625
1761380610234911000,3.567910888671875,-0.7100830078125,-0.5749053955078125,0.1279296875
1761380610244967000,3.577966796875,-0.6393280029296875,-0.4929351806640625,-0.000946044921875
1761380610255022800,3.58802294921875,-0.5338134765625,-0.399322509765625,-0.069305419921875
1761380610265078800,3.598078857421875,-0.488372802734375,-0.31939697265625,-0.0929107666015625
1761380610275134700,3.608134765625,-0.4831085205078125,-0.309906005859375,-0.0540771484375
1761380610285190000,3.61818994140625,-0.4527587890625,-0.299102783203125,0.0607757568359375
1761380610295245800,3.628245849609375,-0.5588836669921875,-0.3302154541015625,0.243927001953125
1761380610305302000,3.638302001953125,-0.6136322021484375,-0.429840087890625,0.52825927734375
1761380610315358000,3.64835791015625,-0.584381103515625,-0.4400177001953125,0.8252716064453125
1761380610325412900,3.658412841796875,-0.4894866943359375,-0.355133056640625,0.98590087890625
1761380610335468800,3.66846875,-0.3773651123046875,-0.3303070068359375,1.0021209716796875
1761380610345524700,3.678524658203125,-0.2452545166015625,-0.3587799072265625,0.974273681640625
1761380610355581000,3.688580810546875,-0.076019287109375,-0.3568878173828125,0.92669677734375
1761380610365636900,3.698636962890625,-0.01025390625,-0.363494873046875,0.858642578125
1761380610375691800,3.70869189453125,0.0266876220703125,-0.3349151611328125,0.843170166015625
1761380610385748000,3.718748046875,0.029083251953125,-0.3147125244140625,0.8310546875
1761380610395804000,3.728803955078125,-0.0408172607421875,-0.3343658447265625,0.78570556640625
1761380610405859800,3.73885986328125,-0.1423187255859375,-0.3446197509765625,0.7358551025390625
1761380610415916000,3.748916015625,-0.173004150390625,-0.4598236083984375,0.640625
1761380610425970700,3.758970703125,-0.17510986328125,-0.6039276123046875,0.5104522705078125
1761380610436027000,3.76902685546875,-0.344635009765625,-0.74432373046875,0.383819580078125
1761380610446082800,3.779082763671875,-0.6823272705078125,-0.983123779296875,0.251922607421875
1761380610456138800,3.789138671875,-1.16046142578125,-1.2110443115234375,0.1370086669921875
1761380610466194000,3.79919384765625,-1.3383941650390625,-1.38055419921875,0.2316131591796875
1761380610476249300,3.809249267578125,-1.58624267578125,-1.335357666015625,0.42181396484375
1761380610486305500,3.819305419921875,-2.0851287841796875,-0.89422607421875,0.4518890380859375
1761380610496361200,3.829361328125,-2.4882354736328125,-0.64093017578125,0.519439697265625
1761380610506417200,3.839417236328125,-2.7795562744140625,-0.884765625,0.5268707275390625
1761380610516472300,3.849472412109375,-2.693115234375,-1.1514434814453125,0.4738006591796875
1761380610526528300,3.8595283203125,-2.311767578125,-1.1929931640625,0.2638702392578125
1761380610536584400,3.86958447265625,-2.0145721435546875,-1.06951904296875,0.001220703125
1761380610546640400,3.879640380859375,-1.6931610107421875,-0.9830322265625,-0.22222900390625
1761380610556696300,3.8896962890625,-1.31402587890625,-0.9428863525390625,-0.407623291015625
1761380610566751500,3.89975146484375,-0.9651031494140625,-0.889617919921875,-0.554168701171875
1761380610576807200,3.90980712890625,-0.6427001953125,-0.819671630859375,-0.635955810546875
1761380610586863400,3.91986328125,-0.34698486328125,-0.7689971923828125,-0.6275177001953125
1761380610596919300,3.929919189453125,-0.2216796875,-0.681671142578125,-0.5854034423828125
1761380610606975200,3.939975341796875,-0.24993896484375,-0.5457611083984375,-0.54931640625
1761380610617030400,3.950030517578125,-0.2855682373046875,-0.40167236328125,-0.5174102783203125
1761380610627086300,3.96008642578125,-0.27008056640625,-0.2486114501953125,-0.4655914306640625
1761380610637142500,3.970142578125,-0.2942352294921875,-0.1110076904296875,-0.4242706298828125
1761380610647198500,3.980198486328125,-0.271942138671875,-0.0665283203125,-0.3768310546875
1761380610657254400,3.99025439453125,-0.2190399169921875,-0.133056640625,-0.3327178955078125
1761380610667309300,4.000309326171875,-0.187530517578125,-0.229339599609375,-0.360504150390625
1761380610677362400,4.010362548828125,-0.1255035400390625,-0.3015594482421875,-0.4339752197265625
1761380610687418400,4.02041845703125,-0.1364288330078125,-0.3202362060546875,-0.535980224609375
1761380610697474600,4.030474609375,-0.2130279541015625,-0.2970428466796875,-0.6275482177734375
1761380610707530200,4.0405302734375,-0.28411865234375,-0.2932586669921875,-0.6848907470703125
1761380610717585400,4.05058544921875,-0.2726287841796875,-0.3184356689453125,-0.71478271484375
1761380610727641300,4.060641357421875,-0.137420654296875,-0.3914947509765625,-0.7337646484375
1761380610737697300,4.070697265625,0.012115478515625,-0.384765625,-0.772613525390625
1761380610747753500,4.08075341796875,-0.1192779541015625,-0.4685211181640625,-0.8165283203125
1761380610757809400,4.090809326171875,-0.3958740234375,-0.6990203857421875,-0.8202362060546875
1761380610767864600,4.100864501953125,-0.7401885986328125,-0.87384033203125,-0.80328369140625
1761380610777920500,4.11092041015625,-0.999420166015625,-0.983673095703125,-0.784027099609375
1761380610787976200,4.12097607421875,-1.102203369140625,-0.9601287841796875,-0.7744903564453125
1761380610798032400,4.131032470703125,-1.457366943359375,-0.882049560546875,-0.624969482421875
1761380610808088300,4.14108837890625,-1.8199310302734375,-1.0093536376953125,-0.2951507568359375
1761380610818143500,4.1511435546875,-2.1256256103515625,-1.3239593505859375,0.02587890625
1761380610828199400,4.161199462890625,-2.47833251953125,-1.396087646484375,0.035186767578125
1761380610838255400,4.17125537109375,-2.6274261474609375,-1.1309661865234375,-0.078857421875
1761380610848311600,4.1813115234375,-2.5126800537109375,-0.8820343017578125,-0.192352294921875
1761380610858367500,4.191367431640625,-2.25518798828125,-0.663818359375,-0.3805694580078125
1761380610868422100,4.201422119140625,-1.89349365234375,-0.4862213134765625,-0.528106689453125
1761380610878478300,4.211478271484375,-1.541290283203125,-0.4224853515625,-0.523529052734375
1761380610888534300,4.2215341796875,-1.3262939453125,-0.4901580810546875,-0.34375
1761380610898590200,4.231590087890625,-1.1799468994140625,-0.6199188232421875,-0.0544281005859375
1761380610908646400,4.241646484375,-1.0059814453125,-0.8080596923828125,0.2402191162109375
1761380610918701300,4.251701416015625,-0.8315277099609375,-0.94464111328125,0.491424560546875
1761380610928757500,4.261757568359375,-0.719146728515625,-0.9355316162109375,0.5861358642578125
1761380610938813400,4.2718134765625,-0.6226806640625,-0.7785797119140625,0.516357421875
1761380610948869400,4.281869384765625,-0.603973388671875,-0.6269683837890625,0.4365386962890625
1761380610958925600,4.291925537109375,-0.5615234375,-0.474822998046875,0.3903961181640625
1761380610968980200,4.301980224609375,-0.4835052490234375,-0.3384857177734375,0.3680419921875
1761380610979036400,4.312036376953125,-0.4454193115234375,-0.239471435546875,0.36968994140625
1761380610989092400,4.32209228515625,-0.347320556640625,-0.17510986328125,0.410430908203125
1761380610999148300,4.332148193359375,-0.291259765625,-0.0907135009765625,0.485809326171875
1761380611009203500,4.342203369140625,-0.2389068603515625,-0.043304443359375,0.5529632568359375
1761380611019259400,4.35225927734375,-0.157806396484375,0.01092529296875,0.6158447265625
1761380611029315600,4.362315673828125,-0.10638427734375,0.040069580078125,0.6989593505859375
1761380611039371300,4.372371337890625,-0.134674072265625,0.006317138671875,0.7889251708984375
1761380611049427200,4.38242724609375,-0.215362548828125,-0.0448150634765625,0.8950347900390625
1761380611059485400,4.3924853515625,-0.2942657470703125,-0.1124725341796875,1.0004425048828125
1761380611069541400,4.402541259765625,-0.347564697265625,-0.1348419189453125,1.0131378173828125
1761380611079597600,4.41259765625,-0.337432861328125,-0.09814453125,0.9114837646484375
1761380611089653200,4.4226533203125,-0.312591552734375,-0.07354736328125,0.775634765625
1761380611099709200,4.432709228515625,-0.3259735107421875,-0.090972900390625,0.684600830078125
1761380611109764400,4.442764404296875,-0.3429718017578125,-0.1336517333984375,0.61553955078125
1761380611119820300,4.4528203125,-0.41644287109375,-0.2487945556640625,0.5198516845703125
1761380611129876500,4.46287646484375,-0.650543212890625,-0.4045867919921875,0.4383697509765625
1761380611139932400,4.472932373046875,-0.94091796875,-0.603668212890625,0.4527130126953125
1761380611149988400,4.48298828125,-1.215484619140625,-0.792022705078125,0.4516754150390625
1761380611160043500,4.49304345703125,-1.4885711669921875,-0.848419189453125,0.3583831787109375
1761380611170099200,4.50309912109375,-1.6761322021484375,-0.97662353515625,0.3163299560546875
1761380611180155400,4.5131552734375,-1.6749725341796875,-1.175323486328125,0.435821533203125
1761380611190211300,4.52321142578125,-1.8106842041015625,-1.0682830810546875,0.3688201904296875
1761380611200267300,4.533267333984375,-1.9907073974609375,-0.8140869140625,0.1932525634765625
1761380611210322400,4.543322509765625,-2.07037353515625,-0.607208251953125,0.151824951171875
1761380611220378400,4.55337841796875,-1.989532470703125,-0.5009918212890625,0.25030517578125
1761380611230434300,4.563434326171875,-1.9006805419921875,-0.5437164306640625,0.3215179443359375
1761380611240490500,4.573490478515625,-1.683074951171875,-0.712677001953125,0.2621002197265625
1761380611250546400,4.58354638671875,-1.431182861328125,-0.845458984375,0.1961822509765625
1761380611260601300,4.593601318359375,-1.24993896484375,-0.8910369873046875,0.1153564453125
1761380611270657300,4.6036572265625,-1.1096649169921875,-0.8772430419921875,-0.0240631103515625
1761380611280713200,4.613713134765625,-1.0010986328125,-0.8407745361328125,-0.1650543212890625
1761380611290769400,4.623769287109375,-0.8533782958984375,-0.8169403076171875,-0.26251220703125
1761380611300825300,4.633825439453125,-0.7124786376953125,-0.810333251953125,-0.3017578125
1761380611310880500,4.643880615234375,-0.6529388427734375,-0.781280517578125,-0.3463592529296875
1761380611320936400,4.6539365234375,-0.6064300537109375,-0.7154083251953125,-0.4043426513671875
1761380611330992400,4.663992431640625,-0.5196685791015625,-0.6166534423828125,-0.4611968994140625
1761380611341048600,4.674048583984375,-0.4290924072265625,-0.5117034912109375,-0.4962005615234375
1761380611351104300,4.684104248046875,-0.331298828125,-0.447021484375,-0.5063018798828125
1761380611361159400,4.694159423828125,-0.2178192138671875,-0.4331817626953125,-0.5160064697265625
1761380611371215400,4.70421533203125,-0.1728515625,-0.4169158935546875,-0.5514068603515625
1761380611381271300,4.714271240234375,-0.178558349609375,-0.3560791015625,-0.6158599853515625
1761380611391327500,4.724327392578125,-0.16015625,-0.3147430419921875,-0.6810760498046875
1761380611401383400,4.734383544921875,-0.121307373046875,-0.2737274169921875,-0.7191925048828125
1761380611411438600,4.7444384765625,-0.09600830078125,-0.247711181640625,-0.7246551513671875
1761380611421494500,4.75449462890625,-0.1065673828125,-0.251220703125,-0.7125701904296875
1761380611431550200,4.76455029296875,-0.1453857421875,-0.2818145751953125,-0.7140045166015625
1761380611441606400,4.7746064453125,-0.1754913330078125,-0.3331298828125,-0.7208709716796875
1761380611451662300,4.784662353515625,-0.2453460693359375,-0.366241455078125,-0.7267913818359375
1761380611461717200,4.79471728515625,-0.328125,-0.4058074951171875,-0.7703399658203125
1761380611471777000,4.804777099609375,-0.471099853515625,-0.5068206787109375,-0.8533172607421875
1761380611481833000,4.8148330078125,-0.63555908203125,-0.6457061767578125,-0.91448974609375
1761380611491889000,4.824888916015625,-0.6873016357421875,-0.8377685546875,-0.9217376708984375
1761380611501945000,4.834945068359375,-0.6879119873046875,-0.988616943359375,-0.9830322265625
1761380611511999700,4.844999755859375,-1.0828704833984375,-1.039642333984375,-1.0440216064453125
1761380611522056000,4.855055908203125,-1.62274169921875,-1.1814117431640625,-0.985137939453125
1761380611532112000,4.86511181640625,-1.922576904296875,-1.42474365234375,-0.9346771240234375
1761380611542167800,4.875167724609375,-2.2002105712890625,-1.5408782958984375,-0.9490814208984375
1761380611552224000,4.88522412109375,-2.6258697509765625,-1.33465576171875,-0.9587249755859375
1761380611562279000,4.89527880859375,-2.5757598876953125,-1.0046234130859375,-0.8814239501953125
1761380611572335000,4.905335205078125,-2.2372894287109375,-0.681884765625,-0.7912139892578125
1761380611582391000,4.91539111328125,-1.873016357421875,-0.481719970703125,-0.5962982177734375
1761380611592446700,4.92544677734375,-1.466217041015625,-0.492767333984375,-0.276641845703125
1761380611602503000,4.9355029296875,-1.117218017578125,-0.6038360595703125,0.016998291015625
1761380611612557800,4.945557861328125,-0.784423828125,-0.7410430908203125,0.24285888671875
1761380611622614000,4.955614013671875,-0.6035003662109375,-0.8455810546875,0.407867431640625
1761380611632670000,4.965669921875,-0.4941253662109375,-0.8497772216796875,0.5220794677734375
1761380611642726000,4.975725830078125,-0.4155120849609375,-0.7940826416015625,0.57220458984375
1761380611652782000,4.985781982421875,-0.4595794677734375,-0.6392364501953125,0.499053955078125
1761380611662837000,4.9958369140625,-0.5468902587890625,-0.4827880859375,0.400665283203125
1761380611672893000,5.005892822265625,-0.610015869140625,-0.3580169677734375,0.37646484375
1761380611682948900,5.015948974609375,-0.6639862060546875,-0.2041778564453125,0.39111328125
1761380611693004800,5.0260048828125,-0.59130859375,-0.084564208984375,0.4102630615234375
1761380611703061000,5.03606103515625,-0.497833251953125,0.0308990478515625,0.4148101806640625
1761380611713116000,5.046115966796875,-0.3962554931640625,0.1372833251953125,0.4370574951171875
1761380611723171800,5.056171875,-0.28411865234375,0.1782379150390625,0.49969482421875
1761380611733228000,5.06622802734375,-0.26495361328125,0.1731109619140625,0.6140594482421875
1761380611743284000,5.076283935546875,-0.2815704345703125,0.0483551025390625,0.771453857421875
1761380611753340000,5.08633984375,-0.301605224609375,-0.0589447021484375,0.9352264404296875
1761380611763394800,5.096394775390625,-0.2991485595703125,-0.1265106201171875,1.0573272705078125
1761380611773450800,5.10645068359375,-0.26202392578125,-0.2410125732421875,1.181884765625
1761380611783507000,5.1165068359375,-0.2505035400390625,-0.3168487548828125,1.2892913818359375
1761380611793563000,5.12656298828125,-0.1688690185546875,-0.36614990234375,1.34613037109375
1761380611803618800,5.136618896484375,-0.113983154296875,-0.3982391357421875,1.3473358154296875
1761380611813674000,5.146674072265625,-0.102447509765625,-0.4030303955078125,1.301666259765625
1761380611823730000,5.15672998046875,-0.078277587890625,-0.4348297119140625,1.197540283203125
1761380611833786000,5.1667861328125,-0.2287750244140625,-0.466796875,1.0067596435546875
1761380611843842000,5.176842041015625,-0.5193328857421875,-0.5772857666015625,0.799835205078125
1761380611853897700,5.186897705078125,-0.7978363037109375,-0.7879791259765625,0.6302490234375
1761380611863953000,5.196952880859375,-1.151824951171875,-0.9889068603515625,0.556884765625
1761380611874008800,5.2070087890625,-1.4631500244140625,-1.0937652587890625,0.5858612060546875
1761380611884065000,5.21706494140625,-1.65032958984375,-1.115875244140625,0.6118011474609375
1761380611894121000,5.227120849609375,-1.846527099609375,-1.16314697265625,0.5587158203125
1761380611904177000,5.237177001953125,-1.9658355712890625,-1.221160888671875,0.514495849609375
1761380611914232000,5.247232177734375,-2.00994873046875,-1.1508941650390625,0.462890625
1761380611924287700,5.257287841796875,-2.020172119140625,-0.90252685546875,0.327423095703125
1761380611934344000,5.267343994140625,-1.9724884033203125,-0.613555908203125,0.154937744140625
1761380611944400000,5.27739990234375,-1.90252685546875,-0.482818603515625,-0.02581787109375
1761380611954455800,5.287455810546875,-1.7510223388671875,-0.535369873046875,-0.1850738525390625
1761380611964511000,5.297510986328125,-1.552642822265625,-0.734222412109375,-0.3067169189453125
1761380611974567000,5.30756689453125,-1.360137939453125,-0.820281982421875,-0.390228271484375
1761380611984622800,5.317622802734375,-1.240142822265625,-0.777587890625,-0.492034912109375
1761380611994679000,5.327678955078125,-1.2251129150390625,-0.731048583984375,-0.606658935546875
1761380612004735000,5.33773486328125,-1.1359405517578125,-0.6972503662109375,-0.675750732421875
1761380612014790000,5.347789794921875,-0.990966796875,-0.699737548828125,-0.69561767578125
1761380612024845800,5.357845703125,-0.8179931640625,-0.7261505126953125,-0.7235107421875
1761380612034901800,5.36790185546875,-0.617156982421875,-0.7081298828125,-0.7588958740234375
1761380612044958000,5.3779580078125,-0.3740081787109375,-0.630615234375,-0.773162841796875
1761380612055014000,5.388013916015625,-0.1411895751953125,-0.5424346923828125,-0.7493743896484375
1761380612065069000,5.398069091796875,-0.000946044921875,-0.4568328857421875,-0.6876068115234375
1761380612075125000,5.408125,0.0277862548828125,-0.355010986328125,-0.6167449951171875
1761380612085181000,5.418180908203125,-0.0103912353515625,-0.2925262451171875,-0.5631561279296875
1761380612095237000,5.428237060546875,-0.0924072265625,-0.298858642578125,-0.5432891845703125
1761380612105292800,5.438292724609375,-0.2272491455078125,-0.3072967529296875,-0.5487213134765625
1761380612115348000,5.448347900390625,-0.34698486328125,-0.3368377685546875,-0.5683135986328125
1761380612125404000,5.45840380859375,-0.3715362548828125,-0.360687255859375,-0.6051788330078125
1761380612135459800,5.4684599609375,-0.365142822265625,-0.345123291015625,-0.6623687744140625
1761380612145516000,5.47851611328125,-0.3472900390625,-0.349212646484375,-0.721038818359375
1761380612155572000,5.488572021484375,-0.3245391845703125,-0.4295196533203125,-0.78082275390625
1761380612165627000,5.498626953125,-0.338836669921875,-0.5501251220703125,-0.864166259765625
1761380612175683000,5.50868310546875,-0.400787353515625,-0.6630706787109375,-0.940460205078125
1761380612185738800,5.51873876953125,-0.425567626953125,-0.67633056640625,-0.9645233154296875
1761380612195795000,5.528794921875,-0.52667236328125,-0.6199951171875,-0.978973388671875
1761380612205851000,5.538850830078125,-0.681884765625,-0.576629638671875,-0.944793701171875
1761380612215905800,5.54890576171875,-0.839752197265625,-0.65673828125,-0.882537841796875
1761380612225962000,5.5589619140625,-0.919097900390625,-0.8662872314453125,-0.75201416015625
1761380612236018000,5.569017822265625,-0.9298858642578125,-1.088134765625,-0.5322113037109375
1761380612246073900,5.579073974609375,-1.245758056640625,-1.181304931640625,-0.3877105712890625
1761380612256130000,5.589130126953125,-1.618927001953125,-1.128753662109375,-0.3092193603515625
1761380612266184700,5.599184814453125,-1.803955078125,-1.1277923583984375,-0.3035430908203125
1761380612276241000,5.609240966796875,-2.0929718017578125,-1.27020263671875,-0.3972625732421875
1761380612286296800,5.619296875,-2.3974456787109375,-1.0637359619140625,-0.4082489013671875
1761380612296352800,5.629352783203125,-2.3893890380859375,-0.8191070556640625,-0.2965850830078125
1761380612306409000,5.639408935546875,-2.157073974609375,-0.6767730712890625,-0.2194671630859375
1761380612316463900,5.6494638671875,-1.668975830078125,-0.5271453857421875,-0.2792510986328125
1761380612326520000,5.65952001953125,-1.2896575927734375,-0.4858245849609375,-0.3425750732421875
1761380612336576000,5.669575927734375,-1.071014404296875,-0.52313232421875,-0.2971954345703125
1761380612346632000,5.6796318359375,-0.7362823486328125,-0.56488037109375,-0.188140869140625
1761380612356688100,5.689688232421875,-0.4081268310546875,-0.588592529296875,-0.1001434326171875
1761380612366742800,5.69974267578125,-0.1864013671875,-0.6652679443359375,0.0236968994140625
1761380612376799000,5.709799072265625,-0.2034454345703125,-0.748504638671875,0.2054901123046875
1761380612386855000,5.71985498046875,-0.377777099609375,-0.7960968017578125,0.41400146484375
1761380612396910800,5.729910888671875,-0.549530029296875,-0.7582244873046875,0.5628509521484375
1761380612406967000,5.739967041015625,-0.677520751953125,-0.59405517578125,0.573272705078125
1761380612417022000,5.75002197265625,-0.690948486328125,-0.40863037109375,0.5025787353515625
1761380612427078000,5.760077880859375,-0.65753173828125,-0.298492431640625,0.459503173828125
1761380612437134000,5.770134033203125,-0.5917205810546875,-0.1764373779296875,0.440887451171875
1761380612447189800,5.780189697265625,-0.490966796875,-0.092132568359375,0.4202880859375
1761380612457246000,5.790245849609375,-0.3557891845703125,-0.060577392578125,0.4387969970703125
1761380612467302000,5.800302001953125,-0.233154296875,-0.0282440185546875,0.50946044921875
1761380612477356800,5.810356689453125,-0.14404296875,-0.0196685791015625,0.6414031982421875
1761380612487413000,5.8204130859375,-0.0770416259765625,-0.0521392822265625,0.8358612060546875
1761380612497469000,5.830468994140625,0.030914306640625,-0.12127685546875,1.052398681640625
1761380612507524900,5.84052490234375,0.070068359375,-0.1893768310546875,1.201416015625
1761380612517581000,5.8505810546875,0.0238037109375,-0.269622802734375,1.2827301025390625
1761380612527636000,5.860635986328125,0.0043792724609375,-0.3589630126953125,1.3082733154296875
1761380612537692200,5.870692138671875,-0.0197296142578125,-0.3635711669921875,1.2921142578125
1761380612547748000,5.880748046875,-0.0669708251953125,-0.348175048828125,1.2634429931640625
1761380612557804000,5.890803955078125,-0.143157958984375,-0.3585205078125,1.2048797607421875
1761380612567860000,5.90085986328125,-0.3125152587890625,-0.3520355224609375,1.0899200439453125
1761380612577915000,5.910914794921875,-0.54351806640625,-0.3870086669921875,0.9535675048828125
1761380612587971000,5.92097119140625,-0.75616455078125,-0.5224151611328125,0.7878570556640625
1761380612598027000,5.931027099609375,-0.844482421875,-0.677337646484375,0.576873779296875
1761380612608083000,5.9410830078125,-0.8172760009765625,-0.774200439453125,0.4111328125
1761380612618139100,5.95113916015625,-0.868804931640625,-0.83612060546875,0.2561492919921875
1761380612628194000,5.961194091796875,-1.08843994140625,-0.8580780029296875,0.1962432861328125
1761380612638250200,5.971250244140625,-1.2744903564453125,-1.050750732421875,0.264556884765625
1761380612648306000,5.981305908203125,-1.3870391845703125,-1.2192840576171875,0.37677001953125
1761380612658361900,5.99136181640625,-1.480987548828125,-1.22747802734375,0.3948516845703125
1761380612668418000,6.00141796875,-1.6553192138671875,-1.04449462890625,0.2744903564453125
1761380612678473000,6.011472900390625,-1.8147430419921875,-0.86834716796875,0.1065826416015625
1761380612688529000,6.02152880859375,-1.7362823486328125,-0.7531890869140625,-0.060089111328125
1761380612698585000,6.031585205078125,-1.4976043701171875,-0.6769256591796875,-0.149871826171875
1761380612708641000,6.04164111328125,-1.2837371826171875,-0.6820068359375,-0.1432647705078125
1761380612718697000,6.051697021484375,-1.088836669921875,-0.7186431884765625,-0.118682861328125
1761380612728751900,6.061751953125,-0.8934326171875,-0.80145263671875,-0.0852813720703125
1761380612738807800,6.071807861328125,-0.6786041259765625,-0.95965576171875,-0.01470947265625
1761380612748864000,6.081864013671875,-0.663604736328125,-0.9880828857421875,-0.0460357666015625
1761380612758920000,6.091919921875,-0.7255401611328125,-0.886962890625,-0.2246246337890625
1761380612768976000,6.101975830078125,-0.68963623046875,-0.8518829345703125,-0.3846282958984375
1761380612779031000,6.112031005859375,-0.703155517578125,-0.785980224609375,-0.4620513916015625
1761380612789087000,6.1220869140625,-0.6921539306640625,-0.698486328125,-0.4822998046875
1761380612799143200,6.13214306640625,-0.6334381103515625,-0.6278533935546875,-0.489227294921875
1761380612809199000,6.14219921875,-0.59136962890625,-0.58258056640625,-0.4807586669921875
1761380612819255000,6.152255126953125,-0.5599212646484375,-0.5572662353515625,-0.4744415283203125
1761380612829310000,6.16231005859375,-0.47808837890625,-0.5635986328125,-0.5148773193359375
1761380612839366000,6.172365966796875,-0.3977508544921875,-0.5338897705078125,-0.592559814453125
1761380612849422000,6.182422119140625,-0.303466796875,-0.479705810546875,-0.656402587890625
1761380612859478000,6.19247802734375,-0.2227325439453125,-0.4605560302734375,-0.706878662109375
1761380612869534000,6.202533935546875,-0.149627685546875,-0.4885711669921875,-0.7524261474609375
1761380612879589000,6.212589111328125,-0.065032958984375,-0.5461883544921875,-0.7802581787109375
1761380612889645000,6.22264501953125,-0.0243988037109375,-0.6161956787109375,-0.8180389404296875
1761380612899701000,6.232700927734375,-0.0749053955078125,-0.66339111328125,-0.8732757568359375
1761380612909757000,6.2427568359375,-0.190399169921875,-0.6661376953125,-0.942291259765625
1761380612919812900,6.252812744140625,-0.2530670166015625,-0.654022216796875,-1.0169677734375
1761380612929869000,6.262869140625,-0.2746429443359375,-0.6033477783203125,-1.0881500244140625
1761380612939924000,6.272924072265625,-0.2949066162109375,-0.565155029296875,-1.140106201171875
1761380612949980000,6.28297998046875,-0.319091796875,-0.6307220458984375,-1.114532470703125
1761380612960036000,6.2930361328125,-0.3376922607421875,-0.74908447265625,-1.0482940673828125
1761380612970092000,6.303092041015625,-0.4615478515625,-0.817535400390625,-0.9912567138671875
1761380612980148000,6.31314794921875,-0.705352783203125,-0.9093780517578125,-0.91046142578125
1761380612990203000,6.323202880859375,-0.9770965576171875,-1.1070709228515625,-0.7919158935546875
1761380613000258800,6.3332587890625,-1.1918182373046875,-1.411376953125,-0.6630096435546875
1761380613010315000,6.34331494140625,-1.48358154296875,-1.7118072509765625,-0.60406494140625
1761380613020371000,6.353370849609375,-1.917816162109375,-1.8013916015625,-0.6131591796875
1761380613030427000,6.363427001953125,-2.3902740478515625,-1.648223876953125,-0.6002655029296875
1761380613040482000,6.37348193359375,-2.595916748046875,-1.422760009765625,-0.467315673828125
1761380613050538000,6.3835380859375,-2.3571319580078125,-1.1602630615234375,-0.23211669921875
1761380613060594200,6.39359423828125,-1.9496002197265625,-0.9957733154296875,0.00341796875
1761380613070650000,6.403650146484375,-1.415924072265625,-0.940948486328125,0.229583740234375
1761380613080705800,6.413705810546875,-0.9361114501953125,-0.8686370849609375,0.4019775390625
1761380613090761000,6.423760986328125,-0.6779632568359375,-0.8344879150390625,0.445587158203125
1761380613100817000,6.43381689453125,-0.4778289794921875,-0.9135894775390625,0.417083740234375
1761380613110873000,6.443873046875,-0.2298583984375,-0.9761962890625,0.388916015625
1761380613120929000,6.453928955078125,-0.0424652099609375,-0.93084716796875,0.3614654541015625
1761380613130985000,6.46398486328125,0.0253753662109375,-0.8289031982421875,0.3290863037109375
1761380613141040000,6.4740400390625,0.00396728515625,-0.703277587890625,0.2961578369140625
1761380613151096000,6.484095947265625,-0.100921630859375,-0.62109375,0.309722900390625
1761380613161152000,6.494152099609375,-0.292205810546875,-0.5550689697265625,0.3707427978515625
1761380613171208000,6.5042080078125,-0.492034912109375,-0.4530792236328125,0.4222564697265625
1761380613181264000,6.514263916015625,-0.593963623046875,-0.350982666015625,0.421234130859375
1761380613191319000,6.524319091796875,-0.532745361328125,-0.2534942626953125,0.37298583984375
1761380613201375000,6.534375,-0.311737060546875,-0.1796722412109375,0.3371429443359375
1761380613211431000,6.544430908203125,-0.209503173828125,-0.160919189453125,0.3315887451171875
1761380613221487000,6.554487060546875,-0.2565155029296875,-0.2000885009765625,0.3951416015625
1761380613231543000,6.56454296875,-0.3878631591796875,-0.247894287109375,0.514129638671875
1761380613241598000,6.574597900390625,-0.5778961181640625,-0.3008270263671875,0.6439208984375
1761380613251654000,6.58465380859375,-0.766265869140625,-0.35394287109375,0.74853515625
1761380613261709800,6.594709716796875,-0.731658935546875,-0.3860931396484375,0.815155029296875
1761380613271766000,6.60476611328125,-0.512664794921875,-0.4012603759765625,0.8809967041015625
1761380613281822000,6.614822021484375,-0.279510498046875,-0.4459991455078125,0.975921630859375
1761380613291878000,6.6248779296875,-0.1188507080078125,-0.5424652099609375,1.0727081298828125
1761380613301933000,6.63493310546875,-0.0913543701171875,-0.65924072265625,1.1239166259765625
1761380613311989000,6.644989013671875,-0.20733642578125,-0.6961212158203125,1.1224212646484375
1761380613322045200,6.655045166015625,-0.444610595703125,-0.653778076171875,1.0648040771484375
1761380613332101000,6.66510107421875,-0.6623077392578125,-0.6212921142578125,0.919189453125
1761380613342156800,6.67515673828125,-0.7126007080078125,-0.701202392578125,0.6920166015625
1761380613352212000,6.6852119140625,-0.6083526611328125,-0.883941650390625,0.451507568359375
1761380613362268000,6.695267822265625,-0.5750732421875,-1.01904296875,0.280181884765625
1761380613372324000,6.705323974609375,-0.8904266357421875,-1.0456085205078125,0.16888427734375
1761380613382380000,6.715380126953125,-1.517181396484375,-1.03753662109375,0.0096282958984375
1761380613392436000,6.72543603515625,-1.9393157958984375,-1.1538238525390625,0.0441436767578125
1761380613402491100,6.7354912109375,-1.97796630859375,-1.37933349609375,0.364349365234375
1761380613412547000,6.745547119140625,-2.2503509521484375,-1.2762451171875,0.3107757568359375
1761380613422603000,6.75560302734375,-2.4438629150390625,-0.8398895263671875,-0.0487060546875
1761380613432659000,6.765658935546875,-2.4312744140625,-0.608917236328125,-0.2485504150390625
1761380613442715000,6.77571484375,-2.3259735107421875,-0.5054168701171875,-0.258392333984375
1761380613452770000,6.78577001953125,-2.17449951171875,-0.4816741943359375,-0.2150421142578125
1761380613462826000,6.795825927734375,-1.9736480712890625,-0.5146942138671875,-0.1795501708984375
1761380613472882000,6.8058818359375,-1.65911865234375,-0.5734405517578125,-0.1371612548828125
1761380613482935000,6.81593505859375,-1.467529296875,-0.6264801025390625,-0.167266845703125
1761380613492991000,6.825990966796875,-1.320281982421875,-0.6077423095703125,-0.2545318603515625
1761380613503046100,6.836046142578125,-1.074127197265625,-0.5943145751953125,-0.3535919189453125
1761380613513102000,6.84610205078125,-0.849273681640625,-0.573699951171875,-0.4503326416015625
1761380613523158000,6.856157958984375,-0.6516265869140625,-0.5419158935546875,-0.5169525146484375
1761380613533214200,6.866214111328125,-0.4996337890625,-0.545989990234375,-0.5626373291015625
1761380613543270100,6.876270263671875,-0.3819732666015625,-0.5272064208984375,-0.5810546875
1761380613553325000,6.886324951171875,-0.256622314453125,-0.4996185302734375,-0.5653228759765625
1761380613563381000,6.896381103515625,-0.1414642333984375,-0.4738311767578125,-0.5551605224609375
1761380613573437000,6.90643701171875,-0.0187530517578125,-0.41082763671875,-0.569549560546875
1761380613583493000,6.9164931640625,0.07891845703125,-0.3229827880859375,-0.5998077392578125
1761380613593549000,6.926549072265625,0.0628662109375,-0.2757110595703125,-0.6110076904296875
1761380613603605000,6.93660498046875,-0.0276641845703125,-0.279205322265625,-0.6132049560546875
1761380613613660200,6.94666015625,-0.121978759765625,-0.2901153564453125,-0.652313232421875
1761380613623716000,6.956716064453125,-0.2303314208984375,-0.2790985107421875,-0.707305908203125
1761380613633772000,6.96677197265625,-0.287445068359375,-0.2315521240234375,-0.7293243408203125
1761380613643828200,6.976828125,-0.2447357177734375,-0.1990814208984375,-0.7154388427734375
1761380613653884000,6.9868837890625,-0.160491943359375,-0.1935272216796875,-0.6853485107421875
1761380613663939000,6.99693896484375,-0.078369140625,-0.2132720947265625,-0.6641693115234375
1761380613673995000,7.0069951171875,-0.065460205078125,-0.2898101806640625,-0.662841796875
1761380613684051000,7.017051025390625,-0.1198272705078125,-0.319122314453125,-0.649078369140625
1761380613694107100,7.027107177734375,-0.1949310302734375,-0.2963409423828125,-0.6049041748046875
1761380613704163000,7.0371630859375,-0.2541656494140625,-0.349700927734375,-0.5323944091796875
1761380613714218200,7.04721826171875,-0.40130615234375,-0.44647216796875,-0.45440673828125
1761380613724274000,7.05727392578125,-0.6153411865234375,-0.5630950927734375,-0.3883514404296875
1761380613734329900,7.067329833984375,-0.701507568359375,-0.8363800048828125,-0.3186798095703125
1761380613744386000,7.077385986328125,-0.70867919921875,-1.122283935546875,-0.249267578125
1761380613754442000,7.08744189453125,-0.9255523681640625,-1.11981201171875,-0.189910888671875
1761380613764497200,7.0974970703125,-1.2643280029296875,-1.0695037841796875,-0.207794189453125
1761380613774553000,7.107552978515625,-1.427703857421875,-1.4513397216796875,-0.3268280029296875
1761380613784609000,7.117609130859375,-1.73577880859375,-1.4359130859375,-0.3908233642578125
1761380613794665200,7.127665283203125,-1.945465087890625,-1.1800537109375,-0.3594207763671875
1761380613804721200,7.13772119140625,-1.8499755859375,-1.0020294189453125,-0.3720245361328125
1761380613814776000,7.147776123046875,-1.6252593994140625,-0.857818603515625,-0.43536376953125
1761380613824832000,7.15783203125,-1.4161834716796875,-0.8293609619140625,-0.4873809814453125
1761380613834888000,7.167887939453125,-1.23944091796875,-0.896942138671875,-0.395843505859375
1761380613844944100,7.177944091796875,-1.03802490234375,-0.9972991943359375,-0.208587646484375
1761380613855000000,7.188,-0.90399169921875,-1.101226806640625,-0.0422210693359375
1761380613865056000,7.198055908203125,-0.8514862060546875,-1.1656036376953125,0.103607177734375
1761380613875111200,7.208111083984375,-0.789886474609375,-1.1885528564453125,0.175537109375
1761380613885167000,7.2181669921875,-0.7437744140625,-1.16839599609375,0.1846160888671875
1761380613895223000,7.22822314453125,-0.754425048828125,-1.123931884765625,0.1650543212890625
1761380613905279000,7.238279052734375,-0.6936798095703125,-1.03204345703125,0.1629638671875
1761380613915335000,7.2483349609375,-0.601348876953125,-0.89129638671875,0.1581573486328125
1761380613925390000,7.25839013671875,-0.4718475341796875,-0.730804443359375,0.1802825927734375
1761380613935446000,7.268446044921875,-0.5608062744140625,-0.6331634521484375,0.2642974853515625
1761380613945502000,7.278501953125,-0.6758880615234375,-0.5723724365234375,0.2816925048828125
1761380613955558100,7.28855810546875,-0.6385040283203125,-0.5306396484375,0.1798553466796875
1761380613965614000,7.298614013671875,-0.5493011474609375,-0.477569580078125,0.0681610107421875
1761380613975669200,7.308669189453125,-0.453582763671875,-0.4132080078125,-0.0026397705078125
1761380613985725000,7.318724853515625,-0.3223876953125,-0.42767333984375,0.057952880859375
