time,seconds_elapsed,z,y,x
1761380606789543000,0.12254296875,-2.8583582177966833,-4.415340407526493,0.694674601406604
1761380606799598800,0.132598876953125,-2.8342721165493128,-4.777029693382978,1.1430569590710102
1761380606809654000,0.142654052734375,-2.78874282977879,-4.9081934828191995,1.165655744370073
1761380606819710000,0.1527099609375,-2.9484792182266713,-4.696367426171898,0.7801831396050751
1761380606829766000,0.162765869140625,-2.685393514463305,-4.765739653083682,0.482128267660737
1761380606839821800,0.17282177734375,-2.194224446734786,-5.000180277121067,-0.04908288759887218
1761380606849877800,0.182877685546875,-0.9634878890365361,-4.60011245303154,-0.6895648571774363
1761380606859933000,0.192932861328125,0.4151771304160356,-3.9676393101245164,-1.4188009227469562
1761380606869988900,0.20298876953125,1.6335066264837979,-3.4859605397969484,-1.9975791542150079
1761380606880045000,0.213045166015625,2.7885020067602393,-3.107763771253824,-2.488189857408404
1761380606890101000,0.22310107421875,4.026947239139676,-2.762381477075815,-3.0399194845616817
1761380606900157000,0.233156982421875,4.539363093036413,-1.952687142434716,-3.6448788898602125
1761380606910211800,0.2432119140625,4.252043111726642,-1.1278630432009695,-4.1949481825858355
1761380606920267800,0.253267822265625,3.4362031139373777,-0.7877800244748592,-4.725997425282001
1761380606930323700,0.26332373046875,2.1370330714821812,-0.16545651966035366,-5.150335182753205
1761380606940380000,0.2733798828125,1.683084019601345,0.7746972555398941,-5.213129784840345
1761380606950435800,0.283435791015625,1.8561486761778592,1.4136469009846448,-4.842333647942543
1761380606960491000,0.293490966796875,2.132714623761177,1.7685621626615524,-4.350323453214765
1761380606970547000,0.303546875,2.4175544786930083,2.1213971109330654,-3.888175605048239
1761380606980603000,0.313602783203125,3.074068422400951,2.781447412073612,-3.7344659295439717
1761380606990659000,0.3236591796875,3.6884412604719397,3.686393095770478,-3.856903391689062
1761380607000713700,0.333713623046875,4.212478578579425,3.921680692026019,-3.9885549646422263
1761380607010770000,0.34377001953125,3.477469774827361,4.287780195540189,-3.961280296486616
1761380607020825900,0.353825927734375,1.8544658376574514,4.874149174398184,-3.9069650611922144
1761380607030881800,0.3638818359375,0.5932669216781854,5.100957111600041,-3.8046716846704483
1761380607040938000,0.37393798828125,0.10076865117251872,5.0214469370335335,-3.7953684342741965
1761380607050993000,0.383992919921875,0.5553811353981495,4.358098763391375,-4.261452745106816
1761380607061049000,0.394049072265625,2.45477683262825,3.5017730259567497,-5.072285728389025
1761380607071105000,0.40410498046875,3.3624481418967247,2.3169120842486617,-5.834995609015226
1761380607081161000,0.414160888671875,2.8503812475681305,0.16403028624951838,-6.210148772078752
1761380607091217000,0.424216796875,1.461594062551856,-2.9556787743419406,-5.90735006660819
1761380607101271800,0.434271728515625,-0.7176046644866466,-6.085819212576746,-5.29659951068759
1761380607111328000,0.444327880859375,-4.325137574031949,-8.533805069890617,-4.8864638815701005
1761380607121384000,0.454384033203125,-7.532389893519878,-8.748438585174084,-4.564150036029518
1761380607131439900,0.46443994140625,-8.808604007801414,-6.1370385276824235,-3.8614506797298787
1761380607141496000,0.47449609375,-8.964774812722206,-4.423192874592543,-2.7802789528161287
1761380607151551000,0.484551025390625,-9.139413586747645,-4.446029560300707,-1.6285213854171334
1761380607161607000,0.49460693359375,-9.648689973574877,-4.79646037003994,-0.39569757311604914
1761380607171662800,0.504662841796875,-8.578190739583968,-4.998226220443844,0.9203517810128629
1761380607181718800,0.51471875,-6.8392936473459,-4.801701777824759,1.6277655986137687
1761380607191774000,0.52477392578125,-5.424385932645201,-4.471249341753125,1.7932867079429327
1761380607201830000,0.534829833984375,-3.682644556891918,-3.9560353815704583,2.1557808804415166
1761380607211885800,0.5448857421875,-2.1203280203968284,-2.948732900726795,2.7207623494863507
1761380607221942000,0.55494189453125,-0.6468693325281143,-2.1041566377967595,3.370462521526217
1761380607231998000,0.564998046875,0.6696557493537664,-1.5928595587968826,3.9996877685531973
1761380607242052900,0.575052978515625,1.6512626479268073,-1.6306635120123625,4.506085092812777
1761380607252108800,0.58510888671875,1.8039514559507368,-1.6220266165703534,4.731771917030215
1761380607262164700,0.595164794921875,2.6327006196737286,-0.42378070811033247,4.242882776932418
1761380607272221000,0.605220947265625,4.003545905286074,1.8103730134308338,3.218932528148591
1761380607282276900,0.61527685546875,5.332769140699505,3.9137674346834417,2.4009656013332306
1761380607292332000,0.62533203125,6.011594869458675,4.679247364544868,1.6145587649077175
1761380607302388000,0.635387939453125,7.11216190945506,4.7412335728585715,1.7159357572369276
1761380607312444000,0.64544384765625,6.712120973372459,5.0912055329144,1.5840736102730035
1761380607322500000,0.6555,7.254904493004084,6.039125265941023,1.889953184493631
1761380607332556000,0.66555615234375,7.262263039073348,6.743553053468466,2.4885753495946523
1761380607342611000,0.67561083984375,6.3401002631157635,7.1444503141194575,3.032067017495632
1761380607352667000,0.6856669921875,5.260087350848317,7.802839988571405,3.6156691619887944
1761380607362722800,0.695722900390625,4.544001274231076,7.9704510559171435,4.335468413910269
1761380607372779000,0.705779052734375,4.205388328057527,7.545717577126622,5.294240964862704
1761380607382834000,0.715833984375,4.10659360730648,7.233578796380758,6.334513987416028
1761380607392889900,0.725889892578125,4.288198713213205,7.085981174015998,7.14991033309102
1761380607402946000,0.735946044921875,4.022752125537395,7.149590599617362,7.561973715400695
1761380607413002000,0.746001953125,3.816333480891585,6.791246532535553,7.689975825935602
1761380607423058000,0.756057861328125,2.6182845563083887,6.383156145510077,7.498904972547292
1761380607433112800,0.76611279296875,1.4355389993190764,5.120049350082874,6.697098760807513
1761380607443168800,0.776168701171875,0.6861532951682806,3.6320009958475827,5.818429089617728
1761380607453225000,0.786224853515625,0.02075871039032936,2.197113738435507,5.112299758869409
1761380607463281000,0.796281005859375,0.18206629367768765,-0.538962500038743,4.61097491556853
1761380607473336600,0.806336669921875,-0.374592022049427,-4.011538073083758,4.127081099539995
1761380607483391700,0.816391845703125,-3.103843967461586,-8.676177651083469,3.7968157104730604
1761380607493447700,0.82644775390625,-4.702651621007919,-12.695932348370551,3.731453303724527
1761380607503504000,0.83650390625,-6.282935775870085,-12.753226014953851,2.690276902590692
1761380607513559800,0.846559814453125,-9.187064980238675,-10.16803182734251,0.699835418235883
1761380607523615700,0.85661572265625,-12.59951195553541,-7.634577179318666,-0.18372502067014573
1761380607533671000,0.8666708984375,-14.55003110628128,-6.101784258949756,0.9240302503298967
1761380607543726600,0.8767265625,-14.39568342513442,-6.0136067938029765,2.4543022008538244
1761380607553782800,0.88678271484375,-13.277230015313625,-6.225651461637019,3.19992124594748
1761380607563838700,0.896838623046875,-11.025136147934198,-6.150227095079422,3.127986182810366
1761380607573894700,0.906894775390625,-9.03226312558353,-5.732890156280994,2.255060900491476
1761380607583949800,0.91694970703125,-6.842307442209124,-5.262023871868848,0.8888722815785557
1761380607594005800,0.927005859375,-4.496625775071978,-4.9040141513079405,-0.7933660079136491
1761380607604062000,0.93706201171875,-1.7689993850350378,-4.161818066400289,-2.5220620241329073
1761380607614118000,0.947117919921875,-0.05841010339260101,-3.1233751818835733,-3.8094580421641466
1761380607624172800,0.9571728515625,1.0106085366517306,-2.426270284590125,-4.30209250627011
1761380607634228700,0.967228759765625,1.9456033216536044,-1.773272240048647,-4.169788022366166
1761380607644284700,0.97728466796875,2.6988749273270365,-1.0311498048990964,-3.9795866452887654
1761380607654340900,0.9873408203125,3.4662627366364,-0.13970540781021118,-3.882882467076182
1761380607664396800,0.997396728515625,3.9540450845360753,0.9352426222831011,-3.8760190110474824
1761380607674451700,1.00745166015625,4.8567713386178015,2.008990628936887,-3.823456172378361
1761380607684508000,1.0175078125,5.605652015855908,3.2835990615874526,-3.8454865101397036
1761380607694563800,1.027563720703125,5.281512416192889,4.263934040528536,-3.969937065672874
1761380607704619800,1.037619873046875,4.894238607224822,4.524394071963429,-4.171785333663225
1761380607714676000,1.047676025390625,4.407051302608847,4.785444470506906,-4.563306863203644
1761380607724730600,1.057730712890625,4.005944783121347,5.208802569290995,-5.30612780201137
1761380607734786800,1.067786865234375,3.71654682649374,5.448850511816143,-6.036228959977627
1761380607744842800,1.0778427734375,4.170841915333271,5.390450929817557,-6.234256208375096
1761380607754898700,1.087898681640625,5.309346764057874,5.190969390958547,-6.114680565401911
1761380607764955000,1.097954833984375,5.990892857691645,4.9984781493782995,-6.0588604785025115
1761380607775009800,1.108009765625,5.744891559720039,5.1715492356956005,-6.123741823735833
1761380607785066000,1.11806591796875,5.068641818928718,5.220260951894521,-6.383931806057691
1761380607795121700,1.12812158203125,4.1020951268434525,5.307607226914167,-6.671475659251213
1761380607805177600,1.138177490234375,3.6554175272703167,5.09254759517312,-6.866734027457237
1761380607815233800,1.14823388671875,3.4448248118102547,4.409890325427055,-6.82159432452619
1761380607825288700,1.158288818359375,3.2784669593960043,3.0878987948328254,-6.471633470386267
1761380607835345000,1.168344970703125,3.0348861665695903,1.3011550787925719,-6.116570324671268
1761380607845400800,1.17840087890625,2.452251698064804,-0.22369185100793837,-6.561066488552093
1761380607855456800,1.188456787109375,0.895624313122034,-1.4794418539315461,-7.529936070626974
1761380607865513000,1.198512939453125,-2.356767124775052,-3.4888860718548296,-8.32760445190966
1761380607875567600,1.208567626953125,-5.874426286649704,-5.946244737669825,-8.177145010372996
1761380607885623800,1.218623779296875,-7.994634480059147,-9.979918654716014,-7.494335180413723
1761380607895679700,1.2286796875,-9.841342543196678,-13.573932157474756,-6.726693104082345
1761380607905735700,1.238735595703125,-12.779272310358285,-13.380102360767125,-6.522754585814476
1761380607915790800,1.248790771484375,-15.08608911705017,-10.788421149224042,-6.802336081826686
1761380607925846800,1.2588466796875,-15.847188055348395,-9.431437800225615,-7.112095858481526
1761380607935902700,1.26890283203125,-14.496061031162737,-7.511216757109761,-5.973026946133375
1761380607945959000,1.278958984375,-12.178535783451794,-4.590946565279364,-3.0404508149594065
1761380607956014800,1.289014892578125,-10.864006843823194,-3.620609248739481,0.7196237492240964
1761380607966069800,1.29906982421875,-9.238347423708438,-3.4620874967783686,4.775379003566504
1761380607976125700,1.309125732421875,-6.280021349728107,-3.06161167640984,8.440705930432676
1761380607986181600,1.319181640625,-3.2229923249334096,-2.38786076669693,10.85825164129734
1761380607996237800,1.32923779296875,-0.7011012734532356,-1.8128513862431048,11.983583704715967
1761380608006293800,1.339293701171875,1.4699287601768969,-0.6896329539775848,11.884967847663164
1761380608016349000,1.349348876953125,3.6437431638285513,0.8194394835859536,10.812766485929489
1761380608026404900,1.35940478515625,3.30811946259886,1.9615800584644079,9.351611399316788
1761380608036460800,1.369460693359375,3.186774179604649,3.0972780330747365,8.091426044294238
1761380608046517000,1.37951708984375,3.658220309731364,5.124000133535265,6.8333461371183395
1761380608056572700,1.38957275390625,3.688267657470703,6.8014201360255475,5.135827933973074
1761380608066627800,1.3996279296875,3.812993230552971,8.225241225022078,3.4849829269364476
1761380608076683800,1.409683837890625,5.044845932799578,9.412155007606744,2.5178639879211784
1761380608086739700,1.41973974609375,6.672060181140899,9.543931960505246,2.65619723059535
1761380608096796000,1.4297958984375,6.541234829878807,8.705751536092162,4.056790588739514
1761380608106851800,1.439851806640625,6.256392636859417,7.647478161945939,6.500197301569581
1761380608116907000,1.449906982421875,5.708143837559223,6.713413351270556,8.855053039765357
1761380608126963000,1.459962890625,4.235303573849797,5.8830234346032135,10.804966625833512
1761380608137018600,1.4700185546875,3.5661318086206912,5.385218874382972,11.889890691018104
1761380608147074800,1.48007470703125,4.045297134822607,5.527237819832563,11.79314062783718
1761380608157130800,1.490130859375,4.445401783791184,4.849278352513909,11.305990732622146
1761380608167185700,1.500185546875,4.126003241175413,4.092488509586453,11.16403842266798
1761380608177241900,1.510241943359375,3.399102340555191,3.044353667616844,11.083294906914233
1761380608187297800,1.5202978515625,2.1288480114609003,1.061604564395547,10.951417416250704
1761380608197353700,1.530353759765625,0.005849895071983337,-1.0635744031637906,10.894008014333247
1761380608207410000,1.540409912109375,-1.4234148462831973,-2.549763393267989,10.817508127498627
1761380608217464600,1.550464599609375,-2.285599831140041,-3.153768566581607,10.85983452657461
1761380608227520800,1.560520751953125,-3.4712948855847117,-3.664742404976487,10.378433988666535
1761380608237576700,1.57057666015625,-5.410014877465367,-5.394070873880386,9.860568637192248
1761380608247632600,1.580632568359375,-7.976084677889943,-7.828144525697827,8.802168421795963
1761380608257687800,1.590687744140625,-11.33533723861575,-10.356598588955402,6.343357803606986
1761380608267743700,1.60074365234375,-11.944853284305333,-11.430631842291355,4.534611222334206
1761380608277800000,1.610800048828125,-7.92877347613871,-10.18526353265047,3.4810996557623146
1761380608287855900,1.62085595703125,-8.123715618002414,-7.198738369145989,1.4387800270669162
1761380608297911800,1.630911865234375,-10.130126751840114,-4.1805011395603415,-0.8772935605309903
1761380608307966700,1.640966796875,-11.730772142207622,-2.5442425840198992,-2.5684616639971733
1761380608318022700,1.651022705078125,-14.434880294013022,-2.0217922428429125,-3.513719776599109
1761380608328078800,1.661078857421875,-15.173496182346343,-2.7472090423852205,-3.2779970037966963
1761380608338134800,1.671134765625,-12.936655998200177,-3.43222661152184,-2.3450442460164425
1761380608348190700,1.681190673828125,-10.161668722051381,-3.4795617786705493,-2.6729884986594317
1761380608358246000,1.691245849609375,-6.9615253577858205,-2.5037445694148537,-3.6339129669487473
1761380608368301800,1.7013017578125,-3.0431092205137014,-1.4309715452730656,-3.949368032635748
1761380608378357800,1.711357666015625,0.3896171572238207,-0.8011381032198667,-4.218968525120616
1761380608388413700,1.72141357421875,2.506924368494749,0.0005798457145690918,-4.9571606350839135
1761380608398469600,1.7314697265625,4.073093488764763,0.5190636213481425,-5.813924763935804
1761380608408524800,1.74152490234375,5.588616709902882,1.0747311724722384,-6.564658960086107
1761380608418580700,1.751580810546875,6.181646315693855,2.182267466959357,-7.086579724431037
1761380608428636700,1.76163671875,6.059183719107509,3.391882910695672,-7.2654001680552955
1761380608438692900,1.77169287109375,5.130733241182566,4.455706904706359,-7.199046412181854
1761380608448748800,1.781748779296875,5.304201802384853,4.596037750938534,-6.836278098917007
1761380608458804000,1.791803955078125,6.622165977159142,3.979706180015206,-5.784388872849941
1761380608468859600,1.801859619140625,6.922195217916369,3.4657056872755287,-4.593958898837864
1761380608478916000,1.811916015625,6.535529896235466,3.457600122231245,-4.104964544799923
1761380608488972300,1.82197216796875,6.235662568041682,3.5897342180043457,-5.0071197209954255
1761380608499027000,1.83202685546875,5.175802801486849,3.858350083366036,-5.84267155047059
1761380608509083100,1.842083251953125,4.4398774674117565,4.203951573252677,-6.70814622452259
1761380608519139000,1.85213916015625,4.363548260968924,4.15411348337233,-7.403582311820983
1761380608529195000,1.862195068359375,4.137239505460858,3.816792330574989,-7.390269825783371
1761380608539251200,1.872251220703125,3.2584669584184884,3.480069728192687,-6.916707726415991
1761380608549306000,1.88230615234375,2.026157452315092,2.8189953447014093,-6.171999366426467
1761380608559362000,1.892362060546875,0.2617056475818157,2.4594606065303086,-4.912041390419006
1761380608569418200,1.902418212890625,-0.6381722313314676,2.3041987331479787,-3.8571372004449365
1761380608579474200,1.91247412109375,0.20888065084517002,2.0547557702898978,-3.7204698451563716
1761380608589530000,1.922530029296875,0.4386544521152973,0.3719879770308733,-4.320913818857074
1761380608599585000,1.9325849609375,-1.134710717138648,-3.051306555494666,-4.475000803241134
1761380608609641000,1.942640869140625,-4.699506308719515,-7.264281393158435,-4.04969273943305
1761380608619697200,1.952697265625,-10.162686959183215,-10.051071335303783,-3.36811712744385
1761380608629753000,1.962753173828125,-14.5093366923213,-7.306635264763235,-1.7991693362407386
1761380608639809000,1.97280908203125,-15.160414582455157,-3.8779789129436013,-0.6679753219861537
1761380608649864200,1.9828642578125,-12.901452582871913,-1.3747954845428465,-1.500148688004166
1761380608659920100,1.992920166015625,-10.75780038551092,0.618152356609702,-2.9673315104737874
1761380608669976300,2.002976318359375,-8.433755965164304,0.4910311205625534,-3.1397461787089704
1761380608680032000,2.013031982421875,-5.053052620130777,-1.3160866904646158,-1.6374688081130384
1761380608690087200,2.023087158203125,-1.6148317366302012,-2.908036733201146,0.15220149943102151
1761380608700143000,2.03314306640625,1.6701953119337558,-4.203810118955373,1.750941311905533
1761380608710199000,2.043198974609375,4.918633043769002,-5.073423792508244,3.4478295465841886
1761380608720255200,2.053255126953125,5.5784226481467485,-4.92175146805048,4.545892494805157
1761380608730311200,2.063311279296875,3.472626426449418,-3.7641099571794268,4.949473587712645
1761380608740366300,2.073366455078125,0.9711889649331569,-2.875212321963906,5.2406543361037965
1761380608750422300,2.08342236328125,-1.3978607183098792,-2.0590140122562643,5.241303155401349
1761380608760478000,2.09347802734375,-2.21734287199378,-1.4864906033992766,4.680650801602006
1761380608770534100,2.1035341796875,-1.6596680727005004,-0.16191899318397043,4.039921871525049
1761380608780590000,2.113590087890625,-0.8342290564388036,1.5301695861279963,3.157860219809413
1761380608790645200,2.123645263671875,1.0084346997439861,3.1102123334497214,2.4409037900984285
1761380608800701200,2.133701171875,2.664379368007183,4.01435079241693,2.4434943911135196
1761380608810757000,2.143757080078125,3.538732929563522,4.081511773020029,2.804219800373912
1761380608820813000,2.15381298828125,5.057044904637336,4.317795394575596,3.2128657754555343
1761380608830868000,2.163867919921875,6.153842947489023,4.724058566173911,3.5644320189654826
1761380608840924000,2.173923828125,6.388664095276594,4.766977670446038,4.133326715931296
1761380608850980000,2.18397998046875,6.626312575444579,4.969609782290458,4.967683198142051
1761380608861036000,2.1940361328125,7.212876784613728,4.778663432064652,6.255403625822067
1761380608871092000,2.204092041015625,7.969987530058622,4.226206659680605,7.669746692377329
1761380608881147100,2.214147216796875,7.518866979601979,4.268732380720973,8.654628667098283
1761380608891203000,2.224203125,6.421229563316702,4.373153709182143,9.419451009833812
1761380608901259300,2.23425927734375,5.2808524909794325,4.654945282459258,9.564410684910417
1761380608911315200,2.244315185546875,4.407095141750574,5.143504459950328,8.795442912933229
1761380608921371100,2.25437109375,3.785826114425063,4.2350370318681,7.5243410270988935
1761380608931426000,2.264426025390625,3.3129905757665634,2.7028508452206848,6.401152405449747
1761380608941482000,2.27448193359375,2.0793501133203507,1.543922801670432,5.994702186846733
1761380608951538200,2.2845380859375,-0.9307283597290515,-0.39033319653868676,6.035022506797313
1761380608961594000,2.294593994140625,-6.801836900132894,-2.3080758668422696,5.2175785809427495
1761380608971649300,2.304649169921875,-13.068249411225318,-3.588300970330834,4.7911397595390675
1761380608981705200,2.314705322265625,-13.164440671479701,-5.4038119311720125,6.753526750472187
1761380608991761200,2.32476123046875,-12.996486489784717,-3.2086165935784576,4.979708566978574
1761380609001817300,2.3348173828125,-13.66625972803831,-0.43339784676134585,0.6245586434554308
1761380609011873000,2.344873046875,-12.23794541927576,0.5236380896568298,-1.1959510755211114
1761380609021928200,2.35492822265625,-10.951792679303884,1.4957558598726988,-1.2306076706215738
1761380609031984000,2.364984130859375,-10.526897872471809,1.2566601035058498,-1.2108965695880354
1761380609042040000,2.3750400390625,-9.692019412213563,-0.12620529024600982,-1.3825515054970978
1761380609052096300,2.38509619140625,-8.260574988731742,-1.7200842552185058,-1.976443865597248
1761380609062151200,2.395151123046875,-7.394736157542467,-2.8980127673149108,-2.776654624839127
1761380609072207000,2.40520703125,-6.154365510058403,-3.3691064307421446,-4.012674968159199
1761380609082263300,2.41526318359375,-4.487271086749434,-3.254479934608936,-5.169848861518502
1761380609092319000,2.425319091796875,-2.8363819483101365,-2.8620366140484808,-5.218706123667955
1761380609102375000,2.435375,-1.4221680610924958,-2.371917932155728,-4.431101163499057
1761380609112430000,2.44543017578125,-0.33847382996380326,-1.9912585728913546,-3.7212861299753186
1761380609122486000,2.455486083984375,0.16948796713352202,-1.0442647225379944,-3.5051652987435458
1761380609132542200,2.465542236328125,1.0166711976915597,0.31504794619083404,-3.326099648186564
1761380609142598100,2.47559814453125,1.7201327705353497,1.5900754810363054,-3.058285162335634
1761380609152654000,2.485654052734375,3.0732904237657785,2.41730839497745,-2.9121745636582372
1761380609162709200,2.495709228515625,5.333089458695054,2.70088334454,-2.752826590006053
1761380609172765000,2.505764892578125,7.1731035771518945,2.513921680036187,-2.2128417611822484
1761380609182821000,2.515821044921875,7.9242142053991556,2.1154735661029815,-1.954316351071745
1761380609192877000,2.525876953125,7.1713768994897595,3.250809721663594,-3.3432512739956377
1761380609202932200,2.53593212890625,7.328477094215154,4.520454394426942,-5.048577520543336
1761380609212988200,2.54598828125,7.402173614066839,5.0309097619056695,-6.15549013017416
1761380609223044000,2.556044189453125,6.177260647955537,5.170863591518998,-6.790712864050269
1761380609233100300,2.566100341796875,4.7799359362185,4.9166070908993476,-6.989131742113829
1761380609243156200,2.57615625,3.686667236536741,4.394955791145563,-6.7621057782471174
1761380609253211100,2.586211181640625,3.4349674346625805,4.100576538974046,-6.260557939845323
1761380609263267000,2.59626708984375,3.4160739336222408,4.058361783578992,-5.860455044442415
1761380609273323000,2.606322998046875,2.9936019700229166,4.123738803374767,-5.870930845749378
1761380609283379200,2.616379150390625,2.1463398290097713,3.6765672828048466,-6.045277358829975
1761380609293434000,2.62643408203125,1.7222388029038904,2.451301849994063,-5.905504731002449
1761380609303490000,2.636489990234375,1.4263088141590357,1.4223872568011282,-5.103497443732619
1761380609313546200,2.646546142578125,1.2255185307890175,1.483461026445031,-4.680161556780338
1761380609323602200,2.656602294921875,-0.18328969799280165,1.0057003063440322,-4.714532612937688
1761380609333658000,2.666658203125,-1.9529776498138904,-1.5910726753801105,-4.18285325564444
1761380609343713000,2.676713134765625,-4.292683165150881,-6.2222536358922715,-3.3969787725299594
1761380609353769000,2.68676904296875,-8.479816290071605,-10.052184264981745,-3.425995608177781
1761380609363825200,2.6968251953125,-12.618988224899768,-9.184418849644064,-4.879573537534475
1761380609373881000,2.706881103515625,-12.742885822725295,-5.398137977188825,-6.368934143412113
1761380609383937000,2.71693701171875,-11.140440104937552,-2.7090508689045905,-6.805192055779695
1761380609393992200,2.7269921875,-9.24653189920783,-2.216718018093705,-6.128453070166707
1761380609404048100,2.737048095703125,-6.539408783495426,-2.896045266634226,-3.443008117777109
1761380609414104300,2.747104248046875,-5.340533344960212,-4.4331192253232,0.12283281813822686
1761380609424160000,2.757159912109375,-4.984405200362205,-6.141009769400954,3.1668352611646053
1761380609434215200,2.767215087890625,-4.00823377084136,-6.302777955937385,4.895028296297788
1761380609444271000,2.77727099609375,-2.857504231315851,-5.505335200104117,5.496960170468688
1761380609454327000,2.7873271484375,-1.9233301150470972,-4.7151358395278455,5.313562920448184
1761380609464383200,2.79738330078125,-1.4668769713908434,-3.695878716996312,4.534309901300072
1761380609474440000,2.80743994140625,-0.8371013970047235,-2.5511218221396206,3.6861516882300376
1761380609484494800,2.817494873046875,-0.018916297394037246,-0.9630185179591179,2.9020044672995806
1761380609494551000,2.827551025390625,0.4589280093371868,0.5129308176815509,2.4175597393900157
1761380609504607000,2.83760693359375,0.9336626596152782,1.9449229381740092,2.163563935533166
1761380609514663000,2.847662841796875,1.5024515581190585,3.1584955951035023,1.8595351037457584
1761380609524717800,2.8577177734375,2.272353396075964,4.2328211093842985,1.6178525457561015
1761380609534773800,2.867773681640625,3.1881308549106118,5.323177721011638,1.5010859688542781
1761380609544830000,2.877829833984375,4.088143173858523,6.0676101866692305,1.7250196657940744
1761380609554886000,2.887885986328125,4.7955730658113955,6.652292235353588,2.4582673050925132
1761380609564941800,2.89794189453125,4.976688926896452,7.24530605905354,3.78771528917253
1761380609574997000,2.9079970703125,4.6159553343296045,7.076554004979133,5.692267053991555
1761380609585053000,2.918052978515625,4.300688192430139,6.618561815187334,8.023077315211296
1761380609595108900,2.92810888671875,3.814225694957375,5.836874262368679,10.632357311809063
1761380609605164800,2.938164794921875,3.749057349476218,4.908243167179823,12.662688250416517
1761380609615220700,2.948220703125,4.271881784662604,4.577465152415633,13.097786471354961
1761380609625276000,2.95827587890625,5.463277096575498,4.93670879868567,12.30842589969039
1761380609635331800,2.968331787109375,6.808559486386179,5.347995351403951,11.251513292503356
1761380609645387800,2.9783876953125,6.839623317691683,4.915808049476146,10.048293687283993
1761380609655444000,2.98844384765625,5.5868947084158656,4.2869238709717985,9.111327309948205
1761380609665499000,2.998498779296875,4.433299258065223,3.2476345987588164,8.667012347853182
1761380609675554800,3.008554931640625,3.730826696258783,1.9542618444055317,8.398052783620358
1761380609685610800,3.01861083984375,2.605406370034814,1.4805729037880897,7.635814612159132
1761380609695666700,3.028666748046875,0.9900132001295685,0.6967857483416795,6.456147731962799
1761380609705723000,3.038722900390625,-1.2901374256938696,-1.6252981855869293,5.160724474820494
1761380609715777800,3.04877783203125,-4.965286658394336,-5.561147688218951,4.147164394886792
1761380609725834000,3.058833984375,-7.229396542260051,-8.662890299487113,3.379799674192071
1761380609735890000,3.068889892578125,-9.025700698328018,-9.216850462171434,2.7966163396328687
1761380609745945900,3.07894580078125,-11.161583430731296,-8.288122336348891,2.084451820373535
1761380609756002000,3.089001953125,-13.797010260498523,-6.95050478207767,1.4170966030471026
1761380609766056700,3.099056640625,-14.903751020693779,-4.27343719741106,1.0266016400754452
1761380609776113000,3.10911279296875,-14.34900350702405,-2.2047768204092977,0.9002239158719777
1761380609786168800,3.1191689453125,-12.817169202554226,-2.8815841950833794,-0.146701413310552
1761380609796224800,3.129224853515625,-9.225355255666374,-4.252246525344252,-0.8809371777303516
1761380609806280000,3.139280029296875,-5.810367363715171,-3.971134751024842,-1.209591916730255
1761380609816336000,3.1493359375,-3.3518379005551338,-3.048992433333397,-2.307542929009348
1761380609826391800,3.159391845703125,-2.4736130505234,-2.784010540559888,-3.214979698869586
1761380609836448000,3.169447998046875,-1.95711840288043,-2.8191327073454855,-3.457623503106832
1761380609846504000,3.17950390625,-0.8494862468034029,-2.110295286682248,-3.217370393398404
1761380609856558800,3.189558837890625,-0.410071916231513,-1.2219582079589366,-3.2291075929433104
1761380609866614800,3.19961474609375,-0.6446037256836891,-0.39505496436357496,-3.6911625021293757
1761380609876670700,3.209670654296875,-0.15051497111618517,0.9202250858932733,-4.329105600880086
1761380609886727000,3.219726806640625,0.9387725499749183,2.2645769168555736,-5.011137139943242
1761380609896781800,3.22978173828125,2.6394202833175657,3.4020985997617244,-5.402531243711709
1761380609906838000,3.239838134765625,4.518602044558524,4.484366597479582,-5.305373184251785
1761380609916894000,3.24989404296875,5.782204514548182,4.849814359086752,-4.7002089040309185
1761380609926950000,3.259949951171875,6.388124581572413,4.513206907516718,-4.233015170651674
1761380609937005800,3.270005859375,7.038864618054032,4.344127521184086,-4.509306977468729
1761380609947061800,3.280061767578125,7.242538932427763,4.105784044489265,-5.124089565384388
1761380609957117000,3.290116943359375,7.444121827480196,3.2490988260924816,-5.692988354003429
1761380609967172900,3.3001728515625,6.63619508703351,2.4661826082617044,-6.159577691748738
1761380609977228800,3.310228759765625,5.502838122591376,2.111127061331272,-6.556142476153373
1761380609987285000,3.320284912109375,5.396065262567997,2.0902759964823723,-6.473661761343479
1761380609997340000,3.33033984375,5.118280002322793,1.80806765909791,-6.171325412687659
1761380610007396000,3.34039599609375,4.455627994251251,1.8621569766819477,-5.892962644815444
1761380610017451800,3.35045166015625,3.377255250406265,1.9498855290174484,-5.518894938901067
1761380610027507700,3.3605078125,2.015205850189924,1.6484890915602444,-5.478278850874305
1761380610037564000,3.37056396484375,0.348258141875267,0.8131932826727628,-5.947115090763568
1761380610047618800,3.380618896484375,-0.501074960193038,-0.592667202219367,-5.848820720750093
1761380610057675000,3.390675048828125,0.3532733396887779,-1.5589625498920678,-5.100115400078892
1761380610067731000,3.40073095703125,-1.4891045852899552,-1.4155594566076992,-4.209870149646699
1761380610077787000,3.410786865234375,-5.682130275380611,-2.0499714586228133,-3.1983632028505204
1761380610087842800,3.4208427734375,-8.865463959142565,-4.750511688813567,-2.813363476294279
1761380610097897700,3.430897705078125,-10.86278285498619,-6.770393714120984,-3.0045833827644586
1761380610107953700,3.44095361328125,-12.740601511180401,-4.807738719901442,-2.3655694399118423
1761380610118009900,3.451009765625,-12.641791592860221,-1.8981927511811256,-0.16502959948517382
1761380610128065800,3.461065673828125,-12.714196319335699,0.31608138089179993,1.1010015589561313
1761380610138121000,3.471120849609375,-10.570824692481755,1.3439134395450354,0.05080846928246319
1761380610148177000,3.481177001953125,-6.728402246087789,0.764396810799837,-1.0508521381042897
1761380610158232800,3.49123291015625,-2.959285274401307,-0.46584114972651003,-0.8885837469607591
1761380610168289000,3.5012890625,-1.0386381148278712,-1.339943366870284,-0.18548669658042488
1761380610178345000,3.511344970703125,0.10314765526354312,-1.8281284503519535,1.520724004651606
1761380610188399900,3.52139990234375,1.2464239561736583,-2.103187500503659,3.538708964166045
1761380610198455800,3.531455810546875,1.0723743802130221,-2.0771751073688267,4.564694518169761
1761380610208511700,3.54151171875,-0.6909896292835473,-1.5226742619365452,5.155898662099242
1761380610218568000,3.55156787109375,-1.3562088574945925,-0.582426378712058,5.511073451495171
1761380610228624000,3.561623779296875,-1.0798942543238401,0.545769841966033,4.765999765324592
1761380610238679000,3.571678955078125,-0.4443272370547056,1.36494161452651,3.4064392593145367
1761380610248735000,3.58173486328125,0.26174890220165253,2.1076631846129894,2.2980437176495787
1761380610258791000,3.591791015625,1.3117419392585754,2.9853344924151894,1.70423772065863
1761380610268847000,3.60184716796875,1.7759692240476608,3.7505613242983817,1.4752788890331983
1761380610278902800,3.61190283203125,1.8486387389391659,3.8444068982094524,1.7951165537185967
1761380610288958000,3.6219580078125,2.1647090139150618,3.9668776781022546,2.817842667534947
1761380610299014000,3.632013916015625,1.1291858162373303,3.693254213711619,4.497396759444475
1761380610309069800,3.64206982421875,0.5731903483331203,2.76740778080523,7.173636076593398
1761380610319126000,3.6521259765625,0.8103069135814904,2.7431892853498456,9.981161348253488
1761380610329181000,3.662180908203125,1.6590876424640417,3.6761084331214424,11.457134064769745
1761380610339236900,3.67223681640625,2.65104993083477,4.03728976945579,11.524044285482168
1761380610349292800,3.682292724609375,3.8263030862420795,3.882031987726688,11.158380250775814
1761380610359348700,3.6923486328125,5.364300589516759,4.021860145133734,10.592550202077627
1761380610369404700,3.70240478515625,5.8915387494921685,4.070480091395974,9.823874691045283
1761380610379459800,3.7124599609375,6.147299224933982,4.4508810919851065,9.570901800495385
1761380610389515800,3.722515869140625,6.089564828845858,4.726107899919152,9.352571184259652
1761380610399572000,3.732572021484375,5.360618101611733,4.579577030003071,8.81196676223278
1761380610409628000,3.7426279296875,4.362487938261032,4.4938516341835255,8.22786631282866
1761380610419683800,3.752683837890625,4.086251661023497,3.3588328740090128,7.188557751393318
1761380610429738800,3.76273876953125,4.107363422635197,1.927360393476486,5.795733858206868
1761380610439794700,3.772794677734375,2.52005214561522,0.5050234055578708,4.438757523471117
1761380610449851000,3.782850830078125,-0.6504623885840177,-1.936885177668929,3.038331338587403
1761380610459906800,3.79290673828125,-5.109299408009648,-4.348812464129924,1.7711802362054585
1761380610469962000,3.8029619140625,-6.577754588502645,-6.240289058798552,2.4618913408085703
1761380610480017400,3.813017333984375,-8.759815719234943,-6.02665449142456,3.9986397208049893
1761380610490073300,3.8230732421875,-13.481114757567644,-1.8865233561754227,3.9239337316498157
1761380610500129500,3.833129638671875,-17.34110559387803,0.4692886598318815,4.2578006523400544
1761380610510185500,3.843185546875,-20.150639282751083,-2.0020786575913427,4.115739329053461
1761380610520240400,3.853240478515625,-19.277231477612254,-4.65915793171823,3.5080791403636336
1761380610530296300,3.86329638671875,-15.527303775042295,-5.0773973723143335,1.4504939918667077
1761380610540352300,3.873352294921875,-12.614120326602459,-3.8550855286121366,-1.0651464017208665
1761380610550408400,3.883408447265625,-9.466715449833869,-2.987597761172056,-3.163365246966481
1761380610560464400,3.89346435546875,-5.745799322214722,-2.582880649971962,-4.880941318756341
1761380610570519600,3.90351953125,-2.2980302736461162,-2.0781810695409773,-6.236991186296939
1761380610580575500,3.913575439453125,0.922495368912816,-1.4524147307962179,-7.006932187220454
1761380610590631400,3.92363134765625,3.909149711754918,-1.0554740988165139,-6.954235785299539
1761380610600687400,3.933687255859375,5.237105703711509,-0.32318390637338157,-6.621355245298147
1761380610610743300,3.943743408203125,5.055460265794396,0.8803285443127155,-6.376632296699285
1761380610620798500,3.953798583984375,4.7887335751801725,2.171588252034783,-6.18508856510222
1761380610630854400,3.9638544921875,5.00401707880497,3.5697008992791175,-5.796763201254606
1761380610640910300,3.973910400390625,4.807768530517817,4.844433835092187,-5.496166974264383
1761380610650966500,3.983966552734375,5.043558231076598,5.238866868165135,-5.114202962142229
1761380610661022500,3.9940224609375,5.565020145738124,4.569846494105458,-4.734930965583026
1761380610671077400,4.004077392578125,5.874646066880226,3.6189275792628526,-5.030713362550735
1761380610681133300,4.01413330078125,6.4883192322492595,2.9046055897086855,-5.747237830585241
1761380610691189200,4.024189208984375,6.391947939252853,2.716888722923398,-6.7092164841026065
1761380610701245200,4.0342451171875,5.653551246628165,2.9464035809963938,-7.528672334301471
1761380610711301400,4.04430126953125,4.964474172967672,2.9990169808089733,-7.974324682480097
1761380610721356300,4.054356201171875,5.073585120549798,2.785720267087221,-8.123820831942558
1761380610731412500,4.06441259765625,6.375796430397033,2.1259178032279014,-8.163101287451386
1761380610741468400,4.074468505859375,7.809207185515761,2.253448204597831,-8.417571138560772
1761380610751524400,4.0845244140625,6.5101330046504735,1.4586422270089388,-8.747862246590852
1761380610761580500,4.09458056640625,3.827699509036541,-0.830417973718047,-8.700808234471083
1761380610771635200,4.10463525390625,0.5150695832759141,-2.6206384259581563,-8.4686910849452
1761380610781691400,4.11469140625,-1.956936032050848,-3.7892286163449285,-8.266221470186114
1761380610791747300,4.124747314453125,-2.916367339172959,-3.6275194665193555,-8.207961588919161
1761380610801803300,4.13480322265625,-6.373315719497204,-2.9006524681687353,-6.770869514939188
1761380610811858400,4.1448583984375,-9.911943435120582,-4.168482200464606,-3.5000708982139823
1761380610821914400,4.154914306640625,-12.895852863168715,-7.260054130852222,-0.21328370810970662
1761380610831970600,4.164970458984375,-16.352479171931744,-7.956219116947055,0.11175240200161933
1761380610842026500,4.175026611328125,-17.845876485979556,-5.308697944760322,-0.7168784691039473
1761380610852082200,4.185082275390625,-16.79320400058031,-2.778845120620727,-1.5475456683427093
1761380610862137300,4.195137451171875,-14.372039514696597,-0.5177046079546213,-3.1859044110327956
1761380610872193300,4.205193359375,-10.955070678061245,1.378938575696945,-4.535741979929805
1761380610882249500,4.21524951171875,-7.6501897589921946,2.1841052037805317,-4.490474851226806
1761380610892305400,4.225305419921875,-5.68672052578032,1.6920833186149595,-2.7747081669464704
1761380610902361300,4.235361328125,-4.359523243236541,0.542895747834444,0.019822379388287664
1761380610912416500,4.24541650390625,-2.702004457524419,-1.2493109097868202,2.9045684725686907
1761380610922472400,4.255472412109375,-0.982401263821125,-2.602526430684328,5.418621962291002
1761380610932528400,4.2655283203125,0.1678805319368839,-2.5747943741500374,6.442614296650886
1761380610942584300,4.275584228515625,1.1791437331050634,-1.121142795035243,5.874520394673943
1761380610952640300,4.28564013671875,1.4217460362881422,0.2829167779147625,5.210035325956344
1761380610962695400,4.2956953125,1.8746756819933652,1.717515866035223,4.857610712051391
1761380610972751400,4.30575146484375,2.6526696409910917,3.0283044500917193,4.70568938126862
1761380610982807300,4.315807373046875,3.0223738909989595,3.9990345653414723,4.748638588418066
1761380610992863500,4.325863525390625,3.974836528152227,4.644169036900997,5.131908130180835
1761380611002919400,4.33591943359375,4.5201299847781655,5.486563864138722,5.814647817513347
1761380611012974300,4.345974365234375,5.03372423480451,5.966459842702746,6.376445834216475
1761380611023030300,4.3560302734375,5.830742627745867,6.514682923039794,6.86068539494276
1761380611033086200,4.366086181640625,6.33510903069973,6.817803700071573,7.526087578505277
1761380611043142400,4.376142333984375,6.05226064184606,6.505572564867139,8.2748086812675
1761380611053198300,4.3861982421875,5.246022000616788,6.027787879368662,9.229490163514017
1761380611063253500,4.39625341796875,4.446219529914856,5.395324673333763,10.240526570189
1761380611073309400,4.406309326171875,3.8872266337603327,5.214882181465626,10.391766932970285
1761380611083365400,4.416365478515625,3.944913099053502,5.617925221973657,9.436897819197178
1761380611093421600,4.426421630859375,4.147054212510586,5.9022992129594085,8.133971639078855
1761380611103477500,4.4364775390625,3.9781589505732056,5.77241669550538,7.238398179361224
1761380611113532400,4.446532470703125,3.7828953216701744,5.388320932051539,6.509902703025936
1761380611123588400,4.45658837890625,3.0431928071439263,4.285761256933212,5.473605598366261
1761380611133644300,4.466644287109375,0.7312807231396437,2.7805145151376722,4.55864325530678
1761380611143700500,4.476700439453125,-2.1319214275568723,0.8477864571481942,4.595239294037222
1761380611153756400,4.48675634765625,-4.832434185218811,-0.989747534930706,4.5119183290109035
1761380611163811300,4.496811279296875,-7.491973711979389,-1.5617974810570479,3.544770456162095
1761380611173867500,4.506867431640625,-9.276944573128223,-2.876754290708899,3.059643298946321
1761380611183923500,4.51692333984375,-9.183518101412057,-4.916445178335905,4.093101965309679
1761380611193979100,4.526979248046875,-10.423500626361369,-3.977793039870262,3.2124288453429934
1761380611204035300,4.537035400390625,-12.120479900324344,-1.5883990722566843,1.1962322305500506
1761380611214090200,4.54709033203125,-12.886963454270361,0.3808966751515865,0.47552806567810474
1761380611224146400,4.557146484375,-12.144992410290241,1.4333487957984208,1.1737594097182154
1761380611234202400,4.567202392578125,-11.356720218384265,1.0720885490089653,1.6964879833146929
1761380611244258300,4.57725830078125,-9.291356544840335,-0.5278823030978441,1.026525359968841
1761380611254314500,4.587314453125,-6.850383781158924,-1.7997206865131854,0.37088308452889324
1761380611264369400,4.597369384765625,-5.062187528222799,-2.2456921836435795,-0.36660379977449775
1761380611274425300,4.60742529296875,-3.650765902072191,-2.1282950537532566,-1.6355650203183292
1761380611284481300,4.617481201171875,-2.540522686713934,-1.7968080139368772,-2.8975281986683608
1761380611294537200,4.627537109375,-1.0450912364900111,-1.593421868854761,-3.7331907950416205
1761380611304593400,4.637593505859375,0.38125264898240563,-1.56095401597023,-4.008825306993723
1761380611314648300,4.6476484375,1.0042395861417055,-1.3059580951601266,-4.347967829999328
1761380611324704500,4.65770458984375,1.4893541761368512,-0.6818336784034967,-4.832256490564346
1761380611334760400,4.667760498046875,2.355637243962288,0.27668226743936536,-5.327522472217678
1761380611344816400,4.67781640625,3.246239929530024,1.307665483599901,-5.634206494688987
1761380611354872600,4.68787255859375,4.197675561723113,1.9520231255680323,-5.724062122181057
1761380611364927200,4.69792724609375,5.29643058386147,2.1029057609528303,-5.830640336415171
1761380611374983400,4.7079833984375,5.721640447992086,2.278845096182823,-6.194048116627335
1761380611385039400,4.718039306640625,5.6515428294152015,2.890864064604044,-6.834281372141838
1761380611395095300,4.72809521484375,5.816768462929129,3.3147844734460112,-7.4663658079922195
1761380611405151500,4.7381513671875,6.176698922419548,3.744504508477449,-7.812865708023309
1761380611415206400,4.748206298828125,6.392959162122011,4.041734473904967,-7.81538324380219
1761380611425262300,4.758262451171875,6.244037597677111,4.066474362885952,-7.618015336096287
1761380611435318500,4.768318603515625,5.803174237340689,3.842029647684097,-7.529232306271791
1761380611445374500,4.77837451171875,5.433019905477762,3.4282512781500816,-7.476448810589313
1761380611455430100,4.78843017578125,4.663552367284893,3.1991432473123074,-7.405384977328777
1761380611465485300,4.7984853515625,3.7664591506540774,2.902903461965918,-7.700735120359063
1761380611475544800,4.808544921875,2.286090245005488,1.9923609811753034,-8.378187222677468
1761380611485601000,4.81860107421875,0.6080898122787475,0.6933692178964614,-8.845271650463342
1761380611495657000,4.828656982421875,0.05175532167851925,-1.1450140844881533,-8.824476699715852
1761380611505713000,4.838712890625,0.012141104170680045,-2.593486799660325,-9.386040323141216
1761380611515767800,4.848767822265625,-3.8768823498785494,-3.0800387289822098,-9.953251597064734
1761380611525823700,4.85882373046875,-9.153546156996487,-4.488952171704173,-9.332951122510433
1761380611535880000,4.8688798828125,-12.041779873096942,-6.927310368973016,-8.79672827656865
1761380611545936000,4.878935791015625,-14.718950918138026,-8.113493499195576,-8.88460938911736
1761380611555991800,4.88899169921875,-18.893156172424554,-6.096253512829541,-8.902859331557154
1761380611566047000,4.899046875,-18.461872541338206,-2.8060861787676807,-8.080914587152003
1761380611576103000,4.90910302734375,-15.25742884953022,0.4657195691734552,-7.16926969807744
1761380611586159000,4.9191591796875,-11.841934177100658,2.5729163053184747,-5.2690796355992555
1761380611596215000,4.929215087890625,-8.03513658631742,2.6265017650336024,-2.170058850510418
1761380611606271000,4.93927099609375,-4.7983887077540155,1.6943436647623777,0.6661272829666733
1761380611616326000,4.949325927734375,-1.6839087799876928,0.46920390415787694,2.845541406321525
1761380611626381800,4.9593818359375,0.020443068569898606,-0.5016021989375352,4.453992209742963
1761380611636438000,4.96943798828125,1.1212392411470413,-0.5659773482143878,5.601445796337724
1761380611646494000,4.979493896484375,2.002358643576503,-0.10976444305479525,6.153949914994835
1761380611656550000,4.9895498046875,1.7266010897666215,1.2760580469369887,5.517756874781846
1761380611666605000,4.99960498046875,1.0355080001085997,2.6628829919695853,4.640274075289071
1761380611676661000,5.009660888671875,0.5624135182529687,3.749150872978568,4.485110693845153
1761380611686716700,5.019716552734375,0.141568863594532,5.1509033380299805,4.695154543250799
1761380611696772900,5.02977294921875,0.9214373842924832,6.256548704203963,4.9178755033999675
1761380611706828800,5.039828857421875,1.87170163461864,7.357701435133815,4.955752521851658
1761380611716884000,5.049884033203125,2.8826018476933237,8.394121289390325,5.113910116675496
1761380611726940000,5.05993994140625,3.9928742891460653,8.797875108516216,5.615819774127006
1761380611736995800,5.069995849609375,4.1988346686303615,8.743274918800592,6.594797493240237
1761380611747052000,5.080052001953125,4.060125286120176,7.506253581744432,8.000455149036645
1761380611757108000,5.09010791015625,3.8871746113121506,6.43682636089921,9.501715451544523
1761380611767163000,5.100162841796875,3.9278386301338672,5.760437503898143,10.643173304855823
1761380611777218800,5.11021875,4.297822281605005,4.631759052661061,11.864575047975778
1761380611787274800,5.120274658203125,4.4045220763921735,3.8922926849782464,12.963233039480446
1761380611797331000,5.1303310546875,5.182331910994649,3.427780153506994,13.585678709369898
1761380611807387000,5.140386962890625,5.677755129036307,3.1507717228531837,13.661707471561432
1761380611817442000,5.150442138671875,5.733810193735361,3.155407565960288,13.257640348702669
1761380611827498000,5.160498046875,5.912767415481805,2.8969425077348947,12.253996390366554
1761380611837554000,5.170553955078125,4.39919474388957,2.6181881101965905,10.38653546205759
1761380611847610000,5.180610107421875,1.5567302607953548,1.5289870983451603,8.346925822973251
1761380611857666000,5.190666015625,-1.132521098139882,-0.574884292769432,6.6645321237236255
1761380611867721000,5.200720947265625,-4.569502795234322,-2.577693602722883,5.944852991050482
1761380611877777000,5.21077685546875,-7.617489266395569,-3.6130747615814207,6.261446997639537
1761380611887832800,5.220832763671875,-9.460511919018625,-3.8271605798542496,6.571731090429425
1761380611897889000,5.230888916015625,-11.383077479434013,-4.297047205579281,6.1093134854108095
1761380611907945000,5.240945068359375,-12.541467762845754,-4.879940617281198,5.7081070126801725
1761380611917999900,5.250999755859375,-12.968783659344911,-4.19514516646266,5.194090153327584
1761380611928056000,5.26105615234375,-13.091717965096235,-1.7334984480649231,3.814685129162669
1761380611938112000,5.271112060546875,-12.680461222994326,1.159416703850031,2.043199626400322
1761380611948167700,5.281167724609375,-12.071050391244887,2.5178654492259023,0.18105130794886498
1761380611958224000,5.291223876953125,-10.658478426015376,2.0726976696938273,-1.462531197271496
1761380611968278800,5.30127880859375,-8.763226988983154,0.1695499264538288,-2.7147382668912408
1761380611978335000,5.3113349609375,-6.893503960961103,-0.6570896977692842,-3.573711596225202
1761380611988391000,5.321390869140625,-5.702400909993052,-0.25022622219026086,-4.594129871490598
1761380611998446800,5.33144677734375,-5.516470926624536,0.17231179238259792,-5.720529856401682
1761380612008503000,5.3415029296875,-4.5933366752862925,0.4600725031971931,-6.387600849959254
1761380612018558000,5.351557861328125,-3.125270201849937,0.3932230727612972,-6.564758328807353
1761380612028614000,5.36161376953125,-1.39118255572021,0.09893383696079254,-6.818229232007265
1761380612038669800,5.371669921875,0.6078349607348442,0.24788170489072797,-7.150515897768735
1761380612048725800,5.381725830078125,3.0231437063276765,0.9794844995915889,-7.293352589341998
1761380612058782000,5.391781982421875,5.351177488571405,1.803152999049425,-7.0880515505492685
1761380612068836900,5.4018369140625,6.7926996539533135,2.581042913150787,-6.530593024355173
1761380612078893000,5.41189306640625,7.161236029225587,3.4964877790302036,-5.894266713151335
1761380612088949000,5.421948974609375,6.884332227990031,4.012645742064715,-5.422904754176735
1761380612099005000,5.4320048828125,6.1750681063473225,3.8530455472171306,-5.2546033664792775
1761380612109061000,5.44206103515625,4.937940970829129,3.679883860006928,-5.2827194538950915
1761380612119115800,5.45211572265625,3.837005682042241,3.3091128575503825,-5.3920314770072695
1761380612129172000,5.462171875,3.6595343149393793,3.0006343528777357,-5.629354963004589
1761380612139228000,5.472227783203125,3.7792619336038826,3.0806285115689036,-6.046689563715457
1761380612149283800,5.482283935546875,4.0057834550797935,2.970032878386974,-6.480957179048657
1761380612159340000,5.492340087890625,4.270995064955949,2.12097800873816,-6.946492623826861
1761380612169395000,5.50239501953125,4.155544392958284,0.8976549421668052,-7.6696490772217505
1761380612179451000,5.512450927734375,3.5417362030327317,-0.21145254715979098,-8.350673777329922
1761380612189507000,5.522507080078125,3.2524031283348798,-0.29333178894519807,-8.540911102503538
1761380612199563000,5.53256298828125,2.1804724002361295,0.34701486381590363,-8.647282980510592
1761380612209618700,5.54261865234375,0.5705319427788257,0.8680074074000119,-8.289836739051342
1761380612219673900,5.552673828125,-1.0431155525028706,0.15520985093414782,-7.683743069025874
1761380612229729800,5.562729736328125,-1.8551093962579965,-1.8544862959235906,-6.463861667340994
1761380612239786000,5.572785888671875,-1.9803800360023973,-3.9950995639801024,-4.417653945165872
1761380612249842000,5.582842041015625,-5.110193726500868,-4.863817749997973,-3.0962597959429026
1761380612259897900,5.59289794921875,-8.816956241083144,-4.2932998357445,-2.382266892212629
1761380612269953000,5.602953125,-10.69131335864663,-4.220159780731797,-2.346964692685008
1761380612280008700,5.6130087890625,-13.612712846767902,-5.531192694938182,-3.2392011169344186
1761380612290065000,5.62306494140625,-16.736629295921325,-3.378053707307577,-3.278449716000259
1761380612300120800,5.633120849609375,-16.86111141563654,-0.7981611332356929,-2.0982005058713256
1761380612310176800,5.6431767578125,-14.84307764854431,0.8196493269443511,-1.287922672253847
1761380612320232000,5.65323193359375,-10.346004714226723,2.524015204027295,-1.8861054230242966
1761380612330287900,5.663287841796875,-6.910856077778339,3.1501024452894923,-2.567960144215822
1761380612340344000,5.673343994140625,-5.008806066647172,2.9620442177206274,-2.207731870822608
1761380612350400000,5.68339990234375,-1.8959405883401632,2.67339269554615,-1.2393383818268775
1761380612360456000,5.6934560546875,1.24136667278409,2.5002538046896454,-0.4905689098782837
1761380612370510800,5.7035107421875,3.4236072517365215,1.749358865019679,0.6092164782211185
1761380612380566800,5.71356689453125,3.335840705478191,0.8856021008014678,2.307441368331015
1761380612390623000,5.723623046875,1.752674857699871,0.33653906250894067,4.323063982628286
1761380612400679000,5.733678955078125,0.21565467502474783,0.6061240651637315,5.815812185117602
1761380612410734800,5.74373486328125,-0.8985983604967593,2.112872443693876,5.9927697574794285
1761380612420790000,5.7537900390625,-0.9162649500906467,3.84301281350255,5.384512187418341
1761380612430846000,5.763845947265625,-0.511807951131463,4.861126026695967,5.027380418735742
1761380612440902000,5.77390185546875,0.17163550055623053,6.027258302536606,4.8690313929930324
1761380612450958000,5.7839580078125,1.1625777982294558,6.853865193533897,4.636555347026884
1761380612461013800,5.794013671875,2.464271806204319,7.187269465148448,4.725794888447225
1761380612471069700,5.804069580078125,3.6253584890931845,7.542671049037575,5.267808300489187
1761380612481124900,5.814124755859375,4.444077841711044,7.6724454299420115,6.371080507791042
1761380612491180800,5.824180908203125,5.037040227484702,7.400756148484349,8.071231982049346
1761380612501237000,5.834237060546875,6.032615445655584,6.7628095426023,9.992730205494166
1761380612511293000,5.84429296875,6.368943495762347,6.120155781942605,11.281864007103442
1761380612521348900,5.854348876953125,5.892546465229988,5.340510548606515,11.954064180243014
1761380612531404000,5.864404052734375,5.702548209509253,4.457627643635869,12.127518712919949
1761380612541460000,5.8744599609375,5.479497579014301,4.399833041793108,11.934755084139107
1761380612551516200,5.88451611328125,5.033563491284847,4.538633609718084,11.655718362528084
1761380612561572000,5.894572021484375,4.303622492316365,4.427662713482976,11.112539706099033
1761380612571628000,5.9046279296875,2.6560359025537967,4.4862528496176,10.038228220343589
1761380612581683000,5.914682861328125,0.3928776203244924,4.146918603432178,8.768355584043263
1761380612591739000,5.92473876953125,-1.7186995228618382,2.842877155548334,7.216278702011704
1761380612601795000,5.934795166015625,-2.6556033563554284,1.377851364982128,5.2161242904812095
1761380612611851000,5.94485107421875,-2.489591540899873,0.5008884977102279,3.653401511272788
1761380612621907000,5.954906982421875,-3.0743852332651613,-0.049939796689152716,2.1974301109082996
1761380612631962000,5.964962158203125,-5.241240611559152,-0.2542851421922445,1.677677484382689
1761380612642018000,5.97501806640625,-7.007159566235542,-2.181650211843848,2.400497253169119
1761380612652074000,5.985073974609375,-8.015712923923134,-3.899425605598092,3.506496547347307
1761380612662130000,5.9951298828125,-8.84719472748041,-4.044596877598762,3.6192291925579307
1761380612672185900,6.005185791015625,-10.496953985106945,-2.2977906196713445,2.317192947016656
1761380612682241000,6.015240966796875,-12.044571549642086,-0.5901742163598537,0.5226090388700366
1761380612692297000,6.025296875,-11.318345187282562,0.5581891785562038,-1.2719427205726503
1761380612702353000,6.035352783203125,-9.08498583098948,1.36717974884212,-2.3092396499246357
1761380612712409000,6.0454091796875,-7.137313301846385,1.4051684109747409,-2.377104248752445
1761380612722465000,6.055465087890625,-5.37267269654274,1.1308996344178914,-2.2314321876227856
1761380612732520200,6.065520263671875,-3.560518060392141,0.377712199896574,-1.9617517617695033
1761380612742575900,6.075575927734375,-1.4989923575758932,-1.148114388591051,-1.2897957726493476
1761380612752631800,6.0856318359375,-1.3343833946555852,-1.4355968669861554,-1.5806985808819531
1761380612762688000,6.09568798828125,-1.8785189134180544,-0.47895782093107697,-3.2953076195597646
1761380612772744000,6.105743896484375,-1.4462889413923024,-0.18071546359062193,-4.819882454420626
1761380612782799000,6.115799072265625,-1.5050152711272238,0.4230073856502771,-5.531888275986909
1761380612792855000,6.12585498046875,-1.3474024507045745,1.252907472974062,-5.688591580349207
1761380612802911000,6.135910888671875,-0.759853906673193,1.9410989959716796,-5.727233737954497
1761380612812967200,6.14596728515625,-0.37530572327673434,2.406133505490422,-5.624079652950168
1761380612823023000,6.156023193359375,-0.12670856359302995,2.696460851922631,-5.539942987626791
1761380612833078000,6.166078125,0.5959487081080674,2.6899089460611343,-5.90229629034996
1761380612843134000,6.176134033203125,1.2932429904937743,3.0439912640452382,-6.612002895063162
1761380612853190000,6.18618994140625,2.1249702932447194,3.6397768905460834,-7.162946340274811
1761380612863246000,6.19624609375,2.8336785345703364,3.886348097360134,-7.550678414404392
1761380612873302000,6.206302001953125,3.491214807063341,3.6558617639064788,-7.857764003413915
1761380612883357000,6.21635693359375,4.294042178544402,3.1141713002085685,-7.966756293052434
1761380612893413000,6.2264130859375,4.697538223516941,2.4294810633301736,-8.15822403680384
1761380612903469000,6.236468994140625,4.225809769317507,1.9537983185470102,-8.510649235230684
1761380612913525000,6.24652490234375,3.115824328112602,1.9102543603748081,-8.99856017794609
1761380612923581000,6.256580810546875,2.5039649341672656,2.020857592341304,-9.560428337275981
1761380612933636900,6.266636962890625,2.2658266246557233,2.526033558112383,-10.12759927918911
1761380612943692000,6.276692138671875,2.017300776642561,2.924299885737896,-10.559520039135217
1761380612953748000,6.286748046875,1.7219740144878626,2.3132839568793773,-10.288851332896947
1761380612963804000,6.296803955078125,1.484431040520966,1.1861170792490243,-9.671149642664194
1761380612973860000,6.306860107421875,0.22184651540219782,0.5456424161940813,-9.17101634723544
1761380612983916000,6.316916015625,-2.1970900652989744,-0.33633097271621226,-8.431360009938478
1761380612993971200,6.32697119140625,-4.837137248343229,-2.2870126205474137,-7.2997343993335955
1761380613004027000,6.33702685546875,-6.8376821204960345,-5.329880433520675,-6.043450143402815
1761380613014082800,6.347082763671875,-9.527021742236613,-8.377510346329212,-5.444925447326899
1761380613024139000,6.357138916015625,-13.608473894023895,-9.368107776087522,-5.4713785699665545
1761380613034195000,6.36719482421875,-18.13091507835388,-7.945000972840189,-5.228401003730297
1761380613044250000,6.37725,-20.138256771039963,-5.753968015623093,-3.768778241251409
1761380613054306000,6.38730615234375,-17.879187219429014,-3.1438597515076396,-1.3042729185521602
1761380613064362000,6.397362060546875,-14.029483968377113,-1.4565332720309494,1.1438264090735464
1761380613074418200,6.407418212890625,-8.981042056912184,-0.8230220182478427,3.468342465519905
1761380613084474000,6.41747412109375,-4.470985137858986,-0.014486205992102623,5.237264693665504
1761380613094529000,6.427529052734375,-2.1081343092560765,0.4010626803457737,5.733453635382652
1761380613104585000,6.4375849609375,-0.2519216279312968,-0.3305821999311447,5.524160896605253
1761380613114641000,6.447640869140625,2.153915817221999,-0.9434335275232791,5.319384173947572
1761380613124697000,6.457697021484375,4.047397614233195,-0.5399895049989223,5.120248672047257
1761380613134753000,6.4677529296875,4.841785950931906,0.3783960905075073,4.871476155796647
1761380613144808000,6.477807861328125,4.81826245200336,1.493064136570692,4.618484560546278
1761380613154864000,6.487864013671875,4.0097055969595905,2.152275064277649,4.833786476610601
1761380613164920000,6.497920166015625,2.361239301753044,2.6339427286893127,5.5352229733675715
1761380613174976000,6.50797607421875,0.6125076287209987,3.462172836974263,6.1674506170809265
1761380613185032000,6.518031982421875,-0.21024375589191913,4.299826022642851,6.301589038413763
1761380613195086800,6.5280869140625,0.5373188244849443,5.110591785907745,5.952366435420513
1761380613205143000,6.53814306640625,2.8489374785006043,5.704957608738542,5.658679841688275
1761380613215199000,6.548198974609375,4.014342024588585,5.766892963647842,5.573550073674321
1761380613225255000,6.5582548828125,3.7274540049552916,5.2703468790560954,6.0853311367988585
1761380613235311000,6.56831103515625,2.598790751287341,4.7100499145656824,7.087499761885404
1761380613245366000,6.578365966796875,0.8515121996730566,4.133566369906068,8.185015597617626
1761380613255422000,6.588421875,-0.941453167361021,3.60177419988811,9.05566679752469
1761380613265478000,6.598477783203125,-0.6088385848194361,3.325887466740608,9.565997661840916
1761380613275533800,6.608533935546875,1.489054316407442,3.255244489240646,10.05549616600871
1761380613285590000,6.618590087890625,3.7080858721405265,2.910902644026279,10.800407355093956
1761380613295646000,6.62864599609375,5.216536962935328,2.055911954587698,11.53899635542035
1761380613305701000,6.638701171875,5.41799067865014,0.9942068524271249,11.838254027283192
1761380613315757000,6.648757080078125,4.201239391684532,0.7141244211554527,11.669331877338886
1761380613325813000,6.65881298828125,1.7838497481644153,1.2095113988399504,11.028587165170908
1761380613335869200,6.668869140625,-0.4328478116631508,1.5937252357155083,9.595430677074193
1761380613345925000,6.678925048828125,-0.9778104288995265,0.8495330085545778,7.381795427426695
1761380613355980000,6.68897998046875,0.02637012053132057,-0.9275169964671134,5.011005622518062
1761380613366036000,6.699035888671875,0.3652420099020004,-2.258756832399964,3.2845693679243326
1761380613376092000,6.709091796875,-2.6758202149540185,-2.5569144340664147,2.1541851356826722
1761380613386148000,6.719148193359375,-8.720461029446124,-2.5588001016825435,0.5909383326001465
1761380613396204000,6.7292041015625,-12.728027276289462,-3.80735405562222,0.920011150881648
1761380613406259000,6.739259033203125,-12.986222285401821,-6.117513743001222,3.9905332789778707
1761380613416315100,6.749315185546875,-15.574892040169239,-5.172279303535818,3.32876477574259
1761380613426371000,6.75937109375,-17.434283059269188,-0.9222112912744284,-0.39523704293221235
1761380613436426800,6.7694267578125,-17.318054388636348,1.3481944778650998,-2.5888655696004625
1761380613446483000,6.77948291015625,-16.34187360676527,2.405061492344737,-2.9105592374160882
1761380613456537900,6.789537841796875,-14.949076017063856,2.7074375884890554,-2.659449510389566
1761380613466594000,6.799593994140625,-13.07982762081623,2.459538347941637,-2.423841596138477
1761380613476650000,6.80964990234375,-10.07802597772479,1.9471628260552882,-2.058921657797694
1761380613486702800,6.819702880859375,-8.25282130586505,1.47231010235548,-2.335509086560458
1761380613496759000,6.829759033203125,-6.837378169113397,1.6853040337383747,-3.1180989950463176
1761380613506814000,6.83981396484375,-4.441851982355118,1.8394231668263672,-3.9853637673854827
1761380613516870100,6.8498701171875,-2.25870831708312,2.0658342136651275,-4.818984336537122
1761380613526926000,6.859926025390625,-0.351036958938837,2.4065450089007614,-5.361700051629543
1761380613536982000,6.86998193359375,1.1018553262412547,2.3990426704466343,-5.70861437768042
1761380613547038000,6.880037841796875,2.213182245182991,2.6176988653749227,-5.796802948743105
1761380613557093000,6.890093017578125,3.4005420179694887,2.920750668823719,-5.555234664782882
1761380613567148800,6.900148681640625,4.4994496003210545,3.196232912823558,-5.372601384872198
1761380613577205000,6.910205078125,5.6943935446262355,3.819367734020948,-5.438474663752317
1761380613587261000,6.920260986328125,6.669357936444878,4.6665445348381995,-5.672576265093684
1761380613597316900,6.93031689453125,6.548730738592147,5.100639716213942,-5.7277253208637235
1761380613607373000,6.940373046875,5.708958076551556,5.02770132125318,-5.697589710319042
1761380613617428000,6.950427978515625,4.835220601066947,4.8786985082656145,-6.028387014305591
1761380613627484200,6.960484130859375,3.8186096091300246,4.947876673910021,-6.5143251956433055
1761380613637540000,6.9705400390625,3.2902930062681435,5.386176905760169,-6.683252606284618
1761380613647596000,6.980595947265625,3.7205291741281745,5.693439020380377,-6.514671232602
1761380613657652200,6.99065234375,4.53640248966515,5.755359762242436,-6.208080733633041
1761380613667707000,7.000706787109375,5.310085015204549,5.58738921393454,-6.007690263235569
1761380613677763000,7.01076318359375,5.381538724565505,4.88098281981051,-6.007782617694139
1761380613687819000,7.020819091796875,4.768342529058456,4.655802191549539,-5.880945459285378
1761380613697875000,7.030875,3.935913800039887,4.9516135223507876,-5.449511606073379
1761380613707931100,7.04093115234375,3.2609564371466635,4.496862506437301,-4.728638879701495
1761380613717986000,7.050986083984375,1.7479443220466375,3.596084463813901,-3.9300256187841294
1761380613728042200,7.061042236328125,-0.3869020530462265,2.474081837078929,-3.2277287058055397
1761380613738098200,7.07109814453125,-1.2444295674860477,-0.20061609584689138,-2.4978607720732686
1761380613748153900,7.08115380859375,-1.3296049282073974,-2.995994418117404,-1.7914666529089212
1761380613758210000,7.0912099609375,-3.476885252937674,-2.959659368410706,-1.1824329839088021
1761380613768265000,7.101264892578125,-6.788806153646111,-2.47644798168838,-1.3242279113441704
1761380613778321200,7.111321044921875,-8.325319555842876,-6.27110154569149,-2.4508975069768724
1761380613788377000,7.121377197265625,-11.255134990131854,-6.192419054120779,-3.0116461607575413
1761380613798433000,7.13143310546875,-13.248214348709583,-3.740324007922411,-2.6097183880150316
1761380613808489000,7.141489013671875,-12.310474064391851,-2.0060475612223145,-2.646982827526331
1761380613818544000,7.151544189453125,-10.168326426374911,-0.5522755705982446,-3.2221675645470618
1761380613828599800,7.161599853515625,-8.216207439216971,-0.20142273605465888,-3.7369542392283677
1761380613838656000,7.171656005859375,-6.5829106560915704,-0.7881389209151267,-2.882376222243905
1761380613848712000,7.1817119140625,-4.681344629085063,-1.714222085186839,-1.1070710150629282
1761380613858768000,7.191767822265625,-3.398036757150292,-2.7060516870886087,0.4690535359017551
1761380613868824000,7.201823974609375,-2.868615992438793,-3.3435803598195313,1.865362202464044
1761380613878879000,7.21187890625,-2.2164298488020897,-3.6007314128369092,2.563943602050841
1761380613888935200,7.22193505859375,-1.698729332500696,-3.4505461120665073,2.672980607613921
1761380613898991000,7.2319912109375,-1.7307009263008832,-3.0699276693344113,2.5198595456525683
1761380613909047000,7.242047119140625,-1.0630512560725212,-2.2250258277118204,2.537514152547717
1761380613919103200,7.252103271484375,-0.09602993221282959,-0.8922773407816886,2.5101298865377903
1761380613929158000,7.262157958984375,1.2057575992643832,0.6591501374304294,2.7176415871173143
1761380613939214000,7.272214111328125,0.3450993855834007,1.6101111378490924,3.523378708565235
1761380613949270000,7.28227001953125,-0.7769570171654224,2.2025766800165174,3.684009123243391
1761380613959326000,7.292325927734375,-0.398411873576045,2.6036481281906365,2.678864989477396
1761380613969382100,7.302382080078125,0.49915246769785876,3.1092320902407167,1.56367248114869
1761380613979437000,7.31243701171875,1.4714485170900822,3.7201965811729427,0.8220944550741464
1761380613989493200,7.3224931640625,2.795362540179491,3.558541207361221,1.331938631851971
