time,seconds_elapsed,z,y,x
1761380606789543000,0.12254296875,-0.5831242203712463,2.434542655944824,-0.38444504141807556
1761380606799598800,0.132598876953125,-0.4865556061267853,2.275911569595337,-0.6353675127029419
1761380606809654000,0.142654052734375,-0.33626624941825867,1.9706016778945923,-0.7377594113349915
1761380606819710000,0.1527099609375,-0.16701839864253998,1.5526694059371948,-0.6823089122772217
1761380606829766000,0.162765869140625,0.049736540764570236,1.0904839038848877,-0.559817373752594
1761380606839821800,0.17282177734375,0.22455361485481262,0.765957236289978,-0.4760564863681793
1761380606849877800,0.182877685546875,0.3493245840072632,0.5487484931945801,-0.45193251967430115
1761380606859933000,0.192932861328125,0.41719555854797363,0.37706896662712097,-0.5428372025489807
1761380606869988900,0.20298876953125,0.4477478563785553,0.2504329979419708,-0.8703882098197937
1761380606880045000,0.213045166015625,0.46458354592323303,0.24805812537670135,-1.3347835540771484
1761380606890101000,0.22310107421875,0.4308176040649414,0.341136634349823,-1.806574821472168
1761380606900157000,0.233156982421875,0.317841112613678,0.5410026907920837,-2.229304313659668
1761380606910211800,0.2432119140625,0.22210314869880676,0.7168235182762146,-2.4163854122161865
1761380606920267800,0.253267822265625,0.12236493825912476,0.6817081570625305,-2.2657642364501953
1761380606930323700,0.26332373046875,-0.021530449390411377,0.5243771076202393,-1.7894628047943115
1761380606940380000,0.2733798828125,-0.17051982879638672,0.30197086930274963,-1.1401119232177734
1761380606950435800,0.283435791015625,-0.23569323122501373,0.07492279261350632,-0.5183361768722534
1761380606960491000,0.293490966796875,-0.1904737949371338,-0.2205488681793213,-0.029465192928910255
1761380606970547000,0.303546875,-0.0873735174536705,-0.532207190990448,0.32546761631965637
1761380606980603000,0.313602783203125,-0.003229733556509018,-0.7750551700592041,0.40728649497032166
1761380606990659000,0.3236591796875,0.08926185220479965,-0.7002837061882019,0.1910058557987213
1761380607000713700,0.333713623046875,0.1700170487165451,-0.6111758351325989,0.0048490120097994804
1761380607010770000,0.34377001953125,0.22594235837459564,-0.8323207497596741,0.09988071769475937
1761380607020825900,0.353825927734375,0.28270408511161804,-1.3150349855422974,0.49732059240341187
1761380607030881800,0.3638818359375,0.3485907018184662,-1.8990886211395264,1.071056842803955
1761380607040938000,0.37393798828125,0.37140268087387085,-2.4332082271575928,1.5886204242706299
1761380607050993000,0.383992919921875,0.320843905210495,-2.5154976844787598,1.7961156368255615
1761380607061049000,0.394049072265625,0.18303318321704865,-2.356935739517212,1.5919216871261597
1761380607071105000,0.40410498046875,-0.026195403188467026,-2.2844395637512207,0.966117799282074
1761380607081161000,0.414160888671875,-0.19210626184940338,-2.297438859939575,-0.05711737275123596
1761380607091217000,0.424216796875,-0.2547347843647003,-2.3287477493286133,-1.0929043292999268
1761380607101271800,0.434271728515625,-0.24441806972026825,-2.586904287338257,-1.7422703504562378
1761380607111328000,0.444327880859375,-0.2334466427564621,-2.9565012454986572,-1.738899827003479
1761380607121384000,0.454384033203125,-0.3916570842266083,-3.1502115726470947,-1.1236648559570312
1761380607131439900,0.46443994140625,-0.6152145862579346,-3.1266064643859863,-0.22086530923843384
1761380607141496000,0.47449609375,-0.8124854564666748,-3.0315823554992676,0.6047484874725342
1761380607151551000,0.484551025390625,-0.9607649445533752,-3.1191651821136475,1.0800068378448486
1761380607161607000,0.49460693359375,-1.0052149295806885,-3.065221071243286,1.2171541452407837
1761380607171662800,0.504662841796875,-1.0514825582504272,-2.8482515811920166,1.0998791456222534
1761380607181718800,0.51471875,-1.0733104944229126,-2.705950975418091,0.8148897290229797
1761380607191774000,0.52477392578125,-0.9786763787269592,-2.6331379413604736,0.5758864283561707
1761380607201830000,0.534829833984375,-0.8163313269615173,-2.594255208969116,0.4166634976863861
1761380607211885800,0.5448857421875,-0.5947709679603577,-2.5296292304992676,0.3312074542045593
1761380607221942000,0.55494189453125,-0.2885473370552063,-2.3474650382995605,0.23618640005588531
1761380607231998000,0.564998046875,0.05598766729235649,-2.0026190280914307,0.09267823398113251
1761380607242052900,0.575052978515625,0.3675748407840729,-1.734778881072998,-0.05080772191286087
1761380607252108800,0.58510888671875,0.6238122582435608,-1.4921702146530151,-0.10186850279569626
1761380607262164700,0.595164794921875,0.6957408785820007,-1.2348850965499878,-0.015255472622811794
1761380607272221000,0.605220947265625,0.6238160729408264,-0.9839702844619751,0.18093694746494293
1761380607282276900,0.61527685546875,0.44065386056900024,-0.8307385444641113,0.355232298374176
1761380607292332000,0.62533203125,0.2907165586948395,-0.5984800457954407,0.3974210321903229
1761380607302388000,0.635387939453125,0.1980452835559845,-0.596839427947998,0.18076570332050323
1761380607312444000,0.64544384765625,0.09325762838125229,-0.43213731050491333,-0.19145579636096954
1761380607322500000,0.6555,-0.01154256984591484,-0.1441047191619873,-0.6258063912391663
1761380607332556000,0.66555615234375,-0.11474219709634781,0.06020740047097206,-0.972967803478241
1761380607342611000,0.67561083984375,-0.24722407758235931,0.07625674456357956,-1.1122260093688965
1761380607352667000,0.6856669921875,-0.36039939522743225,-0.016623394563794136,-1.1216967105865479
1761380607362722800,0.695722900390625,-0.41360005736351013,-0.0325266569852829,-1.1401938199996948
1761380607372779000,0.705779052734375,-0.3927919864654541,0.11558184772729874,-1.170061469078064
1761380607382834000,0.715833984375,-0.3066968619823456,0.46623632311820984,-1.0774294137954712
1761380607392889900,0.725889892578125,-0.20124422013759613,0.8981996774673462,-0.8425335884094238
1761380607402946000,0.735946044921875,-0.05156879127025604,1.4095386266708374,-0.5050737261772156
1761380607413002000,0.746001953125,0.05565539747476578,1.672426462173462,-0.18512369692325592
1761380607423058000,0.756057861328125,0.12742003798484802,1.721116542816162,-0.0017703184857964516
1761380607433112800,0.76611279296875,0.19402915239334106,1.651544451713562,0.14967352151870728
1761380607443168800,0.776168701171875,0.27220413088798523,1.485817790031433,0.21168603003025055
1761380607453225000,0.786224853515625,0.4281686842441559,1.5936754941940308,0.00988101027905941
1761380607463281000,0.796281005859375,0.5799704194068909,1.8419208526611328,-0.4731435477733612
1761380607473336600,0.806336669921875,0.7400279641151428,1.8048789501190186,-1.2141375541687012
1761380607483391700,0.816391845703125,0.8991923332214355,2.02992844581604,-1.9228434562683105
1761380607493447700,0.82644775390625,0.9029188752174377,2.7063865661621094,-2.2699122428894043
1761380607503504000,0.83650390625,0.675006091594696,3.46224045753479,-2.2134792804718018
1761380607513559800,0.846559814453125,0.30278483033180237,3.8677215576171875,-1.768877387046814
1761380607523615700,0.85661572265625,-0.06803624331951141,3.8545877933502197,-0.9662783741950989
1761380607533671000,0.8666708984375,-0.2660049796104431,3.611541271209717,-0.08163381367921829
1761380607543726600,0.8767265625,-0.29812943935394287,3.151322364807129,0.641390323638916
1761380607553782800,0.88678271484375,-0.26971137523651123,2.5755650997161865,1.129460334777832
1761380607563838700,0.896838623046875,-0.19074077904224396,1.8851677179336548,1.3305407762527466
1761380607573894700,0.906894775390625,-0.06283635646104813,1.3231769800186157,1.2126401662826538
1761380607583949800,0.91694970703125,0.08949560672044754,0.9821440577507019,0.897921085357666
1761380607594005800,0.927005859375,0.20619533956050873,1.053282618522644,0.5671759247779846
1761380607604062000,0.93706201171875,0.2012031227350235,1.3327628374099731,0.2839866578578949
1761380607614118000,0.947117919921875,0.16796687245368958,1.654516339302063,0.05357634648680687
1761380607624172800,0.9571728515625,0.17491163313388824,1.897435188293457,-0.14643895626068115
1761380607634228700,0.967228759765625,0.23568657040596008,1.930522084236145,-0.3128383159637451
1761380607644284700,0.97728466796875,0.345133513212204,1.7690075635910034,-0.4620405435562134
1761380607654340900,0.9873408203125,0.461276113986969,1.4286860227584839,-0.7163615226745605
1761380607664396800,0.997396728515625,0.5700364112854004,1.1446421146392822,-1.0493061542510986
1761380607674451700,1.00745166015625,0.5948114991188049,0.9437302350997925,-1.3009098768234253
1761380607684508000,1.0175078125,0.5340865254402161,0.6383064985275269,-1.4578027725219727
1761380607694563800,1.027563720703125,0.4664861857891083,0.39037448167800903,-1.4678016901016235
1761380607704619800,1.037619873046875,0.38714954257011414,0.17251254618167877,-1.2602548599243164
1761380607714676000,1.047676025390625,0.31675204634666443,-0.016111426055431366,-0.8738272786140442
1761380607724730600,1.057730712890625,0.25415894389152527,-0.28479331731796265,-0.43821194767951965
1761380607734786800,1.067786865234375,0.18143919110298157,-0.5207824110984802,-0.003427183488383889
1761380607744842800,1.0778427734375,0.10966667532920837,-0.5140327215194702,0.3305078446865082
1761380607754898700,1.087898681640625,0.05529505014419556,-0.334615558385849,0.5816982388496399
1761380607764955000,1.097954833984375,-0.03985719382762909,-0.2643614113330841,0.8842238187789917
1761380607775009800,1.108009765625,-0.10328303277492523,-0.3720300793647766,1.22843337059021
1761380607785066000,1.11806591796875,-0.10274489969015121,-0.7254366874694824,1.6130518913269043
1761380607795121700,1.12812158203125,-0.049069151282310486,-1.1975288391113281,1.97299325466156
1761380607805177600,1.138177490234375,0.0745544582605362,-1.724643349647522,2.1362531185150146
1761380607815233800,1.14823388671875,0.23890531063079834,-2.1669766902923584,1.9926064014434814
1761380607825288700,1.158288818359375,0.37644851207733154,-2.4282753467559814,1.6430983543395996
1761380607835345000,1.168344970703125,0.4612065255641937,-2.490529775619507,1.1688448190689087
1761380607845400800,1.17840087890625,0.4440363347530365,-2.6501691341400146,0.8416861295700073
1761380607855456800,1.188456787109375,0.36386507749557495,-3.1324477195739746,0.8008316159248352
1761380607865513000,1.198512939453125,0.16791550815105438,-3.8184986114501953,0.7788228392601013
1761380607875567600,1.208567626953125,0.04645219072699547,-4.345310688018799,0.5842235088348389
1761380607885623800,1.218623779296875,0.20109137892723083,-4.546515464782715,0.32244959473609924
1761380607895679700,1.2286796875,0.4043363928794861,-4.658949375152588,0.31513094902038574
1761380607905735700,1.238735595703125,0.3037009537220001,-4.646482944488525,0.5755788683891296
1761380607915790800,1.248790771484375,-0.07807756960391998,-4.420395851135254,0.8025597929954529
1761380607925846800,1.2588466796875,-0.6654157638549805,-3.727612018585205,1.02620267868042
1761380607935902700,1.26890283203125,-1.3531975746154785,-2.711168050765991,1.402036190032959
1761380607945959000,1.278958984375,-1.7952576875686646,-2.037355899810791,1.84969961643219
1761380607956014800,1.289014892578125,-1.8326475620269775,-1.9770760536193848,2.1068339347839355
1761380607966069800,1.29906982421875,-1.4711592197418213,-2.1895580291748047,2.096158266067505
1761380607976125700,1.309125732421875,-0.8418251872062683,-2.5627191066741943,1.8785555362701416
1761380607986181600,1.319181640625,-0.05263892188668251,-3.038052797317505,1.4606870412826538
1761380607996237800,1.32923779296875,0.8019894361495972,-3.418843984603882,0.8706998825073242
1761380608006293800,1.339293701171875,1.529252529144287,-3.4751033782958984,0.26241493225097656
1761380608016349000,1.349348876953125,1.999929666519165,-3.5303852558135986,-0.2797386050224304
1761380608026404900,1.35940478515625,2.2192091941833496,-3.34037184715271,-0.7124847173690796
1761380608036460800,1.369460693359375,2.1904456615448,-2.813478469848633,-1.0391075611114502
1761380608046517000,1.37951708984375,1.9205632209777832,-2.215904474258423,-1.2096798419952393
1761380608056572700,1.38957275390625,1.397996425628662,-1.685471773147583,-1.1909135580062866
1761380608066627800,1.3996279296875,0.705150306224823,-0.973861575126648,-1.0906590223312378
1761380608076683800,1.409683837890625,0.025919318199157715,0.04902452230453491,-1.0525952577590942
1761380608086739700,1.41973974609375,-0.5340442657470703,0.8753928542137146,-1.1020095348358154
1761380608096796000,1.4297958984375,-0.9299673438072205,1.4255836009979248,-1.0936919450759888
1761380608106851800,1.439851806640625,-1.136369228363037,1.6362217664718628,-0.998570442199707
1761380608116907000,1.449906982421875,-1.1370552778244019,1.4098539352416992,-0.8566487431526184
1761380608126963000,1.459962890625,-1.011758804321289,1.0900838375091553,-0.7207645773887634
1761380608137018600,1.4700185546875,-0.9787300825119019,1.0715266466140747,-0.8074200749397278
1761380608147074800,1.48007470703125,-0.9865868091583252,1.3642950057983398,-1.0271599292755127
1761380608157130800,1.490130859375,-1.0309702157974243,1.7871694564819336,-1.1176950931549072
1761380608167185700,1.500185546875,-1.1675834655761719,2.207413911819458,-1.0266209840774536
1761380608177241900,1.510241943359375,-1.3168379068374634,2.517794132232666,-0.8025407791137695
1761380608187297800,1.5202978515625,-1.4543402194976807,2.5851032733917236,-0.5751343965530396
1761380608197353700,1.530353759765625,-1.6057665348052979,2.721127986907959,-0.47033339738845825
1761380608207410000,1.540409912109375,-1.7757577896118164,3.1389920711517334,-0.37986403703689575
1761380608217464600,1.550464599609375,-1.913491129875183,3.612616539001465,-0.1272115260362625
1761380608227520800,1.560520751953125,-1.8825117349624634,3.8193256855010986,0.03895685449242592
1761380608237576700,1.57057666015625,-1.6733864545822144,3.5698535442352295,-0.15231749415397644
1761380608247632600,1.580632568359375,-1.3982042074203491,2.757490634918213,-0.9066915512084961
1761380608257687800,1.590687744140625,-1.167050838470459,2.2387189865112305,-1.9891266822814941
1761380608267743700,1.60074365234375,-1.1053913831710815,3.0327649116516113,-2.7046687602996826
1761380608277800000,1.610800048828125,-1.2058197259902954,3.9982314109802246,-2.9818925857543945
1761380608287855900,1.62085595703125,-1.3827799558639526,4.95698881149292,-3.105191469192505
1761380608297911800,1.630911865234375,-1.362269639968872,5.837596893310547,-2.8080098628997803
1761380608307966700,1.640966796875,-1.0674827098846436,5.812874794006348,-2.075009346008301
1761380608318022700,1.651022705078125,-0.6331347227096558,4.896018981933594,-1.1753478050231934
1761380608328078800,1.661078857421875,-0.14177580177783966,3.7434370517730713,-0.3684132993221283
1761380608338134800,1.671134765625,0.3427642583847046,2.4426262378692627,0.0721617043018341
1761380608348190700,1.681190673828125,0.6808923482894897,1.0533157587051392,0.18470434844493866
1761380608358246000,1.691245849609375,0.8676521182060242,-0.02722221054136753,0.15604448318481445
1761380608368301800,1.7013017578125,0.9365523457527161,-0.5885294079780579,0.057308126240968704
1761380608378357800,1.711357666015625,0.9157538414001465,-0.8094849586486816,-0.12227362394332886
1761380608388413700,1.72141357421875,0.8534654974937439,-0.8401527404785156,-0.2998032569885254
1761380608398469600,1.7314697265625,0.7715551853179932,-0.6312423944473267,-0.37963682413101196
1761380608408524800,1.74152490234375,0.6931837201118469,-0.3210790753364563,-0.3762025535106659
1761380608418580700,1.751580810546875,0.6889032125473022,-0.0037868742365390062,-0.3636225759983063
1761380608428636700,1.76163671875,0.7323324680328369,0.0931711494922638,-0.4124988913536072
1761380608438692900,1.77169287109375,0.780225932598114,0.1583022177219391,-0.4917425811290741
1761380608448748800,1.781748779296875,0.8943014740943909,0.3767527639865875,-0.42443567514419556
1761380608458804000,1.791803955078125,1.0618960857391357,0.5334004163742065,-0.24525712430477142
1761380608468859600,1.801859619140625,1.2744700908660889,0.5296015739440918,-0.09450618922710419
1761380608478916000,1.811916015625,1.4528658390045166,0.3932383954524994,0.013072740286588669
1761380608488972300,1.82197216796875,1.590015172958374,-0.013156365603208542,0.08755257725715637
1761380608499027000,1.83202685546875,1.7215266227722168,-0.528598427772522,0.11360308527946472
1761380608509083100,1.842083251953125,1.7827107906341553,-0.9142029881477356,0.14278237521648407
1761380608519139000,1.85213916015625,1.7895015478134155,-1.1390928030014038,0.25229448080062866
1761380608529195000,1.862195068359375,1.7314547300338745,-1.2789543867111206,0.33794763684272766
1761380608539251200,1.872251220703125,1.6938375234603882,-1.3895184993743896,0.3820221424102783
1761380608549306000,1.88230615234375,1.644440770149231,-1.8073093891143799,0.5289981961250305
1761380608559362000,1.892362060546875,1.5303919315338135,-2.2783219814300537,0.678475558757782
1761380608569418200,1.902418212890625,1.1881974935531616,-2.2760679721832275,0.7244945168495178
1761380608579474200,1.91247412109375,0.5815826058387756,-1.7601885795593262,0.45756667852401733
1761380608589530000,1.922530029296875,-0.12855784595012665,-1.1202260255813599,-0.14716298878192902
1761380608599585000,1.9325849609375,-0.5937785506248474,-0.8576396703720093,-0.9080645442008972
1761380608609641000,1.942640869140625,-0.7034780979156494,-1.5150024890899658,-1.3294848203659058
1761380608619697200,1.952697265625,-0.6617093682289124,-2.701326608657837,-1.3236339092254639
1761380608629753000,1.962753173828125,-0.5560848712921143,-3.461338996887207,-0.8464187383651733
1761380608639809000,1.97280908203125,-0.5661646723747253,-3.280221462249756,-0.048887744545936584
1761380608649864200,1.9828642578125,-0.8215202689170837,-2.6655495166778564,0.7283225655555725
1761380608659920100,1.992920166015625,-1.0534838438034058,-2.1068050861358643,1.2823314666748047
1761380608669976300,2.002976318359375,-1.1303364038467407,-1.6372569799423218,1.452383279800415
1761380608680032000,2.013031982421875,-1.1255539655685425,-1.316320538520813,1.173284888267517
1761380608690087200,2.023087158203125,-1.034032940864563,-0.9996815919876099,0.5679386258125305
1761380608700143000,2.03314306640625,-0.896770715713501,-0.4962805211544037,-0.15519219636917114
1761380608710199000,2.043198974609375,-0.7330458164215088,-0.1552395075559616,-0.9086589813232422
1761380608720255200,2.053255126953125,-0.5779500007629395,-0.33634912967681885,-1.5785467624664307
1761380608730311200,2.063311279296875,-0.321210116147995,-0.8651713728904724,-1.9769597053527832
1761380608740366300,2.073366455078125,-0.029287993907928467,-1.664162516593933,-2.077812671661377
1761380608750422300,2.08342236328125,0.3009665906429291,-2.3483667373657227,-1.8340554237365723
1761380608760478000,2.09347802734375,0.5540100932121277,-2.7318379878997803,-1.381903886795044
1761380608770534100,2.1035341796875,0.6635943651199341,-2.690373659133911,-0.784429669380188
1761380608780590000,2.113590087890625,0.5333490371704102,-2.0067970752716064,-0.029066402465105057
1761380608790645200,2.123645263671875,0.27081796526908875,-1.0030022859573364,0.6652000546455383
1761380608800701200,2.133701171875,0.024303268641233444,-0.0482528880238533,1.044121265411377
1761380608810757000,2.143757080078125,-0.16108331084251404,0.8408562541007996,1.1155755519866943
1761380608820813000,2.15381298828125,-0.32067134976387024,1.43376624584198,0.9940323233604431
1761380608830868000,2.163867919921875,-0.4220620095729828,1.6474685668945312,0.7826257944107056
1761380608840924000,2.173923828125,-0.4563315808773041,1.6760692596435547,0.5490080118179321
1761380608850980000,2.18397998046875,-0.4668565094470978,1.6495002508163452,0.3063787519931793
1761380608861036000,2.1940361328125,-0.4262608587741852,1.7046297788619995,0.06210855767130852
1761380608871092000,2.204092041015625,-0.3067825734615326,1.7649728059768677,-0.15312284231185913
1761380608881147100,2.214147216796875,-0.09824428707361221,1.7822258472442627,-0.261324942111969
1761380608891203000,2.224203125,0.14562977850437164,1.8334059715270996,-0.16859181225299835
1761380608901259300,2.23425927734375,0.2859533131122589,1.9667885303497314,-0.07682433724403381
1761380608911315200,2.244315185546875,0.2876153290271759,2.19187331199646,-0.24808599054813385
1761380608921371100,2.25437109375,0.19999706745147705,2.6380081176757812,-0.6194164156913757
1761380608931426000,2.264426025390625,0.12053876370191574,3.082688570022583,-0.9786174297332764
1761380608941482000,2.27448193359375,0.20864997804164886,3.159947633743286,-1.34564208984375
1761380608951538200,2.2845380859375,0.5084684491157532,2.471315622329712,-1.6777961254119873
1761380608961594000,2.294593994140625,0.9588339924812317,1.2986257076263428,-1.7893387079238892
1761380608971649300,2.304649169921875,1.573094367980957,1.1027607917785645,-1.3393360376358032
1761380608981705200,2.314705322265625,1.9071260690689087,1.5602329969406128,-0.7414267659187317
1761380608991761200,2.32476123046875,1.7493833303451538,2.1157190799713135,-0.343536913394928
1761380609001817300,2.3348173828125,1.4504538774490356,2.6533055305480957,-0.11415913701057434
1761380609011873000,2.344873046875,1.2527501583099365,2.8532848358154297,0.020536594092845917
1761380609021928200,2.35492822265625,1.1385133266448975,2.491985559463501,-0.033216118812561035
1761380609031984000,2.364984130859375,1.0287928581237793,1.8769636154174805,-0.2661009430885315
1761380609042040000,2.3750400390625,0.9491949677467346,1.2724257707595825,-0.5526264309883118
1761380609052096300,2.38509619140625,0.8844868540763855,0.589805006980896,-0.7585383653640747
1761380609062151200,2.395151123046875,0.7769228219985962,-0.005150756798684597,-0.8205146789550781
1761380609072207000,2.40520703125,0.6048747897148132,-0.3211688697338104,-0.7169831395149231
1761380609082263300,2.41526318359375,0.4486854672431946,-0.33481332659721375,-0.42162394523620605
1761380609092319000,2.425319091796875,0.34252259135246277,-0.043728966265916824,-0.049162883311510086
1761380609102375000,2.435375,0.34070417284965515,0.43476012349128723,0.2917337119579315
1761380609112430000,2.44543017578125,0.4187963604927063,0.8761627674102783,0.5838050842285156
1761380609122486000,2.455486083984375,0.521547257900238,1.1819431781768799,0.8374573588371277
1761380609132542200,2.465542236328125,0.6483347415924072,1.187807559967041,0.9481648802757263
1761380609142598100,2.47559814453125,0.7610506415367126,0.9565660953521729,0.8817200660705566
1761380609152654000,2.485654052734375,0.801222026348114,0.757384181022644,0.774614155292511
1761380609162709200,2.495709228515625,0.8163437247276306,0.6840559244155884,0.6927139163017273
1761380609172765000,2.505764892578125,0.909386932849884,0.6461185216903687,0.613914966583252
1761380609182821000,2.515821044921875,0.966338574886322,0.42557814717292786,0.44334113597869873
1761380609192877000,2.525876953125,0.9124760627746582,0.3084070086479187,0.2370046079158783
1761380609202932200,2.53593212890625,0.8131622672080994,0.3001791834831238,0.08724573999643326
1761380609212988200,2.54598828125,0.7171311974525452,0.1944786161184311,0.04069220647215843
1761380609223044000,2.556044189453125,0.6280074119567871,-0.01888398267328739,0.17128457129001617
1761380609233100300,2.566100341796875,0.5522328615188599,-0.38979893922805786,0.5457050204277039
1761380609243156200,2.57615625,0.4819192886352539,-0.8402470946311951,1.1233117580413818
1761380609253211100,2.586211181640625,0.4001035988330841,-1.2688349485397339,1.7183387279510498
1761380609263267000,2.59626708984375,0.31102699041366577,-1.658929705619812,2.1086556911468506
1761380609273323000,2.606322998046875,0.1866437941789627,-1.9109199047088623,2.0791196823120117
1761380609283379200,2.616379150390625,0.0513078011572361,-1.8519196510314941,1.8615094423294067
1761380609293434000,2.62643408203125,-0.1128612756729126,-1.6745587587356567,1.8088152408599854
1761380609303490000,2.636489990234375,-0.3365713357925415,-1.4520151615142822,1.9184893369674683
1761380609313546200,2.646546142578125,-0.6057328581809998,-1.5745875835418701,2.029484272003174
1761380609323602200,2.656602294921875,-0.7379761338233948,-1.9439243078231812,1.7290337085723877
1761380609333658000,2.666658203125,-0.6172364950180054,-2.2342309951782227,0.8198434114456177
1761380609343713000,2.676713134765625,-0.2965583801269531,-2.7132463455200195,-0.1077459305524826
1761380609353769000,2.68676904296875,0.011430962011218071,-3.456963539123535,-0.333049476146698
1761380609363825200,2.6968251953125,0.04316252842545509,-3.765758752822876,0.13510389626026154
1761380609373881000,2.706881103515625,-0.2425178587436676,-3.523782253265381,0.6790149211883545
1761380609383937000,2.71693701171875,-0.6097384691238403,-2.9553639888763428,0.9143208861351013
1761380609393992200,2.7269921875,-0.893761932849884,-2.181016683578491,0.8936471939086914
1761380609404048100,2.737048095703125,-0.9191620945930481,-1.671227216720581,0.7316745519638062
1761380609414104300,2.747104248046875,-0.681549608707428,-1.6599628925323486,0.4178481996059418
1761380609424160000,2.757159912109375,-0.3231653571128845,-1.9117377996444702,0.010259110480546951
1761380609434215200,2.767215087890625,0.031150709837675095,-2.2030482292175293,-0.3328816592693329
1761380609444271000,2.77727099609375,0.37070322036743164,-2.391489267349243,-0.5397908687591553
1761380609454327000,2.7873271484375,0.6478431820869446,-2.4755189418792725,-0.6124976873397827
1761380609464383200,2.79738330078125,0.8229220509529114,-2.3643012046813965,-0.5067435503005981
1761380609474440000,2.80743994140625,0.8710723519325256,-1.9999687671661377,-0.26612696051597595
1761380609484494800,2.817494873046875,0.8600199818611145,-1.5028727054595947,-0.021276460960507393
1761380609494551000,2.827551025390625,0.7735145688056946,-1.042599081993103,0.17814545333385468
1761380609504607000,2.83760693359375,0.5806382894515991,-0.7797672748565674,0.2796771228313446
1761380609514663000,2.847662841796875,0.2900976538658142,-0.7022040486335754,0.270141065120697
1761380609524717800,2.8577177734375,-0.08685736358165741,-0.7021126747131348,0.15226207673549652
1761380609534773800,2.867773681640625,-0.5501150488853455,-0.6949518918991089,-0.06772708892822266
1761380609544830000,2.877829833984375,-1.0348172187805176,-0.6679783463478088,-0.2722940742969513
1761380609554886000,2.887885986328125,-1.491330623626709,-0.6225569248199463,-0.3858344554901123
1761380609564941800,2.89794189453125,-1.795509934425354,-0.543215274810791,-0.430985689163208
1761380609574997000,2.9079970703125,-1.8647767305374146,-0.38056090474128723,-0.3486191928386688
1761380609585053000,2.918052978515625,-1.6711080074310303,-0.24246695637702942,-0.043371155858039856
1761380609595108900,2.92810888671875,-1.2411298751831055,-0.10200216621160507,0.41311267018318176
1761380609605164800,2.938164794921875,-0.7620790600776672,0.005712848622351885,0.8957176804542542
1761380609615220700,2.948220703125,-0.3941579759120941,0.20001116394996643,1.243701696395874
1761380609625276000,2.95827587890625,-0.1572498083114624,0.6904631853103638,1.2781989574432373
1761380609635331800,2.968331787109375,0.05664521083235741,1.1544690132141113,0.98906010389328
1761380609645387800,2.9783876953125,0.23009635508060455,1.2306194305419922,0.5940901637077332
1761380609655444000,2.98844384765625,0.35920944809913635,1.1417356729507446,0.24738071858882904
1761380609665499000,2.998498779296875,0.4437781274318695,1.2086800336837769,0.13364216685295105
1761380609675554800,3.008554931640625,0.4391871690750122,1.3462104797363281,0.38658764958381653
1761380609685610800,3.01861083984375,0.288312703371048,1.4353457689285278,0.5690834522247314
1761380609695666700,3.028666748046875,0.13766968250274658,1.5137968063354492,0.20526374876499176
1761380609705723000,3.038722900390625,0.11192890256643295,1.5372281074523926,-0.6332098841667175
1761380609715777800,3.04877783203125,0.14125223457813263,1.9003716707229614,-1.4132006168365479
1761380609725834000,3.058833984375,0.05493679270148277,2.6275744438171387,-1.78707754611969
1761380609735890000,3.068889892578125,-0.09872528165578842,3.5181150436401367,-1.6793909072875977
1761380609745945900,3.07894580078125,-0.2069265991449356,4.064253330230713,-1.2920095920562744
1761380609756002000,3.089001953125,-0.20805130898952484,4.192490577697754,-0.6736796498298645
1761380609766056700,3.099056640625,-0.06679271906614304,3.804588556289673,0.17086096107959747
1761380609776113000,3.10911279296875,0.07694771885871887,2.8518483638763428,0.6763478517532349
1761380609786168800,3.1191689453125,0.21348851919174194,1.994749665260315,0.595498263835907
1761380609796224800,3.129224853515625,0.3783576786518097,1.3162410259246826,0.14899545907974243
1761380609806280000,3.139280029296875,0.5377899408340454,0.9138438105583191,-0.43829306960105896
1761380609816336000,3.1493359375,0.6549309492111206,0.5944120287895203,-0.9730233550071716
1761380609826391800,3.159391845703125,0.814416229724884,0.3437303304672241,-1.431918740272522
1761380609836448000,3.169447998046875,0.9520691633224487,0.3575717508792877,-1.761070966720581
1761380609846504000,3.17950390625,0.9987152218818665,0.5123637914657593,-1.9617217779159546
1761380609856558800,3.189558837890625,0.953160285949707,0.5389040112495422,-1.969381332397461
1761380609866614800,3.19961474609375,0.8135679960250854,0.5070273280143738,-1.812571406364441
1761380609876670700,3.209670654296875,0.641563892364502,0.5041704773902893,-1.6130131483078003
1761380609886727000,3.219726806640625,0.4541884660720825,0.6119624376296997,-1.4138116836547852
1761380609896781800,3.22978173828125,0.21511422097682953,0.8255950212478638,-1.227878451347351
1761380609906838000,3.239838134765625,-0.05018909275531769,0.9908303022384644,-1.1198853254318237
1761380609916894000,3.24989404296875,-0.21537454426288605,0.9826291799545288,-1.0818129777908325
1761380609926950000,3.259949951171875,-0.296096533536911,0.8377577662467957,-1.0907713174819946
1761380609937005800,3.270005859375,-0.31687837839126587,0.48372653126716614,-1.1663984060287476
1761380609947061800,3.280061767578125,-0.2533217668533325,0.018057115375995636,-1.210301399230957
1761380609957117000,3.290116943359375,-0.1042306050658226,-0.6084827780723572,-1.177303433418274
1761380609967172900,3.3001728515625,0.07901271432638168,-1.219139814376831,-1.006934642791748
1761380609977228800,3.310228759765625,0.18400315940380096,-1.4306597709655762,-0.6929625868797302
1761380609987285000,3.320284912109375,0.21736006438732147,-1.3651611804962158,-0.2149541825056076
1761380609997340000,3.33033984375,0.18824800848960876,-1.2547770738601685,0.44946256279945374
1761380610007396000,3.34039599609375,0.09613005816936493,-1.3027913570404053,1.1809734106063843
1761380610017451800,3.35045166015625,-0.0012863646261394024,-1.4017149209976196,1.644146203994751
1761380610027507700,3.3605078125,-0.11006903648376465,-1.3680903911590576,1.6027470827102661
1761380610037564000,3.37056396484375,-0.3118681013584137,-1.0422906875610352,1.266933798789978
1761380610047618800,3.380618896484375,-0.6038478016853333,-0.1908688098192215,0.9494050741195679
1761380610057675000,3.390675048828125,-0.9320408701896667,0.30610015988349915,0.8489534854888916
1761380610067731000,3.40073095703125,-1.2405179738998413,-0.21057440340518951,0.7685590386390686
1761380610077787000,3.410786865234375,-1.421125054359436,-1.3234891891479492,0.4008258283138275
1761380610087842800,3.4208427734375,-1.5212620496749878,-2.432650566101074,-0.07744408398866653
1761380610097897700,3.430897705078125,-1.7142727375030518,-3.456732749938965,-0.31249454617500305
1761380610107953700,3.44095361328125,-1.744064211845398,-4.076373100280762,0.06022470444440842
1761380610118009900,3.451009765625,-1.6057273149490356,-4.549462795257568,0.7532361149787903
1761380610128065800,3.461065673828125,-1.581653356552124,-4.52642297744751,1.244011640548706
1761380610138121000,3.471120849609375,-1.7361207008361816,-3.9968864917755127,1.1888411045074463
1761380610148177000,3.481177001953125,-1.8180395364761353,-3.128141164779663,0.6545812487602234
1761380610158232800,3.49123291015625,-1.6653743982315063,-2.2631657123565674,-0.16921906173229218
1761380610168289000,3.5012890625,-1.3184436559677124,-1.6159515380859375,-0.9411720037460327
1761380610178345000,3.511344970703125,-0.8675814270973206,-1.2278459072113037,-1.424380898475647
1761380610188399900,3.52139990234375,-0.3490077555179596,-1.3372302055358887,-1.630294680595398
1761380610198455800,3.531455810546875,0.15469971299171448,-2.068274736404419,-1.6313129663467407
1761380610208511700,3.54151171875,0.5674523711204529,-2.726025104522705,-1.4567288160324097
1761380610218568000,3.55156787109375,0.7802191972732544,-2.9719042778015137,-1.2127485275268555
1761380610228624000,3.561623779296875,0.8056055307388306,-2.771639585494995,-1.004677653312683
1761380610238679000,3.571678955078125,0.6193202137947083,-2.2587389945983887,-0.8627579212188721
1761380610248735000,3.58173486328125,0.2347506731748581,-1.532705545425415,-0.702650249004364
1761380610258791000,3.591791015625,-0.21908919513225555,-0.7990005016326904,-0.5246075987815857
1761380610268847000,3.60184716796875,-0.63688063621521,-0.19590610265731812,-0.35919860005378723
1761380610278902800,3.61190283203125,-0.9914601445198059,0.2955543100833893,-0.2099570333957672
1761380610288958000,3.6219580078125,-1.2693432569503784,0.4007686376571655,-0.07492757588624954
1761380610299014000,3.632013916015625,-1.3682173490524292,0.3128204643726349,0.16884663701057434
1761380610309069800,3.64206982421875,-1.3258017301559448,0.22044287621974945,0.5412063598632812
1761380610319126000,3.6521259765625,-1.2251745462417603,0.23906131088733673,0.9938704967498779
1761380610329181000,3.662180908203125,-1.0353237390518188,0.32312479615211487,1.4268523454666138
1761380610339236900,3.67223681640625,-0.7301127910614014,0.5603169798851013,1.7263967990875244
1761380610349292800,3.682292724609375,-0.40265581011772156,1.0653321743011475,1.874798059463501
1761380610359348700,3.6923486328125,-0.08065913617610931,1.5449423789978027,1.8990705013275146
1761380610369404700,3.70240478515625,0.15947356820106506,1.8849246501922607,1.8331305980682373
1761380610379459800,3.7124599609375,0.29997578263282776,2.0936379432678223,1.5987969636917114
1761380610389515800,3.722515869140625,0.35855385661125183,2.16107177734375,1.1441864967346191
1761380610399572000,3.732572021484375,0.39476877450942993,2.152388095855713,0.5913118720054626
1761380610409628000,3.7426279296875,0.4744793176651001,2.3529269695281982,0.11379295587539673
1761380610419683800,3.752683837890625,0.5999031662940979,2.7495479583740234,-0.09802393615245819
1761380610429738800,3.76273876953125,0.7466627955436707,3.0286717414855957,-0.3681619167327881
1761380610439794700,3.772794677734375,0.8973128199577332,3.0414252281188965,-1.0245240926742554
1761380610449851000,3.782850830078125,0.9109782576560974,2.9582481384277344,-2.174654006958008
1761380610459906800,3.79290673828125,0.8300474882125854,3.8785767555236816,-3.3193418979644775
1761380610469962000,3.8029619140625,0.786893367767334,5.270274639129639,-3.6048920154571533
1761380610480017400,3.813017333984375,0.764223575592041,6.110519886016846,-3.1447010040283203
1761380610490073300,3.8230732421875,0.7096284627914429,5.907321929931641,-2.280153274536133
1761380610500129500,3.833129638671875,0.7667385935783386,4.7115912437438965,-1.527321696281433
1761380610510185500,3.843185546875,1.153734803199768,3.119804859161377,-1.0035914182662964
1761380610520240400,3.853240478515625,1.599246621131897,1.9824601411819458,-0.6035717129707336
1761380610530296300,3.86329638671875,1.7862604856491089,1.1608561277389526,-0.2542917728424072
1761380610540352300,3.873352294921875,1.8353725671768188,0.5698927640914917,-0.019550424069166183
1761380610550408400,3.883408447265625,1.8078669309616089,0.25859320163726807,0.00033167051151394844
1761380610560464400,3.89346435546875,1.6911940574645996,0.22190706431865692,-0.2135099470615387
1761380610570519600,3.90351953125,1.5003809928894043,0.5284861922264099,-0.6962158679962158
1761380610580575500,3.913575439453125,1.2794145345687866,1.1553409099578857,-1.2712628841400146
1761380610590631400,3.92363134765625,1.071800947189331,1.7451481819152832,-1.6968879699707031
1761380610600687400,3.933687255859375,0.8668549060821533,2.056472063064575,-1.8597081899642944
1761380610610743300,3.943743408203125,0.6555996537208557,2.092163562774658,-1.792290210723877
1761380610620798500,3.953798583984375,0.4717598557472229,2.0010061264038086,-1.5658398866653442
1761380610630854400,3.9638544921875,0.29645487666130066,1.7114851474761963,-1.2244354486465454
1761380610640910300,3.973910400390625,0.1325691044330597,1.3314683437347412,-0.7751855254173279
1761380610650966500,3.983966552734375,0.04437506943941116,0.9372926950454712,-0.3513157367706299
1761380610661022500,3.9940224609375,0.08638554066419601,0.5415577292442322,-0.13001616299152374
1761380610671077400,4.004077392578125,0.1929524689912796,0.2834228277206421,-0.11390724033117294
1761380610681133300,4.01413330078125,0.29953041672706604,-0.027736712247133255,-0.13536666333675385
1761380610691189200,4.024189208984375,0.3752789795398712,-0.46017706394195557,-0.10423483699560165
1761380610701245200,4.0342451171875,0.3788432776927948,-0.988438069820404,0.030201273038983345
1761380610711301400,4.04430126953125,0.23989392817020416,-1.5177468061447144,0.26639437675476074
1761380610721356300,4.054356201171875,0.07895088940858841,-1.883496880531311,0.565976083278656
1761380610731412500,4.06441259765625,-0.1909322589635849,-1.9416624307632446,0.874325692653656
1761380610741468400,4.074468505859375,-0.5245658159255981,-1.8688645362854004,0.7181128859519958
1761380610751524400,4.0845244140625,-0.7366074919700623,-1.7372496128082275,0.06605152785778046
1761380610761580500,4.09458056640625,-0.8983120322227478,-1.7126898765563965,-0.6451960802078247
1761380610771635200,4.10463525390625,-1.0782233476638794,-1.4255565404891968,-1.0889238119125366
1761380610781691400,4.11469140625,-1.3297439813613892,-0.7425405383110046,-0.9929455518722534
1761380610791747300,4.124747314453125,-1.6815155744552612,-0.706954836845398,-0.51289963722229
1761380610801803300,4.13480322265625,-1.8693783283233643,-1.2625017166137695,-0.20077703893184662
1761380610811858400,4.1448583984375,-1.6096762418746948,-2.2248008251190186,-0.025324784219264984
1761380610821914400,4.154914306640625,-1.2409083843231201,-3.2910141944885254,0.0644233301281929
1761380610831970600,4.164970458984375,-1.0425784587860107,-4.142639636993408,0.35794204473495483
1761380610842026500,4.175026611328125,-0.976202130317688,-4.4782280921936035,0.866122841835022
1761380610852082200,4.185082275390625,-1.084502100944519,-4.0500712394714355,1.2914448976516724
1761380610862137300,4.195137451171875,-1.40106999874115,-3.0677120685577393,1.6687785387039185
1761380610872193300,4.205193359375,-1.8026129007339478,-1.9915928840637207,2.079188823699951
1761380610882249500,4.21524951171875,-2.0488719940185547,-1.2727282047271729,2.2571167945861816
1761380610892305400,4.225305419921875,-2.0794942378997803,-1.1215672492980957,1.9254493713378906
1761380610902361300,4.235361328125,-1.8762826919555664,-1.3288463354110718,1.0909004211425781
1761380610912416500,4.24541650390625,-1.4748865365982056,-1.6719204187393188,0.11792007833719254
1761380610922472400,4.255472412109375,-0.9868224263191223,-1.9936167001724243,-0.6663340330123901
1761380610932528400,4.2655283203125,-0.6478366255760193,-2.0954880714416504,-1.1408203840255737
1761380610942584300,4.275584228515625,-0.4645270109176636,-2.065122604370117,-1.2734696865081787
1761380610952640300,4.28564013671875,-0.4350524842739105,-1.909179449081421,-1.0464091300964355
1761380610962695400,4.2956953125,-0.517348051071167,-1.5957592725753784,-0.6294071078300476
1761380610972751400,4.30575146484375,-0.7040923833847046,-1.2594590187072754,-0.2636275291442871
1761380610982807300,4.315807373046875,-0.90201336145401,-0.8361095190048218,-0.013610878959298134
1761380610992863500,4.325863525390625,-1.0570369958877563,-0.42207643389701843,0.04665752127766609
1761380611002919400,4.33591943359375,-1.159458041191101,0.032150983810424805,0.02237449213862419
1761380611012974300,4.345974365234375,-1.2278735637664795,0.5039888620376587,0.05389327183365822
1761380611023030300,4.3560302734375,-1.2004073858261108,0.9307429194450378,0.09493954479694366
1761380611033086200,4.366086181640625,-1.0280706882476807,1.100363850593567,0.14308230578899384
1761380611043142400,4.376142333984375,-0.7095035314559937,0.927865207195282,0.2215421497821808
1761380611053198300,4.3861982421875,-0.2604743540287018,0.5109302997589111,0.35048574209213257
1761380611063253500,4.39625341796875,0.24591980874538422,0.11725616455078125,0.49220022559165955
1761380611073309400,4.406309326171875,0.6362321972846985,0.007292645052075386,0.6135649681091309
1761380611083365400,4.416365478515625,0.8476923108100891,0.22673335671424866,0.6533227562904358
1761380611093421600,4.426421630859375,0.9279975295066833,0.6223211884498596,0.6580072641372681
1761380611103477500,4.4364775390625,0.92679762840271,1.1995166540145874,0.6028926968574524
1761380611113532400,4.446532470703125,0.852139949798584,1.8883041143417358,0.4714771807193756
1761380611123588400,4.45658837890625,0.7488933205604553,2.282526969909668,0.3750285506248474
1761380611133644300,4.466644287109375,0.7590814828872681,2.332003593444824,0.32502371072769165
1761380611143700500,4.476700439453125,0.9103201627731323,2.129469633102417,0.26062196493148804
1761380611153756400,4.48675634765625,1.106024980545044,1.8673936128616333,0.003419201821088791
1761380611163811300,4.496811279296875,1.3632136583328247,2.0269935131073,-0.5347858667373657
1761380611173867500,4.506867431640625,1.6479309797286987,2.923855781555176,-1.062262773513794
1761380611183923500,4.51692333984375,1.739794373512268,4.0471062660217285,-1.4891281127929688
1761380611193979100,4.526979248046875,1.5865230560302734,5.022118091583252,-1.6239408254623413
1761380611204035300,4.537035400390625,1.3454591035842896,5.398701190948486,-1.3234562873840332
1761380611214090200,4.54709033203125,1.1514955759048462,5.062882900238037,-0.5013160705566406
1761380611224146400,4.557146484375,1.0947273969650269,3.970428466796875,0.3974597752094269
1761380611234202400,4.567202392578125,1.1598200798034668,2.779635190963745,0.6561654210090637
1761380611244258300,4.57725830078125,1.2681620121002197,1.7776539325714111,0.3585740327835083
1761380611254314500,4.587314453125,1.4308552742004395,0.9227689504623413,-0.10861498862504959
1761380611264369400,4.597369384765625,1.5623292922973633,0.2956182360649109,-0.47912323474884033
1761380611274425300,4.60742529296875,1.617632269859314,-0.1214708685874939,-0.6374966502189636
1761380611284481300,4.617481201171875,1.65879487991333,-0.23229461908340454,-0.6857960224151611
1761380611294537200,4.627537109375,1.743220567703247,-0.04118644446134567,-0.7156671285629272
1761380611304593400,4.637593505859375,1.8504536151885986,0.1914285570383072,-0.7022904753684998
1761380611314648300,4.6476484375,1.884811282157898,0.36396998167037964,-0.6110852360725403
1761380611324704500,4.65770458984375,1.8328230381011963,0.5566760897636414,-0.4376281797885895
1761380611334760400,4.667760498046875,1.6950135231018066,0.7723966836929321,-0.23471073806285858
1761380611344816400,4.67781640625,1.5350372791290283,0.9962198138237,-0.071219801902771
1761380611354872600,4.68787255859375,1.3860230445861816,1.2268552780151367,0.032888222485780716
1761380611364927200,4.69792724609375,1.266994595527649,1.3070497512817383,0.09318476170301437
1761380611374983400,4.7079833984375,1.1649363040924072,1.190412163734436,0.08341895043849945
1761380611385039400,4.718039306640625,1.04917573928833,0.9232454895973206,0.10110542178153992
1761380611395095300,4.72809521484375,0.8933057188987732,0.5486354231834412,0.19856831431388855
1761380611405151500,4.7381513671875,0.7076047658920288,0.10043193399906158,0.38546183705329895
1761380611415206400,4.748206298828125,0.5204229354858398,-0.4155949354171753,0.6337448954582214
1761380611425262300,4.758262451171875,0.3342232406139374,-0.9612178802490234,0.8932821154594421
1761380611435318500,4.768318603515625,0.13946335017681122,-1.4203509092330933,1.1363557577133179
1761380611445374500,4.77837451171875,-0.056568510830402374,-1.8143631219863892,1.319629430770874
1761380611455430100,4.78843017578125,-0.255339652299881,-2.074646234512329,1.350752830505371
1761380611465485300,4.7984853515625,-0.4713686406612396,-2.3686981201171875,1.2548693418502808
1761380611475544800,4.808544921875,-0.7038889527320862,-2.705899953842163,1.0394915342330933
1761380611485601000,4.81860107421875,-0.9566131234169006,-2.7401463985443115,0.7657076716423035
1761380611495657000,4.828656982421875,-1.2952964305877686,-2.237959384918213,0.5029543042182922
1761380611505713000,4.838712890625,-1.716942310333252,-2.1806743144989014,0.29418131709098816
1761380611515767800,4.848767822265625,-2.0594735145568848,-2.743710994720459,-0.07372958958148956
1761380611525823700,4.85882373046875,-2.1971359252929688,-2.960425615310669,-0.6863924860954285
1761380611535880000,4.8688798828125,-2.2297558784484863,-2.895137310028076,-0.9665394425392151
1761380611545936000,4.878935791015625,-2.2816648483276367,-3.3241047859191895,-0.5994116067886353
1761380611555991800,4.88899169921875,-2.35569167137146,-3.5258710384368896,0.1739884614944458
1761380611566047000,4.899046875,-2.5403051376342773,-3.328669786453247,0.9981276988983154
1761380611576103000,4.90910302734375,-2.775461196899414,-3.0517163276672363,1.6666721105575562
1761380611586159000,4.9191591796875,-2.8265252113342285,-2.7328436374664307,2.127990961074829
1761380611596215000,4.929215087890625,-2.677994728088379,-2.487516403198242,2.3499910831451416
1761380611606271000,4.93927099609375,-2.3835694789886475,-2.253870964050293,2.149135112762451
1761380611616326000,4.949325927734375,-1.9754148721694946,-2.1162185668945312,1.3671417236328125
1761380611626381800,4.9593818359375,-1.507461667060852,-2.107713222503662,0.1401037871837616
1761380611636438000,4.96943798828125,-1.0650049448013306,-2.1581599712371826,-1.0902414321899414
1761380611646494000,4.979493896484375,-0.8522642850875854,-2.2806808948516846,-1.987219214439392
1761380611656550000,4.9895498046875,-0.821370005607605,-2.380302667617798,-2.400756359100342
1761380611666605000,4.99960498046875,-0.8905259370803833,-2.366762638092041,-2.3771920204162598
1761380611676661000,5.009660888671875,-1.0528439283370972,-2.3417787551879883,-2.0350327491760254
1761380611686716700,5.019716552734375,-1.216760516166687,-2.088810682296753,-1.4763237237930298
1761380611696772900,5.02977294921875,-1.3760329484939575,-1.6898082494735718,-0.8887195587158203
1761380611706828800,5.039828857421875,-1.5378812551498413,-1.1397861242294312,-0.44579312205314636
1761380611716884000,5.049884033203125,-1.6953833103179932,-0.4709762930870056,-0.19494624435901642
1761380611726940000,5.05993994140625,-1.8667685985565186,0.019482802599668503,-0.18310807645320892
1761380611736995800,5.069995849609375,-1.8850301504135132,0.19252169132232666,-0.30218705534935
1761380611747052000,5.080052001953125,-1.759498119354248,0.02169838547706604,-0.3526659905910492
1761380611757108000,5.09010791015625,-1.50487220287323,-0.3537159562110901,-0.3223637640476227
1761380611767163000,5.100162841796875,-1.107059359550476,-0.7118600606918335,-0.1938459575176239
1761380611777218800,5.11021875,-0.6138097047805786,-1.0204991102218628,-0.041446562856435776
1761380611787274800,5.120274658203125,-0.05576823279261589,-0.9243609309196472,0.14599931240081787
1761380611797331000,5.1303310546875,0.4909542202949524,-0.4854578673839569,0.4399172365665436
1761380611807387000,5.140386962890625,0.9294496774673462,0.12100216746330261,0.7400760054588318
1761380611817442000,5.150442138671875,1.242012858390808,0.8855895400047302,0.9055967926979065
1761380611827498000,5.160498046875,1.4039109945297241,1.376189112663269,0.8365951776504517
1761380611837554000,5.170553955078125,1.4628115892410278,1.6208699941635132,0.36790335178375244
1761380611847610000,5.180610107421875,1.5275359153747559,1.9245796203613281,-0.2959073483943939
1761380611857666000,5.190666015625,1.6100009679794312,1.9504176378250122,-0.5107421875
1761380611867721000,5.200720947265625,1.7638334035873413,1.62405526638031,-0.16592161357402802
1761380611877777000,5.21077685546875,2.0531184673309326,1.472664713859558,0.20100605487823486
1761380611887832800,5.220832763671875,2.4444217681884766,1.6665048599243164,0.20766735076904297
1761380611897889000,5.230888916015625,2.742368459701538,2.157122850418091,0.07525204867124557
1761380611907945000,5.240945068359375,2.890251398086548,2.8453590869903564,0.08349622786045074
1761380611917999900,5.250999755859375,2.894834041595459,3.483943223953247,0.4007503390312195
1761380611928056000,5.26105615234375,2.692840337753296,3.8815789222717285,0.8947595357894897
1761380611938112000,5.271112060546875,2.4106130599975586,3.907130479812622,1.2630630731582642
1761380611948167700,5.281167724609375,2.096710681915283,3.6598708629608154,1.3087661266326904
1761380611958224000,5.291223876953125,1.9149389266967773,3.246452808380127,1.0284476280212402
1761380611968278800,5.30127880859375,1.8435003757476807,2.838315963745117,0.585902750492096
1761380611978335000,5.3113349609375,1.8173874616622925,2.580947160720825,0.10082980990409851
1761380611988391000,5.321390869140625,1.7866456508636475,2.210897207260132,-0.3210050165653229
1761380611998446800,5.33144677734375,1.7247583866119385,1.8574206829071045,-0.5709365606307983
1761380612008503000,5.3415029296875,1.6751638650894165,1.6373199224472046,-0.6195653676986694
1761380612018558000,5.351557861328125,1.670106291770935,1.5260916948318481,-0.5329574942588806
1761380612028614000,5.36161376953125,1.6483640670776367,1.4913946390151978,-0.39922285079956055
1761380612038669800,5.371669921875,1.5508702993392944,1.5369210243225098,-0.32312488555908203
1761380612048725800,5.381725830078125,1.3950395584106445,1.7125632762908936,-0.4300698935985565
1761380612058782000,5.391781982421875,1.225111484527588,1.880571961402893,-0.6980523467063904
1761380612068836900,5.4018369140625,1.0706127882003784,1.9206502437591553,-1.0346107482910156
1761380612078893000,5.41189306640625,0.9322104454040527,1.8071353435516357,-1.3105107545852661
1761380612088949000,5.421948974609375,0.8328022956848145,1.4660075902938843,-1.4012682437896729
1761380612099005000,5.4320048828125,0.7674155235290527,0.7965908646583557,-1.3259916305541992
1761380612109061000,5.44206103515625,0.7602461576461792,-0.06232769414782524,-1.1781023740768433
1761380612119115800,5.45211572265625,0.7597236633300781,-0.7858326435089111,-1.0374935865402222
1761380612129172000,5.462171875,0.6368945240974426,-1.3106088638305664,-0.9668307900428772
1761380612139228000,5.472227783203125,0.42569679021835327,-1.599870204925537,-0.9543210864067078
1761380612149283800,5.482283935546875,0.22666922211647034,-1.6037641763687134,-0.8868961334228516
1761380612159340000,5.492340087890625,0.025353675708174706,-1.4077476263046265,-0.7214376926422119
1761380612169395000,5.50239501953125,-0.17129845917224884,-1.2204618453979492,-0.3414381742477417
1761380612179451000,5.512450927734375,-0.4163319170475006,-1.0679337978363037,0.2560792863368988
1761380612189507000,5.522507080078125,-0.7056892514228821,-1.1280670166015625,0.8782247304916382
1761380612199563000,5.53256298828125,-1.0361570119857788,-1.3171839714050293,1.2066926956176758
1761380612209618700,5.54261865234375,-1.3338055610656738,-1.3781490325927734,1.0285272598266602
1761380612219673900,5.552673828125,-1.5952513217926025,-1.0958642959594727,0.5772295594215393
1761380612229729800,5.562729736328125,-1.8386937379837036,-0.40632888674736023,0.2622993290424347
1761380612239786000,5.572785888671875,-1.9471852779388428,-0.22414124011993408,0.2992094159126282
1761380612249842000,5.582842041015625,-1.9186898469924927,-0.7782112956047058,0.5314181447029114
1761380612259897900,5.59289794921875,-1.8684972524642944,-1.235822319984436,0.6472811102867126
1761380612269953000,5.602953125,-1.7673431634902954,-1.749241828918457,0.8502870798110962
1761380612280008700,5.6130087890625,-1.8672854900360107,-2.6000442504882812,1.3022552728652954
1761380612290065000,5.62306494140625,-1.9518011808395386,-3.2525978088378906,2.0645015239715576
1761380612300120800,5.633120849609375,-1.9832563400268555,-3.4001400470733643,2.8579633235931396
1761380612310176800,5.6431767578125,-2.067685842514038,-2.7968733310699463,3.4210922718048096
1761380612320232000,5.65323193359375,-2.196976900100708,-2.098033905029297,3.569636583328247
1761380612330287900,5.663287841796875,-2.2772457599639893,-1.8351699113845825,3.209907054901123
1761380612340344000,5.673343994140625,-2.260653495788574,-1.6362453699111938,2.4424548149108887
1761380612350400000,5.68339990234375,-2.161637306213379,-1.3102943897247314,1.4376839399337769
1761380612360456000,5.6934560546875,-1.9771168231964111,-0.8613027334213257,0.36473092436790466
1761380612370510800,5.7035107421875,-1.685948371887207,-0.6462268829345703,-0.604792594909668
1761380612380566800,5.71356689453125,-1.29554283618927,-0.8764100074768066,-1.3356971740722656
1761380612390623000,5.723623046875,-0.878637433052063,-1.3678581714630127,-1.778835415840149
1761380612400679000,5.733678955078125,-0.5635886788368225,-1.8657252788543701,-1.9104655981063843
1761380612410734800,5.74373486328125,-0.41687557101249695,-2.054781675338745,-1.7302391529083252
1761380612420790000,5.7537900390625,-0.4142363965511322,-1.9153625965118408,-1.3328551054000854
1761380612430846000,5.763845947265625,-0.5440519452095032,-1.5077106952667236,-0.832706093788147
1761380612440902000,5.77390185546875,-0.7252979278564453,-0.9220178723335266,-0.3149028420448303
1761380612450958000,5.7839580078125,-0.9293436408042908,-0.1934516876935959,0.1483631283044815
1761380612461013800,5.794013671875,-1.1324373483657837,0.5774029493331909,0.46589502692222595
1761380612471069700,5.804069580078125,-1.2762579917907715,1.2701245546340942,0.6659806370735168
1761380612481124900,5.814124755859375,-1.2611045837402344,1.74347984790802,0.7895238995552063
1761380612491180800,5.824180908203125,-1.0635626316070557,2.1349172592163086,0.7946289777755737
1761380612501237000,5.834237060546875,-0.7208395004272461,2.3267531394958496,0.6316267251968384
1761380612511293000,5.84429296875,-0.2959554195404053,2.2117457389831543,0.3073858916759491
1761380612521348900,5.854348876953125,0.1555747389793396,1.9802526235580444,-0.032286468893289566
1761380612531404000,5.864404052734375,0.5632022023200989,1.7584093809127808,-0.26775580644607544
1761380612541460000,5.8744599609375,0.8934706449508667,1.5068745613098145,-0.3455379605293274
1761380612551516200,5.88451611328125,1.1635185480117798,1.311151146888733,-0.3429925739765167
1761380612561572000,5.894572021484375,1.3446433544158936,1.110751748085022,-0.29939529299736023
1761380612571628000,5.9046279296875,1.4483766555786133,0.9363886117935181,-0.19896061718463898
1761380612581683000,5.914682861328125,1.5302832126617432,0.875728189945221,0.03194770589470863
1761380612591739000,5.92473876953125,1.5668960809707642,0.9148433804512024,0.5356906652450562
1761380612601795000,5.934795166015625,1.5277798175811768,1.0291014909744263,1.0978034734725952
1761380612611851000,5.94485107421875,1.5722471475601196,1.1929532289505005,1.1835135221481323
1761380612621907000,5.954906982421875,1.6602139472961426,1.260674238204956,0.5819195508956909
1761380612631962000,5.964962158203125,1.8587661981582642,1.5877273082733154,-0.3736628293991089
1761380612642018000,5.97501806640625,2.028672456741333,2.3582677841186523,-1.1027116775512695
1761380612652074000,5.985073974609375,2.000882387161255,3.3850748538970947,-1.3012093305587769
1761380612662130000,5.9951298828125,1.7291274070739746,4.172780990600586,-1.0997859239578247
1761380612672185900,6.005185791015625,1.4255833625793457,4.392825126647949,-0.7151937484741211
1761380612682241000,6.015240966796875,1.1825952529907227,4.313848972320557,-0.1468093991279602
1761380612692297000,6.025296875,0.9332724213600159,4.129542350769043,0.6022293567657471
1761380612702353000,6.035352783203125,0.7859540581703186,3.75038480758667,1.2893084287643433
1761380612712409000,6.0454091796875,0.78337162733078,3.2629811763763428,1.5430302619934082
1761380612722465000,6.055465087890625,0.8831578493118286,2.78299617767334,1.22318434715271
1761380612732520200,6.065520263671875,1.0696156024932861,2.4511585235595703,0.587046205997467
1761380612742575900,6.075575927734375,1.2286055088043213,1.972377896308899,-0.11569837480783463
1761380612752631800,6.0856318359375,1.2447656393051147,1.4069807529449463,-0.745151162147522
1761380612762688000,6.09568798828125,1.1983920335769653,1.0820682048797607,-1.0725549459457397
1761380612772744000,6.105743896484375,1.1307402849197388,0.8607030510902405,-1.0925434827804565
1761380612782799000,6.115799072265625,1.0933167934417725,0.7912706732749939,-0.8896644711494446
1761380612792855000,6.12585498046875,1.0624185800552368,0.9121556282043457,-0.5035194158554077
1761380612802911000,6.135910888671875,1.044692873954773,1.1372431516647339,-0.022022826597094536
1761380612812967200,6.14596728515625,1.074107050895691,1.2536791563034058,0.42296430468559265
1761380612823023000,6.156023193359375,1.138429880142212,1.2392884492874146,0.7435635924339294
1761380612833078000,6.166078125,1.1811821460723877,1.0341017246246338,0.9397411942481995
1761380612843134000,6.176134033203125,1.1714872121810913,0.6788837313652039,1.0597554445266724
1761380612853190000,6.18618994140625,1.1715091466903687,0.16298387944698334,1.0649304389953613
1761380612863246000,6.19624609375,1.2238788604736328,-0.4190851151943207,0.9024749994277954
1761380612873302000,6.206302001953125,1.291023850440979,-0.8831202983856201,0.5689030289649963
1761380612883357000,6.21635693359375,1.3470064401626587,-1.1771360635757446,0.15412579476833344
1761380612893413000,6.2264130859375,1.3632360696792603,-1.3885509967803955,-0.18403570353984833
1761380612903469000,6.236468994140625,1.267627477645874,-1.6874959468841553,-0.3288227319717407
1761380612913525000,6.24652490234375,1.028959035873413,-1.9224005937576294,-0.24001455307006836
1761380612923581000,6.256580810546875,0.6392000317573547,-1.998345136642456,0.03926582634449005
1761380612933636900,6.266636962890625,0.08128459006547928,-1.9754458665847778,0.35109275579452515
1761380612943692000,6.276692138671875,-0.512598991394043,-1.8717725276947021,0.5322718024253845
1761380612953748000,6.286748046875,-1.062338948249817,-1.6921433210372925,0.5504674315452576
1761380612963804000,6.296803955078125,-1.6022839546203613,-1.7693305015563965,0.48026442527770996
1761380612973860000,6.306860107421875,-2.029823064804077,-2.377012014389038,0.3403545916080475
1761380612983916000,6.316916015625,-2.279484748840332,-3.2493937015533447,-0.08555411547422409
1761380612993971200,6.32697119140625,-2.3264594078063965,-3.7923929691314697,-0.932092010974884
1761380613004027000,6.33702685546875,-2.09916353225708,-3.7732088565826416,-1.9109686613082886
1761380613014082800,6.347082763671875,-1.66560959815979,-3.551475763320923,-2.4366202354431152
1761380613024139000,6.357138916015625,-1.3042389154434204,-3.7800710201263428,-2.104268789291382
1761380613034195000,6.36719482421875,-1.128872036933899,-4.432286262512207,-1.1104660034179688
1761380613044250000,6.37725,-1.0784392356872559,-4.708609104156494,0.03641575947403908
1761380613054306000,6.38730615234375,-1.0565104484558105,-4.529661655426025,0.911798357963562
1761380613064362000,6.397362060546875,-1.0059162378311157,-4.048519134521484,1.5019385814666748
1761380613074418200,6.407418212890625,-0.9696261882781982,-3.47214674949646,1.8134397268295288
1761380613084474000,6.41747412109375,-0.884386420249939,-3.076523542404175,1.7527697086334229
1761380613094529000,6.427529052734375,-0.6758849620819092,-2.776874542236328,1.2148032188415527
1761380613104585000,6.4375849609375,-0.45035168528556824,-2.4811856746673584,0.36834442615509033
1761380613114641000,6.447640869140625,-0.3074408769607544,-2.194669246673584,-0.5676235556602478
1761380613124697000,6.457697021484375,-0.2044982612133026,-1.93710458278656,-1.4490963220596313
1761380613134753000,6.4677529296875,-0.1642170399427414,-1.7761492729187012,-2.2323925495147705
1761380613144808000,6.477807861328125,-0.14734192192554474,-1.7835044860839844,-2.8315131664276123
1761380613154864000,6.487864013671875,-0.10229775309562683,-1.985669732093811,-3.186976671218872
1761380613164920000,6.497920166015625,-0.0977698490023613,-2.335214138031006,-3.3004415035247803
1761380613174976000,6.50797607421875,-0.08845295011997223,-2.6698272228240967,-3.1466963291168213
1761380613185032000,6.518031982421875,-0.10891614854335785,-2.696624517440796,-2.791520118713379
1761380613195086800,6.5280869140625,-0.2318645864725113,-1.996527075767517,-2.4340178966522217
1761380613205143000,6.53814306640625,-0.426663339138031,-0.7863072752952576,-2.26935076713562
1761380613215199000,6.548198974609375,-0.6303939819335938,0.4643290340900421,-2.191474676132202
1761380613225255000,6.5582548828125,-0.8517261147499084,1.321052074432373,-1.9601507186889648
1761380613235311000,6.56831103515625,-1.02155339717865,1.6350693702697754,-1.5251566171646118
1761380613245366000,6.578365966796875,-1.09087336063385,1.3720470666885376,-0.8614689707756042
1761380613255422000,6.588421875,-1.1301829814910889,0.967219889163971,-0.07044605910778046
1761380613265478000,6.598477783203125,-1.1847798824310303,0.9166507124900818,0.6626236438751221
1761380613275533800,6.608533935546875,-1.154193639755249,1.3064602613449097,1.1358306407928467
1761380613285590000,6.618590087890625,-0.9269755482673645,2.0738179683685303,1.2894164323806763
1761380613295646000,6.62864599609375,-0.4240958094596863,2.84808611869812,1.2826865911483765
1761380613305701000,6.638701171875,0.18419013917446136,3.1497695446014404,1.3069757223129272
1761380613315757000,6.648757080078125,0.6830825805664062,2.7094643115997314,1.3810369968414307
1761380613325813000,6.65881298828125,0.938700795173645,1.7164583206176758,1.3232200145721436
1761380613335869200,6.668869140625,0.9285006523132324,0.9152402877807617,0.9679105877876282
1761380613345925000,6.678925048828125,0.720598042011261,0.8151946663856506,0.4999833405017853
1761380613355980000,6.68897998046875,0.5107455849647522,1.2050031423568726,0.1328880786895752
1761380613366036000,6.699035888671875,0.4401741921901703,1.4495506286621094,-0.2772315442562103
1761380613376092000,6.709091796875,0.6825827360153198,1.187839150428772,-0.9043039083480835
1761380613386148000,6.719148193359375,1.1572078466415405,1.2938913106918335,-1.5424749851226807
1761380613396204000,6.7292041015625,1.6488758325576782,2.5284790992736816,-1.6063530445098877
1761380613406259000,6.739259033203125,2.0403976440429688,3.9533417224884033,-1.177003264427185
1761380613416315100,6.749315185546875,2.0639472007751465,4.94284725189209,-0.6263689994812012
1761380613426371000,6.75937109375,1.8308749198913574,5.448452472686768,-0.16101038455963135
1761380613436426800,6.7694267578125,1.5611413717269897,5.392068862915039,0.32169613242149353
1761380613446483000,6.77948291015625,1.3424057960510254,4.679224014282227,0.8296884894371033
1761380613456537900,6.789537841796875,1.197959303855896,3.6176881790161133,1.0983284711837769
1761380613466594000,6.799593994140625,1.1878983974456787,2.712097406387329,1.024247407913208
1761380613476650000,6.80964990234375,1.3271701335906982,1.8567087650299072,0.7316192388534546
1761380613486702800,6.819702880859375,1.4987852573394775,1.0352404117584229,0.4136101007461548
1761380613496759000,6.829759033203125,1.623811960220337,0.519565224647522,0.22198322415351868
1761380613506814000,6.83981396484375,1.670804738998413,0.25576016306877136,0.22259069979190826
1761380613516870100,6.8498701171875,1.623760461807251,0.17084047198295593,0.33171993494033813
1761380613526926000,6.859926025390625,1.566906213760376,0.25620144605636597,0.43444177508354187
1761380613536982000,6.86998193359375,1.502991795539856,0.3393791913986206,0.513795793056488
1761380613547038000,6.880037841796875,1.4317578077316284,0.37999454140663147,0.5567339062690735
1761380613557093000,6.890093017578125,1.4105336666107178,0.41302892565727234,0.493654727935791
1761380613567148800,6.900148681640625,1.3998277187347412,0.49121132493019104,0.27801886200904846
1761380613577205000,6.910205078125,1.3350943326950073,0.6144800782203674,-0.04905901476740837
1761380613587261000,6.920260986328125,1.232123851776123,0.6658564805984497,-0.34188395738601685
1761380613597316900,6.93031689453125,1.1528699398040771,0.6376884579658508,-0.5385876297950745
1761380613607373000,6.940373046875,1.1039832830429077,0.5772213935852051,-0.6300147771835327
1761380613617428000,6.950427978515625,1.0307164192199707,0.43262049555778503,-0.624890148639679
1761380613627484200,6.960484130859375,0.861810028553009,0.24547111988067627,-0.5119308233261108
1761380613637540000,6.9705400390625,0.6472155451774597,0.14369052648544312,-0.2799259126186371
1761380613647596000,6.980595947265625,0.42227935791015625,0.15537886321544647,0.004710611887276173
1761380613657652200,6.99065234375,0.1794532686471939,0.21865542232990265,0.28713521361351013
1761380613667707000,7.000706787109375,-0.049286164343357086,0.14872108399868011,0.5620821118354797
1761380613677763000,7.01076318359375,-0.31156402826309204,-0.2042311728000641,0.866305947303772
1761380613687819000,7.020819091796875,-0.6255949139595032,-0.7431010603904724,1.1105750799179077
1761380613697875000,7.030875,-0.9050841331481934,-1.240422010421753,1.1769577264785767
1761380613707931100,7.04093115234375,-1.0537692308425903,-1.7971822023391724,0.9672586917877197
1761380613717986000,7.050986083984375,-1.0578852891921997,-2.314174175262451,0.5044421553611755
1761380613728042200,7.061042236328125,-0.980080246925354,-2.388833999633789,0.07685701549053192
1761380613738098200,7.07109814453125,-0.9177466034889221,-1.9065600633621216,-0.0404960997402668
1761380613748153900,7.08115380859375,-0.9188222289085388,-1.6915757656097412,0.13315264880657196
1761380613758210000,7.0912099609375,-0.9680448174476624,-1.956374168395996,0.0025230832397937775
1761380613768265000,7.101264892578125,-0.8903404474258423,-1.891393780708313,-0.6407917141914368
1761380613778321200,7.111321044921875,-0.7875014543533325,-1.972116231918335,-1.2930868864059448
1761380613788377000,7.121377197265625,-0.6372291445732117,-2.336815357208252,-1.332388997077942
1761380613798433000,7.13143310546875,-0.5990511178970337,-2.4722402095794678,-0.7403451204299927
1761380613808489000,7.141489013671875,-0.7033772468566895,-2.147521495819092,0.1449708193540573
1761380613818544000,7.151544189453125,-0.8729050755500793,-1.533385157585144,0.8889793753623962
1761380613828599800,7.161599853515625,-1.0582966804504395,-1.008628249168396,1.1911516189575195
1761380613838656000,7.171656005859375,-1.1496338844299316,-0.6399211883544922,1.050161600112915
1761380613848712000,7.1817119140625,-1.0797951221466064,-0.46615928411483765,0.6191660165786743
1761380613858768000,7.191767822265625,-0.9078548550605774,-0.495776891708374,0.0376107357442379
1761380613868824000,7.201823974609375,-0.6376894116401672,-0.5713488459587097,-0.48536697030067444
1761380613878879000,7.21187890625,-0.3674761950969696,-0.6533761620521545,-0.7973712086677551
1761380613888935200,7.22193505859375,-0.11953964084386826,-0.7432735562324524,-0.955254077911377
1761380613898991000,7.2319912109375,0.09608867019414902,-0.6037802696228027,-0.9859700798988342
1761380613909047000,7.242047119140625,0.23894540965557098,-0.22496451437473297,-0.8974838852882385
1761380613919103200,7.252103271484375,0.20536446571350098,0.22245508432388306,-0.5469526052474976
1761380613929158000,7.262157958984375,0.05218769609928131,0.3762962818145752,-0.1943008154630661
1761380613939214000,7.272214111328125,-0.06993807852268219,0.1775793582201004,-0.058976661413908005
1761380613949270000,7.28227001953125,-0.10475625097751617,-0.0571918711066246,-0.10089214891195297
1761380613959326000,7.292325927734375,-0.26105067133903503,-0.1688050478696823,-0.2321518361568451
1761380613969382100,7.302382080078125,-0.5262471437454224,-0.1730394810438156,-0.38619253039360046
1761380613979437000,7.31243701171875,-0.7892260551452637,0.06627269089221954,-0.4688962399959564
1761380613989493200,7.3224931640625,-0.9610902070999146,0.4460833966732025,-0.4277900755405426
