time,seconds_elapsed,z,y,x
1761379838913525000,0.07052490234375,-0.978515625,-0.45196533203125,0.1031036376953125
1761379838923608000,0.080608154296875,-0.9664154052734375,-0.4191131591796875,0.0906219482421875
1761379838933691100,0.090691162109375,-0.9624786376953125,-0.39794921875,0.1146697998046875
1761379838943774200,0.100774169921875,-0.976226806640625,-0.383819580078125,0.1500701904296875
1761379838953857300,0.110857177734375,-0.9820098876953125,-0.3715057373046875,0.175323486328125
1761379838963940000,0.120940185546875,-0.9822845458984375,-0.3550872802734375,0.183197021484375
1761379838974023200,0.131023193359375,-0.9703216552734375,-0.3389739990234375,0.1821136474609375
1761379838984106000,0.14110595703125,-0.9519500732421875,-0.327117919921875,0.1754913330078125
1761379838994189000,0.15118896484375,-0.9240570068359375,-0.319183349609375,0.1567840576171875
1761379839004271000,0.16127099609375,-0.884552001953125,-0.30975341796875,0.1326141357421875
1761379839014354200,0.171354248046875,-0.8509063720703125,-0.3009185791015625,0.105865478515625
1761379839024437200,0.181437255859375,-0.8289794921875,-0.2975311279296875,0.0819091796875
1761379839034520000,0.19152001953125,-0.8155975341796875,-0.2953033447265625,0.06268310546875
1761379839044603100,0.20160302734375,-0.7955322265625,-0.2960205078125,0.0545501708984375
1761379839054686000,0.21168603515625,-0.7804718017578125,-0.302734375,0.0571136474609375
1761379839064769000,0.22176904296875,-0.77362060546875,-0.3122406005859375,0.0666656494140625
1761379839074852400,0.231852294921875,-0.77276611328125,-0.321533203125,0.0760955810546875
1761379839084935200,0.24193505859375,-0.7742767333984375,-0.3287200927734375,0.0838623046875
1761379839095018200,0.252018310546875,-0.7882843017578125,-0.3365325927734375,0.094390869140625
1761379839105101000,0.26210107421875,-0.8179168701171875,-0.34661865234375,0.1137847900390625
1761379839115184000,0.27218408203125,-0.840362548828125,-0.34912109375,0.1206512451171875
1761379839125267000,0.282266845703125,-0.8739776611328125,-0.340087890625,0.11907958984375
1761379839135350300,0.292350341796875,-0.896728515625,-0.3302001953125,0.1127471923828125
1761379839145432300,0.302432373046875,-0.9129791259765625,-0.3233489990234375,0.0997467041015625
1761379839155515100,0.31251513671875,-0.915924072265625,-0.31158447265625,0.0931243896484375
1761379839165598200,0.32259814453125,-0.917236328125,-0.30548095703125,0.0985565185546875
1761379839175681000,0.332680908203125,-0.9105682373046875,-0.3036956787109375,0.11627197265625
1761379839185764000,0.34276416015625,-0.8833160400390625,-0.30230712890625,0.1396636962890625
1761379839195847000,0.352846923828125,-0.8426971435546875,-0.3123779296875,0.16912841796875
1761379839205930200,0.36293017578125,-0.7923431396484375,-0.3347625732421875,0.1934661865234375
1761379839216013300,0.373013427734375,-0.760986328125,-0.350189208984375,0.1986083984375
1761379839226096000,0.38309619140625,-0.752410888671875,-0.3647918701171875,0.21514892578125
1761379839236179200,0.39317919921875,-0.75030517578125,-0.38446044921875,0.2325439453125
1761379839246262000,0.403261962890625,-0.76458740234375,-0.4143524169921875,0.2463531494140625
1761379839256345000,0.413344970703125,-0.77294921875,-0.418670654296875,0.243896484375
1761379839266428200,0.42342822265625,-0.77838134765625,-0.4222869873046875,0.236480712890625
1761379839276510200,0.43351025390625,-0.7893829345703125,-0.4251251220703125,0.2433319091796875
1761379839286593300,0.44359326171875,-0.810028076171875,-0.4341583251953125,0.2420806884765625
1761379839296676000,0.453676025390625,-0.839324951171875,-0.4449920654296875,0.2516937255859375
1761379839306759200,0.46375927734375,-0.85760498046875,-0.449249267578125,0.2546234130859375
1761379839316842000,0.473842041015625,-0.8661041259765625,-0.4480743408203125,0.2415313720703125
1761379839326925000,0.483925048828125,-0.8700714111328125,-0.4394989013671875,0.2256317138671875
1761379839337008000,0.494008056640625,-0.8737945556640625,-0.4322662353515625,0.2098541259765625
1761379839347091200,0.50409130859375,-0.8813018798828125,-0.43182373046875,0.1941375732421875
1761379839357174300,0.51417431640625,-0.8883209228515625,-0.4321746826171875,0.1797332763671875
1761379839367257000,0.524257080078125,-0.891693115234375,-0.436065673828125,0.1705474853515625
1761379839377336600,0.534336669921875,-0.896575927734375,-0.4406280517578125,0.167083740234375
1761379839387419400,0.54441943359375,-0.903411865234375,-0.43994140625,0.1648712158203125
1761379839397501400,0.55450146484375,-0.910888671875,-0.437164306640625,0.1599578857421875
1761379839407584500,0.56458447265625,-0.926971435546875,-0.429290771484375,0.1548614501953125
1761379839417667300,0.574667236328125,-0.9450531005859375,-0.4257354736328125,0.15087890625
1761379839427750400,0.58475048828125,-0.962554931640625,-0.4237518310546875,0.1517333984375
1761379839437833500,0.59483349609375,-0.973175048828125,-0.4183197021484375,0.1520233154296875
1761379839447916500,0.60491650390625,-0.977691650390625,-0.4153900146484375,0.1511077880859375
1761379839457999400,0.614999267578125,-0.98553466796875,-0.4173431396484375,0.1517181396484375
1761379839468082400,0.62508251953125,-0.9968414306640625,-0.42047119140625,0.1471710205078125
1761379839478165500,0.63516552734375,-1.0016937255859375,-0.4168701171875,0.1374664306640625
1761379839488248300,0.645248291015625,-1.0066680908203125,-0.414276123046875,0.129608154296875
1761379839498331600,0.65533154296875,-1.0052490234375,-0.4111175537109375,0.1279449462890625
1761379839508414500,0.66541455078125,-0.9943695068359375,-0.408233642578125,0.1329498291015625
1761379839518497500,0.67549755859375,-0.9837799072265625,-0.415496826171875,0.149658203125
1761379839528579600,0.68557958984375,-0.967132568359375,-0.43963623046875,0.182830810546875
1761379839538662400,0.695662353515625,-0.9416046142578125,-0.470123291015625,0.2202606201171875
1761379839548745500,0.705745361328125,-0.9138946533203125,-0.517822265625,0.27667236328125
1761379839558828300,0.715828369140625,-0.8881072998046875,-0.5662994384765625,0.32086181640625
1761379839568911600,0.72591162109375,-0.9375457763671875,-0.5686187744140625,0.326416015625
1761379839578994400,0.735994384765625,-1.0459136962890625,-0.537567138671875,0.29547119140625
1761379839589077500,0.746077392578125,-1.164215087890625,-0.49578857421875,0.25
1761379839599160300,0.756160400390625,-1.233856201171875,-0.4426727294921875,0.1610565185546875
1761379839609243400,0.766243408203125,-1.2678985595703125,-0.3599700927734375,0.05242919921875
1761379839619326500,0.776326416015625,-1.2226409912109375,-0.28167724609375,0.002593994140625
1761379839629409500,0.786409423828125,-1.1388397216796875,-0.213958740234375,-0.0189971923828125
1761379839639491600,0.79649169921875,-1.0459747314453125,-0.1964874267578125,0.010162353515625
1761379839649574400,0.806574462890625,-0.9674530029296875,-0.215728759765625,0.0733184814453125
1761379839659657500,0.816657470703125,-0.9070281982421875,-0.2409515380859375,0.134124755859375
1761379839669740500,0.826740478515625,-0.83819580078125,-0.2614593505859375,0.1499176025390625
1761379839679823400,0.8368232421875,-0.7997894287109375,-0.279510498046875,0.1404266357421875
1761379839689906400,0.846906494140625,-0.7830810546875,-0.2859954833984375,0.1302642822265625
1761379839699989500,0.856989501953125,-0.78887939453125,-0.2902374267578125,0.128631591796875
1761379839710072600,0.867072509765625,-0.799560546875,-0.2967987060546875,0.1369476318359375
1761379839720155400,0.8771552734375,-0.795654296875,-0.2987518310546875,0.1489105224609375
1761379839730238500,0.887238525390625,-0.79693603515625,-0.3092498779296875,0.16778564453125
1761379839740321300,0.8973212890625,-0.807464599609375,-0.3231353759765625,0.185943603515625
1761379839750404400,0.907404296875,-0.820098876953125,-0.34210205078125,0.195648193359375
1761379839760486400,0.917486328125,-0.823211669921875,-0.3528900146484375,0.1903533935546875
1761379839770569500,0.927569580078125,-0.841888427734375,-0.3614654541015625,0.18359375
1761379839780652500,0.937652587890625,-0.8533172607421875,-0.37017822265625,0.1654815673828125
1761379839790735400,0.9477353515625,-0.8639373779296875,-0.3728179931640625,0.1546630859375
1761379839800818400,0.957818359375,-0.8769683837890625,-0.372314453125,0.14422607421875
1761379839810901500,0.967901611328125,-0.888092041015625,-0.3650360107421875,0.133331298828125
1761379839820984300,0.977984375,-0.9065704345703125,-0.3543548583984375,0.1283721923828125
1761379839831067600,0.988067626953125,-0.9140472412109375,-0.34210205078125,0.129974365234375
1761379839841150500,0.998150390625,-0.90386962890625,-0.332733154296875,0.13677978515625
1761379839851233500,1.008233642578125,-0.892059326171875,-0.3301239013671875,0.153839111328125
1761379839861316400,1.01831640625,-0.8853912353515625,-0.331573486328125,0.181976318359375
1761379839871398400,1.0283984375,-0.88629150390625,-0.3430328369140625,0.217193603515625
1761379839881481500,1.0384814453125,-0.8832244873046875,-0.356719970703125,0.2415771484375
1761379839891564300,1.048564208984375,-0.8767547607421875,-0.3647613525390625,0.2559356689453125
1761379839901647600,1.058647705078125,-0.8737335205078125,-0.376922607421875,0.2654876708984375
1761379839911730400,1.06873046875,-0.871063232421875,-0.38873291015625,0.269622802734375
1761379839921813500,1.0788134765625,-0.86865234375,-0.389739990234375,0.27154541015625
1761379839931896600,1.088896484375,-0.8659210205078125,-0.389617919921875,0.273651123046875
1761379839941979400,1.0989794921875,-0.87042236328125,-0.3947601318359375,0.27447509765625
1761379839952062500,1.1090625,-0.8785247802734375,-0.390533447265625,0.2689666748046875
1761379839962145500,1.1191455078125,-0.890655517578125,-0.386932373046875,0.2672119140625
1761379839972228600,1.129228515625,-0.90374755859375,-0.3892669677734375,0.268096923828125
1761379839982311400,1.1393115234375,-0.9141998291015625,-0.3888702392578125,0.265380859375
1761379839992393500,1.1493935546875,-0.927825927734375,-0.38433837890625,0.2600860595703125
1761379840002476500,1.1594765625,-0.947021484375,-0.3816986083984375,0.2505340576171875
1761379840012559400,1.169559326171875,-0.97100830078125,-0.3761138916015625,0.2326202392578125
1761379840022642400,1.179642333984375,-0.999725341796875,-0.366973876953125,0.2118072509765625
1761379840032725500,1.1897255859375,-1.0247344970703125,-0.3548736572265625,0.19342041015625
1761379840042808600,1.19980859375,-1.0410308837890625,-0.3438873291015625,0.1838226318359375
1761379840052891400,1.209891357421875,-1.0488128662109375,-0.3342742919921875,0.1798858642578125
1761379840062974500,1.219974365234375,-1.0489044189453125,-0.3253631591796875,0.1782989501953125
1761379840073057500,1.2300576171875,-1.048004150390625,-0.325439453125,0.1818695068359375
1761379840083140400,1.240140380859375,-1.0479888916015625,-0.3273773193359375,0.1824493408203125
1761379840093222400,1.250222412109375,-1.047332763671875,-0.329376220703125,0.183349609375
1761379840103305500,1.260305419921875,-1.0377655029296875,-0.347198486328125,0.1970367431640625
1761379840113388500,1.270388427734375,-1.0266265869140625,-0.3807220458984375,0.2264862060546875
1761379840123471600,1.2804716796875,-1.0266876220703125,-0.41204833984375,0.253387451171875
1761379840133554400,1.290554443359375,-1.04388427734375,-0.4212188720703125,0.244415283203125
1761379840143637500,1.300637451171875,-1.069366455078125,-0.4024810791015625,0.193878173828125
1761379840153720300,1.31072021484375,-1.0918731689453125,-0.3702850341796875,0.1298980712890625
1761379840163803600,1.3208037109375,-1.0983428955078125,-0.3261871337890625,0.08734130859375
1761379840173886500,1.330886474609375,-1.0754547119140625,-0.2832183837890625,0.074493408203125
1761379840183969500,1.340969482421875,-1.035614013671875,-0.25421142578125,0.0864105224609375
1761379840194052400,1.35105224609375,-0.9944610595703125,-0.2466888427734375,0.1214752197265625
1761379840204134400,1.361134521484375,-0.963134765625,-0.246307373046875,0.1591033935546875
1761379840214217500,1.371217529296875,-0.946502685546875,-0.2586669921875,0.18341064453125
1761379840224300300,1.38130029296875,-0.950469970703125,-0.272674560546875,0.1805877685546875
1761379840234383600,1.391383544921875,-0.9597930908203125,-0.2757415771484375,0.1592254638671875
1761379840244466400,1.401466552734375,-0.9648284912109375,-0.270111083984375,0.13262939453125
1761379840254549500,1.411549560546875,-0.972381591796875,-0.2625579833984375,0.1128082275390625
1761379840264632600,1.421632568359375,-0.9759979248046875,-0.24945068359375,0.0907135009765625
1761379840274715400,1.43171533203125,-0.9575653076171875,-0.239166259765625,0.07086181640625
1761379840284798500,1.441798583984375,-0.9405059814453125,-0.2391815185546875,0.049468994140625
1761379840294881500,1.451881591796875,-0.9177398681640625,-0.2565155029296875,0.02874755859375
1761379840304963300,1.46196337890625,-0.887725830078125,-0.2704620361328125,0.0064697265625
1761379840315046700,1.472046630859375,-0.8549957275390625,-0.2831268310546875,-0.013580322265625
1761379840325129500,1.48212939453125,-0.826629638671875,-0.30810546875,-0.0292205810546875
1761379840335212500,1.492212646484375,-0.801422119140625,-0.3336181640625,-0.0325775146484375
1761379840345295400,1.50229541015625,-0.79193115234375,-0.3591156005859375,-0.0193023681640625
1761379840355378400,1.51237841796875,-0.788299560546875,-0.3832855224609375,0.00799560546875
1761379840365461200,1.522461181640625,-0.789459228515625,-0.393402099609375,0.0341949462890625
1761379840375543800,1.532543701171875,-0.803375244140625,-0.39410400390625,0.057342529296875
1761379840385627000,1.542626953125,-0.827301025390625,-0.3955078125,0.072601318359375
1761379840395710000,1.5527099609375,-0.85400390625,-0.3894805908203125,0.0746612548828125
1761379840405792000,1.5627919921875,-0.88482666015625,-0.3745880126953125,0.0586395263671875
1761379840415875000,1.572875,-0.91912841796875,-0.3579254150390625,0.026275634765625
1761379840425958000,1.5829580078125,-0.952789306640625,-0.3362274169921875,-0.0153656005859375
1761379840436041000,1.593041015625,-0.9681854248046875,-0.3137969970703125,-0.05548095703125
1761379840446123800,1.603123779296875,-0.9622955322265625,-0.2964019775390625,-0.07647705078125
1761379840456206800,1.613206787109375,-0.939544677734375,-0.2842254638671875,-0.0755462646484375
1761379840466290000,1.6232900390625,-0.90264892578125,-0.271881103515625,-0.0560302734375
1761379840476373000,1.633373046875,-0.854156494140625,-0.2727813720703125,-0.018585205078125
1761379840486455800,1.643455810546875,-0.8058624267578125,-0.292266845703125,0.0235748291015625
1761379840496539000,1.653538818359375,-0.76641845703125,-0.3159332275390625,0.048095703125
1761379840506621000,1.663620849609375,-0.7405853271484375,-0.3397064208984375,0.068359375
1761379840516703700,1.673703857421875,-0.7302093505859375,-0.3586883544921875,0.0914154052734375
1761379840526786800,1.683786865234375,-0.71893310546875,-0.378143310546875,0.1007537841796875
1761379840536870000,1.693869873046875,-0.7230987548828125,-0.3944549560546875,0.1011505126953125
1761379840546953000,1.703952880859375,-0.746002197265625,-0.4189605712890625,0.1096343994140625
1761379840557036000,1.7140361328125,-0.778900146484375,-0.4481964111328125,0.110595703125
1761379840567118800,1.724118896484375,-0.812286376953125,-0.4603729248046875,0.097412109375
1761379840577202000,1.734201904296875,-0.8537445068359375,-0.4635467529296875,0.08453369140625
1761379840587284700,1.74428466796875,-0.884918212890625,-0.4554290771484375,0.066650390625
1761379840597366800,1.75436669921875,-0.9167022705078125,-0.440216064453125,0.0524444580078125
1761379840607449900,1.764449951171875,-0.950439453125,-0.4302978515625,0.0447540283203125
1761379840617533000,1.774532958984375,-0.9766693115234375,-0.4271392822265625,0.0393218994140625
1761379840627616000,1.784615966796875,-0.9982147216796875,-0.4266357421875,0.030670166015625
1761379840637698800,1.79469873046875,-1.020111083984375,-0.4268798828125,0.0189361572265625
1761379840647782000,1.804781982421875,-1.030792236328125,-0.42559814453125,0.0128326416015625
1761379840657864700,1.81486474609375,-1.040069580078125,-0.4211883544921875,0.010650634765625
1761379840667947800,1.82494775390625,-1.0547943115234375,-0.4217071533203125,0.01422119140625
1761379840678030800,1.83503076171875,-1.0629425048828125,-0.425079345703125,0.0210418701171875
1761379840688114000,1.845114013671875,-1.052490234375,-0.4350128173828125,0.0155792236328125
1761379840698196000,1.855196044921875,-1.0334014892578125,-0.4444427490234375,0.0062255859375
1761379840708278800,1.86527880859375,-1.014892578125,-0.4506988525390625,0.0064849853515625
1761379840718361900,1.87536181640625,-0.9897918701171875,-0.4549102783203125,0.0088043212890625
1761379840728445000,1.88544482421875,-0.970306396484375,-0.4586334228515625,0.009002685546875
1761379840738527700,1.89552783203125,-0.9561920166015625,-0.4593963623046875,0.0084075927734375
1761379840748611000,1.905611083984375,-0.94525146484375,-0.4545745849609375,0.0113372802734375
1761379840758694000,1.91569384765625,-0.9270782470703125,-0.4466552734375,0.0052642822265625
1761379840768777000,1.92577685546875,-0.9077911376953125,-0.443450927734375,0.0005035400390625
1761379840778859800,1.93585986328125,-0.8876495361328125,-0.4475860595703125,-0.0023956298828125
1761379840788942800,1.94594287109375,-0.8681640625,-0.4529876708984375,-0.006805419921875
1761379840799025000,1.95602490234375,-0.8543853759765625,-0.45684814453125,-0.00933837890625
1761379840809107700,1.966107666015625,-0.8452301025390625,-0.4611053466796875,-0.0070648193359375
1761379840819191000,1.97619091796875,-0.838043212890625,-0.4641571044921875,-0.0081634521484375
1761379840829273900,1.98627392578125,-0.834808349609375,-0.4645233154296875,-0.0096893310546875
1761379840839357000,1.99635693359375,-0.832122802734375,-0.4634857177734375,-0.00823974609375
1761379840849439700,2.006439697265625,-0.8322601318359375,-0.465057373046875,-0.006134033203125
1761379840859522800,2.016522705078125,-0.83905029296875,-0.4649810791015625,-0.0056915283203125
1761379840869606000,2.02660595703125,-0.8496856689453125,-0.462310791015625,-0.0053863525390625
1761379840879687700,2.036687744140625,-0.8699188232421875,-0.4560089111328125,-0.0101165771484375
1761379840889771000,2.04677099609375,-0.8931121826171875,-0.44281005859375,-0.0232696533203125
1761379840899853800,2.056853759765625,-0.9131011962890625,-0.4283599853515625,-0.0381317138671875
1761379840909937000,2.06693701171875,-0.938079833984375,-0.424713134765625,-0.04022216796875
1761379840920020000,2.07702001953125,-0.946136474609375,-0.411285400390625,-0.0489959716796875
1761379840930102800,2.087102783203125,-0.938720703125,-0.3900299072265625,-0.0561676025390625
1761379840940185900,2.097185791015625,-0.9347076416015625,-0.38214111328125,-0.0480499267578125
1761379840950269000,2.10726904296875,-0.919677734375,-0.38104248046875,-0.03021240234375
1761379840960352000,2.11735205078125,-0.9009857177734375,-0.395751953125,0.0068359375
1761379840970434000,2.12743408203125,-0.88861083984375,-0.4307098388671875,0.0534515380859375
1761379840980516900,2.137516845703125,-0.91192626953125,-0.448638916015625,0.093109130859375
1761379840990600000,2.147599853515625,-0.93878173828125,-0.44586181640625,0.11297607421875
1761379841000682800,2.157682861328125,-0.97076416015625,-0.438262939453125,0.1161346435546875
1761379841010765800,2.167765869140625,-1.0032196044921875,-0.4295806884765625,0.1186370849609375
1761379841020849000,2.177848876953125,-1.0412750244140625,-0.4246826171875,0.1306915283203125
1761379841030932000,2.187931884765625,-1.0622100830078125,-0.414642333984375,0.1342620849609375
1761379841041014800,2.198014892578125,-1.05694580078125,-0.402252197265625,0.1313629150390625
1761379841051097900,2.208097900390625,-1.0493316650390625,-0.3791046142578125,0.1239471435546875
1761379841061180000,2.218179931640625,-1.0426025390625,-0.350189208984375,0.1096649169921875
1761379841071262700,2.2282626953125,-1.04254150390625,-0.3241729736328125,0.09991455078125
1761379841081345800,2.238345703125,-1.0348358154296875,-0.3123931884765625,0.0971221923828125
1761379841091429000,2.24842919921875,-1.0383758544921875,-0.3045806884765625,0.0958709716796875
1761379841101512000,2.258511962890625,-1.04010009765625,-0.3016815185546875,0.1002655029296875
1761379841111595000,2.268594970703125,-1.0231781005859375,-0.3079376220703125,0.124176025390625
1761379841121677800,2.278677734375,-1.0013885498046875,-0.3200836181640625,0.1593475341796875
1761379841131761000,2.288760986328125,-0.9835205078125,-0.3383636474609375,0.1952362060546875
1761379841141843000,2.298843017578125,-0.9740447998046875,-0.357208251953125,0.2100372314453125
1761379841151925800,2.30892578125,-0.9799346923828125,-0.3547821044921875,0.1882476806640625
1761379841162009000,2.319009033203125,-1.0057830810546875,-0.337646484375,0.1524658203125
1761379841172092000,2.329091796875,-1.0406951904296875,-0.3213043212890625,0.1169586181640625
1761379841182175000,2.339175048828125,-1.061859130859375,-0.297576904296875,0.0871734619140625
1761379841192257800,2.3492578125,-1.050384521484375,-0.2814483642578125,0.071136474609375
1761379841202340900,2.3593408203125,-1.015472412109375,-0.280731201171875,0.0703582763671875
1761379841212423700,2.369423583984375,-0.9701690673828125,-0.2860107421875,0.076812744140625
1761379841222507000,2.379507080078125,-0.9249420166015625,-0.28326416015625,0.07781982421875
1761379841232588800,2.3895888671875,-0.892822265625,-0.2785186767578125,0.07568359375
1761379841242671900,2.399671875,-0.87060546875,-0.2819061279296875,0.073272705078125
1761379841252755000,2.4097548828125,-0.8662261962890625,-0.2864837646484375,0.077239990234375
1761379841262837800,2.419837646484375,-0.8732452392578125,-0.29315185546875,0.085357666015625
1761379841272920800,2.4299208984375,-0.8664703369140625,-0.301544189453125,0.0878753662109375
1761379841283004000,2.44000390625,-0.8491668701171875,-0.3161468505859375,0.0963592529296875
1761379841293086700,2.450086669921875,-0.8022613525390625,-0.335723876953125,0.0974273681640625
1761379841303170000,2.460170166015625,-0.7695465087890625,-0.349945068359375,0.0970916748046875
1761379841313252000,2.470252197265625,-0.7766265869140625,-0.3818359375,0.087249755859375
1761379841323335000,2.4803349609375,-0.7742767333984375,-0.4102783203125,0.06048583984375
1761379841333418000,2.49041796875,-0.783111572265625,-0.4207916259765625,0.035125732421875
1761379841343500800,2.500500732421875,-0.8058013916015625,-0.4243011474609375,0.0152435302734375
1761379841353583900,2.510583984375,-0.83477783203125,-0.419342041015625,-0.0013275146484375
1761379841363666700,2.520666748046875,-0.8587493896484375,-0.4078826904296875,-0.0050201416015625
1761379841373754400,2.53075439453125,-0.8635406494140625,-0.39739990234375,0.0025787353515625
1761379841383837200,2.540837158203125,-0.852386474609375,-0.3909149169921875,0.010528564453125
1761379841393919200,2.550919189453125,-0.8306121826171875,-0.39031982421875,0.0107421875
1761379841404002300,2.561002197265625,-0.8099212646484375,-0.3959808349609375,0.00360107421875
1761379841414085000,2.571085205078125,-0.801727294921875,-0.402099609375,-0.0072174072265625
1761379841424168400,2.58116845703125,-0.81201171875,-0.39837646484375,-0.02606201171875
1761379841434251300,2.591251220703125,-0.836334228515625,-0.3812255859375,-0.034271240234375
1761379841444334300,2.601334228515625,-0.8610687255859375,-0.3652496337890625,-0.032745361328125
1761379841454417200,2.611417236328125,-0.8684234619140625,-0.3572540283203125,-0.0261688232421875
1761379841464500200,2.621500244140625,-0.8529815673828125,-0.352447509765625,-0.01617431640625
1761379841474582300,2.631582275390625,-0.8336639404296875,-0.3503265380859375,-0.0050048828125
1761379841484665000,2.6416650390625,-0.8251800537109375,-0.3589630126953125,0.00555419921875
1761379841494748400,2.65174853515625,-0.8188629150390625,-0.368896484375,0.01092529296875
1761379841504831200,2.661831298828125,-0.8146514892578125,-0.3636016845703125,0.011505126953125
1761379841514914300,2.671914306640625,-0.8152618408203125,-0.3519439697265625,0.012725830078125
1761379841524997000,2.6819970703125,-0.8268585205078125,-0.3464508056640625,0.0193939208984375
1761379841535080200,2.692080078125,-0.834747314453125,-0.3631744384765625,0.0365753173828125
1761379841545163300,2.702163330078125,-0.843658447265625,-0.3940887451171875,0.05224609375
1761379841555245000,2.7122451171875,-0.8640594482421875,-0.421356201171875,0.075653076171875
1761379841565328400,2.722328369140625,-0.89044189453125,-0.457855224609375,0.10400390625
1761379841575411200,2.7324111328125,-0.9198455810546875,-0.5004730224609375,0.13720703125
1761379841585494300,2.742494384765625,-0.9484100341796875,-0.52923583984375,0.1623992919921875
1761379841595577300,2.752577392578125,-0.9712066650390625,-0.5469970703125,0.17962646484375
1761379841605660200,2.76266015625,-0.990142822265625,-0.57879638671875,0.1967620849609375
1761379841615743200,2.7727431640625,-1.015869140625,-0.6232757568359375,0.2235565185546875
1761379841625826300,2.782826416015625,-1.0613555908203125,-0.6670989990234375,0.254608154296875
1761379841635908400,2.792908447265625,-1.141571044921875,-0.69512939453125,0.27569580078125
1761379841645991400,2.802991455078125,-1.1973876953125,-0.69976806640625,0.2815704345703125
1761379841656074200,2.81307421875,-1.261505126953125,-0.6862640380859375,0.2714996337890625
1761379841666157300,2.8231572265625,-1.314788818359375,-0.672760009765625,0.26910400390625
1761379841676240100,2.833240234375,-1.3504180908203125,-0.6536712646484375,0.2488555908203125
1761379841686323200,2.8433232421875,-1.3940277099609375,-0.6405792236328125,0.2455902099609375
1761379841696406300,2.85340625,-1.4566192626953125,-0.64794921875,0.2708892822265625
1761379841706488300,2.86348828125,-1.509674072265625,-0.6471099853515625,0.2935791015625
1761379841716571400,2.8735712890625,-1.5061798095703125,-0.6231231689453125,0.3000946044921875
1761379841726654200,2.883654296875,-1.473419189453125,-0.618316650390625,0.32098388671875
1761379841736737300,2.8937373046875,-1.449554443359375,-0.6268768310546875,0.3398284912109375
1761379841746820000,2.903820068359375,-1.406341552734375,-0.6044464111328125,0.3404541015625
1761379841756903200,2.913903076171875,-1.373931884765625,-0.5771026611328125,0.346038818359375
1761379841766986500,2.923986572265625,-1.3466949462890625,-0.5444793701171875,0.338470458984375
1761379841777068000,2.934068115234375,-1.3135528564453125,-0.471771240234375,0.3184967041015625
1761379841787151400,2.9441513671875,-1.2810821533203125,-0.388671875,0.271148681640625
1761379841797234200,2.954234130859375,-1.241973876953125,-0.3160247802734375,0.212890625
1761379841807317200,2.964317138671875,-1.2105865478515625,-0.2456207275390625,0.1559295654296875
1761379841817400300,2.974400390625,-1.185760498046875,-0.18035888671875,0.1047515869140625
1761379841827483100,2.984483154296875,-1.1503448486328125,-0.128265380859375,0.059600830078125
1761379841837566500,2.99456640625,-1.0998077392578125,-0.0950164794921875,0.019134521484375
1761379841847649300,3.004649169921875,-1.0336761474609375,-0.0781097412109375,-0.007171630859375
1761379841857731300,3.0147314453125,-0.98211669921875,-0.0950775146484375,-0.0055694580078125
1761379841867814400,3.024814453125,-0.946685791015625,-0.12548828125,0.0050506591796875
1761379841877897200,3.034897216796875,-0.93182373046875,-0.1352996826171875,0.0168609619140625
1761379841887980300,3.044980224609375,-0.9244842529296875,-0.148345947265625,0.028289794921875
1761379841898063000,3.05506298828125,-0.9113616943359375,-0.1606597900390625,0.0198516845703125
1761379841908146200,3.065146240234375,-0.901885986328125,-0.1594390869140625,-0.00030517578125
1761379841918229200,3.075229248046875,-0.9010467529296875,-0.161224365234375,-0.0180816650390625
1761379841928311300,3.085311279296875,-0.89276123046875,-0.1763916015625,-0.0324554443359375
1761379841938394400,3.095394287109375,-0.87109375,-0.18646240234375,-0.056671142578125
1761379841948477200,3.105477294921875,-0.8535919189453125,-0.193511962890625,-0.0807342529296875
1761379841958560300,3.115560302734375,-0.8469696044921875,-0.208526611328125,-0.0832672119140625
1761379841968643000,3.12564306640625,-0.8425140380859375,-0.2330780029296875,-0.069244384765625
1761379841978726100,3.13572607421875,-0.8281707763671875,-0.2511444091796875,-0.04583740234375
1761379841988809500,3.1458095703125,-0.8114776611328125,-0.2625732421875,-0.0215301513671875
1761379841998891300,3.155891357421875,-0.8057708740234375,-0.2814788818359375,-0.003387451171875
1761379842008974300,3.165974365234375,-0.8187255859375,-0.306976318359375,0.003662109375
1761379842019057200,3.17605712890625,-0.8427276611328125,-0.325408935546875,-0.00347900390625
1761379842029140200,3.18614013671875,-0.8744964599609375,-0.3343658447265625,-0.01434326171875
1761379842039223300,3.196223388671875,-0.9120025634765625,-0.3429718017578125,-0.02093505859375
1761379842049306000,3.20630615234375,-0.95819091796875,-0.34039306640625,-0.0269012451171875
1761379842059389400,3.216389404296875,-0.9882659912109375,-0.322845458984375,-0.029632568359375
1761379842069471200,3.22647119140625,-1,-0.3023223876953125,-0.031646728515625
1761379842079554300,3.23655419921875,-0.9990692138671875,-0.29022216796875,-0.02734375
1761379842089637400,3.246637451171875,-0.989654541015625,-0.288482666015625,-0.0227203369140625
1761379842099720200,3.25672021484375,-0.9615020751953125,-0.29095458984375,-0.0224609375
1761379842109803300,3.26680322265625,-0.931793212890625,-0.3038330078125,-0.01629638671875
1761379842119886000,3.276885986328125,-0.892822265625,-0.3211822509765625,-0.01458740234375
1761379842129969400,3.286969482421875,-0.854644775390625,-0.3326263427734375,-0.012847900390625
1761379842140051500,3.297051513671875,-0.828826904296875,-0.3348846435546875,0.0015869140625
1761379842150134300,3.30713427734375,-0.819671630859375,-0.340545654296875,0.03369140625
1761379842160217300,3.31721728515625,-0.8158721923828125,-0.3399810791015625,0.0538482666015625
1761379842170300200,3.327300048828125,-0.81109619140625,-0.32647705078125,0.062774658203125
1761379842180383200,3.33738330078125,-0.809814453125,-0.321868896484375,0.0574798583984375
1761379842190466000,3.347466064453125,-0.8098602294921875,-0.3240509033203125,0.0392913818359375
1761379842200549400,3.35754931640625,-0.807281494140625,-0.3183135986328125,0.013824462890625
1761379842210631400,3.36763134765625,-0.800689697265625,-0.31463623046875,-0.0098419189453125
1761379842220714200,3.37771435546875,-0.787506103515625,-0.3151702880859375,-0.0227508544921875
1761379842230797300,3.38779736328125,-0.764068603515625,-0.3095550537109375,-0.0243072509765625
1761379842240880000,3.397880126953125,-0.7389984130859375,-0.3079071044921875,-0.01080322265625
1761379842250963200,3.407963134765625,-0.7132415771484375,-0.3076629638671875,0.003814697265625
1761379842261046300,3.41804638671875,-0.6851043701171875,-0.3042449951171875,0.00994873046875
1761379842271129300,3.42812939453125,-0.6679840087890625,-0.302337646484375,0.0126800537109375
1761379842281211400,3.43821142578125,-0.682830810546875,-0.3052520751953125,0.0300750732421875
1761379842291294500,3.44829443359375,-0.709747314453125,-0.3084259033203125,0.0489044189453125
1761379842301377300,3.458377197265625,-0.732025146484375,-0.294403076171875,0.047760009765625
1761379842311460400,3.46846044921875,-0.7386322021484375,-0.2804412841796875,0.0478515625
1761379842321543200,3.478543212890625,-0.743865966796875,-0.27716064453125,0.050201416015625
1761379842331626200,3.488626220703125,-0.736663818359375,-0.292266845703125,0.053497314453125
1761379842341708300,3.498708251953125,-0.7230682373046875,-0.3114013671875,0.0585479736328125
1761379842351791000,3.508791015625,-0.7087249755859375,-0.323577880859375,0.0601959228515625
1761379842361874400,3.51887451171875,-0.70489501953125,-0.3370513916015625,0.0663299560546875
1761379842371953400,3.528953369140625,-0.7241668701171875,-0.3523101806640625,0.0705413818359375
1761379842382036500,3.539036376953125,-0.770355224609375,-0.3524169921875,0.076080322265625
1761379842392119300,3.549119384765625,-0.8175506591796875,-0.3401031494140625,0.0749664306640625
1761379842402202400,3.559202392578125,-0.8344268798828125,-0.3194122314453125,0.0634918212890625
1761379842412284400,3.569284423828125,-0.834991455078125,-0.3155975341796875,0.0561065673828125
1761379842422367500,3.579367431640625,-0.8141326904296875,-0.321258544921875,0.0464019775390625
1761379842432450600,3.589450439453125,-0.7783355712890625,-0.3289031982421875,0.040008544921875
1761379842442533400,3.599533447265625,-0.7270355224609375,-0.34576416015625,0.03875732421875
1761379842452616400,3.609616455078125,-0.6864013671875,-0.358184814453125,0.041015625
1761379842462699500,3.619699462890625,-0.667572021484375,-0.3647918701171875,0.0445404052734375
1761379842472781300,3.62978125,-0.665496826171875,-0.3560638427734375,0.04852294921875
1761379842482864400,3.639864501953125,-0.684967041015625,-0.3382415771484375,0.04986572265625
1761379842492947500,3.649947509765625,-0.713592529296875,-0.3199005126953125,0.048431396484375
1761379842503030500,3.660030517578125,-0.7467041015625,-0.301513671875,0.05078125
1761379842513113600,3.670113525390625,-0.772796630859375,-0.29779052734375,0.0458831787109375
1761379842523196400,3.680196533203125,-0.7933807373046875,-0.299041748046875,0.0343780517578125
1761379842533279500,3.690279541015625,-0.81402587890625,-0.3065948486328125,0.0163421630859375
1761379842543361500,3.700361572265625,-0.8299560546875,-0.3094635009765625,-0.01434326171875
1761379842553444400,3.7104443359375,-0.8166046142578125,-0.302093505859375,-0.0489501953125
1761379842563527700,3.720527587890625,-0.7879638671875,-0.308502197265625,-0.066741943359375
1761379842573610500,3.730610595703125,-0.76239013671875,-0.3228912353515625,-0.079498291015625
1761379842583693600,3.740693603515625,-0.7297821044921875,-0.3440704345703125,-0.0871734619140625
1761379842593776400,3.7507763671875,-0.7151641845703125,-0.3697509765625,-0.0766754150390625
1761379842603858400,3.7608583984375,-0.7327117919921875,-0.3975677490234375,-0.0807342529296875
1761379842613941500,3.77094140625,-0.791168212890625,-0.3962860107421875,-0.10577392578125
1761379842624024300,3.7810244140625,-0.860626220703125,-0.371856689453125,-0.1390228271484375
1761379842634107400,3.791107421875,-0.912872314453125,-0.3441314697265625,-0.161285400390625
1761379842644190500,3.8011904296875,-0.9447021484375,-0.3275604248046875,-0.177001953125
1761379842654273500,3.8112734375,-0.9410858154296875,-0.322296142578125,-0.1753692626953125
1761379842664355600,3.82135546875,-0.926727294921875,-0.3259429931640625,-0.1576385498046875
1761379842674438400,3.8314384765625,-0.905792236328125,-0.3476715087890625,-0.1301422119140625
1761379842684521500,3.841521484375,-0.87957763671875,-0.3734130859375,-0.1042633056640625
1761379842694604300,3.851604248046875,-0.866485595703125,-0.3821868896484375,-0.088470458984375
1761379842704687400,3.861687255859375,-0.8900299072265625,-0.3893280029296875,-0.0656280517578125
1761379842714770400,3.8717705078125,-0.923797607421875,-0.3978424072265625,-0.0372314453125
1761379842724853500,3.881853515625,-0.953582763671875,-0.3973236083984375,-0.0105438232421875
1761379842734935600,3.891935546875,-0.98736572265625,-0.3864593505859375,0.015106201171875
1761379842745018400,3.902018310546875,-1.02581787109375,-0.3882904052734375,0.0249786376953125
1761379842755101400,3.912101318359375,-1.0709686279296875,-0.4011993408203125,0.01397705078125
1761379842765184500,3.9221845703125,-1.120513916015625,-0.42132568359375,0.013946533203125
1761379842775267300,3.932267333984375,-1.1809234619140625,-0.4601287841796875,0.01409912109375
1761379842785350700,3.9423505859375,-1.2372589111328125,-0.493743896484375,0.0171966552734375
1761379842795432400,3.952432373046875,-1.2774200439453125,-0.494140625,0.0231475830078125
1761379842805515500,3.962515625,-1.30145263671875,-0.4853515625,0.0499114990234375
1761379842815598600,3.9725986328125,-1.317138671875,-0.4877777099609375,0.060394287109375
1761379842825681400,3.982681396484375,-1.3098602294921875,-0.5032958984375,0.0506134033203125
1761379842835764500,3.992764404296875,-1.2636260986328125,-0.5091400146484375,0.0176544189453125
1761379842845847300,4.002847412109375,-1.1895904541015625,-0.5151519775390625,-0.016754150390625
1761379842855929300,4.012929443359375,-1.1205291748046875,-0.5098419189453125,-0.033477783203125
1761379842866012700,4.0230126953125,-1.0798797607421875,-0.4800262451171875,-0.041748046875
1761379842876095500,4.033095458984375,-1.032440185546875,-0.4652252197265625,-0.0269927978515625
1761379842886178600,4.043178466796875,-1.052276611328125,-0.4501953125,0.0147705078125
1761379842896261400,4.053261474609375,-1.043792724609375,-0.3984222412109375,0.0387420654296875
1761379842906344400,4.063344482421875,-0.9996795654296875,-0.3883209228515625,0.0640869140625
1761379842916426500,4.073426513671875,-1.004791259765625,-0.394073486328125,0.0944976806640625
1761379842926509300,4.08350927734375,-0.9996490478515625,-0.4259033203125,0.12744140625
1761379842936592600,4.093592529296875,-0.96173095703125,-0.423675537109375,0.1381072998046875
1761379842946675500,4.103675537109375,-0.9703521728515625,-0.4167938232421875,0.13201904296875
1761379842956758500,4.113758544921875,-1.0130462646484375,-0.41064453125,0.1020050048828125
1761379842966841300,4.12384130859375,-1.0529327392578125,-0.37017822265625,0.0653533935546875
1761379842976923400,4.13392333984375,-1.0916748046875,-0.326202392578125,0.0332489013671875
1761379842987006500,4.14400634765625,-1.122467041015625,-0.2980194091796875,-0.0020294189453125
1761379842997089300,4.15408935546875,-1.118194580078125,-0.2660369873046875,-0.0258331298828125
1761379843007172600,4.164172607421875,-1.09130859375,-0.2317657470703125,-0.019195556640625
1761379843017255400,4.17425537109375,-1.0334625244140625,-0.2173309326171875,0.010406494140625
1761379843027338500,4.18433837890625,-0.9207305908203125,-0.2547149658203125,0.0439300537109375
1761379843037420500,4.194420654296875,-0.7989959716796875,-0.310882568359375,0.0414276123046875
1761379843047503400,4.20450341796875,-0.71337890625,-0.342864990234375,0.0288238525390625
1761379843057586400,4.21458642578125,-0.6676025390625,-0.372100830078125,0.0166168212890625
1761379843067669500,4.22466943359375,-0.6790008544921875,-0.411376953125,0.0087738037109375
1761379843077752300,4.23475244140625,-0.769378662109375,-0.3274688720703125,-0.0390167236328125
1761379843087835600,4.244835693359375,-0.8489227294921875,-0.2093963623046875,-0.06219482421875
1761379843097917400,4.25491748046875,-0.880218505859375,-0.1663970947265625,-0.0574493408203125
1761379843108000500,4.26500048828125,-0.879241943359375,-0.1492156982421875,-0.0713043212890625
1761379843118083600,4.27508349609375,-0.8155670166015625,-0.1432342529296875,-0.0679779052734375
1761379843128166400,4.28516650390625,-0.73956298828125,-0.1775970458984375,-0.04412841796875
1761379843138249500,4.29524951171875,-0.678924560546875,-0.2299957275390625,-0.0033721923828125
1761379843148332300,4.305332275390625,-0.6213836669921875,-0.2652130126953125,0.0244903564453125
1761379843158414300,4.315414306640625,-0.5756378173828125,-0.2855682373046875,0.017974853515625
1761379843168497700,4.32549755859375,-0.52783203125,-0.283905029296875,0.005645751953125
1761379843178580500,4.33558056640625,-0.511444091796875,-0.2845611572265625,-0.0311431884765625
1761379843188663600,4.34566357421875,-0.4971923828125,-0.2481536865234375,-0.0451812744140625
1761379843198746400,4.355746337890625,-0.51519775390625,-0.233673095703125,-0.0561676025390625
1761379843208828400,4.365828369140625,-0.4752655029296875,-0.22467041015625,-0.0998382568359375
1761379843218911500,4.375911376953125,-0.4547576904296875,-0.181793212890625,-0.1145782470703125
1761379843228994300,4.385994384765625,-0.468353271484375,-0.168243408203125,-0.068939208984375
1761379843239077600,4.39607763671875,-0.506591796875,-0.173980712890625,-0.0213623046875
1761379843249160400,4.406160400390625,-0.5657958984375,-0.171600341796875,-0.0061187744140625
1761379843259243500,4.416243408203125,-0.6002960205078125,-0.1654815673828125,-0.026763916015625
1761379843269325600,4.42632568359375,-0.5779571533203125,-0.1793670654296875,-0.0366363525390625
1761379843279408400,4.436408447265625,-0.6014862060546875,-0.2213134765625,-0.050445556640625
1761379843289491500,4.446491455078125,-0.656951904296875,-0.24322509765625,-0.0494842529296875
1761379843299574300,4.45657421875,-0.690673828125,-0.20947265625,-0.05279541015625
1761379843309657600,4.46665771484375,-0.7111358642578125,-0.17340087890625,-0.0272064208984375
1761379843319740400,4.476740478515625,-0.7229156494140625,-0.147308349609375,0.013702392578125
1761379843329822500,4.486822509765625,-0.78326416015625,-0.15509033203125,0.01953125
1761379843339905500,4.496905517578125,-0.7881317138671875,-0.18316650390625,0.0010833740234375
1761379843349988400,4.50698828125,-0.7596282958984375,-0.1759796142578125,-0.0301971435546875
1761379843360071400,4.517071533203125,-0.7729034423828125,-0.1614532470703125,-0.066497802734375
1761379843370154500,4.527154541015625,-0.7533416748046875,-0.172393798828125,-0.090484619140625
1761379843380237000,4.537237060546875,-0.7570343017578125,-0.2362823486328125,-0.074920654296875
1761379843390320000,4.547320068359375,-0.6986846923828125,-0.222625732421875,-0.07196044921875
1761379843400403000,4.55740283203125,-0.6429443359375,-0.24945068359375,-0.0895843505859375
1761379843410486300,4.567486328125,-0.595916748046875,-0.2786407470703125,-0.1064453125
1761379843420569000,4.577569091796875,-0.57879638671875,-0.22979736328125,-0.0868072509765625
1761379843430652200,4.587652099609375,-0.538604736328125,-0.1588287353515625,-0.0589752197265625
1761379843440734200,4.597734130859375,-0.482757568359375,-0.099884033203125,-0.024932861328125
1761379843450817000,4.607817138671875,-0.4180450439453125,-0.054229736328125,0.05517578125
1761379843460900000,4.617900146484375,-0.343170166015625,0.0097503662109375,0.14776611328125
1761379843470983000,4.62798291015625,-0.560516357421875,-0.0939178466796875,0.175048828125
1761379843481066200,4.638066162109375,-0.7533111572265625,-0.361663818359375,0.154205322265625
1761379843491148300,4.648148193359375,-0.732177734375,-0.3746337890625,0.107391357421875
1761379843501231000,4.658231201171875,-0.7064208984375,-0.29119873046875,-0.0072479248046875
1761379843511314200,4.668314208984375,-0.7300567626953125,-0.32403564453125,-0.0469970703125
1761379843521397000,4.67839697265625,-0.7154541015625,-0.38165283203125,0.00262451171875
1761379843531480000,4.68847998046875,-0.6517181396484375,-0.4153289794921875,0.1022186279296875
1761379843541563100,4.698563232421875,-0.545928955078125,-0.4168701171875,0.19158935546875
1761379843551645000,4.70864501953125,-0.4114227294921875,-0.3626556396484375,0.2819976806640625
1761379843561728300,4.718728271484375,-0.3874664306640625,-0.2935943603515625,0.3364105224609375
1761379843571811000,4.72881103515625,-0.7100677490234375,-0.372100830078125,0.287445068359375
1761379843581894100,4.73889404296875,-0.845001220703125,-0.4094085693359375,0.28179931640625
1761379843591977200,4.748977294921875,-1.024932861328125,-0.47149658203125,0.240447998046875
1761379843602059000,4.75905908203125,-1.055267333984375,-0.6075897216796875,0.10400390625
1761379843612142000,4.76914208984375,-0.8414459228515625,-0.7325286865234375,-0.0341796875
1761379843622225200,4.77922509765625,-0.62744140625,-0.9004364013671875,-0.0290985107421875
1761379843632308200,4.78930810546875,-0.4839630126953125,-0.8956146240234375,0.1224212646484375
1761379843642391300,4.799391357421875,-0.496246337890625,-0.865997314453125,0.317535400390625
1761379843652473000,4.80947314453125,-0.8971099853515625,-0.96221923828125,0.402618408203125
1761379843662556200,4.81955615234375,-1.460784912109375,-0.74249267578125,0.4161224365234375
1761379843672639200,4.82963916015625,-1.86920166015625,-0.45721435546875,0.394256591796875
1761379843682722000,4.83972216796875,-1.9146881103515625,-0.33935546875,0.3077545166015625
1761379843692805000,4.84980517578125,-1.685821533203125,-0.3249359130859375,0.1771240234375
1761379843702888200,4.85988818359375,-1.309661865234375,-0.432373046875,0.1320648193359375
1761379843712970000,4.869969970703125,-0.9522857666015625,-0.4689483642578125,0.13751220703125
1761379843723053300,4.88005322265625,-0.86962890625,-0.5233306884765625,0.2207489013671875
1761379843733136100,4.89013623046875,-1.037628173828125,-0.59759521484375,0.3792724609375
1761379843743219200,4.90021923828125,-1.2137298583984375,-0.533660888671875,0.4636688232421875
1761379843753302000,4.910302001953125,-1.2760009765625,-0.4940948486328125,0.4995880126953125
1761379843763384000,4.920384033203125,-1.2723541259765625,-0.5055999755859375,0.5023040771484375
1761379843773467100,4.930467041015625,-1.26824951171875,-0.531768798828125,0.4199066162109375
1761379843783550000,4.940550048828125,-1.3283843994140625,-0.534423828125,0.308135986328125
1761379843793633300,4.95063330078125,-1.5008087158203125,-0.536407470703125,0.2443695068359375
1761379843803716000,4.960716064453125,-1.789459228515625,-0.45361328125,0.2006683349609375
1761379843813798100,4.970798095703125,-2.0348968505859375,-0.3376617431640625,0.1685943603515625
1761379843823881200,4.980881103515625,-2.123626708984375,-0.266143798828125,0.1209716796875
1761379843833964000,4.990964111328125,-2.0265655517578125,-0.2647247314453125,0.0257415771484375
1761379843844047000,5.001047119140625,-1.8260955810546875,-0.279449462890625,-0.097808837890625
1761379843854130000,5.0111298828125,-1.6527862548828125,-0.4025726318359375,-0.1252899169921875
1761379843864212000,5.0212119140625,-1.5124969482421875,-0.4964141845703125,-0.1493682861328125
1761379843874295300,5.03129541015625,-1.4681396484375,-0.543670654296875,-0.17218017578125
1761379843884378000,5.041378173828125,-1.5029449462890625,-0.55316162109375,-0.185089111328125
1761379843894461200,5.051461181640625,-1.5594024658203125,-0.5237579345703125,-0.1963653564453125
1761379843904544000,5.0615439453125,-1.497528076171875,-0.548797607421875,-0.19659423828125
1761379843914627000,5.071626953125,-1.34283447265625,-0.57977294921875,-0.2121124267578125
1761379843924709000,5.081709228515625,-1.18817138671875,-0.61468505859375,-0.2275238037109375
1761379843934792000,5.0917919921875,-1.067962646484375,-0.6415557861328125,-0.2196197509765625
1761379843944875300,5.101875244140625,-0.979248046875,-0.6467742919921875,-0.2162628173828125
1761379843954958000,5.1119580078125,-0.931304931640625,-0.63787841796875,-0.20404052734375
1761379843965041200,5.122041259765625,-0.9348297119140625,-0.608917236328125,-0.1791534423828125
1761379843975123200,5.132123291015625,-0.946533203125,-0.55645751953125,-0.1544342041015625
1761379843985206000,5.1422060546875,-0.94964599609375,-0.518768310546875,-0.1478729248046875
1761379843995289000,5.1522890625,-0.9633331298828125,-0.48931884765625,-0.1518402099609375
1761379844005372200,5.1623720703125,-0.976654052734375,-0.47515869140625,-0.1571044921875
1761379844015455200,5.172455322265625,-0.99603271484375,-0.4482574462890625,-0.1687164306640625
1761379844025537000,5.182537109375,-1.021026611328125,-0.396759033203125,-0.162200927734375
1761379844035620000,5.1926201171875,-1.081787109375,-0.377655029296875,-0.1529083251953125
1761379844045703200,5.202703125,-1.122161865234375,-0.3756561279296875,-0.1444244384765625
1761379844055786200,5.2127861328125,-1.085906982421875,-0.369415283203125,-0.1510009765625
1761379844065869000,5.222869140625,-1.038604736328125,-0.334869384765625,-0.144317626953125
1761379844075951000,5.232951171875,-1.059295654296875,-0.3031005859375,-0.1356353759765625
1761379844086034200,5.2430341796875,-0.9990386962890625,-0.28997802734375,-0.1515960693359375
1761379844096117000,5.253116943359375,-0.9844207763671875,-0.2947235107421875,-0.1519012451171875
1761379844106200300,5.263200439453125,-0.97705078125,-0.30975341796875,-0.137969970703125
1761379844116283100,5.273283203125,-0.958587646484375,-0.3304595947265625,-0.14263916015625
1761379844126365200,5.283365234375,-0.95404052734375,-0.3610992431640625,-0.1499176025390625
1761379844136448300,5.2934482421875,-0.94671630859375,-0.3814544677734375,-0.1282196044921875
1761379844146531000,5.303531005859375,-0.925750732421875,-0.3784027099609375,-0.0836334228515625
1761379844156614100,5.3136142578125,-0.8876190185546875,-0.3578948974609375,-0.026947021484375
1761379844166697000,5.323697021484375,-0.8729400634765625,-0.3484954833984375,0.00341796875
1761379844176779000,5.333779052734375,-0.8600311279296875,-0.3587493896484375,-0.0157012939453125
1761379844186862300,5.3438623046875,-0.7901458740234375,-0.354156494140625,-0.045867919921875
1761379844196945200,5.353945068359375,-0.79840087890625,-0.362548828125,-0.05450439453125
1761379844207028200,5.3640283203125,-0.8555908203125,-0.390960693359375,-0.0639495849609375
1761379844217111000,5.374111083984375,-0.896514892578125,-0.3975372314453125,-0.0632781982421875
1761379844227193000,5.384193115234375,-0.9304351806640625,-0.368743896484375,-0.0484466552734375
1761379844237276200,5.394276123046875,-0.92559814453125,-0.3126983642578125,-0.0181732177734375
1761379844247359000,5.40435888671875,-0.91973876953125,-0.28399658203125,0.02789306640625
1761379844257442300,5.4144423828125,-0.9654388427734375,-0.30645751953125,0.0691070556640625
1761379844267525000,5.424525146484375,-0.9642333984375,-0.3215789794921875,0.08203125
1761379844277607200,5.434607177734375,-0.939605712890625,-0.3174285888671875,0.0728607177734375
1761379844287690200,5.444690185546875,-0.9346466064453125,-0.319793701171875,0.068359375
1761379844297773000,5.45477294921875,-0.9003143310546875,-0.33441162109375,0.0627288818359375
1761379844307856100,5.464856201171875,-0.86761474609375,-0.3395538330078125,0.0701751708984375
1761379844317939000,5.47493896484375,-0.86663818359375,-0.340911865234375,0.1016998291015625
1761379844328021000,5.48502099609375,-0.8744964599609375,-0.3576507568359375,0.1347808837890625
1761379844338104300,5.495104248046875,-0.871490478515625,-0.370391845703125,0.1508941650390625
1761379844348187100,5.505187255859375,-0.878753662109375,-0.359405517578125,0.1608123779296875
1761379844358270200,5.515270263671875,-0.9021148681640625,-0.35003662109375,0.151214599609375
1761379844368353000,5.52535302734375,-0.9151611328125,-0.34698486328125,0.1313934326171875
1761379844378438000,5.53543798828125,-0.9304046630859375,-0.3396453857421875,0.12591552734375
1761379844388521000,5.54552099609375,-0.9511260986328125,-0.332275390625,0.1361541748046875
1761379844398604000,5.55560400390625,-0.9509124755859375,-0.3301849365234375,0.1402435302734375
1761379844408686800,5.565686767578125,-0.934051513671875,-0.3374786376953125,0.1315765380859375
1761379844418769000,5.575768798828125,-0.9235992431640625,-0.344451904296875,0.1303253173828125
1761379844428852000,5.58585205078125,-0.9355010986328125,-0.3278045654296875,0.1207427978515625
1761379844438935000,5.59593505859375,-0.958709716796875,-0.3336181640625,0.1150360107421875
1761379844449018000,5.60601806640625,-0.9548492431640625,-0.3347625732421875,0.1154327392578125
1761379844459101000,5.616100830078125,-0.9694061279296875,-0.3312530517578125,0.103973388671875
1761379844469183000,5.626182861328125,-0.958251953125,-0.3166046142578125,0.0905609130859375
1761379844479266000,5.63626611328125,-0.9259033203125,-0.2889862060546875,0.094146728515625
1761379844489348900,5.646348876953125,-0.902435302734375,-0.29931640625,0.0980987548828125
1761379844499432000,5.656431884765625,-0.8857574462890625,-0.3129730224609375,0.1150360107421875
1761379844509515000,5.666514892578125,-0.87384033203125,-0.31085205078125,0.15496826171875
1761379844519597000,5.67659716796875,-0.8959808349609375,-0.3115081787109375,0.1909332275390625
1761379844529680100,5.68668017578125,-0.90264892578125,-0.30377197265625,0.1967926025390625
1761379844539763000,5.696762939453125,-0.903839111328125,-0.291015625,0.194366455078125
1761379844549846000,5.706845947265625,-0.9015655517578125,-0.2782135009765625,0.1913604736328125
1761379844559928000,5.716927978515625,-0.9172210693359375,-0.2607269287109375,0.1753082275390625
1761379844570011000,5.727010986328125,-0.925750732421875,-0.2373504638671875,0.1425933837890625
1761379844580094000,5.737093994140625,-0.9215850830078125,-0.2101593017578125,0.1076812744140625
1761379844590177000,5.747177001953125,-0.9312591552734375,-0.183258056640625,0.0793609619140625
1761379844600260000,5.757260009765625,-0.9345703125,-0.171844482421875,0.0695953369140625
1761379844610342100,5.767342041015625,-0.9056549072265625,-0.1751861572265625,0.0753173828125
1761379844620425000,5.777425048828125,-0.8743438720703125,-0.1851806640625,0.0870208740234375
1761379844630508000,5.787508056640625,-0.851837158203125,-0.2072906494140625,0.11932373046875
1761379844640590800,5.7975908203125,-0.8511810302734375,-0.23492431640625,0.150238037109375
1761379844650674000,5.807673828125,-0.8583984375,-0.248016357421875,0.1584625244140625
1761379844660756000,5.817755859375,-0.861785888671875,-0.2496337890625,0.1487274169921875
1761379844670839000,5.827839111328125,-0.8717498779296875,-0.2536468505859375,0.126617431640625
1761379844680922000,5.837922119140625,-0.892669677734375,-0.2589569091796875,0.105316162109375
1761379844691005000,5.8480048828125,-0.9239959716796875,-0.258636474609375,0.077301025390625
1761379844701087000,5.8580869140625,-0.940704345703125,-0.249908447265625,0.0370330810546875
1761379844711170000,5.868170166015625,-0.9431304931640625,-0.252471923828125,0.0101470947265625
1761379844721252900,5.8782529296875,-0.93988037109375,-0.2342987060546875,-0.0166168212890625
1761379844731336000,5.8883359375,-0.91064453125,-0.232940673828125,-0.024200439453125
1761379844741419000,5.8984189453125,-0.936614990234375,-0.2573394775390625,-0.0315399169921875
1761379844751501000,5.9085009765625,-0.9248504638671875,-0.2740936279296875,-0.0095672607421875
1761379844761584000,5.918584228515625,-0.923095703125,-0.2755126953125,0.0034332275390625
1761379844771667000,5.9286669921875,-0.93084716796875,-0.2823944091796875,0.0207672119140625
1761379844781750000,5.93875,-0.9276123046875,-0.2895660400390625,0.0377349853515625
1761379844791832800,5.948832763671875,-0.9200439453125,-0.29248046875,0.046722412109375
1761379844801915000,5.958914794921875,-0.90869140625,-0.3020172119140625,0.0541229248046875
1761379844811998000,5.968998046875,-0.8961334228515625,-0.3153076171875,0.0526123046875
1761379844822080800,5.979080810546875,-0.887237548828125,-0.3246002197265625,0.048309326171875
1761379844832164000,5.9891640625,-0.8712005615234375,-0.3271636962890625,0.0414581298828125
1761379844842246100,5.99924609375,-0.87255859375,-0.3295440673828125,0.0443878173828125
1761379844852329000,6.009328857421875,-0.8826446533203125,-0.3349151611328125,0.043609619140625
1761379844862412000,6.019412109375,-0.896759033203125,-0.3317718505859375,0.04498291015625
1761379844872494800,6.029494873046875,-0.909393310546875,-0.3325653076171875,0.0479278564453125
1761379844882578000,6.039577880859375,-0.91302490234375,-0.3356781005859375,0.04437255859375
1761379844892660000,6.049659912109375,-0.926971435546875,-0.3340911865234375,0.035430908203125
1761379844902742800,6.05974267578125,-0.942413330078125,-0.3392181396484375,0.030670166015625
1761379844912826000,6.069826171875,-0.9665069580078125,-0.336700439453125,0.0201416015625
1761379844922909000,6.079908935546875,-0.968994140625,-0.3357696533203125,0.0187530517578125
1761379844932991000,6.089990966796875,-0.9513397216796875,-0.3330078125,0.0146942138671875
1761379844943074000,6.100073974609375,-0.95068359375,-0.3363494873046875,0.0167388916015625
1761379844953156900,6.110156982421875,-0.945831298828125,-0.3370819091796875,0.01776123046875
1761379844963240000,6.120239990234375,-0.94073486328125,-0.342193603515625,0.0180816650390625
1761379844973322800,6.13032275390625,-0.9332427978515625,-0.348724365234375,0.011322021484375
1761379844983404800,6.14040478515625,-0.92919921875,-0.3433837890625,0.0020294189453125
1761379844993488100,6.150488037109375,-0.9287109375,-0.3415069580078125,0.0005340576171875
1761379845003571000,6.160571044921875,-0.92340087890625,-0.3420562744140625,0.0048828125
1761379845013654000,6.170654052734375,-0.9232635498046875,-0.3370513916015625,0.0182037353515625
1761379845023736000,6.180736083984375,-0.92169189453125,-0.3287506103515625,0.0352020263671875
1761379845033819000,6.19081884765625,-0.9262847900390625,-0.3219451904296875,0.04803466796875
1761379845043902000,6.20090185546875,-0.9353485107421875,-0.3144683837890625,0.0478515625
1761379845053984800,6.21098486328125,-0.94024658203125,-0.30706787109375,0.04766845703125
1761379845064068000,6.221068115234375,-0.948699951171875,-0.3034210205078125,0.0551300048828125
1761379845074150000,6.23114990234375,-0.9431610107421875,-0.30572509765625,0.0659637451171875
1761379845084233000,6.24123291015625,-0.94171142578125,-0.3080596923828125,0.0790863037109375
1761379845094316000,6.25131591796875,-0.9506072998046875,-0.3225250244140625,0.08837890625
1761379845104398800,6.26139892578125,-0.9587860107421875,-0.3380126953125,0.0878753662109375
1761379845114481000,6.27148095703125,-0.9573211669921875,-0.3399658203125,0.0715179443359375
1761379845124564000,6.28156396484375,-0.952606201171875,-0.3369140625,0.0521392822265625
1761379845134646800,6.291646728515625,-0.9572906494140625,-0.340362548828125,0.0391387939453125
1761379845144729900,6.301729736328125,-0.9654083251953125,-0.3494415283203125,0.0356903076171875
1761379845154812000,6.31181201171875,-0.986724853515625,-0.3661956787109375,0.0475006103515625
1761379845164895000,6.32189501953125,-0.997772216796875,-0.373260498046875,0.0560302734375
1761379845174978000,6.33197802734375,-1.01202392578125,-0.35870361328125,0.0500335693359375
1761379845185060900,6.342060791015625,-1.0319061279296875,-0.3337860107421875,0.0310211181640625
1761379845195144000,6.35214404296875,-1.038116455078125,-0.3224334716796875,0.0186309814453125
1761379845205226000,6.36222607421875,-1.0344085693359375,-0.32666015625,0.0266265869140625
1761379845215308800,6.372308837890625,-1.0306396484375,-0.3154754638671875,0.034820556640625
1761379845225391900,6.382391845703125,-1.0192718505859375,-0.2930450439453125,0.0360260009765625
1761379845235475000,6.392474853515625,-1.0154571533203125,-0.2711334228515625,0.035430908203125
1761379845245557000,6.402556884765625,-1.0069732666015625,-0.252349853515625,0.0293731689453125
1761379845255640000,6.41264013671875,-1.0000152587890625,-0.234375,0.026153564453125
1761379845265723000,6.422722900390625,-1.0100860595703125,-0.2183685302734375,0.039398193359375
1761379845275806000,6.432805908203125,-1.0229949951171875,-0.206085205078125,0.065521240234375
1761379845285888000,6.442887939453125,-1.0196685791015625,-0.200469970703125,0.0885162353515625
1761379845295970800,6.452970703125,-0.996429443359375,-0.2064056396484375,0.1009979248046875
1761379845306054000,6.463053955078125,-0.9754180908203125,-0.21820068359375,0.1028594970703125
1761379845316137000,6.473136962890625,-0.951751708984375,-0.2342071533203125,0.1080322265625
1761379845326220000,6.483219970703125,-0.9250640869140625,-0.2470550537109375,0.100921630859375
1761379845336302000,6.493302001953125,-0.8965911865234375,-0.257293701171875,0.0915374755859375
1761379845346385000,6.503385009765625,-0.870513916015625,-0.2649688720703125,0.08233642578125
1761379845356468000,6.513468017578125,-0.8611602783203125,-0.2729644775390625,0.081298828125
1761379845366551000,6.523551025390625,-0.857177734375,-0.2706756591796875,0.076507568359375
1761379845376629500,6.53362939453125,-0.8447723388671875,-0.2714080810546875,0.0657806396484375
1761379845386712600,6.543712646484375,-0.846649169921875,-0.2747344970703125,0.05389404296875
1761379845396795600,6.553795654296875,-0.8688812255859375,-0.2683258056640625,0.051666259765625
1761379845406878700,6.563878662109375,-0.8798675537109375,-0.26361083984375,0.0478973388671875
1761379845416960800,6.573960693359375,-0.8719024658203125,-0.257232666015625,0.0294036865234375
1761379845427043600,6.584043701171875,-0.8626251220703125,-0.2440338134765625,0.0072479248046875
1761379845437126700,6.594126708984375,-0.8902740478515625,-0.2142791748046875,0.01202392578125
1761379845447209500,6.60420947265625,-0.92822265625,-0.2019195556640625,0.0379180908203125
1761379845457292500,6.61429248046875,-0.937744140625,-0.1992034912109375,0.065277099609375
1761379845467374600,6.62437451171875,-0.9499053955078125,-0.198150634765625,0.07305908203125
1761379845477457400,6.63445751953125,-0.955352783203125,-0.2084808349609375,0.058868408203125
1761379845487540700,6.644540771484375,-0.9566802978515625,-0.204071044921875,0.046417236328125
1761379845497623800,6.654623779296875,-0.9674530029296875,-0.1865997314453125,0.0406646728515625
1761379845507705600,6.66470556640625,-0.983001708984375,-0.1807861328125,0.038330078125
1761379845517788700,6.67478857421875,-0.9927215576171875,-0.185577392578125,0.030792236328125
1761379845527871500,6.68487158203125,-1.0002593994140625,-0.1820220947265625,0.029022216796875
1761379845537954600,6.69495458984375,-1.0058135986328125,-0.1792144775390625,0.034088134765625
1761379845548036600,6.70503662109375,-1.0053558349609375,-0.195465087890625,0.0310516357421875
1761379845558119400,6.715119384765625,-1.0100250244140625,-0.2019195556640625,0.0419769287109375
1761379845568202800,6.72520263671875,-1.0278167724609375,-0.203704833984375,0.0677947998046875
1761379845578285600,6.73528564453125,-1.021697998046875,-0.213775634765625,0.088043212890625
1761379845588367600,6.74536767578125,-1.0116119384765625,-0.224395751953125,0.0993194580078125
1761379845598450700,6.75545068359375,-1.0129241943359375,-0.2371673583984375,0.1025543212890625
1761379845608533500,6.765533447265625,-1.010009765625,-0.2423858642578125,0.100738525390625
1761379845618616600,6.775616455078125,-1.0088348388671875,-0.2407073974609375,0.1004638671875
1761379845628699600,6.78569970703125,-1.011749267578125,-0.2424774169921875,0.1022796630859375
1761379845638781400,6.795781494140625,-1.022705078125,-0.248748779296875,0.1154022216796875
1761379845648864800,6.80586474609375,-1.0255889892578125,-0.2516021728515625,0.12646484375
1761379845658947600,6.815947509765625,-1.0196990966796875,-0.24676513671875,0.1169891357421875
1761379845669030700,6.82603076171875,-1.01837158203125,-0.24017333984375,0.101287841796875
1761379845679112700,6.83611279296875,-1.028961181640625,-0.2444915771484375,0.0982666015625
1761379845689195500,6.846195556640625,-1.0307464599609375,-0.2492523193359375,0.0979156494140625
1761379845699278600,6.856278564453125,-1.029266357421875,-0.25128173828125,0.1046295166015625
1761379845709361700,6.866361572265625,-1.02557373046875,-0.2587890625,0.1184539794921875
1761379845719443500,6.876443359375,-1.0148773193359375,-0.2707366943359375,0.12554931640625
1761379845729526500,6.886526611328125,-1.00457763671875,-0.2787322998046875,0.1322784423828125
1761379845739609600,6.896609619140625,-0.994415283203125,-0.2801666259765625,0.1363525390625
1761379845749692700,6.906692626953125,-0.992095947265625,-0.27899169921875,0.1390380859375
1761379845759774700,6.916774658203125,-0.9869232177734375,-0.2835235595703125,0.137664794921875
1761379845769857500,6.926857421875,-0.983856201171875,-0.2843780517578125,0.1367645263671875
1761379845779940600,6.936940673828125,-0.9775543212890625,-0.2797698974609375,0.1343994140625
1761379845790023700,6.947023681640625,-0.9699554443359375,-0.2783355712890625,0.110198974609375
1761379845800105500,6.95710546875,-0.9622802734375,-0.2692718505859375,0.0723724365234375
1761379845810188500,6.9671884765625,-0.984344482421875,-0.261749267578125,0.072601318359375
1761379845820271600,6.977271728515625,-0.995513916015625,-0.2730712890625,0.0975799560546875
1761379845830354700,6.987354736328125,-0.9673919677734375,-0.2832489013671875,0.1275634765625
1761379845840436700,6.997436767578125,-0.9557037353515625,-0.2887420654296875,0.1458282470703125
1761379845850519600,7.00751953125,-0.96148681640625,-0.299530029296875,0.15411376953125
1761379845860602600,7.0176025390625,-0.958099365234375,-0.30908203125,0.1549072265625
1761379845870685700,7.027685791015625,-0.953277587890625,-0.3071441650390625,0.1466522216796875
1761379845880767500,7.037767578125,-0.9561309814453125,-0.305816650390625,0.1386871337890625
1761379845890850600,7.0478505859375,-0.9484405517578125,-0.31036376953125,0.131927490234375
1761379845900933600,7.05793359375,-0.9443511962890625,-0.3161163330078125,0.1271820068359375
1761379845911016700,7.0680166015625,-0.93280029296875,-0.32440185546875,0.124969482421875
1761379845921098800,7.0780986328125,-0.91461181640625,-0.3322296142578125,0.1192474365234375
1761379845931181600,7.088181640625,-0.906158447265625,-0.3433074951171875,0.1251068115234375
1761379845941264600,7.0982646484375,-0.9068450927734375,-0.3538360595703125,0.1424713134765625
1761379845951347700,7.10834765625,-0.9007720947265625,-0.3679962158203125,0.1718597412109375
1761379845961429500,7.118429443359375,-0.894561767578125,-0.3776702880859375,0.1874237060546875
1761379845971512600,7.1285126953125,-0.8915252685546875,-0.367706298828125,0.179443359375
1761379845981595400,7.138595458984375,-0.8917083740234375,-0.368011474609375,0.15777587890625
1761379845991678700,7.1486787109375,-0.8932342529296875,-0.3709564208984375,0.1323089599609375
1761379846001760800,7.1587607421875,-0.8916778564453125,-0.377288818359375,0.114532470703125
1761379846011843600,7.168843505859375,-0.8932647705078125,-0.3858795166015625,0.089508056640625
1761379846021926700,7.1789267578125,-0.859039306640625,-0.38140869140625,0.0516204833984375
1761379846032009700,7.189009765625,-0.829193115234375,-0.3539886474609375,0.039337158203125
1761379846042091500,7.199091552734375,-0.8287811279296875,-0.35357666015625,0.0638275146484375
1761379846052174600,7.209174560546875,-0.83740234375,-0.380157470703125,0.1170806884765625
1761379846062257400,7.21925732421875,-0.850921630859375,-0.3947906494140625,0.1693267822265625
1761379846072340700,7.2293408203125,-0.8666534423828125,-0.4022369384765625,0.203338623046875
1761379846082422800,7.2394228515625,-0.8731689453125,-0.4001617431640625,0.2115478515625
1761379846092505600,7.249505615234375,-0.88897705078125,-0.380401611328125,0.202392578125
1761379846102588700,7.259588623046875,-0.9074249267578125,-0.358673095703125,0.183685302734375
1761379846112671500,7.26967138671875,-0.9226226806640625,-0.34320068359375,0.1718902587890625
1761379846122753500,7.27975341796875,-0.9273529052734375,-0.339691162109375,0.1621551513671875
1761379846132836600,7.289836669921875,-0.9202423095703125,-0.32122802734375,0.1459197998046875
1761379846142919400,7.29991943359375,-0.9195098876953125,-0.3074798583984375,0.14044189453125
1761379846153002800,7.310002685546875,-0.943023681640625,-0.31005859375,0.147918701171875
1761379846163084800,7.320084716796875,-0.9633331298828125,-0.3134918212890625,0.166107177734375
1761379846173167600,7.330167724609375,-0.9563751220703125,-0.3127899169921875,0.1744232177734375
1761379846183250700,7.340250732421875,-0.9586639404296875,-0.3107452392578125,0.1715087890625
1761379846193333500,7.35033349609375,-0.9751129150390625,-0.314239501953125,0.1616363525390625
1761379846203415600,7.36041552734375,-0.9949951171875,-0.3187255859375,0.138519287109375
1761379846213498600,7.37049853515625,-0.99053955078125,-0.3156890869140625,0.1063079833984375
1761379846223581400,7.38058154296875,-0.98931884765625,-0.309600830078125,0.0923919677734375
1761379846233664800,7.390664794921875,-0.9866943359375,-0.3152313232421875,0.0985565185546875
1761379846243746600,7.40074658203125,-0.9636077880859375,-0.333099365234375,0.10260009765625
1761379846253829600,7.41082958984375,-0.9389495849609375,-0.3538055419921875,0.1046600341796875
1761379846263912700,7.42091259765625,-0.908843994140625,-0.383453369140625,0.1068267822265625
1761379846273995500,7.43099560546875,-0.8788909912109375,-0.412689208984375,0.099151611328125
1761379846284077600,7.44107763671875,-0.8801422119140625,-0.4355010986328125,0.09942626953125
1761379846294160600,7.45116064453125,-0.8822479248046875,-0.4469757080078125,0.1028289794921875
1761379846304243500,7.461243408203125,-0.88104248046875,-0.4451751708984375,0.09857177734375
1761379846314326500,7.471326416015625,-0.898193359375,-0.4329986572265625,0.0927581787109375
1761379846324408600,7.48140869140625,-0.9191436767578125,-0.4142608642578125,0.08843994140625
1761379846334491600,7.49149169921875,-0.9248199462890625,-0.3905181884765625,0.0853118896484375
1761379846344574700,7.50157470703125,-0.919281005859375,-0.36016845703125,0.08599853515625
1761379846354657500,7.511657470703125,-0.9148406982421875,-0.345550537109375,0.1032257080078125
1761379846364739600,7.521739501953125,-0.9060516357421875,-0.3385009765625,0.1215057373046875
1761379846374822700,7.53182275390625,-0.8875579833984375,-0.3275146484375,0.1368560791015625
1761379846384905200,7.5419052734375,-0.8760528564453125,-0.330780029296875,0.157562255859375
1761379846394987300,7.5519873046875,-0.8678741455078125,-0.33941650390625,0.1757659912109375
1761379846405070300,7.5620703125,-0.8576812744140625,-0.3411102294921875,0.186798095703125
1761379846415153200,7.572153076171875,-0.84375,-0.3402252197265625,0.1905364990234375
1761379846425236200,7.582236328125,-0.8406219482421875,-0.3394622802734375,0.19378662109375
1761379846435318300,7.592318359375,-0.837005615234375,-0.336639404296875,0.1951751708984375
1761379846445401000,7.602401123046875,-0.8329925537109375,-0.33563232421875,0.191619873046875
1761379846455484200,7.612484130859375,-0.8260498046875,-0.335479736328125,0.18109130859375
1761379846465567200,7.622567138671875,-0.8416748046875,-0.3390045166015625,0.173736572265625
1761379846475649300,7.632649169921875,-0.8540802001953125,-0.34033203125,0.1639251708984375
1761379846485732400,7.642732421875,-0.8625335693359375,-0.336517333984375,0.1614227294921875
1761379846495815200,7.652815185546875,-0.8603515625,-0.3336639404296875,0.1496124267578125
1761379846505898200,7.662898193359375,-0.859130859375,-0.343353271484375,0.1376800537109375
1761379846515980300,7.672980224609375,-0.8675384521484375,-0.3628692626953125,0.1338043212890625
1761379846526063000,7.68306298828125,-0.862213134765625,-0.3758544921875,0.126983642578125
1761379846536146200,7.693146240234375,-0.860321044921875,-0.384246826171875,0.1299285888671875
1761379846546229200,7.703229248046875,-0.8652801513671875,-0.397003173828125,0.13409423828125
1761379846556311300,7.713311279296875,-0.8638763427734375,-0.4065704345703125,0.1385498046875
1761379846566394400,7.723394287109375,-0.8690338134765625,-0.4201812744140625,0.1415863037109375
1761379846576477200,7.733477294921875,-0.884979248046875,-0.432098388671875,0.1371307373046875
1761379846586560300,7.743560302734375,-0.903533935546875,-0.4273223876953125,0.128021240234375
1761379846596642300,7.753642333984375,-0.9180908203125,-0.4208221435546875,0.120269775390625
1761379846606725000,7.76372509765625,-0.937469482421875,-0.419677734375,0.1211090087890625
1761379846616808200,7.77380810546875,-0.9509735107421875,-0.4245758056640625,0.126373291015625
1761379846626890200,7.78389013671875,-0.948577880859375,-0.429107666015625,0.130828857421875
1761379846636973000,7.79397314453125,-0.9405059814453125,-0.4330291748046875,0.1275787353515625
1761379846647056400,7.804056396484375,-0.9401092529296875,-0.4401702880859375,0.1225128173828125
1761379846657139200,7.81413916015625,-0.9459381103515625,-0.448486328125,0.122344970703125
1761379846667221200,7.82422119140625,-0.957122802734375,-0.450836181640625,0.115264892578125
1761379846677304300,7.83430419921875,-0.9578399658203125,-0.4414215087890625,0.11065673828125
1761379846687387100,7.84438720703125,-0.9638671875,-0.4387359619140625,0.116973876953125
1761379846697470200,7.85447021484375,-0.96661376953125,-0.4368896484375,0.123931884765625
1761379846707552300,7.86455224609375,-0.9705352783203125,-0.433135986328125,0.12542724609375
1761379846717635000,7.874635009765625,-0.9895477294921875,-0.4318389892578125,0.12481689453125
1761379846727718400,7.884718505859375,-1.00372314453125,-0.43133544921875,0.1207122802734375
1761379846737801200,7.89480126953125,-1.007568359375,-0.433929443359375,0.1128997802734375
1761379846747883300,7.90488330078125,-1.0059967041015625,-0.4488525390625,0.12030029296875
1761379846757966300,7.91496630859375,-0.974395751953125,-0.4793548583984375,0.1382293701171875
1761379846768049200,7.925049072265625,-0.9488067626953125,-0.497772216796875,0.152099609375
1761379846778131200,7.935131103515625,-0.95794677734375,-0.4977874755859375,0.155853271484375
1761379846788214300,7.94521435546875,-0.972259521484375,-0.48681640625,0.147491455078125
1761379846798297000,7.955297119140625,-0.9913787841796875,-0.482635498046875,0.13818359375
1761379846808380400,7.96538037109375,-0.9762725830078125,-0.465301513671875,0.1192626953125
1761379846818462500,7.97546240234375,-0.9695587158203125,-0.446533203125,0.1065826416015625
1761379846828545300,7.985545166015625,-0.9759521484375,-0.427490234375,0.120208740234375
1761379846838628400,7.99562841796875,-0.98480224609375,-0.4061431884765625,0.137542724609375
1761379846848711200,8.005711181640624,-0.9966583251953125,-0.38226318359375,0.1464385986328125
1761379846858793200,8.015793212890625,-1.0012359619140625,-0.3566131591796875,0.1341400146484375
1761379846868876300,8.025876220703125,-0.9988861083984375,-0.3338470458984375,0.11029052734375
1761379846878959000,8.035958984375,-0.9994964599609375,-0.3129425048828125,0.0912017822265625
1761379846889042200,8.046042236328125,-0.9853515625,-0.28668212890625,0.0705413818359375
1761379846899124200,8.056124267578125,-0.9699249267578125,-0.26727294921875,0.0584716796875
1761379846909207300,8.066207275390624,-0.9642181396484375,-0.2617034912109375,0.0532073974609375
1761379846919290400,8.076290283203125,-0.9434661865234375,-0.254241943359375,0.045928955078125
1761379846929372400,8.086372314453126,-0.9172821044921875,-0.245391845703125,0.0318603515625
1761379846939455200,8.096455322265625,-0.894683837890625,-0.251434326171875,0.0247344970703125
1761379846949538300,8.106538330078125,-0.881256103515625,-0.2589263916015625,0.0215301513671875
1761379846959621000,8.11662109375,-0.8711090087890625,-0.255584716796875,0.0149993896484375
1761379846969703200,8.126703125,-0.8804473876953125,-0.2516326904296875,0.0057830810546875
1761379846979786200,8.1367861328125,-0.8998565673828125,-0.2520751953125,-0.00286865234375
1761379846989869300,8.146869384765624,-0.897369384765625,-0.2476654052734375,-0.0126953125
1761379846999951400,8.156951416015625,-0.8866119384765625,-0.248931884765625,-0.02032470703125
1761379847010034400,8.167034423828126,-0.883544921875,-0.2587890625,-0.0177154541015625
1761379847020117200,8.1771171875,-0.8877410888671875,-0.2666473388671875,-0.0162811279296875
1761379847030200300,8.187200439453125,-0.89862060546875,-0.269561767578125,-0.0197601318359375
1761379847040282400,8.197282470703126,-0.912811279296875,-0.26959228515625,-0.0237274169921875
1761379847050365200,8.207365234375,-0.935272216796875,-0.2712860107421875,-0.0208282470703125
1761379847060448300,8.2174482421875,-0.9471435546875,-0.272369384765625,-0.0165557861328125
1761379847070531300,8.22753125,-0.9498138427734375,-0.2722930908203125,-0.0089569091796875
1761379847080613400,8.23761328125,-0.935943603515625,-0.2832794189453125,0.0022125244140625
1761379847090696400,8.247696533203126,-0.9188385009765625,-0.301727294921875,0.0139007568359375
1761379847100779300,8.257779296875,-0.9002838134765625,-0.3266448974609375,0.0245819091796875
1761379847110861300,8.267861328125,-0.8874359130859375,-0.3480377197265625,0.024078369140625
1761379847120944400,8.2779443359375,-0.8771820068359375,-0.3604736328125,0.0161590576171875
1761379847131027200,8.288027099609375,-0.8728485107421875,-0.369659423828125,0.010284423828125
1761379847141110300,8.2981103515625,-0.8799285888671875,-0.3701019287109375,0.0151519775390625
1761379847151192000,8.308192138671876,-0.89013671875,-0.37109375,0.0287322998046875
1761379847161275100,8.318275146484375,-0.883880615234375,-0.36981201171875,0.03741455078125
1761379847171358500,8.3283583984375,-0.88592529296875,-0.3683929443359375,0.055877685546875
1761379847181441300,8.338441162109374,-0.8903045654296875,-0.376190185546875,0.078948974609375
1761379847191523300,8.3485234375,-0.8954315185546875,-0.3837738037109375,0.097808837890625
1761379847201606400,8.3586064453125,-0.896728515625,-0.3896484375,0.108551025390625
1761379847211689200,8.368689208984375,-0.90582275390625,-0.3970489501953125,0.1184539794921875
1761379847221771300,8.378771240234375,-0.9152984619140625,-0.4022369384765625,0.1246337890625
1761379847231854000,8.38885400390625,-0.9186553955078125,-0.3998870849609375,0.1186981201171875
1761379847241937200,8.398937255859375,-0.9154205322265625,-0.3937835693359375,0.1101226806640625
1761379847252020500,8.4090205078125,-0.9097900390625,-0.3957061767578125,0.1028594970703125
1761379847262102300,8.419102294921874,-0.8960113525390625,-0.403717041015625,0.0994415283203125
1761379847272185300,8.429185302734375,-0.8889312744140625,-0.41107177734375,0.0955963134765625
1761379847282268200,8.43926806640625,-0.8831024169921875,-0.4116363525390625,0.0927886962890625
1761379847292350200,8.44935009765625,-0.8877410888671875,-0.4205322265625,0.1027069091796875
1761379847302433300,8.459433349609375,-0.887359619140625,-0.4196319580078125,0.1063079833984375
1761379847312516000,8.46951611328125,-0.8764801025390625,-0.4211273193359375,0.1090850830078125
1761379847322599200,8.47959912109375,-0.879425048828125,-0.4224853515625,0.11407470703125
1761379847332681200,8.48968115234375,-0.879241943359375,-0.4273223876953125,0.122161865234375
1761379847342764000,8.499763916015626,-0.8815765380859375,-0.4256591796875,0.1291961669921875
1761379847352847400,8.509847412109375,-0.8819732666015625,-0.428680419921875,0.1165618896484375
1761379847362929400,8.519929443359375,-0.895050048828125,-0.4326629638671875,0.11810302734375
1761379847373012200,8.53001220703125,-0.89654541015625,-0.4300384521484375,0.103271484375
1761379847383095600,8.540095458984375,-0.907562255859375,-0.44342041015625,0.0888671875
1761379847393178600,8.5501787109375,-0.947998046875,-0.4400787353515625,0.1007537841796875
1761379847403260700,8.5602607421875,-0.9660797119140625,-0.4004058837890625,0.1042327880859375
1761379847413343700,8.57034375,-0.98883056640625,-0.381500244140625,0.114898681640625
1761379847423426600,8.580426513671876,-0.9984130859375,-0.3933563232421875,0.15325927734375
1761379847433508600,8.590508544921875,-0.979766845703125,-0.4174041748046875,0.2059326171875
1761379847443591700,8.600591796875,-0.9591217041015625,-0.4333953857421875,0.2434539794921875
1761379847453674500,8.610674560546874,-0.967132568359375,-0.4246826171875,0.2456512451171875
1761379847463757600,8.620757568359375,-0.9907073974609375,-0.4106597900390625,0.2189788818359375
1761379847473839600,8.630839599609375,-1.023651123046875,-0.3951416015625,0.1756744384765625
1761379847483922400,8.64092236328125,-1.0709381103515625,-0.363555908203125,0.126556396484375
1761379847494005800,8.651005859375,-1.09600830078125,-0.327392578125,0.0969390869140625
1761379847504087800,8.661087890625,-1.095428466796875,-0.2956085205078125,0.0885467529296875
1761379847514170600,8.671170654296875,-1.0964202880859375,-0.279327392578125,0.1124420166015625
1761379847524253700,8.681253662109375,-1.090240478515625,-0.272857666015625,0.1350250244140625
1761379847534336500,8.69133642578125,-1.0584869384765625,-0.2625579833984375,0.1416473388671875
1761379847544418600,8.70141845703125,-1.0338592529296875,-0.2597503662109375,0.158782958984375
1761379847554501600,8.711501708984375,-1.0089263916015625,-0.269500732421875,0.1706695556640625
1761379847564584400,8.72158447265625,-0.97314453125,-0.2784423828125,0.1708831787109375
1761379847574666500,8.73166650390625,-0.9444427490234375,-0.28546142578125,0.1686248779296875
1761379847584749800,8.741749755859376,-0.9141845703125,-0.287567138671875,0.167388916015625
1761379847594832600,8.75183251953125,-0.904876708984375,-0.286041259765625,0.17083740234375
1761379847604915700,8.761915771484375,-0.89117431640625,-0.28271484375,0.169921875
1761379847614997500,8.77199755859375,-0.875396728515625,-0.2792205810546875,0.1656494140625
1761379847625080600,8.78208056640625,-0.8787078857421875,-0.27410888671875,0.1637115478515625
1761379847635163600,8.79216357421875,-0.8820037841796875,-0.2735443115234375,0.16119384765625
1761379847645245400,8.802245361328126,-0.8846588134765625,-0.274993896484375,0.150848388671875
1761379847655328500,8.81232861328125,-0.89385986328125,-0.2751312255859375,0.137451171875
1761379847665411600,8.82241162109375,-0.8986053466796875,-0.27392578125,0.13201904296875
1761379847675493400,8.832493408203124,-0.8935089111328125,-0.28118896484375,0.1357269287109375
1761379847685576700,8.84257666015625,-0.879638671875,-0.295440673828125,0.1435394287109375
1761379847695659500,8.852659423828126,-0.87103271484375,-0.30828857421875,0.1510009765625
1761379847705742600,8.86274267578125,-0.8839569091796875,-0.3140411376953125,0.155975341796875
1761379847715824600,8.87282470703125,-0.90130615234375,-0.3165283203125,0.1479339599609375
1761379847725907500,8.882907470703126,-0.91888427734375,-0.300048828125,0.1331024169921875
1761379847735990500,8.892990478515625,-0.9379425048828125,-0.2843170166015625,0.1146240234375
1761379847746072600,8.903072509765625,-0.9517059326171875,-0.27142333984375,0.097869873046875
1761379847756155400,8.9131552734375,-0.96087646484375,-0.2644805908203125,0.09088134765625
1761379847766238700,8.92323876953125,-0.958892822265625,-0.266204833984375,0.0914764404296875
1761379847776321500,8.933321533203125,-0.946868896484375,-0.27154541015625,0.101318359375
1761379847786403600,8.943403564453124,-0.9468536376953125,-0.2781982421875,0.1236572265625
1761379847796486700,8.953486572265625,-0.9274139404296875,-0.285614013671875,0.133575439453125
1761379847806569500,8.963569580078126,-0.905853271484375,-0.295623779296875,0.135040283203125
1761379847816651500,8.973651611328124,-0.86114501953125,-0.2904510498046875,0.1427001953125
1761379847826734600,8.983734619140625,-0.9191131591796875,-0.293487548828125,0.1824493408203125
1761379847836817400,8.9938173828125,-0.9220123291015625,-0.330047607421875,0.1899261474609375
1761379847846900700,9.003900634765625,-0.900543212890625,-0.359222412109375,0.1903839111328125
1761379847856982800,9.013982666015625,-0.8736419677734375,-0.357879638671875,0.1688079833984375
1761379847867065600,9.024065673828124,-0.8330841064453125,-0.3614959716796875,0.1377105712890625
1761379847877148700,9.034148681640625,-0.821380615234375,-0.3753204345703125,0.1208953857421875
1761379847887230700,9.044230712890625,-0.8163909912109375,-0.38922119140625,0.109893798828125
1761379847897313500,9.0543134765625,-0.81683349609375,-0.397979736328125,0.099609375
1761379847907396600,9.064396728515625,-0.8127288818359375,-0.3996734619140625,0.09478759765625
1761379847917478700,9.074478759765626,-0.8311309814453125,-0.3992767333984375,0.1036224365234375
1761379847927561500,9.0845615234375,-0.8626556396484375,-0.3968048095703125,0.1208038330078125
1761379847937644500,9.09464453125,-0.8953857421875,-0.3868408203125,0.1376953125
1761379847947727600,9.1047275390625,-0.91748046875,-0.387542724609375,0.149505615234375
1761379847957809700,9.1148095703125,-0.93597412109375,-0.3812255859375,0.153350830078125
1761379847967892700,9.124892822265625,-0.9302978515625,-0.358978271484375,0.1528778076171875
