time,seconds_elapsed,z,y,x
1761379838928650200,0.085650146484375,-0.4528986660450697,-0.028056466183066366,0.5026439996080473
1761379838938732000,0.09573193359375,-0.5617465787768363,0.07813742490857839,0.8350234216868877
1761379838948815000,0.105815185546875,-0.6141629947125912,0.15508797812014818,1.079497071699798
1761379838958898200,0.115898193359375,-0.6095663145720959,0.26885113542228933,1.148650906620547
1761379838968981000,0.12598095703125,-0.49407414152026174,0.39743133810609577,1.1272566017404198
1761379838979064300,0.136064208984375,-0.31077158404588695,0.5018278243869543,1.0709557455867529
1761379838989147100,0.146147216796875,-0.05235211852788925,0.577342499576509,0.9152814189460128
1761379838999230200,0.156230224609375,0.32328210605084895,0.6821063578650355,0.7134271596062928
1761379839009313000,0.16631298828125,0.659234893104434,0.8022706143811345,0.4898254345672205
1761379839019396000,0.17639599609375,0.8768044618397951,0.8795259957581758,0.2936863380039111
1761379839029479000,0.18647900390625,0.9912807358473539,0.9458101935267448,0.14297650190275163
1761379839039562200,0.196562255859375,1.161895076662302,0.999324341571331,0.08080985898822546
1761379839049645300,0.206645263671875,1.300321550577879,0.9877727277263998,0.12419701916351913
1761379839059728100,0.21672802734375,1.3545610902875662,0.953739817482233,0.2239593793703243
1761379839069811200,0.226811279296875,1.3370038062870502,0.9116776223003864,0.33611093675736337
1761379839079893000,0.23689306640625,1.316231651893258,0.8901602024972438,0.40567517910990863
1761379839089976000,0.24697607421875,1.1733119582116602,0.8565054779157042,0.5058535362390801
1761379839100059100,0.25705908203125,0.8695715879768132,0.7985343504622578,0.6923517114169895
1761379839110142200,0.26714208984375,0.6436451097846031,0.78451488519907,0.7787533990629016
1761379839120225300,0.277225341796875,0.29798867484033104,0.8871791408598423,0.7893260848730802
1761379839130308000,0.28730810546875,0.06583236234784126,0.9983069812223314,0.7423876619569957
1761379839140391200,0.29739111328125,-0.1113882448643446,1.064513729840517,0.6503338668335229
1761379839150474000,0.307473876953125,-0.14387538697123528,1.1660691474765539,0.5813919210977851
1761379839160557000,0.31755712890625,-0.1471679987758398,1.2222814485639333,0.6302139658033847
1761379839170640100,0.32764013671875,-0.09604337621629237,1.2248664966210723,0.7820471068460494
1761379839180723200,0.33772314453125,0.1540384690672159,1.229158348596096,0.9815352946415543
1761379839190806300,0.34780615234375,0.5414572394639253,1.1450438951045274,1.224570144023001
1761379839200889000,0.35788916015625,1.0228314738869666,0.9217863438606262,1.4390990298882127
1761379839210971100,0.36797119140625,1.3781786972403525,0.7569117157414555,1.43652099609375
1761379839221054000,0.378053955078125,1.4704437239617107,0.6144573014840483,1.5263669789746404
1761379839231137000,0.388136962890625,1.501384221148491,0.43999008463323114,1.6256965372547507
1761379839241220400,0.398220458984375,1.37503163138628,0.12073124274909496,1.7232919652186334
1761379839251303200,0.40830322265625,1.274203943502903,0.05075345115959644,1.6595996836394071
1761379839261386200,0.41838623046875,1.2321037543982267,0.008554477855563163,1.5386609356194734
1761379839271469000,0.428468994140625,1.128102697175741,-0.027409984973073002,1.5598523383386431
1761379839281552100,0.43855224609375,0.9386153135865927,-0.10918664316684007,1.5274404534250496
1761379839291635000,0.448635009765625,0.6551993539780377,-0.22288579532206057,1.5852824015408753
1761379839301718300,0.45871826171875,0.45560091074109077,-0.2766062795937061,1.6296834149338304
1761379839311801000,0.468801025390625,0.37290333831012246,-0.27763679168522354,1.515172215743363
1761379839321884200,0.47888427734375,0.32869945492446423,-0.2143745720863342,1.3733356411233544
1761379839331967200,0.48896728515625,0.3103472211539745,-0.14245558330118654,1.2273264569938183
1761379839342049000,0.499049072265625,0.2405962240576744,-0.1485059693813324,1.0889981096904724
1761379839352132000,0.509132080078125,0.18343349037766454,-0.17244769372195004,0.9571169657651335
1761379839362215200,0.519215087890625,0.1499175897449255,-0.21731559397429226,0.8623367413524538
1761379839372294400,0.52929443359375,0.11986030513346195,-0.28519115258753297,0.8284620173446834
1761379839382377500,0.53937744140625,0.053687166523933405,-0.298164031407237,0.8102576676122843
1761379839392460500,0.54946044921875,-0.003824526724219322,-0.2919564089387655,0.7658434294115751
1761379839402543600,0.559543701171875,-0.1427846691250801,-0.23066461263000965,0.71889229314439
1761379839412626400,0.56962646484375,-0.319977219286561,-0.19595102664530276,0.6899306217499077
1761379839422709500,0.57970947265625,-0.49046296528577804,-0.18335925609767437,0.7130950050424784
1761379839432792300,0.589792236328125,-0.60629474555552,-0.12332155150324106,0.7422758721455931
1761379839442875400,0.59987548828125,-0.6585054097861052,-0.07774199585020541,0.7625317475803196
1761379839452958500,0.60995849609375,-0.7344640293508767,-0.0635927667275071,0.8055725054707378
1761379839463040300,0.620040283203125,-0.860828894072771,-0.06940496013760566,0.8053709915492683
1761379839473123600,0.63012353515625,-0.9254466199338436,-0.0021378888115286825,0.7536002531059086
1761379839483206400,0.640206298828125,-0.9931593892008066,0.06739303579330444,0.7092379642881452
1761379839493289500,0.65028955078125,-1.0107663575619459,0.14416092591434718,0.71817420800291
1761379839503372500,0.66037255859375,-0.9287386472165584,0.21965777318626642,0.7888590518832206
1761379839513455400,0.670455322265625,-0.8493506377249955,0.2191805110633373,0.9496613159969448
1761379839523538400,0.680538330078125,-0.7227151393681764,0.04637508994489908,1.267131813159585
1761379839533621500,0.69062158203125,-0.5001467394322157,-0.20391542965322731,1.6241775109939276
1761379839543704600,0.70070458984375,-0.2526338678538799,-0.597622486539185,2.1310991513885558
1761379839553787400,0.710787353515625,0.01660392879843712,-1.0890399760708211,2.5840882721960545
1761379839563870500,0.720870361328125,-0.37500410998165606,-1.1432660717770458,2.645766145212948
1761379839573953300,0.730953369140625,-1.3704355357676743,-0.8898629731163382,2.3681501040548083
1761379839584035300,0.741035400390625,-2.547175130340457,-0.5229185432106256,1.9716886338941753
1761379839594118400,0.751118408203125,-3.2355034314602613,-0.11495002899914979,1.2436226350173354
1761379839604201500,0.761201416015625,-3.588825286465883,0.5980521101281047,0.22725893237236885
1761379839614284500,0.771284423828125,-3.201493025308847,1.297613168402016,-0.23114432243835178
1761379839624367400,0.781367431640625,-2.375314588856697,1.9520994056746364,-0.42846020769607274
1761379839634450400,0.791450439453125,-1.467345757946372,2.1783727976083753,-0.19269907564464955
1761379839644533500,0.801533447265625,-0.668598933777213,2.0324439852386713,0.3866556040044874
1761379839654616300,0.8116162109375,-0.08861585656404494,1.8046631113514302,0.9792034906931221
1761379839664699600,0.82169970703125,0.5733417395025492,1.6273095254093408,1.1485301297850907
1761379839674782500,0.831782470703125,0.9893898075342178,1.4556202488392591,1.0243021309614182
1761379839684865500,0.841865478515625,1.1666180135309696,1.3864467593699692,0.872579391490668
1761379839694948400,0.8519482421875,1.138153551068902,1.3521511065363883,0.8098111659538
1761379839705030400,0.862030517578125,1.0158400075644254,1.2835428497344255,0.8484608492784201
1761379839715113500,0.872113525390625,1.0395090524435042,1.2744272308647633,0.9412279803030192
1761379839725196300,0.8821962890625,1.0316793817311525,1.1958750876754523,1.1086317615736274
1761379839735279600,0.892279541015625,0.9259317731022835,1.0870680914759636,1.2884490342155097
1761379839745362400,0.902362548828125,0.7839619274914265,0.9383233449026942,1.4209693528272211
1761379839755445500,0.912445556640625,0.7359317638158798,0.8520154730200767,1.4064318550392985
1761379839765528300,0.9225283203125,0.554270543807745,0.8080427680417895,1.3960725197188555
1761379839775611400,0.932611328125,0.40860418176651,0.7474497676521539,1.2832846371896565
1761379839785694500,0.942694580078125,0.30903146238029,0.7385320094421506,1.2314198637872933
1761379839795777500,0.952777587890625,0.16935528066456318,0.7524997445181012,1.1998135961681604
1761379839805860600,0.962860595703125,0.06711363433003426,0.8194511740237473,1.153635928491503
1761379839815942400,0.9729423828125,-0.10733166294991969,0.9182502786889671,1.1471996848989277
1761379839826025500,0.983025390625,-0.19952537800073622,1.0203381957665085,1.1995499767959117
1761379839836108500,0.993108642578125,-0.10085457589030265,1.1017360837757586,1.2775118990071117
1761379839846191400,1.00319140625,0.032300679624080654,1.1049427708625792,1.426034819523245
1761379839856274400,1.0132744140625,0.12139292152822016,1.0668965333238243,1.6613579254835844
1761379839866357500,1.023357421875,0.13101765896379947,0.9318027109622955,1.959934921605885
1761379839876440600,1.033440673828125,0.17010113059580326,0.7592913043543696,2.1672360481746495
1761379839886523400,1.0435234375,0.24942367363572118,0.6421084017366171,2.260954342444241
1761379839896606500,1.0536064453125,0.29803719015717506,0.5008563490062952,2.3170433094128966
1761379839906689300,1.063689208984375,0.3312356954038143,0.35565380508452654,2.325275131185353
1761379839916772400,1.0737724609375,0.362715706294775,0.3107218996852636,2.3193238215655088
1761379839926855700,1.083855712890625,0.39728140824139113,0.3081923812076449,2.3198636275306344
1761379839936937500,1.0939375,0.3671984046667814,0.24735826553851364,2.3258133297152814
1761379839947020500,1.1040205078125,0.29373335548341273,0.2713382760629058,2.276330775274336
1761379839957103600,1.114103515625,0.18008651803731918,0.3132622318178415,2.2488654068522154
1761379839967186400,1.1241865234375,0.04925239894688129,0.29479397045224903,2.2631673423185945
1761379839977269500,1.13426953125,-0.054012745216488835,0.29240035331398245,2.241134374208748
1761379839987352300,1.144352294921875,-0.1856453212082386,0.3378326094508171,2.1941765159398314
1761379839997435600,1.154435546875,-0.36633272774815556,0.36777065159678457,2.11410067031458
1761379840007518500,1.1645185546875,-0.5971265197157859,0.4193552928835153,1.9536771763853729
1761379840017601500,1.1746015625,-0.8748609265565872,0.510957471781969,1.758953061186522
1761379840027684400,1.184684326171875,-1.133763207155466,0.6307718919470906,1.5901359790518879
1761379840037766400,1.194766357421875,-1.3104665124952792,0.7559975235059857,1.5021362085595726
1761379840047849500,1.204849365234375,-1.404054896774888,0.8689508257299661,1.4775414271377025
1761379840057932300,1.214932373046875,-1.4231477197796105,0.9829840321451425,1.4721144336529075
1761379840068015600,1.225015625,-1.4209960947036742,1.0141457708671688,1.5211068664893508
1761379840078098400,1.235098388671875,-1.431972246748209,1.0150623011901974,1.5418553477466106
1761379840088181500,1.245181396484375,-1.4374305121541022,1.024136126744747,1.55227722690925
1761379840098264600,1.2552646484375,-1.3661182570904493,0.8944678365632891,1.6664141859598456
1761379840108347400,1.265347412109375,-1.2619687313079833,0.6004577099651098,1.9349132930740713
1761379840118430500,1.275430419921875,-1.2538795328766106,0.30010259825438257,2.2096935262843966
1761379840128513500,1.285513427734375,-1.4124264192789793,0.18587240796238183,2.177317297206074
1761379840138596600,1.2955966796875,-1.6533271792411803,0.34485242508500813,1.726460219991207
1761379840148678700,1.3056787109375,-1.8788737182050943,0.6240703484818338,1.1113250923108309
1761379840158761500,1.315761474609375,-1.9557985524535177,1.0197969284966588,0.6589760960377753
1761379840168844500,1.325844482421875,-1.7491291479170321,1.4154153719618916,0.49474458812773225
1761379840178927400,1.33592724609375,-1.354675072056055,1.696504642188549,0.5360052576683462
1761379840189010400,1.346010498046875,-0.9399836793303489,1.7604536750078201,0.8042924025323241
1761379840199093500,1.356093505859375,-0.6026946752369403,1.747958058311045,1.0999890209127217
1761379840209176600,1.366176513671875,-0.41200493012070655,1.6187921646937726,1.2972294297814368
1761379840219259400,1.37625927734375,-0.4213210399985313,1.449113643424213,1.244701370164752
1761379840229342500,1.386342529296875,-0.509782582783699,1.3856684684738516,1.024507955731824
1761379840239425500,1.396425537109375,-0.5550958887159824,1.42307407002151,0.7567341672174632
1761379840249507300,1.40650732421875,-0.6265367385953664,1.4918261192083357,0.5765512030683457
1761379840259590400,1.41659033203125,-0.6805775408625603,1.6290478935092687,0.4017428446296602
1761379840269673500,1.426673583984375,-0.5303010546773672,1.766699583660066,0.25607096616309133
1761379840279756500,1.436756591796875,-0.3742009769052267,1.8324527432918547,0.11178023985661566
1761379840289839600,1.446839599609375,-0.19039982225894928,1.7321493715435266,-0.025415011763572692
1761379840299922400,1.45692236328125,0.06818564747571945,1.648838635650277,-0.18027334584631025
1761379840310005500,1.467005615234375,0.3596381985455751,1.603727574291825,-0.3168894458716735
1761379840320088300,1.47708837890625,0.6080746147096157,1.4416972296878694,-0.43013321894221007
1761379840330171400,1.48717138671875,0.8346902442097663,1.248039574676752,-0.4359892514940351
1761379840340254500,1.49725439453125,0.9205284527540206,1.0556582232117653,-0.30274215297773477
1761379840350337500,1.507337646484375,0.9332686918616294,0.8512132167264819,-0.02760259406887926
1761379840360419600,1.517419677734375,0.9163654878556727,0.7646814729601145,0.23642029007989912
1761379840370502400,1.52750244140625,0.7886854488819837,0.7706345361456275,0.4678520876901224
1761379840380585000,1.5375849609375,0.55564124763906,0.7636079985097051,0.6325348830316215
1761379840390668000,1.54766796875,0.2978700168967247,0.8078773483470082,0.6747064568720758
1761379840400750800,1.557750732421875,0.0069815294504165645,0.9357409271940589,0.5563910065604374
1761379840410834000,1.567833984375,-0.3146434570431709,1.077145540137589,0.2825973367020488
1761379840420916700,1.577916748046875,-0.6370137089461088,1.2576932459458707,-0.0925629045562353
1761379840431000000,1.588,-0.8016010445564985,1.4423457567244766,-0.4690430145077407
1761379840441083000,1.598082763671875,-0.7412965057194233,1.5835399417877196,-0.68698901534006
1761379840451166000,1.608166015625,-0.5219780474901199,1.6652049563005566,-0.7028457790330052
1761379840461248000,1.618248046875,-0.15558452946543694,1.751824086089432,-0.564096210642904
1761379840471330800,1.628330810546875,0.3260240982353687,1.7369444968655705,-0.2627251633552834
1761379840481414000,1.638413818359375,0.820652951028943,1.5297653892412781,0.09041109681720845
1761379840491496700,1.64849658203125,1.2370511476725339,1.2681786918640137,0.2761305883733556
1761379840501580000,1.658580078125,1.5242045402437447,0.9912281288772821,0.39153490047864614
1761379840511662800,1.668662841796875,1.6567700131714342,0.7703691632077098,0.5482679058594628
1761379840521746000,1.678745849609375,1.7724311130493877,0.5397580343306064,0.585632517809607
1761379840531829000,1.6888291015625,1.7896721707075833,0.338681335234642,0.5382098185079172
1761379840541911800,1.698911865234375,1.590577585339546,0.07729717469215393,0.5528116867689415
1761379840551993900,1.708993896484375,1.286467797270417,-0.2621121825560927,0.560132092784904
1761379840562077000,1.719076904296875,0.9977589919507502,-0.4545663069963455,0.4030030738238245
1761379840572159700,1.72915966796875,0.6120768360882998,-0.55234951261729,0.2776943670913577
1761379840582243000,1.7392431640625,0.3227157043397426,-0.5480848409101367,0.1067518172353506
1761379840592326000,1.749325927734375,0.04463409149646759,-0.4642842756733298,-0.031456556950137014
1761379840602409000,1.759408935546875,-0.26330665303766726,-0.418567065115273,-0.09694459937233477
1761379840612491800,1.76949169921875,-0.5029366624116898,-0.446905855371058,-0.1341139079460874
1761379840622574800,1.779574951171875,-0.6882125657856464,-0.5031853764757513,-0.20029789674319326
1761379840632657700,1.78965771484375,-0.8806050231665372,-0.5670312411814927,-0.30390578992962836
1761379840642741000,1.799740966796875,-0.9739578451246023,-0.6230839677929878,-0.37246125709842887
1761379840652823000,1.809822998046875,-1.0397679956406354,-0.6314098975896835,-0.4028787898570299
1761379840662905900,1.81990576171875,-1.1635668092668057,-0.6785939658299088,-0.3923131183095276
1761379840672989000,1.829989013671875,-1.2475783869057893,-0.7415034264683723,-0.33898006245289
1761379840683071700,1.84007177734375,-1.1575731218099594,-0.860692700472474,-0.39006811586171386
1761379840693154800,1.85015478515625,-0.9660305592566728,-0.973494027005136,-0.5081830386325716
1761379840703238000,1.86023779296875,-0.7868693393707274,-1.050139752051234,-0.52378096872624
1761379840713321000,1.870321044921875,-0.54172845762074,-1.0985755739182232,-0.5163233096640557
1761379840723404000,1.880404052734375,-0.342515798830986,-1.1360942804515362,-0.5215858698347583
1761379840733486800,1.89048681640625,-0.20071312648057937,-1.1470070118710398,-0.5474043843653053
1761379840743569000,1.90056884765625,-0.09764964236915111,-1.0989821088925003,-0.5229888319678604
1761379840753652000,1.91065185546875,0.06579787555634975,-1.0098191398397087,-0.580074554888904
1761379840763734800,1.92073486328125,0.2505769353240728,-0.9489195577189325,-0.6388999610841274
1761379840773817900,1.93081787109375,0.43350598331093787,-0.9564487841799855,-0.676283789191395
1761379840783901000,1.94090087890625,0.6201192727684974,-0.982908628821373,-0.7249245590459555
1761379840793984000,1.95098388671875,0.7488952902853488,-0.9916747036010026,-0.7658279395814984
1761379840804066800,1.96106689453125,0.831796276333928,-1.004417573057115,-0.7568857775826007
1761379840814150000,1.97114990234375,0.8922142124176025,-1.0093062218815088,-0.7728508970208465
1761379840824232700,1.981232666015625,0.9202806154727935,-0.993387937259674,-0.8040167273961007
1761379840834314800,1.991314697265625,0.933480288785696,-0.9537409865260124,-0.8026573486763984
1761379840844397800,2.001397705078125,0.9277145648658275,-0.9416799618542194,-0.7933380239281803
1761379840854481000,2.01148095703125,0.8557844701647758,-0.921154475697875,-0.7967519240248948
1761379840864564000,2.02156396484375,0.752587715062499,-0.8785326008066534,-0.7988491885650902
1761379840874646800,2.031646728515625,0.5570318252146244,-0.8065998757570981,-0.8468044603735208
1761379840884729900,2.041729736328125,0.32381402097046375,-0.6758493432968854,-0.9639836366642266
1761379840894813000,2.05181298828125,0.12326280705332755,-0.5172299761801957,-1.1241817243397236
1761379840904895700,2.061895751953125,-0.12120178287029265,-0.47112727343589067,-1.1557387459896504
1761379840914979000,2.07197900390625,-0.23230302748680112,-0.355873000793159,-1.2339280472159384
1761379840925060900,2.082060791015625,-0.16627251221835612,-0.14186609297543765,-1.332140291903913
1761379840935144000,2.09214404296875,-0.1338479139536619,-0.037084699030220505,-1.2898854967594147
1761379840945227000,2.10222705078125,-0.005402151304483413,-0.015907470966875552,-1.1667828487038612
1761379840955309800,2.112309814453125,0.16274609165787696,-0.11252864707112312,-0.8725459276124834
1761379840965393000,2.122392822265625,0.30427754585146904,-0.43941988352984185,-0.4700872628636658
1761379840975475700,2.132475830078125,0.097793434754014,-0.6392313849955796,-0.11536014417000114
1761379840985559000,2.14255908203125,-0.17053309227228164,-0.624487989372015,0.06041450201757252
1761379840995641900,2.152641845703125,-0.48105450094938274,-0.5606643364980817,0.06961473043076694
1761379841005725000,2.162724853515625,-0.7981465201884508,-0.4728127423048019,0.06298683672361076
1761379841015807000,2.172806884765625,-1.1689338892579078,-0.42936698381006716,0.16153423165008424
1761379841025889800,2.182889892578125,-1.411011291784048,-0.3413262967854738,0.21335560430213807
1761379841035972900,2.192972900390625,-1.376372524601221,-0.234470434653759,0.18914931074120103
1761379841046055700,2.2030556640625,-1.2913327729582786,-0.030386370435357093,0.12462167431637644
1761379841056139000,2.213138916015625,-1.212690028876066,0.2205284185409546,-0.007345905783399939
1761379841066222000,2.22322216796875,-1.194340717715025,0.45851387557834383,-0.11816453406624496
1761379841076305000,2.233304931640625,-1.1143769541621207,0.5459978055030107,-0.16496902840435504
1761379841086388000,2.243387939453125,-1.1159271062135696,0.5900228251904249,-0.19534955362081527
1761379841096470800,2.253470703125,-1.1414999388873577,0.5979150397449732,-0.19599647322222588
1761379841106552800,2.263552734375,-0.9957049820303916,0.5289265514537692,-0.026697745050489902
1761379841116636000,2.273635986328125,-0.7798866408765316,0.40895284907370805,0.2680015328556299
1761379841126719000,2.283718994140625,-0.6086386783331632,0.24127310040593145,0.5850581885203718
1761379841136802000,2.293802001953125,-0.5033277075558901,0.039110067377984524,0.7347492760330439
1761379841146884900,2.303884765625,-0.5377975479125976,0.0250856336787343,0.5329391480959952
1761379841156968000,2.313968017578125,-0.7631511946529149,0.16779431495815514,0.170634068428725
1761379841167050800,2.32405078125,-1.1017834300488234,0.30233284152448175,-0.19017799620181322
1761379841177133800,2.3341337890625,-1.3300275375336408,0.5133317996978759,-0.49791328129172324
1761379841187216000,2.3442158203125,-1.2592109570324421,0.6798311064094305,-0.6799170311272144
1761379841197298700,2.354298583984375,-0.9336439549148082,0.7044792254537343,-0.7085549504600465
1761379841207382000,2.364382080078125,-0.5054395851433277,0.6562374648541212,-0.647593555149436
1761379841217464800,2.37446484375,-0.05076572611927986,0.6757888452813029,-0.6325358328796923
1761379841227548000,2.3845478515625,0.2768815894037485,0.731242729216814,-0.6492392765298486
1761379841237630700,2.394630615234375,0.5137935719907284,0.6964645535632967,-0.6723406045235693
1761379841247713800,2.4047138671875,0.5891513030529022,0.6388923622995615,-0.6389169122189283
1761379841257796900,2.414796875,0.5231482603132724,0.5616948485895991,-0.5523470283992589
1761379841267878700,2.424878662109375,0.570247865140438,0.47907297174334523,-0.5190189054235815
1761379841277962000,2.4349619140625,0.7282488080978393,0.36188451616764067,-0.4374601277641952
1761379841288045000,2.445045166015625,1.1330419071435929,0.18709025931954382,-0.4004086003512144
1761379841298128000,2.4551279296875,1.5097563281744717,0.08944587764739989,-0.3888064253628254
1761379841308211000,2.4652109375,1.442580150002241,-0.1630035735502839,-0.4340162709206342
1761379841318293800,2.475293701171875,1.4495657711058854,-0.43034313536584373,-0.6315817470252514
1761379841328376800,2.485376953125,1.392635092616081,-0.5324605707988143,-0.8353339489407837
1761379841338460000,2.4954599609375,1.1790303358584642,-0.5675958893269301,-0.9760202575471252
1761379841348542000,2.5055419921875,0.9125275171279906,-0.5287064789623022,-1.099405814197287
1761379841358625000,2.515625,0.6608125176846981,-0.42054976336508987,-1.1124748468678445
1761379841368707800,2.525707763671875,0.5914443824261426,-0.3075108286842704,-1.0177156652431933
1761379841378795300,2.535795166015625,0.680240271732211,-0.22557196566611526,-0.9157600693084299
1761379841388878300,2.54587841796875,0.8821411466926335,-0.19681670356392858,-0.8963111263424157
1761379841398961400,2.55596142578125,1.0881763449788093,-0.23393413581997155,-0.9554973286740481
1761379841409044200,2.566044189453125,1.1887053421765565,-0.29924481238126754,-1.0601156410120427
1761379841419127300,2.576127197265625,1.108723458445072,-0.28614918396472927,-1.2482400656849144
1761379841429210000,2.586210205078125,0.8905190989375114,-0.14524667532444,-1.3663172867938875
1761379841439292200,2.596292236328125,0.6361667367279529,0.015799334417283536,-1.3693823734529316
1761379841449375200,2.606375244140625,0.5378682750612497,0.09499036003202199,-1.329883745148778
1761379841459458300,2.616458251953125,0.6572217997163534,0.15528671556264162,-1.2426115582786499
1761379841469541400,2.626541259765625,0.8494745563656091,0.20517799693495034,-1.1450816698316484
1761379841479624200,2.636624267578125,0.9296797274589538,0.16150135229378937,-1.0442553701877593
1761379841489707300,2.646707275390625,0.9820733470410108,0.07749152822047471,-0.9859722541756928
1761379841499790000,2.6567900390625,1.013517117574811,0.14308189850598574,-0.9781338156349957
1761379841509873200,2.666873046875,1.0081506221055985,0.282923207655549,-0.9645019614499062
1761379841519955200,2.676955078125,0.8899655567079782,0.3850783447504043,-0.9094720020148903
1761379841530038300,2.687038330078125,0.7952852855384349,0.2775757091477513,-0.7360755562007427
1761379841540121300,2.697121337890625,0.707275578173995,0.0026850013002753257,-0.5726393633868545
1761379841550204200,2.7072041015625,0.5119172567248345,-0.24170798469185828,-0.3421527376722544
1761379841560287200,2.717287353515625,0.24685762253999707,-0.5569181357070804,-0.06530358923338353
1761379841570370300,2.727370361328125,-0.05062602538764476,-0.9505354684829711,0.2681931829702109
1761379841580453000,2.737453125,-0.3487432950437069,-1.2224658652201295,0.5402746786158532
1761379841590535200,2.74753515625,-0.5899976907491684,-1.3639452969655395,0.7263000851828605
1761379841600618200,2.7576181640625,-0.7957523185282945,-1.615242363257706,0.9119486212614923
1761379841610701300,2.767701416015625,-1.045930609923601,-2.0005872499898074,1.1722301543243228
1761379841620784400,2.777784423828125,-1.4720985054314135,-2.4083090959638356,1.5241992795467376
1761379841630867200,2.7878671875,-2.241746660888195,-2.6793673860415814,1.7605502672500908
1761379841640950300,2.7979501953125,-2.8245126468181607,-2.747140945585072,1.9071314060486853
1761379841651033000,2.808033203125,-3.4303497117340562,-2.619283211956918,1.8322107512295245
1761379841661116400,2.818116455078125,-3.9877211441665885,-2.4909026234984397,1.8688450761437414
1761379841671198500,2.828198486328125,-4.320755997946858,-2.324426113140583,1.721294507791102
1761379841681281300,2.83828125,-4.731718141016364,-2.184086499080062,1.6877531804561614
1761379841691364400,2.8483642578125,-5.310107811558247,-2.2562013026982544,1.9362993406049906
1761379841701447200,2.858447265625,-5.872562830865383,-2.2877912037044763,2.206430432835221
1761379841711530200,2.8685302734375,-5.902896594330668,-2.0682798532515765,2.296098867192119
1761379841721613000,2.878613037109375,-5.588573455283045,-1.9746470453083513,2.499156657102704
1761379841731696400,2.8886962890625,-5.356991727808118,-2.0633318754553795,2.735638431578874
1761379841741778400,2.8987783203125,-4.954731946632266,-1.8688187726587056,2.7897107980281115
1761379841751861200,2.908861328125,-4.613392790365219,-1.573779595273733,2.89543122638911
1761379841761944300,2.9189443359375,-4.359145057573914,-1.288733988636732,2.9089444956958292
1761379841772027100,2.929027099609375,-4.013783221662044,-0.621774346499145,2.82905584320575
1761379841782110200,2.939110107421875,-3.703618955859542,0.178438166308403,2.4853826910331844
1761379841792193300,2.949193359375,-3.2967034578323364,0.8706269422486423,2.019322783989459
1761379841802276400,2.9592763671875,-2.959087706002593,1.5225471284255385,1.547137964324653
1761379841812359400,2.969359375,-2.6993852149367332,2.131744025163352,1.12692320506759
1761379841822441200,2.979441162109375,-2.3529145410001275,2.6346035306856033,0.745591499499604
1761379841832524300,2.989524169921875,-1.8720114312201737,2.9585800487414002,0.4037017966777086
1761379841842607400,2.999607421875,-1.227188509827852,3.1502482835009693,0.15173503269674254
1761379841852690200,3.009690185546875,-0.705749976041913,3.040177550975978,0.16317063721287994
1761379841862773200,3.019773193359375,-0.3496621634542942,2.7535692250669,0.2817343083982356
1761379841872856000,3.02985595703125,-0.1903863782554865,2.6702792397007347,0.4116598430100828
1761379841882939400,3.039939453125,-0.137538585165143,2.5796058660849925,0.5643988833839073
1761379841893021400,3.050021484375,-0.026112930899858472,2.4726275466173884,0.5461428034642711
1761379841903104300,3.060104248046875,0.06788403418064116,2.4954960887685416,0.3999673593897372
1761379841913187300,3.070187255859375,0.07480535787642002,2.509473176194727,0.2609093095723539
1761379841923270100,3.080270263671875,0.1234609599739313,2.3808336445391176,0.16524985463973133
1761379841933353200,3.090353271484375,0.32939912762641904,2.2717928395837546,-0.04105721939038485
1761379841943436000,3.10043603515625,0.5123088863909244,2.2039058827936646,-0.2826731053519994
1761379841953519400,3.110519287109375,0.5979296527922153,2.0581752233445645,-0.3638951253376901
1761379841963601400,3.120601318359375,0.6439718575209379,1.805939414897561,-0.27784667157623916
1761379841973684200,3.130684326171875,0.7853682871580123,1.5923746978893876,-0.11919427897278219
1761379841983767300,3.140767333984375,0.9638654901772737,1.460489608441293,0.05939491317886859
1761379841993850000,3.15085009765625,1.05807405218184,1.2615022828400135,0.176386805002857
1761379842003933200,3.16093310546875,0.9636550622969865,0.9793991593956947,0.1982685280737467
1761379842014016300,3.171016357421875,0.7587228568166494,0.7440890590474009,0.09085540651860646
1761379842024099300,3.181099365234375,0.4743552955716848,0.6042375207647681,-0.060778202497120945
1761379842034181400,3.191181396484375,0.14148293887674807,0.4682531793043017,-0.15794561430728063
1761379842044264200,3.20126416015625,-0.28987609553337096,0.41625674234628673,-0.23746285793539135
1761379842054347300,3.21134716796875,-0.5910755491137504,0.5239969860970973,-0.2904907568329945
1761379842064430300,3.221430419921875,-0.7051788981556892,0.6772767457515001,-0.32757256978638466
1761379842074513200,3.23151318359375,-0.6871680251687765,0.7686202737137675,-0.3293994198873639
1761379842084596200,3.24159619140625,-0.6056897653996944,0.7637903693392872,-0.30304855204578485
1761379842094679300,3.25167919921875,-0.33236090004146096,0.7278603933021426,-0.35378348116800185
1761379842104761300,3.26176123046875,-0.04462999984323978,0.6059779346913099,-0.3404123968109488
1761379842114844400,3.271844482421875,0.3307294994473457,0.428511243763566,-0.36200638898164034
1761379842124927200,3.28192724609375,0.713030780699849,0.2960208818987012,-0.3896678279651329
1761379842135010300,3.29201025390625,0.9926637146383523,0.26003537628203627,-0.31118235680386425
1761379842145093000,3.302093017578125,1.0997124689936637,0.19606763876229524,-0.026835582618601618
1761379842155176200,3.31217626953125,1.1420406216353178,0.17328502132892606,0.17502338942885398
1761379842165259300,3.32225927734375,1.192063420432806,0.29075317062884565,0.27330321946032343
1761379842175341300,3.33234130859375,1.2154425424546003,0.34816111124157906,0.25480452642384915
1761379842185424400,3.34242431640625,1.2092992173939943,0.3216244019716978,0.11190819535152986
1761379842195507200,3.352507080078125,1.2377099038422108,0.3735767075270414,-0.10223852279568091
1761379842205590300,3.36259033203125,1.2864672127485275,0.4245005468174815,-0.30751736802291124
1761379842215673000,3.372673095703125,1.4084493323415517,0.4284633129686117,-0.41736200017444786
1761379842225756200,3.382756103515625,1.6207009209245442,0.48549189887493843,-0.42281361664384604
1761379842235839500,3.392839599609375,1.8667910662233829,0.5248635397985577,-0.2837594392839819
1761379842245921300,3.40292138671875,2.111287220329046,0.5346452213615178,-0.11657244256921112
1761379842256004400,3.41300439453125,2.3828812247186897,0.5782584453776478,-0.028677959082275627
1761379842266087200,3.423087158203125,2.576173261287808,0.606979220688343,0.0015687745535280554
1761379842276170200,3.433170166015625,2.461958853086829,0.5985974690511823,0.16289510820712894
1761379842286253300,3.44325341796875,2.2013293103039264,0.5493494540184736,0.3803235879713669
1761379842296336100,3.453336181640625,1.9691244824945926,0.6756339469805359,0.4128337090950459
1761379842306419500,3.46341943359375,1.8897960942357777,0.821397047394514,0.43473537897542114
1761379842316501200,3.473501220703125,1.832213673838973,0.890253141477704,0.4975194231359288
1761379842326584300,3.483584228515625,1.8708651837944983,0.7806576252490282,0.5565985848965123
1761379842336667400,3.49366748046875,1.994396286395192,0.6148410401046276,0.6477290180973708
1761379842346750200,3.503750244140625,2.1242332111418247,0.5166530530750751,0.6943341174058616
1761379842356833300,3.513833251953125,2.172051193371415,0.41803164306432006,0.7767562338963151
1761379842366916000,3.523916015625,2.0133809728503227,0.27262539326399565,0.8488648269694298
1761379842376994300,3.533994384765625,1.5797633458584546,0.2607914553463459,0.9302160993579774
1761379842387077600,3.54407763671875,1.0931354286909103,0.3723609019964933,0.9730172032736242
1761379842397160400,3.554160400390625,0.8855009785145521,0.5950014903858304,0.8987242518987506
1761379842407243500,3.564243408203125,0.8478437402933835,0.6846528274774552,0.8705497853592038
1761379842417326300,3.574326416015625,1.0112111787199973,0.6655933222204446,0.8095704160004854
1761379842427409400,3.584409423828125,1.322030109038949,0.6465709341034293,0.7706886044204234
1761379842437492500,3.594492431640625,1.7990718672156334,0.5294798014223575,0.7701781706802546
1761379842447574300,3.60457421875,2.208961412617564,0.42876200365424155,0.7985705908194184
1761379842457657600,3.61465771484375,2.403943886491656,0.3764747670561075,0.828907569155097
1761379842467740400,3.624740478515625,2.454296940156817,0.43808921944797036,0.8531725341007113
1761379842477823500,3.634823486328125,2.2857675889223814,0.6067571023702621,0.8617075766034423
1761379842487906600,3.644906494140625,2.0155612394988536,0.7700213726833463,0.835245686135441
1761379842497989400,3.6549892578125,1.6947382170379162,0.9576216273516416,0.857982126339525
1761379842508071400,3.665071533203125,1.4270704461812973,1.0044713490709662,0.8374347206123173
1761379842518154500,3.675154541015625,1.219894845688343,1.0017845942050219,0.7557571388788521
1761379842528237600,3.685237548828125,1.0145756867170332,0.9462173130229115,0.6340298708297312
1761379842538320600,3.695320556640625,0.8287760517299175,0.9149968298509716,0.39902912869155405
1761379842548403500,3.705403564453125,0.9068915570676326,1.00839933616966,0.1056034509178251
1761379842558486500,3.715486572265625,1.1713479646623135,0.9963932565554976,-0.038962439068220556
1761379842568569300,3.7255693359375,1.4019868583291768,0.8989102029249072,-0.11244089572243392
1761379842578651400,3.7356513671875,1.7028297535568475,0.7202884967431425,-0.1735470332659781
1761379842588734500,3.745734375,1.8711305567324161,0.49523617103695866,-0.042223011766746636
1761379842598817300,3.7558173828125,1.752851967832446,0.18784370803534983,-0.017438041535019874
1761379842608900600,3.765900634765625,1.2333832728147507,0.1150695637255907,-0.21274507118836045
1761379842618983400,3.7759833984375,0.5814432128936052,0.2740232773631811,-0.5178470851652324
1761379842629066500,3.78606640625,0.06874269683659076,0.4709782203540206,-0.7273061934854835
1761379842639148500,3.7961484375,-0.24310791461765766,0.5785106665730476,-0.8959675736017525
1761379842649231400,3.8062314453125,-0.21314941420555114,0.564333964921534,-0.9221301888622343
1761379842659314400,3.816314453125,-0.041328035688400266,0.4802934534490108,-0.8016986597120761
1761379842669397200,3.826397216796875,0.18094985686838627,0.2202536932528019,-0.5816974799156188
1761379842679480600,3.83648046875,0.4669283604413271,-0.1116799212872982,-0.36410138849951323
1761379842689563400,3.8465634765625,0.6658820760339498,-0.28587124380618334,-0.252657467925176
1761379842699645400,3.8566455078125,0.49664311522543425,-0.425849915599823,-0.08574497730284929
1761379842709728500,3.866728515625,0.20001286925673484,-0.5934273729369044,0.14287256660424172
1761379842719811300,3.876811279296875,-0.06391571507155895,-0.6865969472825527,0.36099925776571035
1761379842729894400,3.886894287109375,-0.35872108370065686,-0.6642690878793597,0.5660339372398332
1761379842739977500,3.8969775390625,-0.6996013902842998,-0.7417430804431439,0.6369999726817012
1761379842750060500,3.907060546875,-1.1015338392019272,-0.9391226785868406,0.4783449862623587
1761379842760143600,3.9171435546875,-1.562294909185171,-1.1851041028141975,0.38280820786133407
1761379842770225400,3.927225341796875,-2.1219798792570828,-1.604578345902264,0.31024197068121284
1761379842780308500,3.93730859375,-2.6803099275887012,-2.005589588321745,0.2637800061704591
1761379842790391600,3.9473916015625,-3.0826345906943082,-2.066679724578559,0.2379816211124882
1761379842800474400,3.957474365234375,-3.3453561373203993,-1.9725246463268995,0.44356838151142
1761379842810557400,3.967557373046875,-3.5087919648081063,-1.939721862399578,0.5617190331827849
1761379842820640500,3.977640625,-3.5137206533819434,-2.028839238744974,0.5217433254187926
1761379842830722600,3.98772265625,-3.1115824527591465,-2.0118837200298905,0.27437572579635305
1761379842840805600,3.9978056640625,-2.4721108292669056,-1.9653610383078455,-0.005440455754566937
1761379842850888400,4.007888427734375,-1.756628563761711,-1.8416665618389845,-0.12956946944948286
1761379842860971500,4.017971435546875,-1.4237322416692972,-1.471536195373535,-0.19130752995470537
1761379842871054300,4.028054443359375,-0.9454419447362422,-1.1679662132695317,-0.05857875622408464
1761379842881137400,4.038137451171875,-1.119725329452753,-1.0082119969040155,0.33665888949632644
1761379842891219500,4.048219482421875,-1.149879060176015,-0.37428894744962454,0.5863486301897093
1761379842901302500,4.058302490234375,-0.7480027253597974,-0.16083295151293278,0.8104908918462693
1761379842911385600,4.068385498046875,-0.7612322092890739,-0.08647504514306784,1.0574033863786607
1761379842921468400,4.078468505859375,-0.8105068200677633,-0.3402271033719182,1.3590879200622439
1761379842931551500,4.088551513671875,-0.4492810600697994,-0.303444017636776,1.4559195240467786
1761379842941633500,4.098633544921875,-0.4761404254227876,-0.19329905083179472,1.4000241799540818
1761379842951716400,4.10871630859375,-0.8875783693104982,-0.14896131193339823,1.1262475708283484
1761379842961799400,4.11879931640625,-1.2750228586703538,0.19863164403140543,0.7849010349724441
1761379842971882500,4.128882568359375,-1.6435785231649875,0.6157502639040351,0.5112296763194725
1761379842981965600,4.138965576171875,-1.9489006096333263,0.8490116150289774,0.2069368050347082
1761379842992048400,4.14904833984375,-1.9276006319731473,1.091229887330532,-0.013776687749568372
1761379843002131500,4.15913134765625,-1.657484883442521,1.3697896390795707,0.03373440222162753
1761379843012213500,4.169213623046875,-1.1311872191876173,1.509250716739893,0.3034851350984536
1761379843022296300,4.17929638671875,-0.07074468430876732,1.1865721295401452,0.6481216706767677
1761379843032379400,4.18937939453125,1.1461176618158817,0.6112783791869878,0.6624046091817319
1761379843042462500,4.19946240234375,2.0453262631654736,0.2606660754010081,0.5522680448789149
1761379843052545500,4.209545654296875,2.5527894630908965,-0.03950257382690906,0.45373891626149415
1761379843062627600,4.219627685546875,2.569540106883645,-0.5494128746435046,0.44063145127668973
1761379843072710400,4.22971044921875,1.7735142321109771,-0.003822773158550262,0.04623696011584252
1761379843082793500,4.23979345703125,0.9955296254634857,1.0889803548380732,-0.21968455159533767
1761379843092876500,4.24987646484375,0.6780874776124954,1.459562848985195,-0.18315328519679605
1761379843102959400,4.25995947265625,0.6777046157747507,1.516684373871982,-0.35237387009840454
1761379843113042400,4.27004248046875,1.2615461219817399,1.5121005532130598,-0.4667493506126105
1761379843123124500,4.28012451171875,2.0546482182621957,1.1624372207149862,-0.38420430186223237
1761379843133207600,4.29020751953125,2.659409762901068,0.6012780864372849,-0.14917372170821763
1761379843143290600,4.30029052734375,3.25678528894186,0.21859832726120948,0.07726860618479549
1761379843153373400,4.31037353515625,3.6815503319144245,-0.02272065811306238,-0.03623210078887641
1761379843163456500,4.32045654296875,4.202745704594254,-0.015960954719781876,-0.11332231819946319
1761379843173539300,4.330539306640625,4.361528153318167,-0.04136924448162317,-0.46887985983528196
1761379843183621400,4.340621337890625,4.535505248564482,0.2895356115326285,-0.621618425285071
1761379843193704400,4.350704345703125,4.350495302650332,0.49573506046980614,-0.7317391344316303
1761379843203787500,4.36078759765625,4.676110235562921,0.5404968699991702,-1.2000091187402606
1761379843213870600,4.37087060546875,4.937611300483345,0.9571662847995758,-1.5668739075385034
1761379843223953400,4.380953369140625,4.812726445186138,1.1359382131069897,-1.333873107045889
1761379843234036500,4.391036376953125,4.47088460009396,1.0845564009159803,-1.0530172071836887
1761379843244118500,4.401118408203125,3.862563317146897,1.0993754921242593,-1.0545783920858054
1761379843254201300,4.411201416015625,3.445233392611146,1.1798647408559917,-1.411224788404256
1761379843264284400,4.421284423828125,3.607735154119134,1.0949646899446845,-1.651201565389335
1761379843274367500,4.431367431640625,3.457153547507524,0.7235767246335745,-1.8671781658448279
1761379843284450600,4.441450439453125,2.8752824645906685,0.4578279391407966,-1.925450029810518
1761379843294532600,4.45153271484375,2.536304776757955,0.7630252301856875,-1.9759891075670717
1761379843304615400,4.461615478515625,2.2834528822392226,1.153285946010053,-1.796243073530495
1761379843314698500,4.471698486328125,2.1962936542242764,1.4486884037494658,-1.3798321635358035
1761379843324781300,4.48178125,1.624862132257223,1.4633666251823305,-1.2810842045359312
1761379843334864400,4.491864501953125,1.467940801230073,1.1792173828631638,-1.4020625539138913
1761379843344947500,4.501947509765625,1.7866174593120812,1.2089943892285226,-1.6684103282131253
1761379843355029500,4.512029541015625,1.6862947983413934,1.3350596864819526,-1.9702926494911313
1761379843365112600,4.522112548828125,1.8654174397826193,1.2618483197987078,-2.2173887569621202
1761379843375196200,4.532196044921875,1.8437480442881584,0.5982748129680753,-2.074048499780893
1761379843385279200,4.542279296875,2.3547908562660216,0.6206169931575656,-1.962775405728817
1761379843395362000,4.552362060546875,2.952660303303599,0.43742403353750703,-2.101463014798611
1761379843405444000,4.562444091796875,3.441604096198082,0.03693652273118496,-2.2277020611837504
1761379843415527200,4.572527099609375,3.64476227774322,0.4057102138906717,-2.067095173511654
1761379843425610000,4.58260986328125,4.01718513906002,1.0504238296896218,-1.7201684263706207
1761379843435693000,4.592693115234375,4.573336089786887,1.5741259244933723,-1.4524201376236974
1761379843445776100,4.602776123046875,5.230305960568785,1.9459674787908792,-0.6683258889894932
1761379843455859200,4.612859130859375,6.027029169955849,2.429417204313725,0.18520422637723385
1761379843465941200,4.622941162109375,4.380518684992194,1.7015090263471007,0.5981285363651812
1761379843476024000,4.633024169921875,2.1854396672546863,-1.1544539668761193,0.36716165285296737
1761379843486107100,4.643107177734375,2.272992278501391,-1.7215196948491036,0.089109046908468
1761379843496190000,4.65318994140625,2.65524679800272,-0.913984291807562,-0.9638847063343972
1761379843506273000,4.66327294921875,2.414787352067232,-1.1938650630272925,-1.4120659154035151
1761379843516355000,4.67335498046875,2.525655956971645,-1.7600392489880323,-0.9667762630574405
1761379843526438100,4.683438232421875,3.0743501619517803,-2.12591531900987,0.011613938491418957
1761379843536521200,4.693521240234375,4.078602023053169,-2.137374578396231,0.9206357125207781
1761379843546604000,4.70360400390625,5.327032642874121,-1.6382926917165517,1.7777900097340344
1761379843556687000,4.71368701171875,5.9698787112355225,-0.8164680665597319,2.3474907623857257
1761379843566770200,4.723770263671875,2.851049940609932,-1.3185364217042923,1.8116871647693216
1761379843576852000,4.73385205078125,1.3256138127446173,-1.679334457809478,1.6210102791346608
1761379843586935000,4.74393505859375,-0.4209907851308584,-1.9317019298121332,1.319943073631823
1761379843597018400,4.754018310546875,-1.1589046626746653,-3.0064500534191727,0.1182276624303311
1761379843607101200,4.76410107421875,0.6885837371855974,-3.8508524210870263,-1.2647449180230497
1761379843617184300,4.774184326171875,2.7037124304860827,-5.179648955520987,-1.44647043543905
1761379843627266000,4.78426611328125,4.098505577918887,-5.03381892735064,-0.15467136014327407
1761379843637349000,4.79434912109375,4.139771654286981,-4.331060826601088,1.6748540975250303
1761379843647432200,4.80443212890625,0.6150514679849147,-5.16341736716628,2.5691075606852767
1761379843657515000,4.814514892578125,-4.951117263266444,-3.4091026333048937,2.7572815235882997
1761379843667598300,4.824598388671875,-9.330390332111715,-0.3454436689764261,2.6552503051340577
1761379843677681200,4.83468115234375,-10.259971275371312,1.0386135649085044,1.9674688242420553
1761379843687763200,4.84476318359375,-8.339991055274009,1.5252400207713246,0.6724852736912668
1761379843697846300,4.85484619140625,-4.918081839627027,0.6867962692469358,0.0736393828369677
1761379843707929000,4.86492919921875,-1.2633078709572554,0.33021687375009057,0.005064736043661832
1761379843718012200,4.87501220703125,-0.11001929459869861,-0.07279460257589816,0.5900321775406598
1761379843728095000,4.885094970703125,-1.5539111117213964,-0.9494994034335017,2.0387769876524806
1761379843738177000,4.895177001953125,-3.3524200843572616,-0.5046837983399629,2.9230896331653
1761379843748260000,4.905260009765625,-4.074692740654945,-0.0914671543419361,3.255707430577278
1761379843758343200,4.91534326171875,-4.064230967873335,-0.18414982195347546,3.312009748035669
1761379843768426200,4.92542626953125,-3.9801515856951473,-0.5000368493169546,2.6020173121184107
1761379843778509000,4.935509033203125,-4.436244079345465,-0.5619055687308311,1.4773219391681254
1761379843788591000,4.945591064453125,-5.918382332754135,-0.7068547224134206,0.8236885193325578
1761379843798674200,4.955674072265625,-8.58909850256741,-0.13213614159971473,0.4344089235000312
1761379843808757000,4.965757080078125,-11.080362945115565,0.9141516111984849,0.14241846616119144
1761379843818840000,4.975840087890625,-12.108988199973105,1.6048016332641244,-0.21208821471482514
1761379843828923100,4.985923095703125,-11.349804155385494,1.655707352375984,-1.0398661953181028
1761379843839005200,4.996005126953125,-9.45929377540052,1.6386656166821718,-2.220414826785028
1761379843849088300,5.006088134765625,-7.7391995833098886,0.6256190392285585,-2.524177701112628
1761379843859171000,5.016171142578125,-6.313036899623275,-0.309682327504456,-2.5960499281466007
1761379843869254100,5.026254150390625,-5.778307507109641,-0.7475605345502495,-2.7232021438539027
1761379843879337000,5.0363369140625,-6.010460896992683,-0.9145175219014287,-2.7082211400821805
1761379843889420000,5.046419921875,-6.620031887739897,-0.6002686171337962,-2.7464994328111407
1761379843899502000,5.056502197265625,-6.185005562993884,-0.7700508910387754,-2.661294845995307
1761379843909585200,5.066585205078125,-4.749864038559794,-1.0327256759136914,-2.7448192246392367
1761379843919668200,5.076668212890625,-3.227586666986346,-1.3165078384861348,-2.8787077628642317
1761379843929751000,5.0867509765625,-2.0284780042171477,-1.549763636653125,-2.7820494696199893
1761379843939834000,5.096834228515625,-1.1378840864777564,-1.594471962429583,-2.711298940092325
1761379843949916200,5.106916259765625,-0.6073381171286105,-1.5124948132276534,-2.5790876874297854
1761379843959999000,5.1169990234375,-0.5857458785235882,-1.26780313654989,-2.316317771617323
1761379843970082000,5.12708203125,-0.7062117483347654,-0.781845958250761,-2.025419055037945
1761379843980165000,5.1371650390625,-0.7141039628893137,-0.41123628383576866,-1.9087652908608317
1761379843990248200,5.147248291015625,-0.8236509638011456,-0.1491919058188796,-1.9123719370506702
1761379844000330200,5.157330322265625,-0.9278642024695872,-0.04624854095578193,-1.9417481075301766
1761379844010413000,5.1674130859375,-1.0561112276762723,0.11941343814879656,-2.043442056854069
1761379844020496100,5.17749609375,-1.269437167492509,0.5119695714339614,-2.018994867209345
1761379844030579200,5.1875791015625,-1.7369810294836758,0.6585305442273617,-1.9270628718346356
1761379844040662000,5.197662109375,-2.1680998253971335,0.5557908852428197,-1.8586856473095714
1761379844050744000,5.207744140625,-1.849110448104143,0.4751137127235531,-1.9068660331107674
1761379844060827100,5.2178271484375,-1.2290928821444511,0.6707891372978687,-1.8826677036605775
1761379844070910200,5.22791015625,-1.4258470418661833,0.8973194266021252,-1.7635557326763867
1761379844080993300,5.2379931640625,-0.8351093464046716,0.9622352586269378,-1.9025345797777176
1761379844091076000,5.248076171875,-0.5978723696470261,0.8681699044853448,-1.9400451030045747
1761379844101158100,5.258158203125,-0.5285246926546097,0.670113429993391,-1.804281418557465
1761379844111241200,5.2682412109375,-0.3189823630303144,0.4271002079218626,-1.832429654677212
1761379844121324000,5.278323974609375,-0.24343173974454402,0.08351356498897075,-1.9364355342052877
1761379844131407000,5.288406982421875,-0.17154314609766005,-0.186508075517416,-1.7702800724953411
1761379844141490200,5.298490234375,0.04036708170175552,-0.22689210835397242,-1.3608046608522533
1761379844151572200,5.308572265625,0.40409634895324703,-0.09232961639016866,-0.8017615688804537
1761379844161655300,5.3186552734375,0.6529010139077901,-0.01902151133418083,-0.423429118193686
1761379844171738000,5.328738037109375,0.713057084184885,-0.18931144250035284,-0.5368410143727437
1761379844181821200,5.3388212890625,1.4328198034882544,-0.22382132260650395,-0.8349573707133531
1761379844191904000,5.348904052734375,1.4965005407601595,-0.3526283197835088,-0.9417711472690105
1761379844201986000,5.358986083984375,0.9757686939388514,-0.7241971946194767,-1.0641994762595743
1761379844212069000,5.369069091796875,0.5764852982252836,-0.9339452759489416,-1.1302709080602973
1761379844222152200,5.379152099609375,0.27303075919449327,-0.7896607236549258,-1.0632560579296202
1761379844232235300,5.3892353515625,0.26475276019275185,-0.3497647470459342,-0.8661242970671504
1761379844242318000,5.399318115234375,0.41043841145634646,-0.06783873373419046,-0.5007417827159166
1761379844252400000,5.409400146484375,-0.015153145468235015,-0.311691036978364,-0.14228870230168103
1761379844262483200,5.419483154296875,-0.07177402735650538,-0.5292720038905739,-0.011223331738635897
1761379844272566000,5.42956591796875,0.1895493429094553,-0.5292123826578259,-0.10880239308960735
1761379844282649000,5.439649169921875,0.24384324315488337,-0.545693269598484,-0.17077829920500515
1761379844292732200,5.449732177734375,0.5354501080036163,-0.6857236715793609,-0.24058665251173078
1761379844302814200,5.459814208984375,0.887347483164072,-0.7454813901886344,-0.23302673865146933
1761379844312897300,5.469897216796875,0.9170575617730617,-0.7234338090315461,0.010112667082995175
1761379844322980000,5.47997998046875,0.8252548918664455,-0.8456696111246943,0.30167196646295485
1761379844333063200,5.490063232421875,0.827685918405652,-0.9589788871794939,0.4404353441826999
1761379844343146000,5.50014599609375,0.7701368157565593,-0.8389929098397493,0.5295866958629339
1761379844353228000,5.51022802734375,0.5435369683474301,-0.6957163655444979,0.46356005305200815
1761379844363311000,5.52031103515625,0.37917642723023887,-0.628700930891931,0.2816577177643776
1761379844373397000,5.53039697265625,0.24428923335671424,-0.5209405211359263,0.2239383000496775
1761379844383480000,5.54047998046875,0.01953179894387722,-0.4070686427623033,0.3403553328614682
1761379844393562000,5.55056201171875,-0.022806875091791152,-0.3339923006355762,0.4150972701128572
1761379844403645000,5.56064501953125,0.12961013025343418,-0.3551388412997126,0.3508521038912236
1761379844413728000,5.57072802734375,0.22873393682837484,-0.410551224181056,0.3294818374738097
1761379844423811000,5.58081103515625,0.14966156915724277,-0.2249152553230524,0.2474989891834557
1761379844433894000,5.590893798828125,-0.11335399197936058,-0.23351152649372814,0.16666925645098088
1761379844443976000,5.600975830078125,-0.08681377557814121,-0.2420429157346487,0.17371508330926297
1761379844454059000,5.61105908203125,-0.23691315163075924,-0.16874299398511647,0.06001162030510604
1761379844464142000,5.62114208984375,-0.182781748470664,-0.01959229695945978,-0.07759776507392525
1761379844474225200,5.63122509765625,0.11078560279607773,0.3224485778361559,-0.06889445333220064
1761379844484308000,5.641307861328125,0.33575989482998847,0.3051382543340325,-0.039423882567510005
1761379844494390000,5.65139013671875,0.4940618665605783,0.19072920034378765,0.0896936418633908
1761379844504473000,5.66147314453125,0.6062964991211891,0.23654051892608402,0.42418256690949196
1761379844514556000,5.671555908203125,0.41133799064457416,0.26460283032804727,0.778791977507621
1761379844524639000,5.681638916015625,0.30131401987075807,0.3471986959502101,0.8293735061664134
1761379844534721800,5.6917216796875,0.27362930960953236,0.5034516261965036,0.7681475416354835
1761379844544803800,5.701803955078125,0.2901514053434133,0.6475760194927453,0.7318765701409429
1761379844554887200,5.71188720703125,0.14904256047606468,0.8281491520032286,0.5828635280203074
1761379844564970000,5.721969970703125,0.041219314616918565,1.0529551017329095,0.29053236748501654
1761379844575053000,5.732052978515625,0.081965166503191,1.308072018574178,-0.05239785736575722
1761379844585135000,5.742135009765625,0.02770516852736473,1.5563412614777683,-0.3279388458155095
1761379844595218000,5.752218017578125,-0.04686754963696003,1.6806494859308003,-0.4656727343570441
1761379844605301000,5.762301025390625,0.21873919703662395,1.6456380860432982,-0.43879882902204986
1761379844615383800,5.7723837890625,0.5241852021455764,1.5589549511075018,-0.38233313769549127
1761379844625467100,5.782467041015625,0.7500485519737005,1.3706944789648055,-0.12733546331971882
1761379844635549200,5.792549072265625,0.7747282352000474,1.1147411112993955,0.1524884631462395
1761379844645632000,5.802632080078125,0.6868026989877224,0.9865686126336455,0.2441094928756356
1761379844655715000,5.812715087890625,0.6426420702219009,0.9924649771958589,0.16151815729811786
1761379844665798000,5.8227978515625,0.5491822807580232,0.989197207571566,-0.02929784454628825
1761379844675881000,5.832880859375,0.349186947157979,0.9657719083204865,-0.21539134791344403
1761379844685963000,5.842962890625,0.03929565307796001,0.9856287014350295,-0.4382150377847254
1761379844696045800,5.8530458984375,-0.1549795493096113,1.0952294783607124,-0.788714309650287
1761379844706129200,5.863129150390625,-0.1927601216495037,1.1125398018628359,-1.0471606631752104
1761379844716212000,5.8732119140625,-0.19009411731064318,1.288513916145265,-1.2794422825478016
1761379844726294000,5.8832939453125,0.07448913153409957,1.367588621903956,-1.3801305619604884
1761379844736377000,5.893377197265625,-0.11142799235284327,1.162245497535169,-1.4599685071766375
1761379844746460000,5.9034599609375,-0.08712649478912353,0.9815028536766767,-1.284772683790326
1761379844756543000,5.91354296875,-0.012246902632713318,0.9688996849521994,-1.1618750567875802
1761379844766625800,5.923625732421875,-0.12020926470160484,0.9160752727374434,-1.027641723712906
1761379844776707800,5.933707763671875,-0.09578267945349216,0.8481351244553923,-0.8773597576349973
1761379844786791000,5.943791015625,-0.03691314185559749,0.8300330660536884,-0.8077563523158431
1761379844796874000,5.9538740234375,0.061574120381474494,0.7640586648866534,-0.7475650645948946
1761379844806957000,5.96395703125,0.1798328355371952,0.6450201975300908,-0.7671290122427046
1761379844817040000,5.974039794921875,0.25614801345467564,0.5665057560026645,-0.8096260917104781
1761379844827122000,5.984121826171875,0.41427872027158735,0.538766685205698,-0.8845702735356986
1761379844837205000,5.994205078125,0.41370647334158417,0.5314473021030426,-0.872685774474591
1761379844847287800,6.004287841796875,0.32132629580795763,0.4711640983149409,-0.8824009666725993
1761379844857371000,6.014370849609375,0.18638298783302307,0.5011617616936564,-0.884853912782669
1761379844867453000,6.024452880859375,0.05259644867777824,0.498939409469068,-0.8661538884878158
1761379844877536000,6.034535888671875,0.009299158743023872,0.46335605491250753,-0.898693199173361
1761379844887619000,6.044619140625,-0.10535714800655842,0.477516097690165,-1.0017359327577053
1761379844897702000,6.054701904296875,-0.27631168056130406,0.42761078779250383,-1.0661578437857329
1761379844907785000,6.064784912109375,-0.4801069909662008,0.44149785884767767,-1.1754673826798796
1761379844917867000,6.074866943359375,-0.5802180550128221,0.4519043943107128,-1.2083809335052966
1761379844927949800,6.08494970703125,-0.3760176709383726,0.4762029692649841,-1.2522085309244693
1761379844938033000,6.095032958984375,-0.3803226746559143,0.4557207377284765,-1.2462005226813255
1761379844948116000,6.105115966796875,-0.3289975610882044,0.4479971577391028,-1.2399176430195569
1761379844958198000,6.115197998046875,-0.2892822212934494,0.4189966887041926,-1.2412803096748888
1761379844968281000,6.125281005859375,-0.22280630034506319,0.3535769988104701,-1.3027391331136227
1761379844978364000,6.135364013671875,-0.1772358047813177,0.40484512149393553,-1.4106918505713342
1761379844988447000,6.145447021484375,-0.17998656479418276,0.4325064508795738,-1.4498692840971052
1761379844998529000,6.155529052734375,-0.13407821557819843,0.4260264412105083,-1.4367023440100253
1761379845008611800,6.16561181640625,-0.12626841861009597,0.46244624659121036,-1.3447047360531985
1761379845018695000,6.17569482421875,-0.11775251919925211,0.5272887211188674,-1.209245733641088
1761379845028778000,6.185778076171875,-0.14205401676297186,0.5842600238800049,-1.0981206697575747
1761379845038861000,6.195861083984375,-0.23820260691940784,0.6381757384628057,-1.1109893575504421
1761379845048943000,6.205943115234375,-0.27815175547003745,0.6992991924673319,-1.145774693597108
1761379845059026000,6.21602587890625,-0.3688052553415298,0.7374445064663887,-1.0979220784455537
1761379845069109000,6.22610888671875,-0.3342588426172733,0.7157105213031172,-1.011557654070109
1761379845079191800,6.23619189453125,-0.3090758860439062,0.7105851411134004,-0.8879124235704541
1761379845089273900,6.24627392578125,-0.3917582609057426,0.5961418925926089,-0.7846744596749544
1761379845099357000,6.25635693359375,-0.4869517422944307,0.45276831766366954,-0.7617946654774248
1761379845109439700,6.266439697265625,-0.4870353289246559,0.434331912741065,-0.8852360439680517
1761379845119523000,6.276523193359375,-0.43896892489194866,0.4854375383391976,-1.063447708044201
1761379845129606000,6.28660595703125,-0.48438335311114783,0.4763005844205618,-1.1836340302616357
1761379845139688000,6.29668798828125,-0.5582341867417097,0.4126595946371555,-1.229632103587687
1761379845149771000,6.30677099609375,-0.7665145336061716,0.27022417734116316,-1.1257058651670813
1761379845159853800,6.316853759765625,-0.9017951107114552,0.1999067785337567,-1.0316760207302869
1761379845169937000,6.32693701171875,-1.0355243667215108,0.33998803391903637,-1.0677022967487573
1761379845180019000,6.33701904296875,-1.2423276267707346,0.6098509767323732,-1.2386226347729563
1761379845190101800,6.347101806640625,-1.3327315357953309,0.766032595308125,-1.3619709281526504
1761379845200185000,6.35718505859375,-1.2999544708311557,0.7452092952489853,-1.2896383901305495
1761379845210268000,6.367267822265625,-1.2744067725986241,0.842484843608737,-1.1869753035135566
1761379845220350000,6.377349853515625,-1.1704314343392848,1.0655039099216461,-1.1716194750800728
1761379845230433000,6.38743310546875,-1.1245821218341587,1.2849264130473137,-1.1737068027481437
1761379845240515800,6.397515869140625,-1.0450286926478147,1.4533467509493232,-1.2285964769296347
1761379845250599000,6.407598876953125,-0.9480606028020382,1.5981336998075246,-1.2829612504541874
1761379845260682000,6.417681884765625,-1.0163964724034071,1.719815082888305,-1.1966815817527472
1761379845270763800,6.427763671875,-1.1368956599622964,1.8075360364392399,-0.9806358615837991
1761379845280847000,6.43784716796875,-1.1316133356451987,1.8455790591076016,-0.7736915856286883
1761379845290930000,6.447929931640625,-0.9093196609973907,1.7883233864471315,-0.6659380440048873
1761379845301013000,6.458012939453125,-0.7088169623970985,1.6786241175830363,-0.6503242952875793
1761379845311095000,6.468094970703125,-0.488338812738657,1.5492670853078365,-0.6038933835022151
1761379845321177900,6.478177734375,-0.2429138533502817,1.4451064536094664,-0.6427936075218021
1761379845331261000,6.488260986328125,0.025370003578066826,1.3797770723477005,-0.7162322070896625
1761379845341344000,6.498343994140625,0.27392975386083124,1.3482447467476129,-0.7833825201682746
1761379845351425800,6.50842578125,0.37719548254609103,1.3067808097198605,-0.7721338347926735
1761379845361508900,6.5185087890625,0.3948229091733694,1.3599424910649656,-0.7743745994567871
1761379845371592000,6.528592041015625,0.49924949833154675,1.4086170901238917,-0.8465332422167062
1761379845381671700,6.538671630859375,0.4989046304166317,1.4005334446504711,-0.9387658279731869
1761379845391754800,6.548754638671875,0.2778232541680336,1.4926000261902808,-0.9555931902639567
1761379845401836500,6.55883642578125,0.13875322165191173,1.5651917996704579,-0.9631459437310695
1761379845411919600,6.568919677734375,0.18663374772369862,1.6438734144583345,-1.1203187653012574
1761379845422002400,6.57900244140625,0.29325404753386974,1.7652791954681277,-1.3582904860742389
1761379845432085500,6.58908544921875,0.06963058558702469,2.0575468623131514,-1.370305771908164
1761379845442167600,6.59916748046875,-0.33437691603899,2.2023019547283647,-1.15322661703825
1761379845452250600,6.609250732421875,-0.44612347282171244,2.211984852091968,-0.9066270609125494
1761379845462333700,6.619333740234375,-0.5467565149158239,2.2132272533684967,-0.805990219426155
1761379845472416500,6.62941650390625,-0.602794043958187,2.073657162375748,-0.9603193420030176
1761379845482498600,6.63949853515625,-0.5866372744053602,2.044923235322535,-1.0994504570566117
1761379845492581600,6.64958154296875,-0.6579477759033441,2.148417804327607,-1.19322647286281
1761379845502664400,6.65966455078125,-0.7809627456754445,2.1558248657137153,-1.2368395507484673
1761379845512747500,6.66974755859375,-0.8631365864932536,2.0277569964662194,-1.348502667031437
1761379845522830800,6.679830810546875,-0.9041413815766572,1.9737419131621716,-1.4189597665704785
1761379845532912600,6.68991259765625,-0.9468506424903869,1.9333637255445122,-1.4180436746388674
1761379845542995700,6.69999560546875,-0.9227028741836547,1.7238132126137613,-1.4926409427225589
1761379845553078500,6.71007861328125,-0.9388970531374216,1.5674641285166144,-1.4725675842478871
1761379845563161600,6.72016162109375,-1.1022978093117475,1.5125009507074951,-1.2703747406035661
1761379845573243600,6.73024365234375,-1.0735597906053065,1.3727683626294136,-1.1096534327715635
1761379845583326500,6.740326416015625,-0.9496037405908108,1.2402236402288078,-1.016726435010135
1761379845593409500,6.750409423828125,-0.9536597379833459,1.0843614628657698,-1.0021120725937187
1761379845603492900,6.760492919921875,-0.9258283127278089,1.0021613185629248,-1.025374728628993
1761379845613574700,6.77057470703125,-0.9068716833233833,1.004990404509008,-1.026119555646926
1761379845623657700,6.78065771484375,-0.9217553642004728,0.9887257906675339,-1.0022568878918885
1761379845633740500,6.790740478515625,-1.014503790524602,0.9259589533701539,-0.8654067233823239
1761379845643823600,6.80082373046875,-1.0508680663257837,0.8838643172234296,-0.6948087491802871
1761379845653905700,6.81090576171875,-0.9835521874219179,0.9175348238959908,-0.7212719548225403
1761379845663988500,6.820988525390625,-0.9464519985616207,0.9865846869856119,-0.8332070199146866
1761379845674071600,6.831071533203125,-1.0388315915733575,0.9561927635923028,-0.8394478140003979
1761379845684154600,6.841154541015625,-1.0645242512345314,0.9027698009625077,-0.8129952758826315
1761379845694236400,6.851236328125,-1.0441560014665126,0.8855316659137606,-0.7448961376465857
1761379845704319700,6.86131982421875,-1.0141782118320464,0.8240823409557342,-0.5947397707097232
1761379845714402600,6.871402587890625,-0.9122679894089698,0.7100050031378865,-0.5075431332938373
1761379845724485600,6.881485595703125,-0.811449069353938,0.6293848215028643,-0.4211753479175269
1761379845734567700,6.891567626953125,-0.7061895365029573,0.6147536540821195,-0.36028088036328554
1761379845744650500,6.901650390625,-0.6751496705949306,0.6347703139334917,-0.30841829891800876
1761379845754733600,6.911733642578125,-0.626748335519433,0.6044277826398611,-0.2810419239535928
1761379845764816600,6.921816650390625,-0.5887117425918579,0.5930725681498646,-0.2661687644705176
1761379845774898400,6.9318984375,-0.5303466473847628,0.648249973231554,-0.23760405650436878
1761379845784981800,6.941981689453125,-0.45496904257833953,0.6735591865330934,-0.4055348573237657
1761379845795064600,6.952064697265625,-0.3668418463140726,0.7559215356603264,-0.7732127160705625
1761379845805147600,6.962147705078125,-0.5524374831616878,0.8633250948026776,-0.8199312126256525
1761379845815230700,6.972230712890625,-0.7209452070862055,0.7847691522210836,-0.6037393619842827
1761379845825312500,6.9823125,-0.47998248780369757,0.6921624724552035,-0.31878201815262436
1761379845835395600,6.9923955078125,-0.33517186580896374,0.6580006751343608,-0.13821516925245522
1761379845845478700,7.002478759765625,-0.3952659767657518,0.5742854500934481,-0.06262655204385519
1761379845855561700,7.012561767578125,-0.3854033389210701,0.48499505526870484,-0.054151276904344556
1761379845865643800,7.022643798828125,-0.3339823637634516,0.5080725639954209,-0.14016761849448084
1761379845875726600,7.0327265625,-0.3738566935122013,0.543447828759253,-0.23133228275850415
1761379845885809700,7.0428095703125,-0.3190326319128275,0.5254565372556448,-0.3090441757313907
1761379845895892700,7.052892822265625,-0.2826560811519623,0.4930389532536268,-0.37037045883163805
1761379845905974500,7.062974609375,-0.19793430941700935,0.4376949594333768,-0.4051506803117692
1761379845916057600,7.0730576171875,-0.028561493095755574,0.38344811320006844,-0.47386765818521376
1761379845926140700,7.083140625,0.057020694860816,0.296744812259078,-0.45457945873886346
1761379845936223700,7.0932236328125,0.04562134896814823,0.20850304970443248,-0.3149830642610788
1761379845946305500,7.103305419921875,0.08578034087717533,0.08099193755686282,-0.04808014029711485
1761379845956388600,7.113388671875,0.15504852289259433,-0.028820436292886734,0.133764765714854
1761379845966471700,7.1234716796875,0.18529285450875757,0.05616933872848749,0.09121551766842603
1761379845976554800,7.1335546875,0.19820786566138265,0.0642535687237978,-0.0752757518671453
1761379845986636500,7.143636474609375,0.19969781195819378,0.022537410500645637,-0.2875521826304495
1761379845996719600,7.1537197265625,0.22667641977667807,-0.05794248588085174,-0.40647622982710596
1761379846006802400,7.163802490234375,0.23239772003293035,-0.16517478010952472,-0.5723490752033888
1761379846016885500,7.173885498046875,0.5310644402652979,-0.18139526254832744,-0.8920767036430537
1761379846026967600,7.183967529296875,0.8787059115469456,0.06745791772305965,-1.0327828129284082
1761379846037050600,7.194050537109375,0.9031476943641901,0.12053747374266385,-0.8383236322760581
1761379846047133700,7.2041337890625,0.8199298974514007,-0.12198825707286595,-0.352723012329638
1761379846057216800,7.214216796875,0.6853735429674387,-0.27102175745964047,0.15885113004595042
1761379846067298600,7.224298583984375,0.5203039767980575,-0.32990181645154953,0.516749353056401
1761379846077381600,7.234381591796875,0.44680385630130764,-0.321327464851737,0.6336927478298544
1761379846087464400,7.24446435546875,0.31194471947848795,-0.1380786833912134,0.5848987601749599
1761379846097547500,7.254547607421875,0.12772504715919494,0.07554770067632198,0.43087446576356886
1761379846107629600,7.264629638671875,-0.016847674426436424,0.2352306053712964,0.33429639814868567
1761379846117712600,7.274712646484375,-0.07152326746582985,0.2663981893122196,0.27469445462301373
1761379846127795700,7.284795654296875,-0.0027817396730184553,0.4106234126344323,0.1451185189001262
1761379846137878800,7.294878662109375,0.03202829242348671,0.5624532657414675,0.09028320525437593
1761379846147960600,7.304960693359375,-0.16236439886391163,0.5376762596204877,0.15329495722353456
1761379846158043600,7.315043701171875,-0.3981552684664726,0.4940273797690868,0.339546719892323
1761379846168126500,7.32512646484375,-0.3389712580919266,0.4924611533656716,0.4465947435952723
1761379846178209500,7.33520947265625,-0.3358458195477724,0.5163473481267691,0.44670594888478515
1761379846188291600,7.34529150390625,-0.4832312604665756,0.489234008012712,0.37727446606643494
1761379846198374700,7.355374755859375,-0.6874228767126799,0.44462826582789416,0.20136384547427297
1761379846208457700,7.365457763671875,-0.668781889128685,0.4658773900836706,-0.08620791863948106
1761379846218540500,7.37554052734375,-0.6350105524301528,0.5339151535212994,-0.22352628518268464
1761379846228622600,7.38562255859375,-0.6235118378162383,0.49862902834564443,-0.1425685421563685
1761379846238705700,7.39570556640625,-0.4160439763784408,0.3347542249187827,-0.060659124428406354
1761379846248788500,7.40578857421875,-0.1665045674085617,0.14395517420917747,-0.014928031475469469
1761379846258870500,7.41587060546875,0.1117366199105978,-0.1266635554075241,0.045284518229216336
1761379846268953600,7.42595361328125,0.42180210151374337,-0.4030962319999933,-0.0006046148296445608
1761379846279036400,7.436036376953125,0.4396902249038219,-0.6157090551108122,0.016230930767580865
1761379846289119700,7.44611962890625,0.3982406086623668,-0.7256108608096837,0.0795126587845385
1761379846299201800,7.456201904296875,0.4170107755839824,-0.7022387530505657,0.08386369360089302
1761379846309284600,7.46628466796875,0.2698147197574377,-0.5844213519215583,0.06061024378538132
1761379846319367700,7.47636767578125,0.059631169620156285,-0.40008214487582444,0.064809887432307
1761379846329450500,7.486450439453125,-0.017239304092526435,-0.18156506615728138,0.07761910012289881
1761379846339532500,7.496532470703125,0.041003626039624215,0.11649316678792238,0.11047091082371771
1761379846349615600,7.50661572265625,0.0894844560921192,0.27820728504955766,0.28879633747264744
1761379846359698400,7.516698486328125,0.1655763466477394,0.3358963806912303,0.49827393129765984
1761379846369781800,7.52678173828125,0.3484329139202833,0.44153409920483827,0.6454856230847538
1761379846379863300,7.53686328125,0.4729074348509311,0.4249947600752115,0.8500578361462802
1761379846389946000,7.546946044921875,0.5551981800466775,0.32993981037437914,1.0252492025531827
1761379846400029200,7.557029296875,0.6526163517475128,0.30000849023014303,1.1438486939705907
1761379846410112300,7.5671123046875,0.7942308080494404,0.30115415313392874,1.1790320894241333
1761379846420194000,7.577194091796875,0.8353466622918844,0.3054793228566646,1.2207760855022818
1761379846430277400,7.58727734375,0.8708066827297211,0.33302433238625523,1.2381368970826268
1761379846440360200,7.597360107421875,0.9014818069785833,0.3528451774045825,1.2221949393242597
1761379846450443300,7.607443359375,0.9769821613818407,0.3661252224773168,1.1241588549207895
1761379846460525300,7.617525390625,0.8441928165704011,0.3443754552230239,1.0541903426162897
1761379846470608100,7.627608154296875,0.7008411612123251,0.34016134465932846,0.9638528498914092
1761379846480691200,7.637691162109375,0.6125245798557997,0.389832845801115,0.9265443520426749
1761379846490774300,7.647774169921875,0.6018769291132688,0.44610301455557344,0.8282152760419994
1761379846500856000,7.65785595703125,0.6263853474259377,0.3913090558335185,0.685839479978755
1761379846510939400,7.667939453125,0.5284522119402885,0.22347499338686466,0.6378146500654518
1761379846521022200,7.678022216796875,0.5577893655836582,0.10066694436371326,0.5463556059647351
1761379846531104300,7.688104248046875,0.5864291846126317,0.03102466833889484,0.5400293986178935
1761379846541187300,7.698187255859375,0.5287602549761533,-0.08389818039238453,0.5542243665784597
1761379846551270100,7.708270263671875,0.5403448943078517,-0.19371055424213407,0.5686942790228873
1761379846561353200,7.718353271484375,0.5075356806397437,-0.3247898802652955,0.5771588866379112
1761379846571435300,7.728435302734375,0.3705190735220909,-0.4852803019508719,0.5247712584052234
1761379846581518000,7.73851806640625,0.19195640405118464,-0.48069268189966674,0.4135976792048663
1761379846591601400,7.748601318359375,0.06252747558355332,-0.4415656633868813,0.314336071594432
1761379846601684200,7.758684326171875,-0.11937924361824989,-0.44391573364436626,0.28203729166649283
1761379846611766300,7.768766357421875,-0.26324586276113987,-0.5080298938974738,0.3076516253944486
1761379846621849300,7.778849365234375,-0.25544191101193425,-0.5653510330095887,0.3248633838929236
1761379846631932200,7.78893212890625,-0.17177520128786564,-0.6118509183779358,0.2750555430203676
1761379846642015200,7.79901513671875,-0.1591068583726883,-0.6820832692503929,0.19375344353578983
1761379846652097300,7.80909716796875,-0.20712123995721338,-0.7764780014768242,0.16806633683256805
1761379846662180000,7.81918017578125,-0.3172995245099067,-0.8245584340348839,0.09004150545299053
1761379846672263200,7.82926318359375,-0.3298749284446239,-0.7515484351426363,0.012214315537363291
1761379846682345200,7.83934521484375,-0.3766132987439632,-0.7266086396753788,0.04537738414444029
1761379846692428300,7.84942822265625,-0.41080666024684903,-0.7228121700018644,0.10952522747144103
1761379846702511400,7.859511474609375,-0.43386429522931574,-0.6950564403310417,0.11640431946069002
1761379846712594200,7.86959423828125,-0.6047539458543062,-0.6888532017767429,0.10570281963907181
1761379846722676200,7.87967626953125,-0.7564262703120708,-0.6871411371618509,0.07456000481322407
1761379846732759300,7.88975927734375,-0.8033926041483879,-0.7043602752491831,-0.008034618699923158
1761379846742842000,7.899842041015625,-0.8076379866331815,-0.8147790905594825,0.04443791133724153
1761379846752925200,7.90992529296875,-0.5425976416707039,-1.0855755148306487,0.21399280622713265
1761379846763007200,7.92000732421875,-0.2609142049431801,-1.2615157268434762,0.3569618920084089
1761379846773090300,7.93009033203125,-0.3403098132193088,-1.2592229397311805,0.41539442642852664
1761379846783173400,7.94017333984375,-0.4780769464433193,-1.1273393115878105,0.3493341736089438
1761379846793256200,7.950256103515625,-0.6801449946641922,-1.0808870647534727,0.2997071691960096
1761379846803338200,7.960338134765625,-0.5608469995886087,-0.9287325097367167,0.15069763420671223
1761379846813421300,7.97042138671875,-0.4610176750928163,-0.7537760480642318,0.02388970189243555
1761379846823504100,7.980504150390625,-0.505252538138628,-0.5901721705332398,0.13648096587099134
1761379846833586200,7.990586181640625,-0.5799176107615233,-0.40962855637818574,0.30931860875859857
1761379846843669200,8.000669189453125,-0.6812631850391626,-0.21154139448702333,0.4037598835404962
1761379846853752300,8.01075244140625,-0.7308879244297742,0.005099953487515449,0.31429595877975225
1761379846863835400,8.02083544921875,-0.6919961759775877,0.20094985784590244,0.08740392349101603
1761379846873917400,8.03091748046875,-0.6858084272533654,0.36676644299030303,-0.08999233254902064
1761379846884000300,8.041000244140625,-0.5591928026407956,0.5969798047214746,-0.28542043129876254
1761379846894083300,8.051083251953125,-0.385959219238162,0.7913453157410025,-0.4101020191088319
1761379846904166100,8.061166259765624,-0.3318669790446758,0.8524781220957637,-0.4504116715349257
1761379846914248200,8.071248291015625,-0.14507307232320307,0.9200529441967606,-0.5039280846018344
1761379846924331300,8.081331298828125,0.10482698665261268,1.0272852384254336,-0.622751667098701
1761379846934414000,8.0914140625,0.33317163190245624,1.0080886627852916,-0.7035024893760681
1761379846944496000,8.10149609375,0.4586848482310772,0.9487319261923431,-0.7230692865680903
1761379846954579500,8.111579345703126,0.5593313343286513,1.0049936193794011,-0.7856096216332167
1761379846964662300,8.121662353515624,0.4828659342855215,1.0810209202662109,-0.867193679864332
1761379846974745300,8.131745361328125,0.27393209194838997,1.1092080270916223,-0.952023953475058
1761379846984827400,8.141827392578126,0.26041794585883615,1.1710162484899163,-1.0308250299241393
1761379846994910200,8.15191015625,0.35989947983026505,1.1926479423224925,-1.107580133628845
1761379847004993300,8.1619931640625,0.39742695419192314,1.115079549473524,-1.0847107877600937
1761379847015076000,8.172076171875,0.3667313716769218,1.02729166816622,-1.05959139794223
1761379847025158100,8.182158203125,0.2734422626048326,0.9775257667392492,-1.0893242729049175
1761379847035241500,8.192241455078126,0.15125380678474903,0.9451210422188043,-1.1388587767288088
1761379847045324300,8.20232421875,-0.05308744706511497,0.8934355709061026,-1.127858001699671
1761379847055406300,8.21240625,-0.1687356874614954,0.839424286994338,-1.107583202368766
1761379847065489400,8.222489501953126,-0.20455109720826148,0.815035695669055,-1.0619039857335388
1761379847075572200,8.232572265625,-0.07717851674854755,0.7017310957893729,-0.9833965584687888
1761379847085655300,8.2426552734375,0.08918810349404811,0.5223121017500758,-0.897182867675647
1761379847095737300,8.2527373046875,0.26679332610964773,0.2919081858828664,-0.8023520821195095
1761379847105820200,8.262820068359375,0.3944049760222435,0.08055822231471538,-0.8017711404263973
1761379847115903200,8.2729033203125,0.4941226568371057,-0.03243073574453592,-0.8733549789730459
1761379847125986300,8.282986328125,0.541446718069911,-0.12111001293361186,-0.9313695071768016
1761379847136068400,8.293068359375,0.4892524204522371,-0.12341478274464607,-0.8974109042778611
1761379847146151400,8.3031513671875,0.3747790690541267,-0.12690905460119248,-0.7526073696110397
1761379847156234200,8.313234130859374,0.42717911837697026,-0.12512597057670355,-0.6742724493689835
1761379847166316300,8.32331640625,0.4186567892253399,-0.10761369476169347,-0.5174165847934782
1761379847176399000,8.333399169921876,0.3773679165035486,-0.18603578183054922,-0.31686047550551594
1761379847186482200,8.343482177734375,0.3252916923075914,-0.2780509254440665,-0.14640768192782996
1761379847196565200,8.353565185546875,0.3158025639504194,-0.3436155767664313,-0.06392981666214764
1761379847206647000,8.36364697265625,0.23606617941260336,-0.42971594337821006,0.01433065010420978
1761379847216730400,8.37373046875,0.14544365920126437,-0.496022645239532,0.07578092491030693
1761379847226813400,8.3838134765625,0.10090250668525695,-0.491145686852932,0.028706454524397847
1761379847236895200,8.393895263671874,0.13410685715079307,-0.4351566731274128,-0.04713226498775184
1761379847246978300,8.403978271484375,0.18052315588891504,-0.43853930130302904,-0.1159688506528735
1761379847257061000,8.41406103515625,0.3104658790975809,-0.5100011939704417,-0.14829707587100566
1761379847267144200,8.424144287109375,0.3890396495968103,-0.584647561892867,-0.18574907384365796
1761379847277226200,8.434226318359375,0.44572716698050496,-0.5856301431894302,-0.2266637064255774
1761379847287309000,8.44430908203125,0.41058103479743,-0.6605015520393848,-0.15885748672150074
1761379847297392400,8.454392333984375,0.39148178205192086,-0.6630120735555887,-0.11302234887219965
1761379847307474400,8.464474365234375,0.4977180509805679,-0.666584671345353,-0.10554236838035284
1761379847317557200,8.47455712890625,0.48308045381903647,-0.6849670079931617,-0.06224646668508649
1761379847327640300,8.484640380859375,0.4774930090755224,-0.7276672088176012,0.006190890529379248
1761379847337723100,8.49472314453125,0.4621119000703096,-0.7226160629078745,0.09721928812786937
1761379847347805200,8.50480517578125,0.45585342419743535,-0.7468325125366448,-0.008085837430506945
1761379847357888300,8.51488818359375,0.35128830335140226,-0.8033794524058699,0.00021028174981474874
1761379847367971000,8.52497119140625,0.3211000858366489,-0.7820525867387652,-0.10183496522977947
1761379847378054700,8.5350546875,0.25245208154618737,-0.9154521724030374,-0.28370252146497366
1761379847388136700,8.54513671875,-0.129957336255908,-0.9392726084515451,-0.1995407947655767
1761379847398219500,8.555219482421874,-0.33287995547950266,-0.5796224272072314,-0.1685162725571543
1761379847408302600,8.565302490234375,-0.550331450793147,-0.35665333751589057,-0.12720591865591704
1761379847418384600,8.575384521484375,-0.6796534117549657,-0.4432096312016248,0.18210224177390336
1761379847428467500,8.585467529296874,-0.5326379731923342,-0.6691656277492642,0.6517382537387311
1761379847438550500,8.595550537109375,-0.3193973735719919,-0.8377180675983429,1.0108151651397348
1761379847448632600,8.605632568359376,-0.3735568337827921,-0.7689327006638049,1.0378203687041998
1761379847458715600,8.615715576171874,-0.6017261224657297,-0.6220815127521753,0.7818705081701278
1761379847468798700,8.625798828125,-0.8968307663023471,-0.4959463651329279,0.38196576568782326
1761379847478881500,8.635881591796876,-1.3505249666392802,-0.2264958025127649,-0.08349690611511468
1761379847488963600,8.645963623046875,-1.6140531534731388,0.08216127359718084,-0.37006256192624565
1761379847499046700,8.656046630859375,-1.6049930641829966,0.36943595446050165,-0.46478491867184635
1761379847509129500,8.66612939453125,-1.590357805109024,0.501709166443348,-0.25641937774196266
1761379847519212500,8.676212646484375,-1.5487556286543607,0.5293649428710341,-0.007197656419128179
1761379847529294600,8.686294677734375,-1.2379507268607615,0.5950479598760604,0.04010083198100328
1761379847539377700,8.696377685546874,-0.9834837983608246,0.6181707690492272,0.17964973405525086
1761379847549460700,8.706460693359375,-0.7466554024040698,0.5222933970496059,0.28214506288990376
1761379847559542500,8.71654248046875,-0.4063327297031879,0.43020957211405036,0.2699734174504876
1761379847569625600,8.72662548828125,-0.12314707171916961,0.3663584467113018,0.2213061249151826
1761379847579708700,8.736708740234375,0.1694365292072296,0.3557774314641952,0.19220321841910482
1761379847589791500,8.74679150390625,0.27714871590733525,0.3884337926581502,0.2074615778274834
1761379847599873500,8.75687353515625,0.3788847508072853,0.43935237125158305,0.2044863614089787
1761379847609956600,8.76695654296875,0.5465495941668749,0.49967006183117624,0.15730711547434328
1761379847620039700,8.777039794921874,0.5166928005635738,0.5778901965871452,0.14064634192213415
1761379847630121700,8.787121826171875,0.47069443497657776,0.6170002639651299,0.12770751150250434
1761379847640204500,8.79720458984375,0.44158933652341364,0.6332695539817214,0.05029153273627162
1761379847650287600,8.80728759765625,0.3494336153954267,0.6598381196945905,-0.07008475909531116
1761379847660369700,8.81736962890625,0.27716215991079807,0.71403615835011,-0.12070742348209022
1761379847670452500,8.827452392578126,0.3047738049358129,0.6915542774289846,-0.08047901959866285
1761379847680535600,8.83753564453125,0.4136760782033205,0.6063742405325174,0.004333353029191494
1761379847690618600,8.84761865234375,0.508678420934081,0.5144558352917432,0.09213833160176872
1761379847700700400,8.857700439453126,0.3869248493999243,0.4949731361865997,0.15764116973429917
1761379847710783500,8.867783447265625,0.20126316157877444,0.4828200493171811,0.11996171968132256
1761379847720866600,8.877866455078125,0.04001753761172294,0.6358990257024765,0.004303542412817478
1761379847730948600,8.887948486328124,-0.15126666626632213,0.7982721923947333,-0.1410031925357878
1761379847741031700,8.89803173828125,-0.28287936851382256,0.9165937436535954,-0.29159955832511186
1761379847751114500,8.908114501953126,-0.36924013962745666,0.9796960965156555,-0.3599196458354592
1761379847761197600,8.918197509765625,-0.3666986384510994,0.9535168223813175,-0.3617018530771136
1761379847771279600,8.928279541015625,-0.23858546875715253,0.8908996226876974,-0.30601869043037294
1761379847781362400,8.938362548828126,-0.23515607883036135,0.809455557449162,-0.11816270743533969
1761379847791445500,8.948445556640625,-0.07484393632113934,0.7284159813582897,-0.03511968256756663
1761379847801527600,8.958527587890625,0.13505202904641628,0.6282774447828531,-0.049586453206837175
1761379847811610600,8.968610595703124,0.5781529391765594,0.6407400359928608,-0.046005233719199894
1761379847821693700,8.978693603515625,0.10652852987349033,0.6933171954482793,0.2964377921365201
1761379847831775700,8.988775634765625,-0.06914250980913639,0.3809627261251211,0.4092854420289397
1761379847841858600,8.998858642578124,0.16053192273974418,0.11616846487820148,0.43592619619518513
1761379847851941600,9.008941650390625,0.3588391571223736,0.1550739495947957,0.2968590862885117
1761379847862024400,9.0190244140625,0.7749690582185983,0.1844692631661892,0.030544337476044892
1761379847872106500,9.0291064453125,0.8956213905125856,0.0967544470950961,-0.11373173925057053
1761379847882189600,9.039189453125,0.9466799620985984,-0.01246288347095251,-0.19503288888707757
1761379847892272400,9.0492724609375,0.9304308380872011,-0.08486731768548487,-0.2899526679009199
1761379847902354400,9.0593544921875,0.9744552732527255,-0.10363339295387268,-0.3476113684043288
1761379847912437800,9.069437744140625,0.8271458201795816,-0.10530804816782474,-0.296002469459176
1761379847922520600,9.0795205078125,0.5286877742618322,-0.11199059467166661,-0.15205752438306808
1761379847932603600,9.089603759765625,0.21560966683924196,-0.04333353029191494,-0.006013561201095581
1761379847942685700,9.099685791015625,-0.005104045140743255,-0.06917348946928978,0.12160305714756249
1761379847952768500,9.1097685546875,-0.1668652174144983,-0.06455138262659312,0.17449571229293942
1761379847962851600,9.1198515625,-0.15562369243204593,0.10533493617475032,0.21858210677877069
