time,seconds_elapsed,z,y,x
1761379838928650200,0.085650146484375,-0.11413128674030304,0.017687078565359116,-0.3593409061431885
1761379838938732000,0.09573193359375,-0.040601946413517,0.2193157970905304,-0.4586957097053528
1761379838948815000,0.105815185546875,0.05787615850567818,0.32542067766189575,-0.48731696605682373
1761379838958898200,0.115898193359375,0.15004923939704895,0.31762826442718506,-0.4335877001285553
1761379838968981000,0.12598095703125,0.23303289711475372,0.2145765870809555,-0.312195360660553
1761379838979064300,0.136064208984375,0.29174837470054626,0.048842210322618484,-0.15480414032936096
1761379838989147100,0.146147216796875,0.3358510434627533,-0.11993922293186188,0.03295071795582771
1761379838999230200,0.156230224609375,0.3646206259727478,-0.24084194004535675,0.22036747634410858
1761379839009313000,0.16631298828125,0.36985233426094055,-0.31300708651542664,0.3613061010837555
1761379839019396000,0.17639599609375,0.3656860888004303,-0.34164032340049744,0.45449143648147583
1761379839029479000,0.18647900390625,0.354637086391449,-0.31102854013442993,0.5105769634246826
1761379839039562200,0.196562255859375,0.3347148001194,-0.20994985103607178,0.5535944700241089
1761379839049645300,0.206645263671875,0.3262120187282562,-0.08682752400636673,0.5783290863037109
1761379839059728100,0.21672802734375,0.3157860040664673,0.011186124756932259,0.5773900747299194
1761379839069811200,0.226811279296875,0.2946571111679077,0.0865841954946518,0.5539417862892151
1761379839079893000,0.23689306640625,0.26738980412483215,0.12921181321144104,0.5047630667686462
1761379839089976000,0.24697607421875,0.2395196259021759,0.13220153748989105,0.44507867097854614
1761379839100059100,0.25705908203125,0.195114865899086,0.07601310312747955,0.36545494198799133
1761379839110142200,0.26714208984375,0.14731888473033905,-0.01456241775304079,0.283827543258667
1761379839120225300,0.277225341796875,0.0838424414396286,-0.13478869199752808,0.18213580548763275
1761379839130308000,0.28730810546875,0.010984020307660103,-0.2390974760055542,0.05703897029161453
1761379839140391200,0.29739111328125,-0.04347096383571625,-0.2587100565433502,-0.05965914949774742
1761379839150474000,0.307473876953125,-0.0693013072013855,-0.17746995389461517,-0.14499805867671967
1761379839160557000,0.31755712890625,-0.07004992663860321,-0.024787994101643562,-0.18409806489944458
1761379839170640100,0.32764013671875,-0.043952230364084244,0.1639159470796585,-0.16382721066474915
1761379839180723200,0.33772314453125,0.013798417523503304,0.3561069667339325,-0.11597499996423721
1761379839190806300,0.34780615234375,0.10217666625976562,0.5260723829269409,-0.07468673586845398
1761379839200889000,0.35788916015625,0.2192969024181366,0.7047276496887207,-0.05460943281650543
1761379839210971100,0.36797119140625,0.35051077604293823,0.8585464358329773,-0.04460820555686951
1761379839221054000,0.378053955078125,0.45849981904029846,0.9357171058654785,-0.0627850815653801
1761379839231137000,0.388136962890625,0.5280168652534485,0.958448588848114,-0.10246501117944717
1761379839241220400,0.398220458984375,0.6043624877929688,0.9097660183906555,-0.14199936389923096
1761379839251303200,0.40830322265625,0.6693479418754578,0.8429867029190063,-0.16484788060188293
1761379839261386200,0.41838623046875,0.7336987257003784,0.781599223613739,-0.1540311723947525
1761379839271469000,0.428468994140625,0.7839306592941284,0.733371376991272,-0.125346839427948
1761379839281552100,0.43855224609375,0.8242043256759644,0.6583154797554016,-0.10934178531169891
1761379839291635000,0.448635009765625,0.8339219093322754,0.5405316352844238,-0.11508435755968094
1761379839301718300,0.45871826171875,0.8316598534584045,0.4074079394340515,-0.1459091156721115
1761379839311801000,0.468801025390625,0.8432824015617371,0.3090246319770813,-0.17773941159248352
1761379839321884200,0.47888427734375,0.8799504041671753,0.2669677436351776,-0.20543840527534485
1761379839331967200,0.48896728515625,0.9233589768409729,0.27241936326026917,-0.2357124388217926
1761379839342049000,0.499049072265625,0.9658196568489075,0.3054550886154175,-0.26517340540885925
1761379839352132000,0.509132080078125,0.9919882416725159,0.3480713963508606,-0.2784627079963684
1761379839362215200,0.519215087890625,1.0060867071151733,0.39888930320739746,-0.28738245368003845
1761379839372294400,0.52929443359375,1.0296220779418945,0.44267532229423523,-0.2876676917076111
1761379839382377500,0.53937744140625,1.0586355924606323,0.4622090756893158,-0.2830612361431122
1761379839392460500,0.54946044921875,1.0908299684524536,0.45926621556282043,-0.25558117032051086
1761379839402543600,0.559543701171875,1.1287928819656372,0.4164482057094574,-0.2189570963382721
1761379839412626400,0.56962646484375,1.1600791215896606,0.34947657585144043,-0.16275517642498016
1761379839422709500,0.57970947265625,1.1979045867919922,0.28776952624320984,-0.0848768875002861
1761379839432792300,0.589792236328125,1.2484523057937622,0.2437775880098343,0.007311804220080376
1761379839442875400,0.59987548828125,1.3068757057189941,0.22509685158729553,0.11301665753126144
1761379839452958500,0.60995849609375,1.352651834487915,0.20537157356739044,0.2064831256866455
1761379839463040300,0.620040283203125,1.3773891925811768,0.19690406322479248,0.28757452964782715
1761379839473123600,0.63012353515625,1.3808337450027466,0.19648946821689606,0.3550162613391876
1761379839483206400,0.640206298828125,1.3777517080307007,0.22636480629444122,0.3952465057373047
1761379839493289500,0.65028955078125,1.391559362411499,0.2925180196762085,0.43089133501052856
1761379839503372500,0.66037255859375,1.4197734594345093,0.4112454652786255,0.45504701137542725
1761379839513455400,0.670455322265625,1.4536938667297363,0.5570371150970459,0.4651925265789032
1761379839523538400,0.680538330078125,1.4865106344223022,0.7217749357223511,0.454490065574646
1761379839533621500,0.69062158203125,1.5248786211013794,0.889998733997345,0.39055317640304565
1761379839543704600,0.70070458984375,1.5787124633789062,1.0732357501983643,0.2857378125190735
1761379839553787400,0.710787353515625,1.6793224811553955,1.2597235441207886,0.14821431040763855
1761379839563870500,0.720870361328125,1.7677091360092163,1.2125020027160645,-0.06963307410478592
1761379839573953300,0.730953369140625,1.7730779647827148,0.8275428414344788,-0.4483831822872162
1761379839584035300,0.741035400390625,1.6472728252410889,0.23469388484954834,-0.8371255993843079
1761379839594118400,0.751118408203125,1.4839454889297485,-0.23197472095489502,-1.0310814380645752
1761379839604201500,0.761201416015625,1.3467804193496704,-0.4142659604549408,-0.979006826877594
1761379839614284500,0.771284423828125,1.2515274286270142,-0.24277465045452118,-0.7123149037361145
1761379839624367400,0.781367431640625,1.2315620183944702,0.1685790866613388,-0.34488445520401
1761379839634450400,0.791450439453125,1.3306831121444702,0.652918815612793,0.013519072905182838
1761379839644533500,0.801533447265625,1.5162761211395264,1.0264767408370972,0.2232062667608261
1761379839654616300,0.8116162109375,1.6964040994644165,1.233991026878357,0.25186365842819214
1761379839664699600,0.82169970703125,1.85280442237854,1.3544597625732422,0.15773902833461761
1761379839674782500,0.831782470703125,1.9688184261322021,1.4061022996902466,0.02639106474816799
1761379839684865500,0.841865478515625,2.0175442695617676,1.415988802909851,-0.0616421177983284
1761379839694948400,0.8519482421875,2.0234270095825195,1.3543119430541992,-0.09632548689842224
1761379839705030400,0.862030517578125,2.0188186168670654,1.2547129392623901,-0.0729123055934906
1761379839715113500,0.872113525390625,2.009768009185791,1.1397624015808105,0.007307053543627262
1761379839725196300,0.8821962890625,1.9942885637283325,1.020375370979309,0.11096180975437164
1761379839735279600,0.892279541015625,1.9860315322875977,0.8710741400718689,0.20929668843746185
1761379839745362400,0.902362548828125,1.9846227169036865,0.6952016353607178,0.27345913648605347
1761379839755445500,0.912445556640625,1.9758936166763306,0.5229888558387756,0.2936673164367676
1761379839765528300,0.9225283203125,1.928654432296753,0.350320965051651,0.2750645875930786
1761379839775611400,0.932611328125,1.8565740585327148,0.2217225283384323,0.22991442680358887
1761379839785694500,0.942694580078125,1.7612597942352295,0.12359853088855743,0.16400159895420074
1761379839795777500,0.952777587890625,1.6593865156173706,0.07995045930147171,0.07564530521631241
1761379839805860600,0.962860595703125,1.5544353723526,0.10720658302307129,-0.02892637811601162
1761379839815942400,0.9729423828125,1.4542973041534424,0.18977582454681396,-0.129954531788826
1761379839826025500,0.983025390625,1.3901501893997192,0.3428756296634674,-0.22543232142925262
1761379839836108500,0.993108642578125,1.3683645725250244,0.5895615816116333,-0.29515978693962097
1761379839846191400,1.00319140625,1.3791842460632324,0.875237762928009,-0.3474022150039673
1761379839856274400,1.0132744140625,1.415234923362732,1.1203689575195312,-0.388988733291626
1761379839866357500,1.023357421875,1.462859869003296,1.2726799249649048,-0.4176185131072998
1761379839876440600,1.033440673828125,1.5264148712158203,1.3253798484802246,-0.41599738597869873
1761379839886523400,1.0435234375,1.5724012851715088,1.301877498626709,-0.3927474617958069
1761379839896606500,1.0536064453125,1.603110432624817,1.228410243988037,-0.3560844957828522
1761379839906689300,1.063689208984375,1.6210644245147705,1.1209211349487305,-0.29584458470344543
1761379839916772400,1.0737724609375,1.6246837377548218,0.9966567158699036,-0.23682235181331635
1761379839926855700,1.083855712890625,1.6195614337921143,0.8782666921615601,-0.19280722737312317
1761379839936937500,1.0939375,1.629827857017517,0.7961722016334534,-0.1477142721414566
1761379839947020500,1.1040205078125,1.6364860534667969,0.7586861252784729,-0.10522938519716263
1761379839957103600,1.114103515625,1.6450676918029785,0.750863790512085,-0.0720110833644867
1761379839967186400,1.1241865234375,1.6775078773498535,0.7543882131576538,-0.056861694902181625
1761379839977269500,1.13426953125,1.7229214906692505,0.7756431102752686,-0.047804731875658035
1761379839987352300,1.144352294921875,1.7620362043380737,0.7909006476402283,-0.045278456062078476
1761379839997435600,1.154435546875,1.7900795936584473,0.7737310528755188,-0.046278998255729675
1761379840007518500,1.1645185546875,1.7932348251342773,0.7243840098381042,-0.04119555652141571
1761379840017601500,1.1746015625,1.7738587856292725,0.6670787930488586,-0.007659022230654955
1761379840027684400,1.184684326171875,1.7324771881103516,0.6202934384346008,0.04642045870423317
1761379840037766400,1.194766357421875,1.69674551486969,0.5915721654891968,0.11233585327863693
1761379840047849500,1.204849365234375,1.6784600019454956,0.588411808013916,0.17106761038303375
1761379840057932300,1.214932373046875,1.6737735271453857,0.6133326292037964,0.20230944454669952
1761379840068015600,1.225015625,1.6879618167877197,0.6525983214378357,0.19991178810596466
1761379840078098400,1.235098388671875,1.7113364934921265,0.7050600051879883,0.19083116948604584
1761379840088181500,1.245181396484375,1.7314565181732178,0.7727298736572266,0.1837785840034485
1761379840098264600,1.2552646484375,1.747063398361206,0.8721011877059937,0.1963508427143097
1761379840108347400,1.265347412109375,1.7751286029815674,0.9661571383476257,0.20029577612876892
1761379840118430500,1.275430419921875,1.8010015487670898,0.9674370884895325,0.15530487895011902
1761379840128513500,1.285513427734375,1.790959119796753,0.8537776470184326,0.019727615639567375
1761379840138596600,1.2955966796875,1.7384837865829468,0.7166165709495544,-0.1695278137922287
1761379840148678700,1.3056787109375,1.6601953506469727,0.669651448726654,-0.3175433576107025
1761379840158761500,1.315761474609375,1.5722841024398804,0.7625811696052551,-0.3980114758014679
1761379840168844500,1.325844482421875,1.5316810607910156,1.0133296251296997,-0.40657511353492737
1761379840178927400,1.33592724609375,1.5742454528808594,1.3325557708740234,-0.38452979922294617
1761379840189010400,1.346010498046875,1.7096476554870605,1.6065202951431274,-0.36281174421310425
1761379840199093500,1.356093505859375,1.8777174949645996,1.7154812812805176,-0.3650689423084259
1761379840209176600,1.366176513671875,2.031687021255493,1.66209876537323,-0.37632957100868225
1761379840219259400,1.37625927734375,2.142015218734741,1.460854172706604,-0.3747803270816803
1761379840229342500,1.386342529296875,2.1964986324310303,1.1906265020370483,-0.32436296343803406
1761379840239425500,1.396425537109375,2.2027626037597656,0.9163312315940857,-0.22079616785049438
1761379840249507300,1.40650732421875,2.206632137298584,0.6821991205215454,-0.07619770616292953
1761379840259590400,1.41659033203125,2.247779369354248,0.49990296363830566,0.1072353646159172
1761379840269673500,1.426673583984375,2.309877634048462,0.4156056344509125,0.30179980397224426
1761379840279756500,1.436756591796875,2.379487991333008,0.39905115962028503,0.4676780700683594
1761379840289839600,1.446839599609375,2.439736843109131,0.4264249801635742,0.605868935585022
1761379840299922400,1.45692236328125,2.457428216934204,0.4824856221675873,0.6986290812492371
1761379840310005500,1.467005615234375,2.4242451190948486,0.5529313087463379,0.733605682849884
1761379840320088300,1.47708837890625,2.338716745376587,0.6357443332672119,0.7097805142402649
1761379840330171400,1.48717138671875,2.210552930831909,0.7453334331512451,0.6378812789916992
1761379840340254500,1.49725439453125,2.072262763977051,0.8511718511581421,0.5280420184135437
1761379840350337500,1.507337646484375,1.950119972229004,0.9359192252159119,0.39833036065101624
1761379840360419600,1.517419677734375,1.8650450706481934,0.9894928336143494,0.2643508315086365
1761379840370502400,1.52750244140625,1.8101303577423096,0.9871769547462463,0.13290680944919586
1761379840380585000,1.5375849609375,1.7698450088500977,0.9241940379142761,0.015747010707855225
1761379840390668000,1.54766796875,1.7318966388702393,0.8188402056694031,-0.08814689517021179
1761379840400750800,1.557750732421875,1.6871310472488403,0.6820735931396484,-0.18667380511760712
1761379840410834000,1.567833984375,1.6293045282363892,0.5502423048019409,-0.27793821692466736
1761379840420916700,1.577916748046875,1.5544401407241821,0.4648248851299286,-0.36372634768486023
1761379840431000000,1.588,1.4708408117294312,0.4827958941459656,-0.4221622347831726
1761379840441083000,1.598082763671875,1.3837941884994507,0.6178541779518127,-0.45365214347839355
1761379840451166000,1.608166015625,1.3339691162109375,0.853202760219574,-0.4322581887245178
1761379840461248000,1.618248046875,1.3347556591033936,1.1190639734268188,-0.38590458035469055
1761379840471330800,1.628330810546875,1.3655873537063599,1.363527774810791,-0.36416947841644287
1761379840481414000,1.638413818359375,1.4309122562408447,1.5363247394561768,-0.37767818570137024
1761379840491496700,1.64849658203125,1.5080267190933228,1.630389928817749,-0.4174453020095825
1761379840501580000,1.658580078125,1.5615391731262207,1.6425197124481201,-0.44288936257362366
1761379840511662800,1.668662841796875,1.5920253992080688,1.5866295099258423,-0.47009915113449097
1761379840521746000,1.678745849609375,1.6227978467941284,1.5032620429992676,-0.4984481930732727
1761379840531829000,1.6888291015625,1.643004298210144,1.400062084197998,-0.5107461214065552
1761379840541911800,1.698911865234375,1.6266438961029053,1.248691201210022,-0.5520538687705994
1761379840551993900,1.708993896484375,1.5814564228057861,1.0605995655059814,-0.6286791563034058
1761379840562077000,1.719076904296875,1.5028257369995117,0.8470279574394226,-0.6996579170227051
1761379840572159700,1.72915966796875,1.4138364791870117,0.6459920406341553,-0.7566372752189636
1761379840582243000,1.7392431640625,1.3480550050735474,0.5108060836791992,-0.7772289514541626
1761379840592326000,1.749325927734375,1.3008211851119995,0.4264834523200989,-0.774508535861969
1761379840602409000,1.759408935546875,1.2663536071777344,0.36025911569595337,-0.7696508169174194
1761379840612491800,1.76949169921875,1.2255353927612305,0.33243468403816223,-0.7629132866859436
1761379840622574800,1.779574951171875,1.1736514568328857,0.3430960178375244,-0.7615298628807068
1761379840632657700,1.78965771484375,1.1402226686477661,0.38792794942855835,-0.747850239276886
1761379840642741000,1.799740966796875,1.1394689083099365,0.4733963906764984,-0.7046735882759094
1761379840652823000,1.809822998046875,1.1589763164520264,0.5653966069221497,-0.6250408291816711
1761379840662905900,1.81990576171875,1.1785104274749756,0.6224440336227417,-0.520929753780365
1761379840672989000,1.829989013671875,1.1890506744384766,0.6180431842803955,-0.41085386276245117
1761379840683071700,1.84007177734375,1.177864670753479,0.6049150228500366,-0.309969425201416
1761379840693154800,1.85015478515625,1.1491092443466187,0.5844899415969849,-0.21661868691444397
1761379840703238000,1.86023779296875,1.1085642576217651,0.5530465245246887,-0.15192173421382904
1761379840713321000,1.870321044921875,1.0616673231124878,0.5320927500724792,-0.1046527624130249
1761379840723404000,1.880404052734375,1.0162419080734253,0.5020710825920105,-0.06609147042036057
1761379840733486800,1.89048681640625,0.9696038365364075,0.4704178273677826,-0.02188033051788807
1761379840743569000,1.90056884765625,0.9374548196792603,0.4365279972553253,0.04018933326005936
1761379840753652000,1.91065185546875,0.9071890115737915,0.41451963782310486,0.11765243113040924
1761379840763734800,1.92073486328125,0.8675551414489746,0.39443162083625793,0.19213448464870453
1761379840773817900,1.93081787109375,0.8107928037643433,0.38359788060188293,0.24537134170532227
1761379840783901000,1.94090087890625,0.7599727511405945,0.38691216707229614,0.2647552192211151
1761379840793984000,1.95098388671875,0.7098970413208008,0.3851347863674164,0.25950825214385986
1761379840804066800,1.96106689453125,0.6617328524589539,0.3771546483039856,0.24286413192749023
1761379840814150000,1.97114990234375,0.6142276525497437,0.36260125041007996,0.23646534979343414
1761379840824232700,1.981232666015625,0.5585607886314392,0.341150164604187,0.241180881857872
1761379840834314800,1.991314697265625,0.5010801553726196,0.32593363523483276,0.2450089156627655
1761379840844397800,2.001397705078125,0.4358927011489868,0.29262545704841614,0.24203230440616608
1761379840854481000,2.01148095703125,0.3634171485900879,0.2507043778896332,0.20983682572841644
1761379840864564000,2.02156396484375,0.3018966317176819,0.1988905668258667,0.16297869384288788
1761379840874646800,2.031646728515625,0.24982492625713348,0.14913232624530792,0.12064189463853836
1761379840884729900,2.041729736328125,0.18757453560829163,0.1006368026137352,0.09085146337747574
1761379840894813000,2.05181298828125,0.11073753237724304,0.06941524147987366,0.06053589656949043
1761379840904895700,2.061895751953125,0.03187350928783417,0.043904852122068405,0.02870216779410839
1761379840914979000,2.07197900390625,-0.041672348976135254,0.07141344249248505,0.02677031047642231
1761379840925060900,2.082060791015625,-0.110134057700634,0.15406584739685059,0.05463404208421707
1761379840935144000,2.09214404296875,-0.14922820031642914,0.25597891211509705,0.1047147810459137
1761379840945227000,2.10222705078125,-0.18069081008434296,0.36763396859169006,0.1494901329278946
1761379840955309800,2.112309814453125,-0.2023356556892395,0.4743087589740753,0.16363310813903809
1761379840965393000,2.122392822265625,-0.19090338051319122,0.5243846774101257,0.13074570894241333
1761379840975475700,2.132475830078125,-0.17454810440540314,0.46761858463287354,0.06112482398748398
1761379840985559000,2.14255908203125,-0.16587285697460175,0.357037216424942,-0.011079332791268826
1761379840995641900,2.152641845703125,-0.15259353816509247,0.24003440141677856,-0.031817901879549026
1761379841005725000,2.162724853515625,-0.14680655300617218,0.13844621181488037,-0.017727121710777283
1761379841015807000,2.172806884765625,-0.15746186673641205,0.021220793947577477,-0.010343240574002266
1761379841025889800,2.182889892578125,-0.1736433357000351,-0.08589896559715271,-0.035790715366601944
1761379841035972900,2.192972900390625,-0.1896718442440033,-0.12077999114990234,-0.09410861134529114
1761379841046055700,2.2030556640625,-0.1832444667816162,-0.09596015512943268,-0.18109288811683655
1761379841056139000,2.213138916015625,-0.1805325597524643,-0.04495849087834358,-0.2824961841106415
1761379841066222000,2.22322216796875,-0.18065394461154938,0.015803975984454155,-0.37781843543052673
1761379841076305000,2.233304931640625,-0.1692361682653427,0.09516537934541702,-0.41793790459632874
1761379841086388000,2.243387939453125,-0.17312251031398773,0.19898441433906555,-0.37072646617889404
1761379841096470800,2.253470703125,-0.1819993555545807,0.3059297800064087,-0.2438957840204239
1761379841106552800,2.263552734375,-0.17140604555606842,0.398501455783844,-0.09497658163309097
1761379841116636000,2.273635986328125,-0.1382715106010437,0.4376126229763031,0.01386521477252245
1761379841126719000,2.283718994140625,-0.08526622503995895,0.4016115367412567,0.017744852229952812
1761379841136802000,2.293802001953125,-0.019146330654621124,0.32725393772125244,-0.05934833362698555
1761379841146884900,2.303884765625,0.03335314244031906,0.23863014578819275,-0.16992712020874023
1761379841156968000,2.313968017578125,0.05057553946971893,0.15889723598957062,-0.24937640130519867
1761379841167050800,2.32405078125,0.039323464035987854,0.09177924692630768,-0.2447870373725891
1761379841177133800,2.3341337890625,0.01101565919816494,0.05393439903855324,-0.16279630362987518
1761379841187216000,2.3442158203125,-0.015986990183591843,0.04463311284780502,-0.03955190256237984
1761379841197298700,2.354298583984375,-0.03550929203629494,0.03317326307296753,0.05561642348766327
1761379841207382000,2.364382080078125,-0.03304392844438553,0.005047918297350407,0.08557865768671036
1761379841217464800,2.37446484375,-0.016332857310771942,-0.016653649508953094,0.046282920986413956
1761379841227548000,2.3845478515625,0.007316091097891331,-0.03021618351340294,-0.04125966131687164
1761379841237630700,2.394630615234375,0.04875247925519943,-0.021404314786195755,-0.1349363476037979
1761379841247713800,2.4047138671875,0.09788636118173599,-0.0034816190600395203,-0.17895540595054626
1761379841257796900,2.414796875,0.16144908964633942,0.005616005510091782,-0.13582444190979004
1761379841267878700,2.424878662109375,0.22012439370155334,0.026038601994514465,0.0013749829959124327
1761379841277962000,2.4349619140625,0.27379533648490906,0.0018440508283674717,0.15387770533561707
1761379841288045000,2.445045166015625,0.3066311776638031,-0.023473339155316353,0.311434268951416
1761379841298128000,2.4551279296875,0.2896474003791809,-0.12523911893367767,0.39074403047561646
1761379841308211000,2.4652109375,0.26140138506889343,-0.3429318964481354,0.35481077432632446
1761379841318293800,2.475293701171875,0.20251277089118958,-0.5174288749694824,0.24570424854755402
1761379841328376800,2.485376953125,0.10758515447378159,-0.5995267629623413,0.12547145783901215
1761379841338460000,2.4954599609375,0.015751639381051064,-0.5861331820487976,0.026598937809467316
1761379841348542000,2.5055419921875,-0.05416562408208847,-0.5098366141319275,-0.004899243824183941
1761379841358625000,2.515625,-0.10594999045133591,-0.4147700369358063,0.03801999241113663
1761379841368707800,2.525707763671875,-0.13430871069431305,-0.3066866099834442,0.11974664777517319
1761379841378795300,2.535795166015625,-0.14673741161823273,-0.20213571190834045,0.18325477838516235
1761379841388878300,2.54587841796875,-0.15302826464176178,-0.1194249615073204,0.180840402841568
1761379841398961400,2.55596142578125,-0.18736758828163147,-0.057998888194561005,0.09638705104589462
1761379841409044200,2.566044189453125,-0.23226398229599,-0.012042950838804245,-0.016975507140159607
1761379841419127300,2.576127197265625,-0.28123655915260315,0.02168918028473854,-0.09721469134092331
1761379841429210000,2.586210205078125,-0.33506953716278076,0.030044447630643845,-0.10261783003807068
1761379841439292200,2.596292236328125,-0.3841337561607361,0.01719922199845314,-0.03558073937892914
1761379841449375200,2.606375244140625,-0.4127611815929413,-0.014266741462051868,0.0914100632071495
1761379841459458300,2.616458251953125,-0.4257963001728058,-0.04523983597755432,0.23220127820968628
1761379841469541400,2.626541259765625,-0.44467705488204956,-0.09228020161390305,0.3242155611515045
1761379841479624200,2.636624267578125,-0.45358797907829285,-0.1528836190700531,0.35137850046157837
1761379841489707300,2.646707275390625,-0.47105422616004944,-0.19162289798259735,0.36146828532218933
1761379841499790000,2.6567900390625,-0.4944836497306824,-0.20725752413272858,0.3740195035934448
1761379841509873200,2.666873046875,-0.516257107257843,-0.24062761664390564,0.39110496640205383
1761379841519955200,2.676955078125,-0.5268053412437439,-0.2981542944908142,0.3724772334098816
1761379841530038300,2.687038330078125,-0.5083548426628113,-0.3383179306983948,0.3344263434410095
1761379841540121300,2.697121337890625,-0.47376543283462524,-0.3273315727710724,0.3266001045703888
1761379841550204200,2.7072041015625,-0.4552990198135376,-0.2926393151283264,0.343730628490448
1761379841560287200,2.717287353515625,-0.4365394413471222,-0.2689049541950226,0.3590661883354187
1761379841570370300,2.727370361328125,-0.38292691111564636,-0.2655133008956909,0.36698096990585327
1761379841580453000,2.737453125,-0.3103499114513397,-0.2634964883327484,0.39003729820251465
1761379841590535200,2.74753515625,-0.22923371195793152,-0.2724466323852539,0.43506404757499695
1761379841600618200,2.7576181640625,-0.14569513499736786,-0.28056687116622925,0.4661652445793152
1761379841610701300,2.767701416015625,-0.07967166602611542,-0.3212853968143463,0.43833914399147034
1761379841620784400,2.777784423828125,-0.04115542769432068,-0.35118818283081055,0.3439474105834961
1761379841630867200,2.7878671875,-0.022275056689977646,-0.43929269909858704,0.21348217129707336
1761379841640950300,2.7979501953125,0.005291057750582695,-0.4567161500453949,0.08239126205444336
1761379841651033000,2.808033203125,0.05881229043006897,-0.47415754199028015,-0.028895244002342224
1761379841661116400,2.818116455078125,0.14515729248523712,-0.44095510244369507,-0.10634795576334
1761379841671198500,2.828198486328125,0.28374621272087097,-0.30431288480758667,-0.15333892405033112
1761379841681281300,2.83828125,0.4471396505832672,-0.12140458822250366,-0.18539884686470032
1761379841691364400,2.8483642578125,0.5955004692077637,0.0012173736467957497,-0.20444445312023163
1761379841701447200,2.858447265625,0.7318777441978455,0.09784964472055435,-0.1611531674861908
1761379841711530200,2.8685302734375,0.8894241452217102,0.18471954762935638,-0.054298385977745056
1761379841721613000,2.878613037109375,1.0775967836380005,0.238801971077919,0.02162034437060356
1761379841731696400,2.8886962890625,1.2778701782226562,0.21436981856822968,0.06787971407175064
1761379841741778400,2.8987783203125,1.4441840648651123,0.15187208354473114,0.0597488172352314
1761379841751861200,2.908861328125,1.573997974395752,0.03207489848136902,-0.004618257749825716
1761379841761944300,2.9189443359375,1.6839274168014526,-0.10022241622209549,-0.09923584759235382
1761379841772027100,2.929027099609375,1.7395122051239014,-0.22237297892570496,-0.2162339836359024
1761379841782110200,2.939110107421875,1.7682799100875854,-0.2898881137371063,-0.3337198495864868
1761379841792193300,2.949193359375,1.794852375984192,-0.2729976177215576,-0.4279284179210663
1761379841802276400,2.9592763671875,1.8220605850219727,-0.18882790207862854,-0.4708130359649658
1761379841812359400,2.969359375,1.8410204648971558,-0.061604954302310944,-0.42783865332603455
1761379841822441200,2.979441162109375,1.8643513917922974,0.09269753098487854,-0.2879100441932678
1761379841832524300,2.989524169921875,1.8821828365325928,0.27940604090690613,-0.08411204069852829
1761379841842607400,2.999607421875,1.8700124025344849,0.4870545566082001,0.11721707135438919
1761379841852690200,3.009690185546875,1.8260416984558105,0.6067636609077454,0.26729246973991394
1761379841862773200,3.019773193359375,1.745906114578247,0.6145667433738708,0.35344281792640686
1761379841872856000,3.02985595703125,1.623582363128662,0.4824022352695465,0.36904340982437134
1761379841882939400,3.039939453125,1.4841089248657227,0.2883951961994171,0.3478683531284332
1761379841893021400,3.050021484375,1.3500778675079346,0.12525323033332825,0.3118436932563782
1761379841903104300,3.060104248046875,1.209525465965271,0.03379601612687111,0.2692547142505646
1761379841913187300,3.070187255859375,1.0533944368362427,0.001801876351237297,0.21091380715370178
1761379841923270100,3.080270263671875,0.9080320596694946,0.05198488384485245,0.13069114089012146
1761379841933353200,3.090353271484375,0.7782358527183533,0.19856922328472137,0.03460633009672165
1761379841943436000,3.10043603515625,0.6636442542076111,0.41718360781669617,-0.05051948130130768
1761379841953519400,3.110519287109375,0.5598374009132385,0.6279245018959045,-0.12688715755939484
1761379841963601400,3.120601318359375,0.4678003787994385,0.7816144227981567,-0.18456801772117615
1761379841973684200,3.130684326171875,0.3929952383041382,0.8865217566490173,-0.22094658017158508
1761379841983767300,3.140767333984375,0.3574526906013489,0.9334138631820679,-0.25698208808898926
1761379841993850000,3.15085009765625,0.3634003698825836,0.9149640202522278,-0.31807565689086914
1761379842003933200,3.16093310546875,0.3782256543636322,0.8228314518928528,-0.39451131224632263
1761379842014016300,3.171016357421875,0.3719935715198517,0.6783941984176636,-0.46638792753219604
1761379842024099300,3.181099365234375,0.34035736322402954,0.5296941995620728,-0.5333038568496704
1761379842034181400,3.191181396484375,0.2992675304412842,0.4125102460384369,-0.5876736044883728
1761379842044264200,3.20126416015625,0.2803148627281189,0.32459449768066406,-0.6119219660758972
1761379842054347300,3.21134716796875,0.2813749313354492,0.3158097267150879,-0.578843355178833
1761379842064430300,3.221430419921875,0.3274838328361511,0.38737207651138306,-0.49907925724983215
1761379842074513200,3.23151318359375,0.4073322117328644,0.506996214389801,-0.3912341892719269
1761379842084596200,3.24159619140625,0.5198529362678528,0.6378756761550903,-0.2655196785926819
1761379842094679300,3.25167919921875,0.6175926923751831,0.7413911819458008,-0.1498364806175232
1761379842104761300,3.26176123046875,0.6765755414962769,0.7703884840011597,-0.09190685302019119
1761379842114844400,3.271844482421875,0.6979658007621765,0.7391242980957031,-0.09112255275249481
1761379842124927200,3.28192724609375,0.6985743045806885,0.6929038166999817,-0.11161770671606064
1761379842135010300,3.29201025390625,0.6827853918075562,0.6180737018585205,-0.1389872282743454
1761379842145093000,3.302093017578125,0.6843569278717041,0.4978405237197876,-0.1532958596944809
1761379842155176200,3.31217626953125,0.7111314535140991,0.35601064562797546,-0.1404450386762619
1761379842165259300,3.32225927734375,0.7486279606819153,0.21717418730258942,-0.11133163422346115
1761379842175341300,3.33234130859375,0.7943115830421448,0.09413670003414154,-0.07023566961288452
1761379842185424400,3.34242431640625,0.8333202004432678,0.007712601684033871,-0.019777825102210045
1761379842195507200,3.352507080078125,0.8449167609214783,-0.04000888019800186,0.03146209567785263
1761379842205590300,3.36259033203125,0.8265779614448547,-0.04001021012663841,0.06784939765930176
1761379842215673000,3.372673095703125,0.8109295964241028,-0.0028860578313469887,0.08622083067893982
1761379842225756200,3.382756103515625,0.8041616678237915,0.06038159504532814,0.10159259289503098
1761379842235839500,3.392839599609375,0.8059625625610352,0.1086992546916008,0.11774083971977234
1761379842245921300,3.40292138671875,0.816809892654419,0.15043258666992188,0.12368155270814896
1761379842256004400,3.41300439453125,0.8322092890739441,0.1923440843820572,0.11637720465660095
1761379842266087200,3.423087158203125,0.8455285429954529,0.23681515455245972,0.0793297067284584
1761379842276170200,3.433170166015625,0.8587754964828491,0.1984715312719345,0.015793172642588615
1761379842286253300,3.44325341796875,0.8771113753318787,0.11235661804676056,-0.012225945480167866
1761379842296336100,3.453336181640625,0.9070523381233215,0.03980472683906555,0.015959035605192184
1761379842306419500,3.46341943359375,0.9569040536880493,0.013550219126045704,0.09398087114095688
1761379842316501200,3.473501220703125,1.0106534957885742,0.008102777414023876,0.19120916724205017
1761379842326584300,3.483584228515625,1.0579324960708618,0.03642256557941437,0.27250826358795166
1761379842336667400,3.49366748046875,1.091849446296692,0.0782478004693985,0.31611374020576477
1761379842346750200,3.503750244140625,1.1054861545562744,0.12352632731199265,0.307208389043808
1761379842356833300,3.513833251953125,1.109031319618225,0.15486082434654236,0.23828712105751038
1761379842366916000,3.523916015625,1.115896224975586,0.157484233379364,0.1454494595527649
1761379842376994300,3.533994384765625,1.1318109035491943,0.11134320497512817,0.08703236281871796
1761379842387077600,3.54407763671875,1.1740528345108032,0.06460020691156387,0.13540814816951752
1761379842397160400,3.554160400390625,1.216589093208313,0.05995846539735794,0.25803905725479126
1761379842407243500,3.564243408203125,1.267891764640808,0.09510073810815811,0.40181592106819153
1761379842417326300,3.574326416015625,1.2938910722732544,0.17652083933353424,0.5172867178916931
1761379842427409400,3.584409423828125,1.2765227556228638,0.27347585558891296,0.5556522011756897
1761379842437492500,3.594492431640625,1.238458275794983,0.40050357580184937,0.4918418824672699
1761379842447574300,3.60457421875,1.201467752456665,0.5158857703208923,0.3334061801433563
1761379842457657600,3.61465771484375,1.1925327777862549,0.6107284426689148,0.14794263243675232
1761379842467740400,3.624740478515625,1.1984964609146118,0.6716192364692688,0.0066534182988107204
1761379842477823500,3.634823486328125,1.2195974588394165,0.6819959878921509,-0.05740589275956154
1761379842487906600,3.644906494140625,1.2552073001861572,0.6116940975189209,-0.04363974556326866
1761379842497989400,3.6549892578125,1.2811185121536255,0.48800140619277954,0.010455803014338017
1761379842508071400,3.665071533203125,1.3123708963394165,0.3394923806190491,0.07342438399791718
1761379842518154500,3.675154541015625,1.3426917791366577,0.19663457572460175,0.13369064033031464
1761379842528237600,3.685237548828125,1.3586523532867432,0.0760921835899353,0.19973064959049225
1761379842538320600,3.695320556640625,1.3676085472106934,0.001993807964026928,0.2756718695163727
1761379842548403500,3.705403564453125,1.3596289157867432,0.007905492559075356,0.37513986229896545
1761379842558486500,3.715486572265625,1.346743106842041,0.06757145375013351,0.45839959383010864
1761379842568569300,3.7255693359375,1.3024368286132812,0.12497082352638245,0.47227174043655396
1761379842578651400,3.7356513671875,1.229051113128662,0.14758947491645813,0.3527889847755432
1761379842588734500,3.745734375,1.145591139793396,0.1403491348028183,0.07874225825071335
1761379842598817300,3.7558173828125,1.0718586444854736,0.13116168975830078,-0.26678740978240967
1761379842608900600,3.765900634765625,1.007994532585144,0.131744384765625,-0.5544354319572449
1761379842618983400,3.7759833984375,0.9282262325286865,0.15777140855789185,-0.7232826352119446
1761379842629066500,3.78606640625,0.8256897330284119,0.25769108533859253,-0.7817891240119934
1761379842639148500,3.7961484375,0.7332352995872498,0.3977915644645691,-0.7589372992515564
1761379842649231400,3.8062314453125,0.6396944522857666,0.5720869302749634,-0.6989666223526001
1761379842659314400,3.816314453125,0.5371161699295044,0.6826950311660767,-0.6773416996002197
1761379842669397200,3.826397216796875,0.4490984082221985,0.6889116168022156,-0.6948690414428711
1761379842679480600,3.83648046875,0.3846677541732788,0.6590513586997986,-0.7288089394569397
1761379842689563400,3.8465634765625,0.33089694380760193,0.632038950920105,-0.7763450741767883
1761379842699645400,3.8566455078125,0.2944532036781311,0.6026217341423035,-0.8181638121604919
1761379842709728500,3.866728515625,0.2901769280433655,0.5955697298049927,-0.8480218648910522
1761379842719811300,3.876811279296875,0.32323914766311646,0.6277956366539001,-0.8597326278686523
1761379842729894400,3.886894287109375,0.3923740088939667,0.6902307868003845,-0.8616016507148743
1761379842739977500,3.8969775390625,0.4971086084842682,0.8011782169342041,-0.8296079635620117
1761379842750060500,3.907060546875,0.6043367981910706,0.9221882820129395,-0.7555880546569824
1761379842760143600,3.9171435546875,0.6336566209793091,1.0198390483856201,-0.6438844203948975
1761379842770225400,3.927225341796875,0.6197612881660461,1.0216960906982422,-0.5206186771392822
1761379842780308500,3.93730859375,0.592513918876648,0.9529985785484314,-0.3475003242492676
1761379842790391600,3.9473916015625,0.5732747316360474,0.7851775884628296,-0.09731099754571915
1761379842800474400,3.957474365234375,0.6007577180862427,0.5177666544914246,0.19888171553611755
1761379842810557400,3.967557373046875,0.731260359287262,0.14044761657714844,0.514127790927887
1761379842820640500,3.977640625,0.8508932590484619,-0.21720775961875916,0.806389570236206
1761379842830722600,3.98772265625,0.8868488669395447,-0.42578867077827454,1.012876272201538
1761379842840805600,3.9978056640625,0.8760414719581604,-0.4104182720184326,1.1085299253463745
1761379842850888400,4.007888427734375,0.8611916899681091,-0.2421589493751526,1.0971100330352783
1761379842860971500,4.017971435546875,0.8642504811286926,0.0019086175598204136,1.0712831020355225
1761379842871054300,4.028054443359375,0.934837281703949,0.27837324142456055,1.0774224996566772
1761379842881137400,4.038137451171875,1.0078980922698975,0.41211041808128357,1.062991738319397
1761379842891219500,4.048219482421875,1.004275918006897,0.5149055123329163,1.0338435173034668
1761379842901302500,4.058302490234375,0.9382002353668213,0.7075909376144409,0.9919848442077637
1761379842911385600,4.068385498046875,0.8545388579368591,0.774684488773346,0.8724669814109802
1761379842921468400,4.078468505859375,0.8068963885307312,0.740779459476471,0.6828287243843079
1761379842931551500,4.088551513671875,0.7598825693130493,0.646484375,0.4546123445034027
1761379842941633500,4.098633544921875,0.7012327313423157,0.44361603260040283,0.20558038353919983
1761379842951716400,4.10871630859375,0.6126046180725098,0.15537838637828827,-0.015783965587615967
1761379842961799400,4.11879931640625,0.47514525055885315,-0.13746245205402374,-0.23516103625297546
1761379842971882500,4.128882568359375,0.34939584136009216,-0.3339235782623291,-0.46726855635643005
1761379842981965600,4.138965576171875,0.2898228168487549,-0.3675251305103302,-0.6465076804161072
1761379842992048400,4.14904833984375,0.31764885783195496,-0.19648334383964539,-0.7080509662628174
1761379843002131500,4.15913134765625,0.41881921887397766,0.06491740047931671,-0.6057575941085815
1761379843012213500,4.169213623046875,0.5508140325546265,0.25486522912979126,-0.35583990812301636
1761379843022296300,4.17929638671875,0.6525323390960693,0.3164311647415161,-0.11150702834129333
1761379843032379400,4.18937939453125,0.6508880853652954,0.21158519387245178,-0.03818408027291298
1761379843042462500,4.19946240234375,0.4998150169849396,-0.051216840744018555,-0.22199119627475739
1761379843052545500,4.209545654296875,0.246304452419281,-0.3213106393814087,-0.5980023741722107
1761379843062627600,4.219627685546875,0.04704001173377037,-0.42906203866004944,-0.9986605644226074
1761379843072710400,4.22971044921875,-0.10788645595312119,-0.41650843620300293,-1.2921881675720215
1761379843082793500,4.23979345703125,-0.2477518618106842,-0.20586900413036346,-1.4281368255615234
1761379843092876500,4.24987646484375,-0.27722933888435364,0.23027129471302032,-1.3666126728057861
1761379843102959400,4.25995947265625,-0.20862790942192078,0.7764505743980408,-1.1383353471755981
1761379843113042400,4.27004248046875,-0.12350235134363174,1.2954477071762085,-0.8348010778427124
1761379843123124500,4.28012451171875,-0.06179366633296013,1.5480786561965942,-0.5488072037696838
1761379843133207600,4.29020751953125,-0.0957428440451622,1.323108196258545,-0.3028712272644043
1761379843143290600,4.30029052734375,-0.2055950164794922,0.7404054403305054,-0.13169224560260773
1761379843153373400,4.31037353515625,-0.2774992883205414,0.15070781111717224,-0.06859663128852844
1761379843163456500,4.32045654296875,-0.27489086985588074,-0.19668911397457123,-0.039787303656339645
1761379843173539300,4.330539306640625,-0.25277572870254517,-0.2679758369922638,0.04291503503918648
1761379843183621400,4.340621337890625,-0.2710477113723755,-0.05503363162279129,0.10660135746002197
1761379843193704400,4.350704345703125,-0.28497764468193054,0.39411649107933044,0.06847714632749557
1761379843203787500,4.36078759765625,-0.20629608631134033,1.04961097240448,0.02427428588271141
1761379843213870600,4.37087060546875,-0.09814617782831192,1.6214526891708374,0.0037588905543088913
1761379843223953400,4.380953369140625,0.017721351236104965,2.0599007606506348,-0.002615431323647499
1761379843234036500,4.391036376953125,0.19117861986160278,2.286546230316162,0.015135602094233036
1761379843244118500,4.401118408203125,0.3481505513191223,2.167263984680176,0.06321606785058975
1761379843254201300,4.411201416015625,0.4247126877307892,1.7287237644195557,0.1019381657242775
1761379843264284400,4.421284423828125,0.37897229194641113,1.2389365434646606,0.12791676819324493
1761379843274367500,4.431367431640625,0.30155128240585327,0.7676146626472473,0.12597718834877014
1761379843284450600,4.441450439453125,0.2528531849384308,0.44408729672431946,0.122805655002594
1761379843294532600,4.45153271484375,0.25067073106765747,0.2808011472225189,0.15038003027439117
1761379843304615400,4.461615478515625,0.2526400685310364,0.19958826899528503,0.2391888052225113
1761379843314698500,4.471698486328125,0.22888070344924927,0.11294659227132797,0.2900136411190033
1761379843324781300,4.48178125,0.24077863991260529,-0.10132548958063126,0.19397684931755066
1761379843334864400,4.491864501953125,0.29124099016189575,-0.28832945227622986,0.0019727819599211216
1761379843344947500,4.501947509765625,0.2829475700855255,-0.3616819679737091,-0.2123638242483139
1761379843355029500,4.512029541015625,0.2282417267560959,-0.3389343023300171,-0.34711018204689026
1761379843365112600,4.522112548828125,0.2444002777338028,-0.2150222361087799,-0.3937782645225525
1761379843375196200,4.532196044921875,0.39632534980773926,-0.18619272112846375,-0.38404548168182373
1761379843385279200,4.542279296875,0.5274209380149841,-0.19432953000068665,-0.37191349267959595
1761379843395362000,4.552362060546875,0.6659537553787231,-0.2319304347038269,-0.3810880780220032
1761379843405444000,4.562444091796875,0.8307316303253174,-0.17192621529102325,-0.4374023973941803
1761379843415527200,4.572527099609375,0.940973699092865,-0.08174972236156464,-0.5843976736068726
1761379843425610000,4.58260986328125,0.9319491386413574,0.04745478555560112,-0.7738991975784302
1761379843435693000,4.592693115234375,0.7391162514686584,0.11058422178030014,-0.9503365159034729
1761379843445776100,4.602776123046875,0.4213394522666931,0.17110733687877655,-1.1204805374145508
1761379843455859200,4.612859130859375,-0.02525905892252922,0.345933735370636,-1.1983356475830078
1761379843465941200,4.622941162109375,-0.29643529653549194,0.012921376153826714,-1.2731363773345947
1761379843476024000,4.633024169921875,-0.22121882438659668,-0.4962121844291687,-1.2662568092346191
1761379843486107100,4.643107177734375,0.002693651244044304,-0.7563928365707397,-1.0785185098648071
1761379843496190000,4.65318994140625,0.3133721649646759,-0.6848424673080444,-0.7672953605651855
1761379843506273000,4.66327294921875,0.6033608913421631,-0.48298633098602295,-0.3382856249809265
1761379843516355000,4.67335498046875,0.699610710144043,-0.26341506838798523,0.019828839227557182
1761379843526438100,4.683438232421875,0.5786202549934387,-0.12450126558542252,0.23494446277618408
1761379843536521200,4.693521240234375,0.37497419118881226,0.06783435493707657,0.37195396423339844
1761379843546604000,4.70360400390625,0.13070765137672424,0.5261232852935791,0.5993695259094238
1761379843556687000,4.71368701171875,-0.046735040843486786,1.1206157207489014,0.948352575302124
1761379843566770200,4.723770263671875,0.11232870072126389,1.0215214490890503,1.2568737268447876
1761379843576852000,4.73385205078125,0.34582987427711487,0.5938006639480591,1.733077049255371
1761379843586935000,4.74393505859375,0.5960181355476379,-0.10886454582214355,2.3803935050964355
1761379843597018400,4.754018310546875,0.7563425898551941,-0.45521849393844604,3.157409191131592
1761379843607101200,4.76410107421875,0.7231917381286621,-0.054614730179309845,3.7440438270568848
1761379843617184300,4.774184326171875,0.597154974937439,0.6635372638702393,3.8726696968078613
1761379843627266000,4.78426611328125,0.07784920185804367,1.1179401874542236,3.3753609657287598
1761379843637349000,4.79434912109375,-0.7294798493385315,1.0214309692382812,2.371046304702759
1761379843647432200,4.80443212890625,-1.1402568817138672,0.015210679732263088,1.2503467798233032
1761379843657515000,4.814514892578125,-1.3797979354858398,-1.1826955080032349,0.7439647316932678
1761379843667598300,4.824598388671875,-1.4993209838867188,-1.6284695863723755,1.0797818899154663
1761379843677681200,4.83468115234375,-1.341782569885254,-1.1314595937728882,1.8468260765075684
1761379843687763200,4.84476318359375,-1.1187076568603516,-0.40161603689193726,2.22175669670105
1761379843697846300,4.85484619140625,-1.1321395635604858,0.07859693467617035,1.8761590719223022
1761379843707929000,4.86492919921875,-1.3575389385223389,0.3317168056964874,1.0288573503494263
1761379843718012200,4.87501220703125,-1.4688034057617188,0.3263281583786011,0.05211978778243065
1761379843728095000,4.885094970703125,-1.3577311038970947,0.11597602814435959,-0.5320817828178406
1761379843738177000,4.895177001953125,-1.1314064264297485,-0.047843530774116516,-0.585408627986908
1761379843748260000,4.905260009765625,-0.751754105091095,0.03525552898645401,-0.4132436513900757
1761379843758343200,4.91534326171875,-0.26326701045036316,0.18378721177577972,-0.2933183014392853
1761379843768426200,4.92542626953125,0.062237448990345,0.10332556068897247,-0.33936113119125366
1761379843778509000,4.935509033203125,0.010138563811779022,-0.1957135945558548,-0.686324417591095
1761379843788591000,4.945591064453125,-0.2062985599040985,-0.5047426223754883,-1.1509284973144531
1761379843798674200,4.955674072265625,-0.32306674122810364,-0.7114430665969849,-1.3959441184997559
1761379843808757000,4.965757080078125,-0.21258509159088135,-0.7079700827598572,-1.211625576019287
1761379843818840000,4.975840087890625,0.07915116101503372,-0.531586229801178,-0.5953181982040405
1761379843828923100,4.985923095703125,0.46036943793296814,-0.35508957505226135,0.20299789309501648
1761379843839005200,4.996005126953125,0.7053794264793396,-0.4228678047657013,0.847137987613678
1761379843849088300,5.006088134765625,0.6962524652481079,-0.8147268891334534,1.0110743045806885
1761379843859171000,5.016171142578125,0.5283505916595459,-1.2218378782272339,0.6957634687423706
1761379843869254100,5.026254150390625,0.3601534366607666,-1.3432588577270508,0.21069854497909546
1761379843879337000,5.0363369140625,0.2979057729244232,-1.1366881132125854,-0.0031559602357447147
1761379843889420000,5.046419921875,0.31089848279953003,-0.8557603359222412,0.10029087215662003
1761379843899502000,5.056502197265625,0.3665734529495239,-0.5353713631629944,0.37281960248947144
1761379843909585200,5.066585205078125,0.42090779542922974,-0.26994213461875916,0.5873260498046875
1761379843919668200,5.076668212890625,0.4172598123550415,-0.16874919831752777,0.6109493374824524
1761379843929751000,5.0867509765625,0.34627565741539,-0.18830758333206177,0.45977282524108887
1761379843939834000,5.096834228515625,0.22843316197395325,-0.2422643005847931,0.22004519402980804
1761379843949916200,5.106916259765625,0.08817262202501297,-0.30484437942504883,0.010468069463968277
1761379843959999000,5.1169990234375,-0.058029595762491226,-0.4070546329021454,-0.14668719470500946
1761379843970082000,5.12708203125,-0.18302732706069946,-0.4953840970993042,-0.24326801300048828
1761379843980165000,5.1371650390625,-0.25086602568626404,-0.49712395668029785,-0.3159363567829132
1761379843990248200,5.147248291015625,-0.2815288007259369,-0.4365154802799225,-0.44584783911705017
1761379844000330200,5.157330322265625,-0.31033727526664734,-0.33498114347457886,-0.6623849272727966
1761379844010413000,5.1674130859375,-0.37243735790252686,-0.21599143743515015,-0.9105423092842102
1761379844020496100,5.17749609375,-0.5215762853622437,-0.12168198823928833,-1.1134475469589233
1761379844030579200,5.1875791015625,-0.7090823650360107,-0.1856335997581482,-1.2600774765014648
1761379844040662000,5.197662109375,-0.8593893051147461,-0.31114065647125244,-1.3321844339370728
1761379844050744000,5.207744140625,-0.9358929395675659,-0.390703022480011,-1.3025095462799072
1761379844060827100,5.2178271484375,-0.96263188123703,-0.4150424599647522,-1.1899456977844238
1761379844070910200,5.22791015625,-0.9748893976211548,-0.4832005202770233,-1.0159639120101929
1761379844080993300,5.2379931640625,-0.9885205030441284,-0.4400583505630493,-0.7895672917366028
1761379844091076000,5.248076171875,-1.0296707153320312,-0.39874640107154846,-0.6188231706619263
1761379844101158100,5.258158203125,-1.1036053895950317,-0.3902583718299866,-0.5327476263046265
1761379844111241200,5.2682412109375,-1.2007167339324951,-0.3593275547027588,-0.48026150465011597
1761379844121324000,5.278323974609375,-1.2968727350234985,-0.35885778069496155,-0.43311744928359985
1761379844131407000,5.288406982421875,-1.372959017753601,-0.4293003976345062,-0.41149818897247314
1761379844141490200,5.298490234375,-1.408227562904358,-0.5433912873268127,-0.44278740882873535
1761379844151572200,5.308572265625,-1.404150366783142,-0.6602658033370972,-0.511758029460907
1761379844161655300,5.3186552734375,-1.381941795349121,-0.7866756319999695,-0.5926206111907959
1761379844171738000,5.328738037109375,-1.4011356830596924,-0.7750009894371033,-0.6455650329589844
1761379844181821200,5.3388212890625,-1.4372303485870361,-0.55564284324646,-0.726515531539917
1761379844191904000,5.348904052734375,-1.4594231843948364,-0.2837987244129181,-0.8832980394363403
1761379844201986000,5.358986083984375,-1.453633427619934,-0.02969694510102272,-1.0157673358917236
1761379844212069000,5.369069091796875,-1.3931394815444946,0.19777408242225647,-1.0201557874679565
1761379844222152200,5.379152099609375,-1.293131947517395,0.3454708755016327,-0.9272310137748718
1761379844232235300,5.3892353515625,-1.2068511247634888,0.4588979184627533,-0.7745921611785889
1761379844242318000,5.399318115234375,-1.1352754831314087,0.4568036198616028,-0.5944910645484924
1761379844252400000,5.409400146484375,-1.0583972930908203,0.2399219274520874,-0.42102938890457153
1761379844262483200,5.419483154296875,-1.0299118757247925,-0.012650657445192337,-0.25839173793792725
1761379844272566000,5.42956591796875,-1.0745539665222168,-0.1800181120634079,-0.11442799121141434
1761379844282649000,5.439649169921875,-1.1675443649291992,-0.20445048809051514,0.01938946358859539
1761379844292732200,5.449732177734375,-1.2166694402694702,-0.06899812817573547,0.16219286620616913
1761379844302814200,5.459814208984375,-1.1960879564285278,0.11984715610742569,0.2923082411289215
1761379844312897300,5.469897216796875,-1.1236969232559204,0.2094537317752838,0.3821928799152374
1761379844322980000,5.47997998046875,-0.9975385069847107,0.16086329519748688,0.43413782119750977
1761379844333063200,5.490063232421875,-0.8558936715126038,0.0358491912484169,0.4592890739440918
1761379844343146000,5.50014599609375,-0.7978010773658752,-0.14117646217346191,0.4712711572647095
1761379844353228000,5.51022802734375,-0.8147394061088562,-0.3285491466522217,0.4853946566581726
1761379844363311000,5.52031103515625,-0.846588134765625,-0.45583227276802063,0.5048559904098511
1761379844373397000,5.53039697265625,-0.880283772945404,-0.521180272102356,0.5155033469200134
1761379844383480000,5.54047998046875,-0.9287461042404175,-0.5213139653205872,0.5341188311576843
1761379844393562000,5.55056201171875,-0.9648087024688721,-0.46357300877571106,0.533254086971283
1761379844403645000,5.56064501953125,-0.9582511782646179,-0.3698875308036804,0.4991709589958191
1761379844413728000,5.57072802734375,-0.9135726690292358,-0.2642512023448944,0.4200659692287445
1761379844423811000,5.58081103515625,-0.8623177409172058,-0.2172357439994812,0.3405407965183258
1761379844433894000,5.590893798828125,-0.81141197681427,-0.20504730939865112,0.32379621267318726
1761379844443976000,5.600975830078125,-0.7657999992370605,-0.1633336842060089,0.38176843523979187
1761379844454059000,5.61105908203125,-0.7142344117164612,-0.1732015609741211,0.473520427942276
1761379844464142000,5.62114208984375,-0.680408775806427,-0.19633564352989197,0.5593956708908081
1761379844474225200,5.63122509765625,-0.697629451751709,-0.15827018022537231,0.5804652571678162
1761379844484308000,5.641307861328125,-0.7109836339950562,-0.10514144599437714,0.5418230295181274
1761379844494390000,5.65139013671875,-0.7055398225784302,-0.03621039167046547,0.4778314232826233
1761379844504473000,5.66147314453125,-0.7264887690544128,0.07730711996555328,0.4089476764202118
1761379844514556000,5.671555908203125,-0.751495361328125,0.1117737889289856,0.374991238117218
1761379844524639000,5.681638916015625,-0.7572264671325684,0.10804776102304459,0.3888862729072571
1761379844534721800,5.6917216796875,-0.7000480890274048,0.03912750631570816,0.3754372298717499
1761379844544803800,5.701803955078125,-0.6299180388450623,-0.07596898823976517,0.30748239159584045
1761379844554887200,5.71188720703125,-0.5992407202720642,-0.2543241083621979,0.17919455468654633
1761379844564970000,5.721969970703125,-0.6092246174812317,-0.37152743339538574,0.026807941496372223
1761379844575053000,5.732052978515625,-0.6154390573501587,-0.3322969675064087,-0.08869478106498718
1761379844585135000,5.742135009765625,-0.5977282524108887,-0.21204699575901031,-0.1346055418252945
1761379844595218000,5.752218017578125,-0.5504245758056641,-0.02650681883096695,-0.10443304479122162
1761379844605301000,5.762301025390625,-0.4784598648548126,0.1806010901927948,0.00581809226423502
1761379844615383800,5.7723837890625,-0.370322585105896,0.33618274331092834,0.13378673791885376
1761379844625467100,5.782467041015625,-0.2766038179397583,0.36741843819618225,0.21073079109191895
1761379844635549200,5.792549072265625,-0.21125777065753937,0.25682586431503296,0.2658289968967438
1761379844645632000,5.802632080078125,-0.17427685856819153,0.0626840889453888,0.3065343499183655
1761379844655715000,5.812715087890625,-0.16808141767978668,-0.13919669389724731,0.3409025967121124
1761379844665798000,5.8227978515625,-0.18324971199035645,-0.30386286973953247,0.35487592220306396
1761379844675881000,5.832880859375,-0.20919378101825714,-0.43106183409690857,0.35711103677749634
1761379844685963000,5.842962890625,-0.2478058934211731,-0.5102527737617493,0.35371923446655273
1761379844696045800,5.8530458984375,-0.2982722222805023,-0.5035122036933899,0.35343894362449646
1761379844706129200,5.863129150390625,-0.3509727418422699,-0.4262610971927643,0.35059496760368347
1761379844716212000,5.8732119140625,-0.41196590662002563,-0.33106401562690735,0.3184862732887268
1761379844726294000,5.8832939453125,-0.48143845796585083,-0.1665823608636856,0.2887137234210968
1761379844736377000,5.893377197265625,-0.5162129998207092,-0.12169697880744934,0.21187521517276764
1761379844746460000,5.9034599609375,-0.5568158030509949,-0.04057202488183975,0.155602365732193
1761379844756543000,5.91354296875,-0.6055870652198792,0.008830192498862743,0.13676850497722626
1761379844766625800,5.923625732421875,-0.6305773854255676,0.0232730470597744,0.14984916150569916
1761379844776707800,5.933707763671875,-0.6417281627655029,0.013987956568598747,0.1942041963338852
1761379844786791000,5.943791015625,-0.6428599953651428,-0.020545784384012222,0.2447270303964615
1761379844796874000,5.9538740234375,-0.6522086262702942,-0.08509869873523712,0.2752038836479187
1761379844806957000,5.96395703125,-0.6754758954048157,-0.18152935802936554,0.26507294178009033
1761379844817040000,5.974039794921875,-0.7090185880661011,-0.25097522139549255,0.24057471752166748
1761379844827122000,5.984121826171875,-0.753715991973877,-0.2657794654369354,0.19499711692333221
1761379844837205000,5.994205078125,-0.7847056984901428,-0.24209891259670258,0.15377430617809296
1761379844847287800,6.004287841796875,-0.7835155725479126,-0.22271031141281128,0.1269296407699585
1761379844857371000,6.014370849609375,-0.782172679901123,-0.21243508160114288,0.11326929926872253
1761379844867453000,6.024452880859375,-0.774933397769928,-0.20075631141662598,0.09973326325416565
1761379844877536000,6.034535888671875,-0.770176351070404,-0.1792033314704895,0.09721852838993073
1761379844887619000,6.044619140625,-0.7861590385437012,-0.1754903495311737,0.09564486145973206
1761379844897702000,6.054701904296875,-0.8359107971191406,-0.19318588078022003,0.10363075137138367
1761379844907785000,6.064784912109375,-0.9090217351913452,-0.2798616588115692,0.10355377197265625
1761379844917867000,6.074866943359375,-0.9818841218948364,-0.3326984643936157,0.13445046544075012
1761379844927949800,6.08494970703125,-1.0204190015792847,-0.3505150079727173,0.16635645925998688
1761379844938033000,6.095032958984375,-1.0262342691421509,-0.3515688180923462,0.21436713635921478
1761379844948116000,6.105115966796875,-1.025498628616333,-0.3526645004749298,0.25050726532936096
1761379844958198000,6.115197998046875,-1.0405030250549316,-0.3605023920536041,0.2670574188232422
1761379844968281000,6.125281005859375,-1.0675480365753174,-0.3494875729084015,0.25953611731529236
1761379844978364000,6.135364013671875,-1.1043055057525635,-0.3220371901988983,0.23554354906082153
1761379844988447000,6.145447021484375,-1.1583303213119507,-0.2841784954071045,0.20073071122169495
1761379844998529000,6.155529052734375,-1.2155627012252808,-0.23118610680103302,0.16149765253067017
1761379845008611800,6.16561181640625,-1.264742136001587,-0.2127583622932434,0.11493707448244095
1761379845018695000,6.17569482421875,-1.2907153367996216,-0.22584068775177002,0.07172273099422455
1761379845028778000,6.185778076171875,-1.3012430667877197,-0.2578763961791992,0.04946909472346306
1761379845038861000,6.195861083984375,-1.3078608512878418,-0.28198471665382385,0.06293471157550812
1761379845048943000,6.205943115234375,-1.3238965272903442,-0.3127106726169586,0.12443030625581741
1761379845059026000,6.21602587890625,-1.3385252952575684,-0.3644484877586365,0.21064934134483337
1761379845069109000,6.22610888671875,-1.3468517065048218,-0.4281955063343048,0.3082669973373413
1761379845079191800,6.23619189453125,-1.3482463359832764,-0.5319506525993347,0.38913002610206604
1761379845089273900,6.24627392578125,-1.3496311902999878,-0.6626961827278137,0.4257809817790985
1761379845099357000,6.25635693359375,-1.3443211317062378,-0.7699748873710632,0.443009614944458
1761379845109439700,6.266439697265625,-1.3469456434249878,-0.7963026762008667,0.4451878070831299
1761379845119523000,6.276523193359375,-1.3641277551651,-0.7556775808334351,0.43958690762519836
1761379845129606000,6.28660595703125,-1.386762261390686,-0.6959686875343323,0.43137532472610474
1761379845139688000,6.29668798828125,-1.4183450937271118,-0.6462212204933167,0.4401019811630249
1761379845149771000,6.30677099609375,-1.4680306911468506,-0.6227936744689941,0.47896042466163635
1761379845159853800,6.316853759765625,-1.5232359170913696,-0.636767566204071,0.5261421799659729
1761379845169937000,6.32693701171875,-1.5931564569473267,-0.7408478856086731,0.5533524751663208
1761379845180019000,6.33701904296875,-1.6817723512649536,-0.8988502621650696,0.5324530601501465
1761379845190101800,6.347101806640625,-1.7655367851257324,-0.9862794280052185,0.507670521736145
1761379845200185000,6.35718505859375,-1.8314062356948853,-0.959808886051178,0.4892392158508301
1761379845210268000,6.367267822265625,-1.8814741373062134,-0.8948908448219299,0.46902182698249817
1761379845220350000,6.377349853515625,-1.9363067150115967,-0.8653530478477478,0.4002424478530884
1761379845230433000,6.38743310546875,-1.9925775527954102,-0.880280077457428,0.24289119243621826
1761379845240515800,6.397515869140625,-2.0224809646606445,-0.8485504984855652,0.06297234445810318
1761379845250599000,6.407598876953125,-2.01131010055542,-0.7185221910476685,-0.07633495330810547
1761379845260682000,6.417681884765625,-1.963860273361206,-0.5543395280838013,-0.11035022884607315
1761379845270763800,6.427763671875,-1.9012075662612915,-0.45209863781929016,-0.03923956677317619
1761379845280847000,6.43784716796875,-1.8275994062423706,-0.4549277722835541,0.1035025492310524
1761379845290930000,6.447929931640625,-1.7463934421539307,-0.519447922706604,0.281871497631073
1761379845301013000,6.458012939453125,-1.6839667558670044,-0.6432605385780334,0.4560050070285797
1761379845311095000,6.468094970703125,-1.654296636581421,-0.7806450128555298,0.5942584276199341
1761379845321177900,6.478177734375,-1.6326848268508911,-0.9034379124641418,0.6857255697250366
1761379845331261000,6.488260986328125,-1.6271052360534668,-0.992948055267334,0.7597728967666626
1761379845341344000,6.498343994140625,-1.6335562467575073,-1.0415115356445312,0.7866132259368896
1761379845351425800,6.50842578125,-1.6507922410964966,-1.098395586013794,0.7801300287246704
1761379845361508900,6.5185087890625,-1.6712955236434937,-1.1334120035171509,0.7608075141906738
1761379845371592000,6.528592041015625,-1.6855098009109497,-1.1118491888046265,0.7342914938926697
1761379845381671700,6.538671630859375,-1.7070932388305664,-1.0548986196517944,0.6765488386154175
1761379845391754800,6.548754638671875,-1.7586042881011963,-1.016233205795288,0.607780396938324
1761379845401836500,6.55883642578125,-1.8077160120010376,-0.9752455353736877,0.5384641885757446
1761379845411919600,6.568919677734375,-1.8431535959243774,-0.8832916021347046,0.47855404019355774
1761379845422002400,6.57900244140625,-1.8567960262298584,-0.7227905988693237,0.4078723192214966
1761379845432085500,6.58908544921875,-1.8917266130447388,-0.6374093890190125,0.3231707513332367
1761379845442167600,6.59916748046875,-1.9379490613937378,-0.6498867869377136,0.22421801090240479
1761379845452250600,6.609250732421875,-2.0045809745788574,-0.6922667026519775,0.12241840362548828
1761379845462333700,6.619333740234375,-2.0654494762420654,-0.766376793384552,0.005887649022042751
1761379845472416500,6.62941650390625,-2.0758752822875977,-0.7945043444633484,-0.12644270062446594
1761379845482498600,6.63949853515625,-2.0666651725769043,-0.7413724660873413,-0.25607213377952576
1761379845492581600,6.64958154296875,-2.0840892791748047,-0.6539626121520996,-0.38506874442100525
1761379845502664400,6.65966455078125,-2.0994436740875244,-0.5671017169952393,-0.4763627052307129
1761379845512747500,6.66974755859375,-2.0860564708709717,-0.46612104773521423,-0.514333188533783
1761379845522830800,6.679830810546875,-2.0526509284973145,-0.3604016900062561,-0.5043759942054749
1761379845532912600,6.68991259765625,-2.0071868896484375,-0.24717634916305542,-0.46085700392723083
1761379845542995700,6.69999560546875,-1.9215781688690186,-0.165333092212677,-0.3581933081150055
1761379845553078500,6.71007861328125,-1.8405590057373047,-0.1402391791343689,-0.24469628930091858
1761379845563161600,6.72016162109375,-1.822617530822754,-0.1958497166633606,-0.130665585398674
1761379845573243600,6.73024365234375,-1.842486023902893,-0.2790372967720032,-0.020225370302796364
1761379845583326500,6.740326416015625,-1.8514386415481567,-0.39081424474716187,0.07272158563137054
1761379845593409500,6.750409423828125,-1.82414710521698,-0.5197503566741943,0.1579403430223465
1761379845603492900,6.760492919921875,-1.7891944646835327,-0.6437250375747681,0.24135267734527588
1761379845613574700,6.77057470703125,-1.78341543674469,-0.7603747248649597,0.30493807792663574
1761379845623657700,6.78065771484375,-1.8134078979492188,-0.8834593296051025,0.34488868713378906
1761379845633740500,6.790740478515625,-1.8607847690582275,-1.0499974489212036,0.3572215139865875
1761379845643823600,6.80082373046875,-1.8969371318817139,-1.1889084577560425,0.34949132800102234
1761379845653905700,6.81090576171875,-1.9010591506958008,-1.242830514907837,0.35039255023002625
1761379845663988500,6.820988525390625,-1.8915512561798096,-1.1835541725158691,0.37338876724243164
1761379845674071600,6.831071533203125,-1.8878800868988037,-1.0702166557312012,0.38148289918899536
1761379845684154600,6.841154541015625,-1.8730266094207764,-0.9435360431671143,0.3793862462043762
1761379845694236400,6.851236328125,-1.8482693433761597,-0.8435015678405762,0.3725419342517853
1761379845704319700,6.86131982421875,-1.8303966522216797,-0.80948406457901,0.3785289525985718
1761379845714402600,6.871402587890625,-1.8263148069381714,-0.8223031759262085,0.39378035068511963
1761379845724485600,6.881485595703125,-1.8338173627853394,-0.8682905435562134,0.41297370195388794
1761379845734567700,6.891567626953125,-1.8349229097366333,-0.925043523311615,0.42351582646369934
1761379845744650500,6.901650390625,-1.815395474433899,-0.9883272051811218,0.42327427864074707
1761379845754733600,6.911733642578125,-1.7665454149246216,-1.0227930545806885,0.4189349114894867
1761379845764816600,6.921816650390625,-1.7140555381774902,-1.0344489812850952,0.40377482771873474
1761379845774898400,6.9318984375,-1.6736550331115723,-1.026615858078003,0.3754630386829376
1761379845784981800,6.941981689453125,-1.6522455215454102,-0.9287242293357849,0.3668845593929291
1761379845795064600,6.952064697265625,-1.6544139385223389,-0.7276720404624939,0.41286349296569824
1761379845805147600,6.962147705078125,-1.6759378910064697,-0.5687923431396484,0.45029589533805847
1761379845815230700,6.972230712890625,-1.6932895183563232,-0.5076723098754883,0.47581031918525696
1761379845825312500,6.9823125,-1.6969997882843018,-0.47742506861686707,0.48550114035606384
1761379845835395600,6.9923955078125,-1.6653499603271484,-0.46842917799949646,0.4672270715236664
1761379845845478700,7.002478759765625,-1.5949468612670898,-0.473844438791275,0.4292432963848114
1761379845855561700,7.012561767578125,-1.50438392162323,-0.4661897122859955,0.4118858575820923
1761379845865643800,7.022643798828125,-1.4324910640716553,-0.44410455226898193,0.42550620436668396
1761379845875726600,7.0327265625,-1.383011817932129,-0.4233425557613373,0.4501279294490814
1761379845885809700,7.0428095703125,-1.3453339338302612,-0.4094259738922119,0.48093652725219727
1761379845895892700,7.052892822265625,-1.3126168251037598,-0.41235092282295227,0.495717853307724
1761379845905974500,7.062974609375,-1.3089990615844727,-0.38266780972480774,0.5040116906166077
1761379845916057600,7.0730576171875,-1.321164608001709,-0.34435132145881653,0.48903724551200867
1761379845926140700,7.083140625,-1.3296035528182983,-0.3227260410785675,0.43597450852394104
1761379845936223700,7.0932236328125,-1.3099825382232666,-0.3535984754562378,0.3587806522846222
1761379845946305500,7.103305419921875,-1.2510788440704346,-0.42258355021476746,0.2925984859466553
1761379845956388600,7.113388671875,-1.1639130115509033,-0.5280694961547852,0.23270612955093384
1761379845966471700,7.1234716796875,-1.07623291015625,-0.6768509149551392,0.1712024062871933
1761379845976554800,7.1335546875,-1.0082485675811768,-0.8434126973152161,0.08924654871225357
1761379845986636500,7.143636474609375,-0.9717525243759155,-0.9899010062217712,-0.010983572341501713
1761379845996719600,7.1537197265625,-0.9590290188789368,-1.0768526792526245,-0.10686642676591873
1761379846006802400,7.163802490234375,-0.9690978527069092,-1.059196949005127,-0.14481569826602936
1761379846016885500,7.173885498046875,-1.0173118114471436,-0.8340086936950684,-0.06962187588214874
1761379846026967600,7.183967529296875,-1.0865780115127563,-0.5457585453987122,0.07373066246509552
1761379846037050600,7.194050537109375,-1.1492682695388794,-0.33878618478775024,0.22565653920173645
1761379846047133700,7.2041337890625,-1.1728429794311523,-0.2682400643825531,0.33250540494918823
1761379846057216800,7.214216796875,-1.1642544269561768,-0.333518922328949,0.3580845296382904
1761379846067298600,7.224298583984375,-1.1493078470230103,-0.48747196793556213,0.3268204927444458
1761379846077381600,7.234381591796875,-1.1277456283569336,-0.6283134818077087,0.2623315155506134
1761379846087464400,7.24446435546875,-1.122415542602539,-0.7294520735740662,0.1978910118341446
1761379846097547500,7.254547607421875,-1.1370344161987305,-0.7894280552864075,0.14000214636325836
1761379846107629600,7.264629638671875,-1.1512848138809204,-0.8096551895141602,0.07939597964286804
1761379846117712600,7.274712646484375,-1.141600489616394,-0.7764924764633179,0.04297139123082161
1761379846127795700,7.284795654296875,-1.124365210533142,-0.6842738389968872,0.036862827837467194
1761379846137878800,7.294878662109375,-1.095279574394226,-0.5595604181289673,0.05315231904387474
1761379846147960600,7.304960693359375,-1.0500434637069702,-0.49994903802871704,0.06473235040903091
1761379846158043600,7.315043701171875,-0.9838415384292603,-0.5009618401527405,0.08100239932537079
1761379846168126500,7.32512646484375,-0.9087316393852234,-0.49873244762420654,0.10916978120803833
1761379846178209500,7.33520947265625,-0.841522753238678,-0.5226276516914368,0.13789622485637665
1761379846188291600,7.34529150390625,-0.7988990545272827,-0.5847819447517395,0.13802757859230042
1761379846198374700,7.355374755859375,-0.7908922433853149,-0.6457347869873047,0.13170604407787323
1761379846208457700,7.365457763671875,-0.7997292280197144,-0.6570946574211121,0.1244625523686409
1761379846218540500,7.37554052734375,-0.8155782222747803,-0.6672791242599487,0.11293132603168488
1761379846228622600,7.38562255859375,-0.8095353245735168,-0.674286425113678,0.11753680557012558
1761379846238705700,7.39570556640625,-0.7554084658622742,-0.6532115340232849,0.14138568937778473
1761379846248788500,7.40578857421875,-0.6822677850723267,-0.6095817685127258,0.1753232181072235
1761379846258870500,7.41587060546875,-0.617163896560669,-0.5500760674476624,0.21931970119476318
1761379846268953600,7.42595361328125,-0.5774112939834595,-0.49481678009033203,0.2694191038608551
1761379846279036400,7.436036376953125,-0.5741787552833557,-0.5119542479515076,0.29198408126831055
1761379846289119700,7.44611962890625,-0.6135271787643433,-0.5774123072624207,0.2752216160297394
1761379846299201800,7.456201904296875,-0.7028583884239197,-0.6874713897705078,0.23112553358078003
1761379846309284600,7.46628466796875,-0.8397789597511292,-0.8115039467811584,0.16697917878627777
1761379846319367700,7.47636767578125,-0.9774081707000732,-0.9050389528274536,0.09750451147556305
1761379846329450500,7.486450439453125,-1.0621176958084106,-0.9056307077407837,0.05394645035266876
1761379846339532500,7.496532470703125,-1.0916388034820557,-0.8155791163444519,0.0286639966070652
1761379846349615600,7.50661572265625,-1.0845941305160522,-0.6908664107322693,0.018958954140543938
1761379846359698400,7.516698486328125,-1.0356619358062744,-0.5520406365394592,0.01559831015765667
1761379846369781800,7.52678173828125,-0.9728886485099792,-0.4189581573009491,0.008643198758363724
1761379846379863300,7.53686328125,-0.9118247628211975,-0.32356932759284973,-0.001206768094561994
1761379846389946000,7.546946044921875,-0.8710837364196777,-0.29259970784187317,-0.0058657024055719376
1761379846400029200,7.557029296875,-0.8463232517242432,-0.3109976053237915,0.0015445435419678688
1761379846410112300,7.5671123046875,-0.835929274559021,-0.34018346667289734,0.022718634456396103
1761379846420194000,7.577194091796875,-0.830619752407074,-0.3751195967197418,0.05350983887910843
1761379846430277400,7.58727734375,-0.8289802670478821,-0.40189236402511597,0.09762323647737503
1761379846440360200,7.597360107421875,-0.8206326365470886,-0.3986574113368988,0.1419355720281601
1761379846450443300,7.607443359375,-0.8115252256393433,-0.3803757429122925,0.18303129076957703
1761379846460525300,7.617525390625,-0.8083752393722534,-0.35870054364204407,0.20314428210258484
1761379846470608100,7.627608154296875,-0.8037657737731934,-0.3318721055984497,0.22795315086841583
1761379846480691200,7.637691162109375,-0.794832706451416,-0.3117220997810364,0.26241952180862427
1761379846490774300,7.647774169921875,-0.8005021214485168,-0.267225056886673,0.2961987555027008
1761379846500856000,7.65785595703125,-0.8173204660415649,-0.21367156505584717,0.2993234395980835
1761379846510939400,7.667939453125,-0.8448570370674133,-0.17399130761623383,0.27049359679222107
1761379846521022200,7.678022216796875,-0.8722087740898132,-0.11600896716117859,0.22251518070697784
1761379846531104300,7.688104248046875,-0.9024983644485474,-0.08110065013170242,0.15630096197128296
1761379846541187300,7.698187255859375,-0.933236837387085,-0.08200345933437347,0.07040815055370331
1761379846551270100,7.708270263671875,-0.9646602272987366,-0.10435038805007935,-0.021368835121393204
1761379846561353200,7.718353271484375,-0.9918434023857117,-0.14547652006149292,-0.12354660034179688
1761379846571435300,7.728435302734375,-1.0062456130981445,-0.19207529723644257,-0.19775404036045074
1761379846581518000,7.73851806640625,-1.0278902053833008,-0.20869635045528412,-0.22649353742599487
1761379846591601400,7.748601318359375,-1.043559193611145,-0.1726755052804947,-0.19691434502601624
1761379846601684200,7.758684326171875,-1.0462881326675415,-0.1283586323261261,-0.1291494071483612
1761379846611766300,7.768766357421875,-1.0445154905319214,-0.09934175759553909,-0.05490805208683014
1761379846621849300,7.778849365234375,-1.032900094985962,-0.0956500843167305,0.0013797180727124214
1761379846631932200,7.78893212890625,-1.0128203630447388,-0.10286426544189453,0.03598858416080475
1761379846642015200,7.79901513671875,-1.0082978010177612,-0.12959706783294678,0.026935702189803123
1761379846652097300,7.80909716796875,-1.0230644941329956,-0.17281745374202728,0.00013791071251034737
1761379846662180000,7.81918017578125,-1.048197865486145,-0.20632028579711914,-0.01568792387843132
1761379846672263200,7.82926318359375,-1.068024754524231,-0.21765868365764618,-0.014203913509845734
1761379846682345200,7.83934521484375,-1.0687257051467896,-0.24911275506019592,-0.0030876132659614086
1761379846692428300,7.84942822265625,-1.045514464378357,-0.27939409017562866,0.010291623882949352
1761379846702511400,7.859511474609375,-1.0188133716583252,-0.3139161169528961,0.022383442148566246
1761379846712594200,7.86959423828125,-0.9880759119987488,-0.35419145226478577,0.04784394055604935
1761379846722676200,7.87967626953125,-0.954430878162384,-0.37596574425697327,0.09967277944087982
1761379846732759300,7.88975927734375,-0.9215317368507385,-0.3731885552406311,0.18668456375598907
1761379846742842000,7.899842041015625,-0.883092999458313,-0.35991400480270386,0.29240328073501587
1761379846752925200,7.90992529296875,-0.8607068657875061,-0.31171929836273193,0.3904648721218109
1761379846763007200,7.92000732421875,-0.8482277989387512,-0.3187641501426697,0.4252263009548187
1761379846773090300,7.93009033203125,-0.8381367325782776,-0.4355134665966034,0.3791179955005646
1761379846783173400,7.94017333984375,-0.8724917769432068,-0.5970736145973206,0.27317187190055847
1761379846793256200,7.950256103515625,-0.9364318251609802,-0.7372563481330872,0.13449405133724213
1761379846803338200,7.960338134765625,-0.9943140149116516,-0.7004317045211792,0.015004933811724186
1761379846813421300,7.97042138671875,-1.0046055316925049,-0.541223406791687,-0.07456090301275253
1761379846823504100,7.980504150390625,-0.9850030541419983,-0.3761197030544281,-0.14524731040000916
1761379846833586200,7.990586181640625,-0.9576761722564697,-0.30177056789398193,-0.20675939321517944
1761379846843669200,8.000669189453125,-0.9219636917114258,-0.33697324991226196,-0.2621006667613983
1761379846853752300,8.01075244140625,-0.8783332705497742,-0.39023295044898987,-0.29651546478271484
1761379846863835400,8.02083544921875,-0.8311111330986023,-0.4242681562900543,-0.2858412563800812
1761379846873917400,8.03091748046875,-0.7934914231300354,-0.41861972212791443,-0.22655531764030457
1761379846884000300,8.041000244140625,-0.7662238478660583,-0.38532912731170654,-0.12500153481960297
1761379846894083300,8.051083251953125,-0.7305107712745667,-0.37376248836517334,-0.023182302713394165
1761379846904166100,8.061166259765624,-0.689607560634613,-0.3973383605480194,0.06605888903141022
1761379846914248200,8.071248291015625,-0.6570082306861877,-0.3947974443435669,0.15713359415531158
1761379846924331300,8.081331298828125,-0.6229535937309265,-0.3509995937347412,0.25027981400489807
1761379846934414000,8.0914140625,-0.5897195339202881,-0.2892533540725708,0.3262389302253723
1761379846944496000,8.10149609375,-0.585541307926178,-0.24802175164222717,0.3834814429283142
1761379846954579500,8.111579345703126,-0.6261833906173706,-0.24946732819080353,0.4181993901729584
1761379846964662300,8.121662353515624,-0.7059684991836548,-0.32593095302581787,0.4149428606033325
1761379846974745300,8.131745361328125,-0.8028206825256348,-0.4208551049232483,0.39229056239128113
1761379846984827400,8.141827392578126,-0.893741250038147,-0.46806442737579346,0.35408246517181396
1761379846994910200,8.15191015625,-0.964646577835083,-0.47130921483039856,0.2760181725025177
1761379847004993300,8.1619931640625,-1.0278617143630981,-0.46406516432762146,0.1574595868587494
1761379847015076000,8.172076171875,-1.076505422592163,-0.452437162399292,0.002370608039200306
1761379847025158100,8.182158203125,-1.1029882431030273,-0.41831541061401367,-0.1580752581357956
1761379847035241500,8.192241455078126,-1.1111937761306763,-0.3444341719150543,-0.2735688090324402
1761379847045324300,8.20232421875,-1.1057220697402954,-0.2665412425994873,-0.32628127932548523
1761379847055406300,8.21240625,-1.073483943939209,-0.1746947169303894,-0.29038137197494507
1761379847065489400,8.222489501953126,-1.028359293937683,-0.09657888114452362,-0.17058278620243073
1761379847075572200,8.232572265625,-0.9783259630203247,-0.06388427317142487,-0.016780521720647812
1761379847085655300,8.2426552734375,-0.949323832988739,-0.10391131788492203,0.1215302124619484
1761379847095737300,8.2527373046875,-0.9378384351730347,-0.20553600788116455,0.21408125758171082
1761379847105820200,8.262820068359375,-0.9625080823898315,-0.3366519808769226,0.25551044940948486
1761379847115903200,8.2729033203125,-1.012847900390625,-0.4408712685108185,0.2552214562892914
1761379847125986300,8.282986328125,-1.079119324684143,-0.4958972632884979,0.2332458198070526
1761379847136068400,8.293068359375,-1.131013035774231,-0.5108993053436279,0.1882868856191635
1761379847146151400,8.3031513671875,-1.1511478424072266,-0.47176551818847656,0.12840703129768372
1761379847156234200,8.313234130859374,-1.138842225074768,-0.35875633358955383,0.08211155235767365
1761379847166316300,8.32331640625,-1.0919551849365234,-0.22142402827739716,0.03769642487168312
1761379847176399000,8.333399169921876,-1.0292690992355347,-0.11283813416957855,0.0030862484127283096
1761379847186482200,8.343482177734375,-0.9649035930633545,-0.0619904026389122,-0.016380393877625465
1761379847196565200,8.353565185546875,-0.9239771962165833,-0.08204527199268341,-0.023773934692144394
1761379847206647000,8.36364697265625,-0.9005275368690491,-0.17270299792289734,-0.013416901230812073
1761379847216730400,8.37373046875,-0.8810698390007019,-0.28672879934310913,0.003107504453510046
1761379847226813400,8.3838134765625,-0.8530195951461792,-0.36756959557533264,0.041696708649396896
1761379847236895200,8.393895263671874,-0.8180733919143677,-0.3986186981201172,0.08606148511171341
1761379847246978300,8.403978271484375,-0.7715045213699341,-0.36185163259506226,0.11939627677202225
1761379847257061000,8.41406103515625,-0.7147305011749268,-0.283019095659256,0.13709725439548492
1761379847267144200,8.424144287109375,-0.6612374782562256,-0.193211168050766,0.14266060292720795
1761379847277226200,8.434226318359375,-0.6298760175704956,-0.1285044401884079,0.13286092877388
1761379847287309000,8.44430908203125,-0.6155894994735718,-0.10688063502311707,0.1202753558754921
1761379847297392400,8.454392333984375,-0.5837110280990601,-0.1060258075594902,0.10129047930240631
1761379847307474400,8.464474365234375,-0.5360969305038452,-0.10947699844837189,0.08245687186717987
1761379847317557200,8.47455712890625,-0.4937407076358795,-0.14150278270244598,0.06134938448667526
1761379847327640300,8.484640380859375,-0.45456933975219727,-0.18848706781864166,0.04122734069824219
1761379847337723100,8.49472314453125,-0.4225788712501526,-0.24328970909118652,0.017375025898218155
1761379847347805200,8.50480517578125,-0.4114854633808136,-0.25630298256874084,-0.01815047487616539
1761379847357888300,8.51488818359375,-0.4372081458568573,-0.26135167479515076,-0.05504709482192993
1761379847367971000,8.52497119140625,-0.47194215655326843,-0.16950058937072754,-0.07757877558469772
1761379847378054700,8.5350546875,-0.46493104100227356,-0.05338113382458687,-0.07300486415624619
1761379847388136700,8.54513671875,-0.4641880393028259,0.02114902436733246,-0.05857692286372185
1761379847398219500,8.555219482421874,-0.4929046630859375,0.11573588103055954,-0.02471841126680374
1761379847408302600,8.565302490234375,-0.4958392381668091,0.18865828216075897,0.021283701062202454
1761379847418384600,8.575384521484375,-0.45230069756507874,0.25912216305732727,0.08133863657712936
1761379847428467500,8.585467529296874,-0.3807748556137085,0.3562183380126953,0.1433524787425995
1761379847438550500,8.595550537109375,-0.2920885384082794,0.38639482855796814,0.17554490268230438
1761379847448632600,8.605632568359376,-0.2353629469871521,0.2518937587738037,0.13002854585647583
1761379847458715600,8.615715576171874,-0.2391648292541504,-0.019469812512397766,0.005309987813234329
1761379847468798700,8.625798828125,-0.3251396715641022,-0.3075311481952667,-0.15910959243774414
1761379847478881500,8.635881591796876,-0.450621098279953,-0.4954451024532318,-0.3074013888835907
1761379847488963600,8.645963623046875,-0.543986439704895,-0.5129333138465881,-0.38438618183135986
1761379847499046700,8.656046630859375,-0.588897705078125,-0.38243362307548523,-0.39457786083221436
1761379847509129500,8.66612939453125,-0.5635010004043579,-0.22288180887699127,-0.3759455680847168
1761379847519212500,8.676212646484375,-0.4719383120536804,-0.07089333981275558,-0.3289349377155304
1761379847529294600,8.686294677734375,-0.33530744910240173,0.09079019725322723,-0.24262867867946625
1761379847539377700,8.696377685546874,-0.2102721929550171,0.2041315883398056,-0.1353382170200348
1761379847549460700,8.706460693359375,-0.1167699322104454,0.2477451115846634,-0.034433163702487946
1761379847559542500,8.71654248046875,-0.05854269117116928,0.25585365295410156,0.056196436285972595
1761379847569625600,8.72662548828125,-0.01991727203130722,0.2217572033405304,0.12912923097610474
1761379847579708700,8.736708740234375,0.004753460176289082,0.17401787638664246,0.19144077599048615
1761379847589791500,8.74679150390625,0.013142949901521206,0.10060226172208786,0.2302134782075882
1761379847599873500,8.75687353515625,0.025994105264544487,0.03845090791583061,0.2634146511554718
1761379847609956600,8.76695654296875,0.04273207485675812,0.006039971485733986,0.2879945635795593
1761379847620039700,8.777039794921874,0.06977853924036026,-0.029851127415895462,0.29192328453063965
1761379847630121700,8.787121826171875,0.10688222944736481,-0.07612914592027664,0.2916521728038788
1761379847640204500,8.79720458984375,0.13847295939922333,-0.10891124606132507,0.30520322918891907
1761379847650287600,8.80728759765625,0.13890571892261505,-0.11902087926864624,0.3440667390823364
1761379847660369700,8.81736962890625,0.11995240300893784,-0.10900354385375977,0.4041439890861511
1761379847670452500,8.827452392578126,0.09120623767375946,-0.09795675426721573,0.46531304717063904
1761379847680535600,8.83753564453125,0.061056844890117645,-0.08795062452554703,0.490435928106308
1761379847690618600,8.84761865234375,0.033972494304180145,-0.10923247784376144,0.4670930504798889
1761379847700700400,8.857700439453126,-0.01564265787601471,-0.1870139092206955,0.3677363395690918
1761379847710783500,8.867783447265625,-0.07318398356437683,-0.29380694031715393,0.22196714580059052
1761379847720866600,8.877866455078125,-0.14280474185943604,-0.3853878676891327,0.07374975830316544
1761379847730948600,8.887948486328124,-0.19110995531082153,-0.3986024856567383,-0.04205033555626869
1761379847741031700,8.89803173828125,-0.21735256910324097,-0.30809736251831055,-0.11957861483097076
1761379847751114500,8.908114501953126,-0.22486534714698792,-0.14320188760757446,-0.15073440968990326
1761379847761197600,8.918197509765625,-0.22375158965587616,0.04302482679486275,-0.14814116060733795
1761379847771279600,8.928279541015625,-0.22051239013671875,0.20640602707862854,-0.12895387411117554
1761379847781362400,8.938362548828126,-0.20743514597415924,0.2791662812232971,-0.11007057130336761
1761379847791445500,8.948445556640625,-0.18022537231445312,0.3143247961997986,-0.08494124561548233
1761379847801527600,8.958527587890625,-0.15983235836029053,0.3399086892604828,-0.034972600638866425
1761379847811610600,8.968610595703124,-0.18252062797546387,0.3803325295448303,0.1500164270401001
1761379847821693700,8.978693603515625,-0.195855513215065,0.15083864331245422,0.35112351179122925
1761379847831775700,8.988775634765625,-0.14328791201114655,-0.12437322735786438,0.5148455500602722
1761379847841858600,8.998858642578124,-0.09444572031497955,-0.38702651858329773,0.5775716304779053
1761379847851941600,9.008941650390625,-0.0776321217417717,-0.5284209251403809,0.5636033415794373
1761379847862024400,9.0190244140625,-0.07122685760259628,-0.5090453624725342,0.5074893236160278
1761379847872106500,9.0291064453125,-0.07048249989748001,-0.3939421772956848,0.4186398684978485
1761379847882189600,9.039189453125,-0.0902087613940239,-0.24420909583568573,0.305573433637619
1761379847892272400,9.0492724609375,-0.11934294551610947,-0.10007616132497787,0.1588154137134552
1761379847902354400,9.0593544921875,-0.15974357724189758,0.04359767213463783,0.006023108959197998
1761379847912437800,9.069437744140625,-0.2125316858291626,0.12928247451782227,-0.13332146406173706
1761379847922520600,9.0795205078125,-0.24762141704559326,0.13436554372310638,-0.24199730157852173
1761379847932603600,9.089603759765625,-0.28007441759109497,0.013072393834590912,-0.2999469041824341
1761379847942685700,9.099685791015625,-0.32837170362472534,-0.19104155898094177,-0.3355797231197357
1761379847952768500,9.1097685546875,-0.4051479697227478,-0.4282605051994324,-0.35855188965797424
1761379847962851600,9.1198515625,-0.49190381169319153,-0.5707787275314331,-0.2896708846092224
