time,seconds_elapsed,z,y,x
1761380655976980700,0.070980712890625,-0.9719696044921875,-1.1860809326171875,0.3624114990234375
1761380655987036700,0.08103662109375,-0.9729766845703125,-1.29248046875,0.391387939453125
1761380655997092600,0.091092529296875,-0.94134521484375,-1.366668701171875,0.409912109375
1761380656007148800,0.101148681640625,-0.9596099853515625,-1.383575439453125,0.4464111328125
1761380656017204500,0.11120458984375,-1.0881805419921875,-1.3560791015625,0.4990234375
1761380656027259600,0.121259765625,-1.25860595703125,-1.31121826171875,0.5380401611328125
1761380656037315600,0.131315673828125,-1.413482666015625,-1.2836456298828125,0.5364227294921875
1761380656047371500,0.14137158203125,-1.4260406494140625,-1.2887115478515625,0.4825592041015625
1761380656057427700,0.151427734375,-1.3650970458984375,-1.2905120849609375,0.400604248046875
1761380656067483600,0.161483642578125,-1.2606658935546875,-1.2963714599609375,0.346710205078125
1761380656077539600,0.17153955078125,-1.1345672607421875,-1.215667724609375,0.3239288330078125
1761380656087595800,0.181595703125,-1.06927490234375,-1.16571044921875,0.2585601806640625
1761380656097650400,0.191650390625,-0.9391632080078125,-1.13720703125,0.155181884765625
1761380656107706600,0.20170654296875,-0.7776947021484375,-1.054107666015625,0.02984619140625
1761380656117762600,0.211762451171875,-0.642120361328125,-0.999298095703125,-0.07244873046875
1761380656127818500,0.221818603515625,-0.5376129150390625,-0.9519805908203125,-0.1090545654296875
1761380656137874700,0.231874755859375,-0.4777069091796875,-0.889739990234375,-0.1128387451171875
1761380656147930600,0.2419306640625,-0.4647369384765625,-0.78399658203125,-0.1061248779296875
1761380656157986600,0.251986572265625,-0.4019927978515625,-0.67596435546875,-0.124664306640625
1761380656168041700,0.262041748046875,-0.35943603515625,-0.6063079833984375,-0.1732940673828125
1761380656178097700,0.27209765625,-0.30596923828125,-0.563079833984375,-0.2089691162109375
1761380656188153900,0.28215380859375,-0.2342681884765625,-0.528472900390625,-0.2184295654296875
1761380656198209500,0.29220947265625,-0.1968994140625,-0.4990692138671875,-0.218902587890625
1761380656208265500,0.302265380859375,-0.2129669189453125,-0.4575347900390625,-0.2185516357421875
1761380656218321700,0.31232177734375,-0.20501708984375,-0.4027252197265625,-0.20770263671875
1761380656228377600,0.322377685546875,-0.188629150390625,-0.358245849609375,-0.22698974609375
1761380656238432800,0.332432861328125,-0.199493408203125,-0.335968017578125,-0.2574005126953125
1761380656248488700,0.34248876953125,-0.2022247314453125,-0.3261566162109375,-0.271270751953125
1761380656258544600,0.352544677734375,-0.1630706787109375,-0.369110107421875,-0.2736358642578125
1761380656268600600,0.3626005859375,-0.1318511962890625,-0.4022369384765625,-0.2607879638671875
1761380656278656800,0.37265673828125,-0.190887451171875,-0.4265899658203125,-0.2555084228515625
1761380656288712700,0.382712646484375,-0.2919769287109375,-0.4661102294921875,-0.28521728515625
1761380656298767600,0.392767578125,-0.2943267822265625,-0.489501953125,-0.365478515625
1761380656308823600,0.402823486328125,-0.3021697998046875,-0.473602294921875,-0.489654541015625
1761380656318879500,0.41287939453125,-0.3010101318359375,-0.426788330078125,-0.613525390625
1761380656328935700,0.422935791015625,-0.329071044921875,-0.4220733642578125,-0.670013427734375
1761380656338991600,0.43299169921875,-0.3632659912109375,-0.508087158203125,-0.6704864501953125
1761380656349047600,0.443047607421875,-0.33331298828125,-0.6145172119140625,-0.6156005859375
1761380656359103700,0.453103759765625,-0.33245849609375,-0.706146240234375,-0.5700836181640625
1761380656369158700,0.46315869140625,-0.422698974609375,-0.811248779296875,-0.5526123046875
1761380656379214600,0.473214599609375,-0.5863800048828125,-0.9425201416015625,-0.556304931640625
1761380656389270500,0.4832705078125,-0.7089691162109375,-1.1038818359375,-0.5394287109375
1761380656399326500,0.493326416015625,-0.8329315185546875,-1.2636260986328125,-0.50164794921875
1761380656409382700,0.503382568359375,-1.0391082763671875,-1.3835296630859375,-0.4836273193359375
1761380656419438600,0.5134384765625,-1.2476043701171875,-1.4104766845703125,-0.4892730712890625
1761380656429494500,0.52349462890625,-1.3274993896484375,-1.2979278564453125,-0.4711761474609375
1761380656439549700,0.5335498046875,-1.2269134521484375,-1.118896484375,-0.404296875
1761380656449605600,0.543605712890625,-0.999359130859375,-0.9600067138671875,-0.2816009521484375
1761380656459661800,0.553661865234375,-0.720245361328125,-0.897247314453125,-0.1357269287109375
1761380656469717800,0.5637177734375,-0.5245361328125,-0.9266204833984375,-0.0133056640625
1761380656479773400,0.5737734375,-0.5359649658203125,-0.974761962890625,0.0959014892578125
1761380656489829600,0.58382958984375,-0.5544586181640625,-1.0614166259765625,0.118072509765625
1761380656499884500,0.593884521484375,-0.487274169921875,-1.1544952392578125,0.0886077880859375
1761380656509940700,0.603940673828125,-0.449554443359375,-1.195526123046875,0.0977935791015625
1761380656519996000,0.613995849609375,-0.456695556640625,-1.2334747314453125,0.1459197998046875
1761380656530051800,0.6240517578125,-0.50244140625,-1.2432098388671875,0.1595001220703125
1761380656540108000,0.63410791015625,-0.595306396484375,-1.2112884521484375,0.1509246826171875
1761380656550164000,0.6441640625,-0.6277923583984375,-1.09637451171875,0.16058349609375
1761380656560220000,0.654219970703125,-0.696990966796875,-0.901397705078125,0.1503753662109375
1761380656570275000,0.664275146484375,-0.809112548828125,-0.7561492919921875,0.1443939208984375
1761380656580331000,0.6743310546875,-0.835296630859375,-0.6491851806640625,0.1871337890625
1761380656590387200,0.68438720703125,-0.74969482421875,-0.477996826171875,0.1941680908203125
1761380656600443100,0.694443115234375,-0.6368865966796875,-0.333770751953125,0.143524169921875
1761380656610499000,0.7044990234375,-0.4558868408203125,-0.281585693359375,0.099700927734375
1761380656620555300,0.71455517578125,-0.2835693359375,-0.2408599853515625,0.1203765869140625
1761380656630611000,0.72461083984375,-0.1729583740234375,-0.2097320556640625,0.204071044921875
1761380656640666000,0.734666015625,-0.0951995849609375,-0.2131805419921875,0.293975830078125
1761380656650722000,0.74472216796875,-0.0623321533203125,-0.1954193115234375,0.371551513671875
1761380656660778000,0.754778076171875,-0.0959320068359375,-0.2127227783203125,0.458160400390625
1761380656670834200,0.764834228515625,-0.1413421630859375,-0.2703704833984375,0.548095703125
1761380656680890000,0.77489013671875,-0.2206268310546875,-0.311553955078125,0.6393890380859375
1761380656690946000,0.784946044921875,-0.2467041015625,-0.3419342041015625,0.7509307861328125
1761380656701002200,0.795002197265625,-0.2200164794921875,-0.3632965087890625,0.8505706787109375
1761380656711057000,0.805056884765625,-0.2501983642578125,-0.3679962158203125,0.9153594970703125
1761380656721113000,0.815113037109375,-0.37347412109375,-0.3917388916015625,0.9215850830078125
1761380656731169000,0.8251689453125,-0.4747314453125,-0.5186614990234375,0.843597412109375
1761380656741225000,0.835224853515625,-0.501495361328125,-0.7495574951171875,0.6877288818359375
1761380656751281000,0.845281005859375,-0.535003662109375,-0.9819183349609375,0.4813995361328125
1761380656761337000,0.855337158203125,-0.5864105224609375,-1.1548004150390625,0.26422119140625
1761380656771393000,0.86539306640625,-0.893280029296875,-1.2503204345703125,0.121490478515625
1761380656781448200,0.8754482421875,-1.217620849609375,-1.2566070556640625,0.1367950439453125
1761380656791504100,0.885504150390625,-1.6020050048828125,-1.3108367919921875,0.252532958984375
1761380656801559800,0.895559814453125,-1.88330078125,-1.4709930419921875,0.350341796875
1761380656811616000,0.905615966796875,-1.9543304443359375,-1.437896728515625,0.2445220947265625
1761380656821672000,0.915671875,-1.952667236328125,-1.2212371826171875,0.0263824462890625
1761380656831727900,0.925727783203125,-1.9876251220703125,-1.177825927734375,-0.07232666015625
1761380656841784000,0.9357841796875,-1.9084014892578125,-1.3118438720703125,-0.0174560546875
1761380656851839000,0.9458388671875,-1.74310302734375,-1.393524169921875,0.043731689453125
1761380656861895200,0.955895263671875,-1.590850830078125,-1.33984375,0.02410888671875
1761380656871951000,0.965951171875,-1.3433380126953125,-1.2442169189453125,0.022247314453125
1761380656882007000,0.976007080078125,-1.082489013671875,-1.160064697265625,0.04248046875
1761380656892063200,0.986063232421875,-0.9550323486328125,-1.0667572021484375,0.0334320068359375
1761380656902119200,0.996119140625,-0.9399261474609375,-0.9594879150390625,0.004730224609375
1761380656912174000,1.006174072265625,-0.9291229248046875,-0.8736419677734375,-0.039306640625
1761380656922230000,1.01622998046875,-0.828155517578125,-0.8084869384765625,-0.10174560546875
1761380656932286000,1.026285888671875,-0.704742431640625,-0.75018310546875,-0.1704864501953125
1761380656942342100,1.036342041015625,-0.599334716796875,-0.7131500244140625,-0.225311279296875
1761380656952398000,1.046398193359375,-0.513458251953125,-0.636871337890625,-0.238494873046875
1761380656962454000,1.0564541015625,-0.4549102783203125,-0.5327911376953125,-0.217437744140625
1761380656972510200,1.06651025390625,-0.426025390625,-0.4405975341796875,-0.18817138671875
1761380656982564900,1.07656494140625,-0.419342041015625,-0.368865966796875,-0.163330078125
1761380656992621000,1.08662109375,-0.425872802734375,-0.301025390625,-0.1349334716796875
1761380657002677000,1.096677001953125,-0.4112701416015625,-0.2007293701171875,-0.0881500244140625
1761380657012733000,1.10673291015625,-0.4169158935546875,-0.1061859130859375,-0.0543212890625
1761380657022789000,1.1167890625,-0.4678497314453125,-0.0454254150390625,-0.0685882568359375
1761380657032845000,1.126844970703125,-0.5181732177734375,-0.001312255859375,-0.11236572265625
1761380657042901000,1.13690087890625,-0.5318145751953125,-0.00787353515625,-0.1559600830078125
1761380657052956200,1.1469560546875,-0.5108795166015625,-0.090179443359375,-0.183563232421875
1761380657063012000,1.15701220703125,-0.3968353271484375,-0.214111328125,-0.1837615966796875
1761380657073068000,1.167068115234375,-0.1971282958984375,-0.3410797119140625,-0.187408447265625
1761380657083124200,1.177124267578125,-0.0599517822265625,-0.427398681640625,-0.25555419921875
1761380657093180000,1.187179931640625,0.01171875,-0.4612274169921875,-0.35491943359375
1761380657103235800,1.19723583984375,-0.154083251953125,-0.5785980224609375,-0.461395263671875
1761380657113292000,1.2072919921875,-0.3454132080078125,-0.7591705322265625,-0.483154296875
1761380657123347000,1.217346923828125,-0.4074554443359375,-0.831207275390625,-0.52301025390625
1761380657133403100,1.227403076171875,-0.5373992919921875,-0.8386383056640625,-0.590118408203125
1761380657143459000,1.237458984375,-0.5708770751953125,-0.86474609375,-0.658447265625
1761380657153515000,1.247514892578125,-0.6218414306640625,-0.863311767578125,-0.6888885498046875
1761380657163571200,1.2575712890625,-0.8897857666015625,-0.8457489013671875,-0.618743896484375
1761380657173627100,1.267627197265625,-1.088348388671875,-1.0034637451171875,-0.4447784423828125
1761380657183682000,1.27768212890625,-1.3089599609375,-1.1894073486328125,-0.2766876220703125
1761380657193738000,1.287738037109375,-1.6779327392578125,-1.296722412109375,-0.2174072265625
1761380657203794000,1.2977939453125,-2.1193084716796875,-1.323150634765625,-0.280517578125
1761380657213850000,1.30785009765625,-2.42218017578125,-1.1723785400390625,-0.3753662109375
1761380657223906000,1.317906005859375,-2.373992919921875,-0.906646728515625,-0.4364471435546875
1761380657233962000,1.3279619140625,-1.9868011474609375,-0.62872314453125,-0.3534698486328125
1761380657244018200,1.33801806640625,-1.480804443359375,-0.57537841796875,-0.1240997314453125
1761380657254073000,1.348072998046875,-1.216339111328125,-0.78033447265625,0.1220855712890625
1761380657264129300,1.35812939453125,-1.02618408203125,-0.9128570556640625,0.349761962890625
1761380657274185000,1.36818505859375,-0.86236572265625,-0.92156982421875,0.454376220703125
1761380657284241000,1.378240966796875,-0.7853851318359375,-0.94580078125,0.469512939453125
1761380657294297000,1.388297119140625,-0.87213134765625,-1.073211669921875,0.435943603515625
1761380657304353000,1.39835302734375,-1.0461273193359375,-1.19525146484375,0.41619873046875
1761380657314409000,1.408408935546875,-1.0832061767578125,-1.1550750732421875,0.4140472412109375
1761380657324464000,1.418464111328125,-1.079681396484375,-0.96832275390625,0.3875732421875
1761380657334520000,1.42852001953125,-1.011260986328125,-0.765228271484375,0.3744049072265625
1761380657344576000,1.438575927734375,-0.8199462890625,-0.5915985107421875,0.338775634765625
1761380657354632200,1.448632080078125,-0.5649261474609375,-0.47918701171875,0.180633544921875
1761380657364688100,1.458688232421875,-0.4714202880859375,-0.3470458984375,0.033447265625
1761380657374744000,1.468744140625,-0.3017425537109375,-0.2510223388671875,-0.0177764892578125
1761380657384800000,1.478800048828125,-0.2020721435546875,-0.2002105712890625,-0.012847900390625
1761380657394855000,1.48885498046875,-0.21734619140625,-0.15655517578125,0.066436767578125
1761380657404911000,1.4989111328125,-0.192718505859375,-0.1787109375,0.2173919677734375
1761380657414967000,1.508967041015625,-0.08563232421875,-0.2560882568359375,0.372161865234375
1761380657425023000,1.51902294921875,0.011138916015625,-0.2747039794921875,0.477081298828125
1761380657435079200,1.5290791015625,0.067779541015625,-0.2044525146484375,0.534759521484375
1761380657445135000,1.539135009765625,0.057830810546875,-0.12078857421875,0.5974273681640625
1761380657455190000,1.54918994140625,0.023406982421875,-0.061920166015625,0.7123870849609375
1761380657465246000,1.559245849609375,0.0439453125,-0.123260498046875,0.8796539306640625
1761380657475302000,1.569302001953125,-0.032196044921875,-0.2335205078125,1.0411529541015625
1761380657485358000,1.579358154296875,-0.1889190673828125,-0.3187255859375,1.12066650390625
1761380657495414000,1.5894140625,-0.1920928955078125,-0.4208831787109375,1.1204681396484375
1761380657505470000,1.599469970703125,-0.1732330322265625,-0.4818267822265625,1.044769287109375
1761380657515526100,1.609526123046875,-0.1611175537109375,-0.4742889404296875,0.897918701171875
1761380657525582000,1.61958203125,-0.146026611328125,-0.4782562255859375,0.7219390869140625
1761380657535638000,1.629637939453125,-0.071533203125,-0.5126495361328125,0.573516845703125
1761380657545694200,1.639694091796875,0.0738067626953125,-0.6156158447265625,0.4305419921875
1761380657555750100,1.649750244140625,-0.2289581298828125,-0.7682342529296875,0.3169097900390625
1761380657565806000,1.65980615234375,-0.5770721435546875,-1.084930419921875,0.3087310791015625
1761380657575862300,1.6698623046875,-1.0563201904296875,-1.44195556640625,0.304168701171875
1761380657585918200,1.679918212890625,-1.3402099609375,-1.779998779296875,0.334564208984375
1761380657595973400,1.689973388671875,-1.2758026123046875,-1.9829864501953125,0.3260345458984375
1761380657606029300,1.700029296875,-1.307342529296875,-1.7945709228515625,0.2192535400390625
1761380657616085000,1.7100849609375,-1.47802734375,-1.604248046875,0.1920623779296875
1761380657626141200,1.72014111328125,-1.7501068115234375,-1.6722869873046875,0.26165771484375
1761380657636197000,1.730197021484375,-1.8341522216796875,-1.796051025390625,0.3186798095703125
1761380657646253000,1.740253173828125,-1.6104583740234375,-1.86505126953125,0.23785400390625
1761380657656309200,1.750309326171875,-1.25921630859375,-1.7943572998046875,0.0650634765625
1761380657666364200,1.7603642578125,-0.9436187744140625,-1.6306610107421875,-0.0609588623046875
1761380657676420000,1.770420166015625,-0.697784423828125,-1.434967041015625,-0.1224822998046875
1761380657686476300,1.780476318359375,-0.5617523193359375,-1.2440338134765625,-0.1462554931640625
1761380657696532200,1.7905322265625,-0.396026611328125,-1.1149444580078125,-0.091217041015625
1761380657706588200,1.800588134765625,-0.4980010986328125,-1.0567779541015625,-0.2274322509765625
1761380657716644400,1.810644287109375,-0.456512451171875,-1.0036468505859375,-0.2487640380859375
1761380657726699000,1.820698974609375,-0.3343353271484375,-0.8673095703125,-0.2628326416015625
1761380657736755200,1.830755126953125,-0.4024658203125,-0.766326904296875,-0.2670440673828125
1761380657746811100,1.84081103515625,-0.351959228515625,-0.703460693359375,-0.252532958984375
1761380657756867000,1.8508671875,-0.3101043701171875,-0.569915771484375,-0.2262420654296875
1761380657766923300,1.86092333984375,-0.263641357421875,-0.434112548828125,-0.22930908203125
1761380657776979200,1.870979248046875,-0.1486358642578125,-0.3467559814453125,-0.261962890625
1761380657787035100,1.88103515625,-0.051422119140625,-0.2615814208984375,-0.282989501953125
1761380657797090000,1.891090087890625,-0.029541015625,-0.20599365234375,-0.292327880859375
1761380657807146000,1.90114599609375,-0.085357666015625,-0.22064208984375,-0.329345703125
1761380657817202200,1.9112021484375,-0.123870849609375,-0.2556915283203125,-0.3856201171875
1761380657827258000,1.921258056640625,-0.122344970703125,-0.2826080322265625,-0.427734375
1761380657837314000,1.93131396484375,-0.1518402099609375,-0.30255126953125,-0.4840850830078125
1761380657847370200,1.941370361328125,-0.1331939697265625,-0.3159027099609375,-0.5628814697265625
1761380657857426200,1.95142626953125,-0.1179656982421875,-0.3368377685546875,-0.6385498046875
1761380657867481300,1.9614814453125,-0.0899505615234375,-0.38116455078125,-0.684173583984375
1761380657877537300,1.971537353515625,-0.0737457275390625,-0.390045166015625,-0.6925506591796875
1761380657887593200,1.98159326171875,-0.1403350830078125,-0.40838623046875,-0.657562255859375
1761380657897649200,1.991649169921875,-0.258819580078125,-0.472412109375,-0.5971832275390625
1761380657907705000,2.001705078125,-0.3307342529296875,-0.5706024169921875,-0.510894775390625
1761380657917761000,2.011760986328125,-0.4604339599609375,-0.6751861572265625,-0.4681243896484375
1761380657927817200,2.021817138671875,-0.6685791015625,-0.8200531005859375,-0.47454833984375
1761380657937872100,2.0318720703125,-0.764190673828125,-1.0899200439453125,-0.5091400146484375
1761380657947928000,2.041927978515625,-0.8628997802734375,-1.3995361328125,-0.6005401611328125
1761380657957984300,2.051984375,-1.1987152099609375,-1.6296844482421875,-0.7065582275390625
1761380657968040200,2.062040283203125,-1.592498779296875,-1.7829132080078125,-0.7770843505859375
1761380657978096000,2.07209619140625,-1.819976806640625,-1.7994842529296875,-0.792877197265625
1761380657988152300,2.08215234375,-1.9192352294921875,-1.6545257568359375,-0.6887664794921875
1761380657998207000,2.09220703125,-1.8860931396484375,-1.4054412841796875,-0.4455108642578125
1761380658008263200,2.10226318359375,-1.649688720703125,-1.1922454833984375,-0.1338348388671875
1761380658018319000,2.112319091796875,-1.290130615234375,-1.1039581298828125,0.2159576416015625
1761380658028375000,2.122375,-0.899169921875,-1.1702880859375,0.588531494140625
1761380658038431200,2.13243115234375,-0.7198486328125,-1.2587432861328125,0.8824615478515625
1761380658048487200,2.142487060546875,-0.7309417724609375,-1.2111358642578125,1.0305328369140625
1761380658058543000,2.152543212890625,-0.6135406494140625,-1.149200439453125,1.0273590087890625
1761380658068598300,2.162598388671875,-0.456085205078125,-1.033477783203125,0.9442596435546875
1761380658078654000,2.172654052734375,-0.2769012451171875,-0.9554443359375,0.870361328125
1761380658088710100,2.182710205078125,-0.1331329345703125,-0.9238739013671875,0.773468017578125
1761380658098766000,2.19276611328125,-0.0760498046875,-0.8821258544921875,0.709320068359375
1761380658108822000,2.202822021484375,-0.0535430908203125,-0.831573486328125,0.6502532958984375
1761380658118878200,2.212878173828125,-0.06439208984375,-0.730377197265625,0.58929443359375
1761380658128934100,2.22293408203125,-0.11212158203125,-0.608734130859375,0.5378570556640625
1761380658138989300,2.2329892578125,-0.135040283203125,-0.483184814453125,0.519683837890625
1761380658149045200,2.243045166015625,-0.13494873046875,-0.3895263671875,0.5481719970703125
1761380658159101200,2.25310107421875,-0.12286376953125,-0.3933868408203125,0.59466552734375
1761380658169157400,2.263157470703125,-0.03045654296875,-0.45697021484375,0.6231842041015625
1761380658179213300,2.27321337890625,0.0252685546875,-0.4779205322265625,0.6612701416015625
1761380658189269000,2.28326904296875,0.010772705078125,-0.421417236328125,0.7552032470703125
1761380658199324200,2.29332421875,-0.18524169921875,-0.335845947265625,0.9060516357421875
1761380658209380000,2.303380126953125,-0.27081298828125,-0.3427734375,1.0763092041015625
1761380658219436300,2.313436279296875,-0.2102508544921875,-0.368896484375,1.1566925048828125
1761380658229492200,2.3234921875,-0.1221771240234375,-0.3967742919921875,1.1619720458984375
1761380658239548200,2.333548095703125,-0.059600830078125,-0.4908905029296875,1.16497802734375
1761380658249604400,2.343604248046875,-0.06951904296875,-0.5679473876953125,1.108612060546875
1761380658259660300,2.353660400390625,-0.143646240234375,-0.6371002197265625,1.03704833984375
1761380658269715000,2.36371484375,-0.3162078857421875,-0.65130615234375,0.9487762451171875
1761380658279771100,2.373771240234375,-0.5739288330078125,-0.7170257568359375,0.8744964599609375
1761380658289827000,2.3838271484375,-0.9724578857421875,-0.95855712890625,0.8604736328125
1761380658299883000,2.393883056640625,-1.299774169921875,-1.1936187744140625,0.87579345703125
1761380658309939200,2.403939208984375,-1.603607177734375,-1.4391632080078125,0.9167327880859375
1761380658319995100,2.4139951171875,-2.1150665283203125,-1.7657318115234375,0.9721527099609375
1761380658330051000,2.424051025390625,-2.5101470947265625,-1.9865264892578125,0.9600677490234375
1761380658340106200,2.434106201171875,-2.528106689453125,-1.975189208984375,0.75994873046875
1761380658350162200,2.444162109375,-2.367218017578125,-1.7397918701171875,0.2835845947265625
1761380658360218400,2.45421826171875,-2.1986083984375,-1.296661376953125,-0.1388702392578125
1761380658370274000,2.464274169921875,-2.047576904296875,-0.9771270751953125,-0.333953857421875
1761380658380330000,2.474330078125,-1.8375244140625,-0.877716064453125,-0.4248046875
1761380658390386200,2.48438623046875,-1.408233642578125,-0.90142822265625,-0.5404510498046875
1761380658400442000,2.494442138671875,-0.8616943359375,-0.9017791748046875,-0.7337799072265625
1761380658410497300,2.504497314453125,-0.374114990234375,-0.83380126953125,-0.8534088134765625
1761380658420553200,2.51455322265625,-0.021484375,-0.7996368408203125,-0.9110260009765625
1761380658430609200,2.524609130859375,0.0480804443359375,-0.81121826171875,-0.969635009765625
1761380658440665300,2.534665283203125,0.0839080810546875,-0.764129638671875,-0.939788818359375
1761380658450721300,2.54472119140625,0.11712646484375,-0.6617584228515625,-0.848114013671875
1761380658460777200,2.554777099609375,0.0855255126953125,-0.5552825927734375,-0.6893768310546875
1761380658470832000,2.56483203125,-0.087066650390625,-0.4987030029296875,-0.4849853515625
1761380658480888000,2.57488818359375,-0.2642364501953125,-0.5164947509765625,-0.319671630859375
1761380658490944300,2.5849443359375,-0.3885955810546875,-0.5059051513671875,-0.243560791015625
1761380658501000200,2.595000244140625,-0.4576873779296875,-0.4795989990234375,-0.2307281494140625
1761380658511056100,2.60505615234375,-0.5079803466796875,-0.4981536865234375,-0.2642822265625
1761380658521115000,2.615114990234375,-0.5516815185546875,-0.513885498046875,-0.3070220947265625
1761380658531170800,2.6251708984375,-0.55230712890625,-0.472808837890625,-0.338531494140625
1761380658541226000,2.63522607421875,-0.5491943359375,-0.4203338623046875,-0.3784027099609375
1761380658551282000,2.645281982421875,-0.475006103515625,-0.3943939208984375,-0.4405059814453125
1761380658561337900,2.655337890625,-0.3782196044921875,-0.359619140625,-0.53155517578125
1761380658571394000,2.66539404296875,-0.267425537109375,-0.3525543212890625,-0.6427001953125
1761380658581450000,2.675449951171875,-0.1721038818359375,-0.3636016845703125,-0.72607421875
1761380658591506000,2.685505859375,-0.1315155029296875,-0.35943603515625,-0.763519287109375
1761380658601562000,2.69556201171875,-0.1554412841796875,-0.4211273193359375,-0.761505126953125
1761380658611616800,2.70561669921875,-0.2075347900390625,-0.5457916259765625,-0.6944122314453125
1761380658621673000,2.7156728515625,-0.3443603515625,-0.7372283935546875,-0.5820770263671875
1761380658631729000,2.72572900390625,-0.5422821044921875,-0.96612548828125,-0.4703369140625
1761380658641784800,2.735784912109375,-0.6768035888671875,-1.1703643798828125,-0.421112060546875
1761380658651841000,2.745841064453125,-0.8032379150390625,-1.198974609375,-0.461517333984375
1761380658661897000,2.75589697265625,-1.051116943359375,-1.2104034423828125,-0.4727783203125
1761380658671953000,2.765952880859375,-1.1831512451171875,-1.3984527587890625,-0.42608642578125
1761380658682008000,2.776008056640625,-1.28802490234375,-1.622344970703125,-0.390899658203125
1761380658692063700,2.786063720703125,-1.5196380615234375,-1.8208770751953125,-0.3555908203125
1761380658702120000,2.796119873046875,-1.7506256103515625,-1.9542999267578125,-0.223602294921875
1761380658712175900,2.80617578125,-1.8867034912109375,-1.8822021484375,0.062225341796875
1761380658722231800,2.816231689453125,-1.9309234619140625,-1.648651123046875,0.302978515625
1761380658732288000,2.8262880859375,-1.831146240234375,-1.384918212890625,0.4546356201171875
1761380658742343000,2.836343017578125,-1.576751708984375,-1.20953369140625,0.507659912109375
1761380658752398800,2.84639892578125,-1.1990814208984375,-1.1174468994140625,0.4489898681640625
1761380658762455000,2.856455078125,-0.937591552734375,-1.0521697998046875,0.3817596435546875
1761380658772511000,2.866510986328125,-0.8825836181640625,-0.989410400390625,0.377593994140625
1761380658782567000,2.87656689453125,-0.8453521728515625,-0.949920654296875,0.3990325927734375
1761380658792622800,2.886622802734375,-0.7030792236328125,-0.9463043212890625,0.3964080810546875
1761380658802678800,2.8966787109375,-0.5326995849609375,-0.9354400634765625,0.3837890625
1761380658812734000,2.90673388671875,-0.4439849853515625,-0.9221343994140625,0.3880157470703125
1761380658822790000,2.916789794921875,-0.3673095703125,-0.8979034423828125,0.3700714111328125
1761380658832845800,2.926845703125,-0.228515625,-0.8130035400390625,0.29486083984375
1761380658842902000,2.936902099609375,-0.0999298095703125,-0.685821533203125,0.2208709716796875
1761380658852958000,2.9469580078125,-0.07086181640625,-0.5438079833984375,0.1923065185546875
1761380658863014000,2.957013916015625,-0.1076507568359375,-0.419189453125,0.173248291015625
1761380658873068800,2.96706884765625,-0.1078338623046875,-0.31390380859375,0.172882080078125
1761380658883124700,2.977124755859375,-0.0667572021484375,-0.244110107421875,0.184478759765625
1761380658893181000,2.987180908203125,-0.0447235107421875,-0.1775360107421875,0.216461181640625
1761380658903236900,2.99723681640625,-0.055511474609375,-0.12322998046875,0.2664337158203125
1761380658913292800,3.007292724609375,-0.0812835693359375,-0.132598876953125,0.33575439453125
1761380658923349000,3.017348876953125,-0.1375732421875,-0.1723785400390625,0.434478759765625
1761380658933405000,3.027405029296875,-0.1290435791015625,-0.2241973876953125,0.561614990234375
1761380658943460000,3.037460205078125,0.0147552490234375,-0.3401336669921875,0.7053375244140625
1761380658953516000,3.04751611328125,0.182586669921875,-0.447906494140625,0.8266448974609375
1761380658963572000,3.057572021484375,0.3526458740234375,-0.5159912109375,0.931182861328125
1761380658973628000,3.0676279296875,0.523895263671875,-0.6389312744140625,1.034393310546875
1761380658983683800,3.077683837890625,0.59088134765625,-0.775421142578125,1.0875091552734375
1761380658993739800,3.08773974609375,0.4504547119140625,-0.938629150390625,1.07562255859375
1761380659003796000,3.0977958984375,0.2040863037109375,-1.1404876708984375,1.0463714599609375
1761380659013851000,3.107850830078125,-0.160186767578125,-1.2129058837890625,1.02435302734375
1761380659023907000,3.117906982421875,-0.595672607421875,-1.2663726806640625,0.9570770263671875
1761380659033963000,3.127962890625,-0.807647705078125,-1.2608795166015625,0.8110198974609375
1761380659044019000,3.13801904296875,-0.802825927734375,-1.168609619140625,0.6273956298828125
1761380659054075000,3.148074951171875,-0.9739227294921875,-1.2288818359375,0.530792236328125
1761380659064131000,3.158131103515625,-1.4165191650390625,-1.61602783203125,0.75762939453125
1761380659074185700,3.168185791015625,-1.965667724609375,-2.0986480712890625,1.1435394287109375
1761380659084242000,3.178241943359375,-1.99163818359375,-2.386627197265625,1.2261199951171875
1761380659094297900,3.1882978515625,-1.8252716064453125,-2.282379150390625,0.83599853515625
1761380659104353800,3.198353759765625,-1.7546234130859375,-1.898223876953125,0.4034576416015625
1761380659114410000,3.208409912109375,-1.6596221923828125,-1.4310455322265625,0.2271728515625
1761380659124466000,3.2184658203125,-1.4596099853515625,-1.211761474609375,0.0880126953125
1761380659134521900,3.22852197265625,-1.1058197021484375,-1.1433258056640625,-0.056060791015625
1761380659144577000,3.238576904296875,-0.7274017333984375,-0.9542999267578125,-0.1890716552734375
1761380659154632700,3.2486328125,-0.4108123779296875,-0.7739715576171875,-0.295379638671875
1761380659164689000,3.25868896484375,-0.2102813720703125,-0.7282867431640625,-0.3789215087890625
1761380659174744800,3.268744873046875,-0.1866455078125,-0.7244110107421875,-0.4277191162109375
1761380659184800800,3.27880078125,-0.3475189208984375,-0.6620025634765625,-0.3834381103515625
1761380659194857000,3.28885693359375,-0.501220703125,-0.5501861572265625,-0.3025360107421875
1761380659204913000,3.298912841796875,-0.5315704345703125,-0.4301300048828125,-0.2694244384765625
1761380659214968000,3.308968017578125,-0.453369140625,-0.3028564453125,-0.2972869873046875
1761380659225024000,3.31902392578125,-0.3046112060546875,-0.182830810546875,-0.3355712890625
1761380659235080000,3.329079833984375,-0.1593017578125,-0.080963134765625,-0.3312225341796875
1761380659245136100,3.33913623046875,-0.073333740234375,-0.007171630859375,-0.295928955078125
1761380659255191800,3.34919189453125,-0.00335693359375,0.033111572265625,-0.281341552734375
1761380659265247700,3.359247802734375,0.0656890869140625,0.059722900390625,-0.3051300048828125
1761380659275303000,3.369302978515625,0.0726470947265625,0.0884857177734375,-0.3712005615234375
1761380659285358800,3.37935888671875,0.051971435546875,0.079254150390625,-0.444793701171875
1761380659295415000,3.3894150390625,-0.0063934326171875,0.021514892578125,-0.4997711181640625
1761380659305471000,3.399470947265625,-0.09619140625,-0.046356201171875,-0.553619384765625
1761380659315527000,3.40952685546875,-0.1936187744140625,-0.124603271484375,-0.6026458740234375
1761380659325583000,3.4195830078125,-0.24853515625,-0.2413482666015625,-0.633453369140625
1761380659335639000,3.42963916015625,-0.25225830078125,-0.4040985107421875,-0.629150390625
1761380659345694000,3.43969384765625,-0.2767181396484375,-0.5741729736328125,-0.586883544921875
1761380659355750000,3.44975,-0.3312835693359375,-0.699249267578125,-0.532958984375
1761380659365805800,3.459805908203125,-0.3626861572265625,-0.789215087890625,-0.530029296875
1761380659375861800,3.46986181640625,-0.373046875,-0.888519287109375,-0.565032958984375
1761380659385918000,3.47991796875,-0.464385986328125,-0.990692138671875,-0.62481689453125
1761380659395974000,3.489973876953125,-0.6203765869140625,-1.062591552734375,-0.6724700927734375
1761380659406029800,3.50002978515625,-0.644561767578125,-1.082550048828125,-0.65313720703125
1761380659416085000,3.5100849609375,-0.658477783203125,-1.11578369140625,-0.5068359375
1761380659426141000,3.520140869140625,-0.6455078125,-1.3341064453125,-0.275482177734375
1761380659436196900,3.53019677734375,-0.7037811279296875,-1.676849365234375,-0.14654541015625
1761380659446252800,3.540252685546875,-1.017974853515625,-1.993377685546875,-0.155792236328125
1761380659456308700,3.550308837890625,-1.445709228515625,-2.1689605712890625,-0.14447021484375
1761380659466365000,3.560364990234375,-1.9500732421875,-2.1443328857421875,-0.0262451171875
1761380659476419800,3.570419921875,-2.2426605224609375,-1.954498291015625,0.1521453857421875
1761380659486476000,3.58047607421875,-2.1702880859375,-1.6981201171875,0.3244476318359375
1761380659496532000,3.590531982421875,-1.7157440185546875,-1.4422149658203125,0.4841766357421875
1761380659506588000,3.600587890625,-1.1823577880859375,-1.295379638671875,0.5425872802734375
1761380659516644000,3.61064404296875,-0.7586212158203125,-1.2312774658203125,0.5697479248046875
1761380659526697000,3.620697021484375,-0.4447784423828125,-1.181488037109375,0.6011199951171875
1761380659536753000,3.6307529296875,-0.246337890625,-1.2073516845703125,0.6249847412109375
1761380659546808000,3.64080810546875,-0.098785400390625,-1.23895263671875,0.604522705078125
1761380659556864000,3.650864013671875,0.0272979736328125,-1.2081756591796875,0.5582122802734375
1761380659566919700,3.660919677734375,0.1135101318359375,-1.1493377685546875,0.5112457275390625
1761380659576976000,3.670975830078125,0.100738525390625,-1.0743560791015625,0.472015380859375
1761380659587031800,3.68103173828125,0.0272674560546875,-0.9478302001953125,0.4554595947265625
1761380659597087700,3.691087646484375,-0.047882080078125,-0.758453369140625,0.45245361328125
1761380659607143000,3.701142822265625,-0.100006103515625,-0.5838775634765625,0.4638519287109375
1761380659617198800,3.71119873046875,-0.1375732421875,-0.4275054931640625,0.502349853515625
1761380659627255000,3.721255126953125,-0.117401123046875,-0.3002777099609375,0.5311126708984375
1761380659637311000,3.73131103515625,-0.0917816162109375,-0.2066192626953125,0.5632171630859375
1761380659647367000,3.741366943359375,0.132354736328125,-0.192626953125,0.6469573974609375
1761380659657423000,3.751423095703125,0.0822601318359375,-0.18756103515625,0.680450439453125
1761380659667478800,3.761478759765625,-0.003936767578125,-0.1337432861328125,0.730621337890625
1761380659677534000,3.771533935546875,-0.0753173828125,-0.103546142578125,0.8192291259765625
1761380659687590000,3.78158984375,-0.2102203369140625,-0.025054931640625,0.8730010986328125
1761380659697645800,3.791645751953125,-0.4308929443359375,0.118988037109375,0.9874725341796875
1761380659707702000,3.801701904296875,-0.36865234375,0.103424072265625,1.1225128173828125
1761380659717758000,3.811758056640625,-0.2964324951171875,0.0880126953125,1.20794677734375
1761380659727814000,3.82181396484375,-0.3296051025390625,0.1217803955078125,1.1865081787109375
1761380659737870000,3.8318701171875,-0.409149169921875,0.10552978515625,1.0812225341796875
1761380659747924700,3.8419248046875,-0.5570831298828125,0.0258636474609375,0.931976318359375
1761380659757981000,3.85198095703125,-0.8086700439453125,-0.1108245849609375,0.7935791015625
1761380659768036900,3.862036865234375,-0.99920654296875,-0.3394927978515625,0.701995849609375
1761380659778092800,3.8720927734375,-1.09429931640625,-0.617919921875,0.58624267578125
1761380659788149000,3.88214892578125,-1.1614837646484375,-0.9085693359375,0.4467926025390625
1761380659798205000,3.892204833984375,-1.278717041015625,-1.2744293212890625,0.31036376953125
1761380659808259800,3.902259765625,-1.3902435302734375,-1.59808349609375,0.1537322998046875
1761380659818316000,3.91231591796875,-1.5741424560546875,-1.8269500732421875,-0.0831451416015625
1761380659828372000,3.9223720703125,-1.7702178955078125,-1.8304595947265625,-0.377777099609375
1761380659838428000,3.932427978515625,-1.8818359375,-1.5547332763671875,-0.6116943359375
1761380659848483800,3.94248388671875,-1.9165191650390625,-1.2818145751953125,-0.775482177734375
1761380659858539800,3.952539794921875,-1.852569580078125,-1.2215423583984375,-0.853607177734375
1761380659868595700,3.962595703125,-1.6410980224609375,-1.2747344970703125,-0.734100341796875
1761380659878651000,3.97265087890625,-1.46588134765625,-1.31524658203125,-0.5248565673828125
1761380659888706800,3.982706787109375,-1.2219696044921875,-1.3902130126953125,-0.4225006103515625
1761380659898763000,3.992762939453125,-0.7606353759765625,-1.441802978515625,-0.42059326171875
1761380659908819000,4.00281884765625,-0.3257293701171875,-1.414886474609375,-0.420379638671875
1761380659918871800,4.012871826171875,-0.193389892578125,-1.327301025390625,-0.38372802734375
1761380659928928000,4.022927978515625,-0.202880859375,-1.2421875,-0.3267974853515625
1761380659938984000,4.03298388671875,-0.229339599609375,-1.1588592529296875,-0.2877960205078125
1761380659949039000,4.0430390625,-0.21368408203125,-1.0514678955078125,-0.2944183349609375
1761380659959095000,4.053094970703125,-0.1680450439453125,-0.94390869140625,-0.3128204345703125
1761380659969151000,4.06315087890625,-0.18963623046875,-0.8424530029296875,-0.3344573974609375
1761380659979207000,4.07320703125,-0.258148193359375,-0.7222900390625,-0.3552703857421875
1761380659989262800,4.083262939453125,-0.335662841796875,-0.5962066650390625,-0.373565673828125
1761380659999318800,4.09331884765625,-0.396453857421875,-0.51531982421875,-0.368988037109375
1761380660009374000,4.1033740234375,-0.4205474853515625,-0.5375518798828125,-0.36279296875
1761380660019430000,4.113429931640625,-0.34295654296875,-0.5404052734375,-0.406982421875
1761380660029485800,4.12348583984375,-0.2209014892578125,-0.468994140625,-0.5153961181640625
1761380660039542000,4.1335419921875,-0.11566162109375,-0.379608154296875,-0.6631317138671875
1761380660049598000,4.143597900390625,-0.1171722412109375,-0.319976806640625,-0.847808837890625
1761380660059654000,4.15365380859375,-0.1215972900390625,-0.257080078125,-0.9822998046875
1761380660069710000,4.1637099609375,-0.2249298095703125,-0.1317138671875,-0.980072021484375
1761380660079764700,4.1737646484375,-0.237457275390625,-0.0139617919921875,-0.85321044921875
1761380660089821000,4.183821044921875,-0.197479248046875,-0.008331298828125,-0.6929168701171875
1761380660099876900,4.193876953125,-0.1796722412109375,-0.0741729736328125,-0.6137542724609375
1761380660109932800,4.203932861328125,-0.1729278564453125,-0.23138427734375,-0.6704254150390625
1761380660119989000,4.213989013671875,-0.163848876953125,-0.4682159423828125,-0.8206939697265625
1761380660130045000,4.224044921875,-0.060943603515625,-0.642608642578125,-0.958465576171875
1761380660140100900,4.234100830078125,0.1318359375,-0.663299560546875,-0.9451446533203125
1761380660150156000,4.244156005859375,0.1353607177734375,-0.509765625,-0.769287109375
1761380660160211700,4.254211669921875,0.0400543212890625,-0.45770263671875,-0.46087646484375
1761380660170268000,4.264267822265625,-0.025970458984375,-0.74530029296875,-0.2216949462890625
1761380660180323800,4.27432373046875,-0.3135528564453125,-1.2122802734375,-0.2331695556640625
1761380660190379800,4.2843798828125,-0.725372314453125,-1.61138916015625,-0.4265594482421875
1761380660200436000,4.29443603515625,-1.132171630859375,-1.774871826171875,-0.536834716796875
1761380660210491000,4.304490966796875,-1.5264434814453125,-1.8493194580078125,-0.385223388671875
1761380660220547000,4.314547119140625,-1.847015380859375,-1.877716064453125,-0.208892822265625
1761380660230603000,4.32460302734375,-1.8424072265625,-1.69439697265625,-0.0907440185546875
1761380660240659000,4.334658935546875,-1.5675048828125,-1.4752960205078125,-0.05242919921875
1761380660250715100,4.344715087890625,-1.34381103515625,-1.3589324951171875,0.0572662353515625
1761380660260771000,4.35477099609375,-1.1411895751953125,-1.27496337890625,0.1666717529296875
1761380660270826000,4.364825927734375,-0.86798095703125,-1.1562042236328125,0.255157470703125
1761380660280882000,4.3748818359375,-0.6214447021484375,-1.0963592529296875,0.3604888916015625
1761380660290937900,4.384937744140625,-0.4771881103515625,-1.074249267578125,0.4225616455078125
1761380660300993800,4.394993896484375,-0.3406524658203125,-0.9701995849609375,0.3828277587890625
1761380660311050000,4.405050048828125,-0.2709197998046875,-0.8581085205078125,0.2708740234375
1761380660321106000,4.41510595703125,-0.2513427734375,-0.7870635986328125,0.1585845947265625
1761380660331163000,4.425162841796875,-0.269683837890625,-0.717376708984375,0.1012115478515625
1761380660341218000,4.435218017578125,-0.329681396484375,-0.5919189453125,0.078704833984375
1761380660351274000,4.44527392578125,-0.4410552978515625,-0.4645233154296875,0.1341400146484375
1761380660361330000,4.455329833984375,-0.410888671875,-0.3791046142578125,0.1966400146484375
1761380660371385900,4.4653857421875,-0.3339385986328125,-0.311248779296875,0.2744598388671875
1761380660381441800,4.47544189453125,-0.268829345703125,-0.265625,0.3925628662109375
1761380660391497700,4.485497802734375,-0.215789794921875,-0.3145294189453125,0.5416107177734375
1761380660401554000,4.495553955078125,-0.3146209716796875,-0.4702301025390625,0.7490386962890625
1761380660411608800,4.50560888671875,-0.4160003662109375,-0.64239501953125,1.024749755859375
1761380660421665000,4.5156650390625,-0.440032958984375,-0.7525634765625,1.22955322265625
1761380660431721000,4.525720947265625,-0.4782257080078125,-0.8427886962890625,1.340667724609375
1761380660441777000,4.53577685546875,-0.456634521484375,-0.9342041015625,1.4107666015625
1761380660451833000,4.5458330078125,-0.3341522216796875,-0.9926300048828125,1.3997344970703125
1761380660461889000,4.555888916015625,-0.1582489013671875,-1.010650634765625,1.34442138671875
1761380660471944000,4.56594384765625,0.0167083740234375,-0.9745941162109375,1.23284912109375
1761380660482000000,4.575999755859375,0.02197265625,-0.927001953125,1.0556488037109375
1761380660492055800,4.586055908203125,-0.124755859375,-0.9351654052734375,0.9339447021484375
1761380660502112000,4.596112060546875,-0.42254638671875,-1.0424652099609375,0.837158203125
1761380660512168000,4.60616796875,-0.699493408203125,-1.1815185546875,0.7137603759765625
1761380660522223900,4.616223876953125,-0.7279205322265625,-1.1047210693359375,0.6075286865234375
1761380660532279600,4.626279541015625,-0.842193603515625,-0.9913177490234375,0.6493682861328125
1761380660542334500,4.63633447265625,-1.1862030029296875,-1.127655029296875,0.6489715576171875
1761380660552390700,4.646390625,-1.6662139892578125,-1.324798583984375,0.494171142578125
1761380660562446600,4.656446533203125,-2.1382598876953125,-1.599609375,0.3897552490234375
1761380660572502500,4.66650244140625,-2.2934722900390625,-1.806182861328125,0.446441650390625
1761380660582558500,4.676558349609375,-2.218841552734375,-1.5833587646484375,0.2586822509765625
1761380660592614400,4.686614501953125,-2.121002197265625,-1.1403961181640625,-0.001190185546875
1761380660602669600,4.696669677734375,-1.9565277099609375,-0.9876708984375,-0.0374603271484375
1761380660612725500,4.7067255859375,-1.6992645263671875,-0.9270782470703125,-0.0408935546875
1761380660622781400,4.716781494140625,-1.37945556640625,-0.8409423828125,-0.034759521484375
1761380660632837600,4.726837646484375,-1.0904388427734375,-0.815704345703125,-0.006805419921875
1761380660642893600,4.7368935546875,-0.868865966796875,-0.8718414306640625,-0.0291900634765625
1761380660652949500,4.746949462890625,-0.822723388671875,-0.90283203125,-0.09912109375
1761380660663005700,4.757005615234375,-0.8972015380859375,-0.8516845703125,-0.1499786376953125
1761380660673060400,4.767060302734375,-0.9214630126953125,-0.8399505615234375,-0.2586212158203125
1761380660683116500,4.777116455078125,-0.93670654296875,-0.769989013671875,-0.40740966796875
1761380660693172500,4.78717236328125,-0.8527984619140625,-0.6521148681640625,-0.5241546630859375
1761380660703228400,4.797228515625,-0.6603851318359375,-0.535888671875,-0.62994384765625
1761380660713284600,4.80728466796875,-0.397491455078125,-0.46063232421875,-0.7445220947265625
1761380660723340500,4.817340576171875,-0.1514892578125,-0.414642333984375,-0.8083343505859375
1761380660733396500,4.827396484375,-0.05303955078125,-0.3619537353515625,-0.8201904296875
1761380660743451600,4.83745166015625,-0.049346923828125,-0.3408203125,-0.78765869140625
1761380660753507600,4.847507568359375,-0.0866851806640625,-0.3625946044921875,-0.75323486328125
1761380660763563500,4.8575634765625,-0.140045166015625,-0.4159698486328125,-0.727630615234375
1761380660773619500,4.867619384765625,-0.18701171875,-0.50482177734375,-0.747528076171875
1761380660783675400,4.87767529296875,-0.2588653564453125,-0.511566162109375,-0.8231048583984375
1761380660793731300,4.8877314453125,-0.3073272705078125,-0.441497802734375,-0.8902740478515625
1761380660803786500,4.897786376953125,-0.2671661376953125,-0.4588775634765625,-0.9118499755859375
1761380660813842400,4.907842529296875,-0.197540283203125,-0.2950439453125,-0.95343017578125
1761380660823898600,4.917898681640625,-0.192535400390625,-0.2003021240234375,-1.01751708984375
1761380660833954600,4.92795458984375,-0.1002960205078125,-0.2675323486328125,-1.0215606689453125
1761380660844010500,4.938010498046875,0.0174407958984375,-0.417999267578125,-0.973846435546875
1761380660854066700,4.948066650390625,0.092254638671875,-0.5010528564453125,-0.939849853515625
1761380660864122400,4.958122314453125,0.0507659912109375,-0.4828643798828125,-0.956695556640625
1761380660874177500,4.968177490234375,-0.087646484375,-0.4521942138671875,-0.964630126953125
1761380660884233500,4.9782333984375,-0.2664031982421875,-0.4549102783203125,-0.9224090576171875
1761380660894289400,4.988289306640625,-0.390869140625,-0.5092620849609375,-0.8123626708984375
1761380660904345600,4.998345703125,-0.4629974365234375,-0.5687103271484375,-0.6055755615234375
1761380660914401500,5.008401611328125,-0.5818023681640625,-0.606201171875,-0.350372314453125
1761380660924457500,5.01845751953125,-0.5715789794921875,-0.7672119140625,-0.2367401123046875
1761380660934513700,5.028513671875,-0.722015380859375,-0.99267578125,-0.328399658203125
1761380660944568300,5.038568359375,-1.1071624755859375,-1.2621612548828125,-0.5111236572265625
1761380660954624500,5.04862451171875,-1.4864501953125,-1.332489013671875,-0.624725341796875
1761380660964680400,5.058680419921875,-1.8285369873046875,-1.1931304931640625,-0.585113525390625
1761380660974736400,5.068736328125,-1.9862213134765625,-1.0896453857421875,-0.42877197265625
1761380660984792600,5.07879248046875,-1.8256378173828125,-1.042877197265625,-0.1765899658203125
1761380660994848500,5.0888486328125,-1.5127716064453125,-1.1277923583984375,0.1187286376953125
1761380661004903700,5.098903564453125,-1.1895294189453125,-1.392242431640625,0.4140777587890625
1761380661014959600,5.108959716796875,-0.955352783203125,-1.6605224609375,0.663543701171875
1761380661025015600,5.119015625,-0.7989959716796875,-1.740142822265625,0.809844970703125
1761380661035071500,5.129071533203125,-0.6074981689453125,-1.6898345947265625,0.8332977294921875
1761380661045127400,5.13912744140625,-0.478271484375,-1.59527587890625,0.8222198486328125
1761380661055183400,5.149183349609375,-0.444305419921875,-1.4179534912109375,0.74945068359375
1761380661065238500,5.159238525390625,-0.412872314453125,-1.1633148193359375,0.654632568359375
1761380661075294500,5.16929443359375,-0.3987884521484375,-0.89605712890625,0.5755157470703125
1761380661085350400,5.179350341796875,-0.3952484130859375,-0.6955108642578125,0.4874725341796875
1761380661095406600,5.189406494140625,-0.38336181640625,-0.4841156005859375,0.3737640380859375
1761380661105462500,5.199462646484375,-0.3182525634765625,-0.27294921875,0.2909088134765625
1761380661115518500,5.2095185546875,-0.229705810546875,-0.163421630859375,0.2736358642578125
1761380661125574700,5.21957470703125,-0.0492706298828125,-0.1401519775390625,0.3182525634765625
1761380661135629300,5.22962939453125,0.047149658203125,-0.1828460693359375,0.3611602783203125
1761380661145685500,5.239685546875,0.046295166015625,-0.1973419189453125,0.4322967529296875
1761380661155741400,5.249741455078125,-0.0097503662109375,-0.219757080078125,0.5587158203125
1761380661165797400,5.25979736328125,-0.10296630859375,-0.2547149658203125,0.7549896240234375
1761380661175853600,5.269853515625,-0.2855987548828125,-0.2671051025390625,0.983123779296875
1761380661185909500,5.279909423828125,-0.3931121826171875,-0.2757720947265625,1.18988037109375
1761380661195964700,5.289964599609375,-0.3380584716796875,-0.1983184814453125,1.3544769287109375
1761380661206020600,5.3000205078125,-0.28082275390625,-0.17669677734375,1.4552154541015625
1761380661216076500,5.31007666015625,-0.2262115478515625,-0.245086669921875,1.4783935546875
1761380661226132500,5.320132568359375,-0.173583984375,-0.2899627685546875,1.433380126953125
1761380661236188400,5.3301884765625,-0.1530914306640625,-0.4063873291015625,1.3278656005859375
1761380661246244400,5.340244384765625,-0.162628173828125,-0.5645294189453125,1.18817138671875
1761380661256300500,5.350300537109375,-0.2438201904296875,-0.7235260009765625,1.0255584716796875
1761380661266355500,5.36035546875,-0.3055572509765625,-0.8302459716796875,0.8600311279296875
1761380661276411600,5.37041162109375,-0.2081146240234375,-0.7816162109375,0.7296295166015625
1761380661286467600,5.380467529296875,-0.2850799560546875,-0.7185516357421875,0.72589111328125
1761380661296523500,5.3905234375,-0.756866455078125,-0.949615478515625,0.78656005859375
1761380661306579700,5.400579833984375,-1.306488037109375,-1.5720062255859375,0.818328857421875
1761380661316635600,5.4106357421875,-1.7914886474609375,-2.270904541015625,0.8930206298828125
1761380661326691300,5.42069140625,-2.36065673828125,-2.6081695556640625,0.864166259765625
1761380661336746500,5.43074658203125,-2.727081298828125,-2.5638427734375,0.6457366943359375
1761380661346802400,5.440802490234375,-2.941375732421875,-2.3025970458984375,0.232025146484375
1761380661356858400,5.4508583984375,-2.87750244140625,-1.6815643310546875,-0.3471832275390625
1761380661366914600,5.46091455078125,-2.3079833984375,-1.068603515625,-0.9197998046875
1761380661376970500,5.470970458984375,-1.58917236328125,-0.828155517578125,-1.2547149658203125
1761380661387026400,5.4810263671875,-1.10791015625,-0.8485870361328125,-1.207244873046875
1761380661397081600,5.49108154296875,-0.5515899658203125,-0.9493865966796875,-0.9853515625
1761380661407137300,5.50113720703125,0.0455169677734375,-1.0452880859375,-0.896575927734375
1761380661417193500,5.511193359375,0.349761962890625,-1.0455474853515625,-0.891448974609375
1761380661427249400,5.52124951171875,0.2959747314453125,-1.037109375,-0.8860321044921875
1761380661437305300,5.531305419921875,0.169921875,-1.074920654296875,-0.8959503173828125
1761380661447361500,5.541361572265625,0.2048187255859375,-0.9806060791015625,-0.86785888671875
1761380661457417500,5.55141748046875,0.1602325439453125,-0.793060302734375,-0.812408447265625
1761380661467472600,5.56147265625,0.0137939453125,-0.6702880859375,-0.6808319091796875
1761380661477528600,5.571528564453125,-0.1521759033203125,-0.6106109619140625,-0.469268798828125
1761380661487584500,5.58158447265625,-0.29766845703125,-0.5445709228515625,-0.3411712646484375
1761380661497640700,5.591640625,-0.331451416015625,-0.517822265625,-0.3902130126953125
1761380661507696400,5.6016962890625,-0.346527099609375,-0.4504852294921875,-0.4521636962890625
1761380661517752300,5.61175244140625,-0.4027252197265625,-0.3805084228515625,-0.527496337890625
1761380661527807000,5.621806884765625,-0.4167633056640625,-0.2897186279296875,-0.596954345703125
1761380661537863000,5.63186279296875,-0.40765380859375,-0.21649169921875,-0.6089935302734375
1761380661547919000,5.641919189453125,-0.41680908203125,-0.24468994140625,-0.5697021484375
1761380661557975000,5.65197509765625,-0.3150634765625,-0.3016357421875,-0.5623779296875
1761380661568031000,5.662031005859375,-0.1097259521484375,-0.28564453125,-0.6196746826171875
1761380661578087200,5.672087158203125,0.113922119140625,-0.2567138671875,-0.6791229248046875
1761380661588143000,5.68214306640625,0.3132781982421875,-0.256103515625,-0.725860595703125
1761380661598198000,5.692197998046875,0.469482421875,-0.291015625,-0.7861175537109375
1761380661608254000,5.70225390625,0.473785400390625,-0.373260498046875,-0.843536376953125
1761380661618310000,5.712309814453125,0.382720947265625,-0.4434814453125,-0.874542236328125
1761380661628366000,5.722365966796875,0.17657470703125,-0.517578125,-0.916595458984375
1761380661638422000,5.732422119140625,-0.13568115234375,-0.5433349609375,-0.97711181640625
1761380661648478000,5.74247802734375,-0.309967041015625,-0.5745849609375,-1.008331298828125
1761380661658534100,5.7525341796875,-0.460540771484375,-0.614776611328125,-0.9434051513671875
1761380661668589000,5.762589111328125,-0.66204833984375,-0.747467041015625,-0.8292999267578125
1761380661678645200,5.772645263671875,-0.72491455078125,-1.06134033203125,-0.81005859375
1761380661688701200,5.782701171875,-0.865264892578125,-1.3768768310546875,-0.8616790771484375
1761380661698756900,5.7927568359375,-1.204376220703125,-1.6743621826171875,-0.879608154296875
1761380661708813000,5.80281298828125,-1.4902496337890625,-1.8470611572265625,-0.7605133056640625
1761380661718869000,5.812868896484375,-1.550811767578125,-1.7734527587890625,-0.5223236083984375
1761380661728924200,5.822924072265625,-1.6763458251953125,-1.6679534912109375,-0.3197021484375
1761380661738980000,5.83297998046875,-1.733001708984375,-1.60723876953125,-0.047210693359375
1761380661749036000,5.8430361328125,-1.7408294677734375,-1.602294921875,0.2684478759765625
1761380661759092000,5.853092041015625,-1.6848297119140625,-1.5835723876953125,0.5045318603515625
1761380661769148200,5.863148193359375,-1.3976898193359375,-1.449676513671875,0.64215087890625
1761380661779204000,5.8732041015625,-1.1793365478515625,-1.3759918212890625,0.6894989013671875
1761380661789260000,5.883260009765625,-1.0347900390625,-1.348785400390625,0.6897430419921875
1761380661799315000,5.89331494140625,-0.8792266845703125,-1.2683258056640625,0.63818359375
1761380661809371000,5.903370849609375,-0.7089385986328125,-1.14501953125,0.5118408203125
1761380661819427000,5.913427001953125,-0.572845458984375,-1.053741455078125,0.32757568359375
1761380661829483000,5.92348291015625,-0.5062408447265625,-0.931976318359375,0.1614532470703125
1761380661839539000,5.9335390625,-0.4765777587890625,-0.7797698974609375,0.0721435546875
1761380661849595100,5.94359521484375,-0.5142364501953125,-0.6970367431640625,0.03521728515625
1761380661859650000,5.953650146484375,-0.45867919921875,-0.6313018798828125,0.0739898681640625
1761380661869706200,5.963706298828125,-0.3956146240234375,-0.499237060546875,0.17041015625
1761380661879762000,5.973761962890625,-0.3098602294921875,-0.4316558837890625,0.2841644287109375
1761380661889817900,5.98381787109375,-0.2058258056640625,-0.4126434326171875,0.42138671875
1761380661899874000,5.9938740234375,-0.1571044921875,-0.3386993408203125,0.589508056640625
1761380661909930000,6.003929931640625,-0.0819244384765625,-0.3299102783203125,0.744873046875
1761380661919985200,6.013985107421875,0.0544586181640625,-0.386749267578125,0.8994140625
1761380661930041000,6.024041015625,0.115447998046875,-0.447113037109375,0.9969635009765625
1761380661940097000,6.034096923828125,0.1333160400390625,-0.4828643798828125,1.1128997802734375
1761380661950153200,6.0441533203125,0.1085662841796875,-0.4945220947265625,1.31268310546875
1761380661960209200,6.054209228515625,0.0555572509765625,-0.5465545654296875,1.513519287109375
1761380661970265000,6.06426513671875,0.1499786376953125,-0.677825927734375,1.657073974609375
1761380661980321000,6.074321044921875,0.1960601806640625,-0.8158416748046875,1.6993560791015625
1761380661990376000,6.0843759765625,0.1554412841796875,-0.9314727783203125,1.6753997802734375
1761380662000432000,6.09443212890625,0.10382080078125,-0.950439453125,1.6097869873046875
1761380662010488000,6.104488037109375,0.0068817138671875,-0.868804931640625,1.496307373046875
1761380662020544000,6.1145439453125,-0.13446044921875,-0.813995361328125,1.3504638671875
1761380662030600200,6.12460009765625,-0.3707275390625,-0.80908203125,1.19976806640625
1761380662040656100,6.13465625,-0.6221771240234375,-0.8404541015625,1.147003173828125
1761380662050711000,6.1447109375,-0.8234710693359375,-0.9601593017578125,1.073638916015625
1761380662060767000,6.15476708984375,-1.0191802978515625,-1.0537567138671875,0.882965087890625
1761380662070823000,6.164822998046875,-1.386322021484375,-1.177459716796875,0.6545867919921875
1761380662080878800,6.17487890625,-1.792144775390625,-1.4754486083984375,0.3542022705078125
1761380662090935000,6.18493505859375,-1.808441162109375,-1.6822662353515625,0.0780487060546875
1761380662100991000,6.194990966796875,-1.814544677734375,-1.5447998046875,-0.118743896484375
1761380662111047000,6.205046875,-1.9290618896484375,-1.1487579345703125,-0.239013671875
1761380662121102000,6.21510205078125,-2.0418548583984375,-0.888275146484375,-0.1993408203125
1761380662131158000,6.225157958984375,-2.09967041015625,-0.84490966796875,-0.0957794189453125
1761380662141214200,6.235214111328125,-1.974029541015625,-0.818695068359375,-0.0323944091796875
1761380662151270100,6.245270263671875,-1.7640533447265625,-0.748809814453125,-0.0670928955078125
1761380662161325800,6.255325927734375,-1.3322906494140625,-0.6785430908203125,-0.219970703125
1761380662171382000,6.265382080078125,-0.899749755859375,-0.5976715087890625,-0.3267364501953125
1761380662181437000,6.27543701171875,-0.5933380126953125,-0.6302947998046875,-0.497314453125
1761380662191493000,6.2854931640625,-0.5472869873046875,-0.682647705078125,-0.5132904052734375
1761380662201549000,6.295549072265625,-0.483245849609375,-0.48309326171875,-0.3963165283203125
1761380662211605000,6.30560498046875,-0.58154296875,-0.2852630615234375,-0.3480987548828125
1761380662221661200,6.3156611328125,-0.636993408203125,-0.19573974609375,-0.3543548583984375
1761380662231717000,6.325717041015625,-0.5370330810546875,-0.2347869873046875,-0.4025115966796875
1761380662241773000,6.33577294921875,-0.48016357421875,-0.2515411376953125,-0.4331207275390625
1761380662251828000,6.345827880859375,-0.3811187744140625,-0.21527099609375,-0.43353271484375
1761380662261884000,6.3558837890625,-0.2872314453125,-0.1834869384765625,-0.490020751953125
1761380662271940000,6.365940185546875,-0.179534912109375,-0.1316375732421875,-0.5429229736328125
1761380662281996000,6.37599609375,-0.0870819091796875,-0.1160125732421875,-0.57269287109375
1761380662292052000,6.386052001953125,-0.078948974609375,-0.118072509765625,-0.6072845458984375
1761380662302108200,6.396108154296875,-0.1234893798828125,-0.0988006591796875,-0.6369476318359375
1761380662312163000,6.4061630859375,-0.21051025390625,-0.1129608154296875,-0.668792724609375
1761380662322219000,6.416218994140625,-0.2208099365234375,-0.16595458984375,-0.684173583984375
1761380662332275200,6.426275146484375,-0.2373504638671875,-0.1805572509765625,-0.6671142578125
1761380662342331000,6.436330810546875,-0.2976837158203125,-0.1802825927734375,-0.646820068359375
1761380662352387000,6.446386962890625,-0.270111083984375,-0.2522125244140625,-0.659088134765625
1761380662362443000,6.456443115234375,-0.2197113037109375,-0.3729248046875,-0.669036865234375
1761380662372499000,6.4664990234375,-0.19427490234375,-0.490234375,-0.6821441650390625
1761380662382554000,6.47655419921875,-0.15216064453125,-0.5825958251953125,-0.7067413330078125
1761380662392610000,6.486610107421875,-0.1441192626953125,-0.665374755859375,-0.78021240234375
1761380662402666000,6.496666015625,-0.18505859375,-0.6608734130859375,-0.8520050048828125
1761380662412722200,6.50672216796875,-0.1959991455078125,-0.6898956298828125,-0.8664398193359375
1761380662422778000,6.516778076171875,-0.23486328125,-0.7550201416015625,-0.768585205078125
1761380662432834000,6.526833984375,-0.3834686279296875,-0.9117431640625,-0.5938262939453125
1761380662442889000,6.536888916015625,-0.7049407958984375,-1.131378173828125,-0.4177093505859375
1761380662452945000,6.54694482421875,-1.2732391357421875,-1.261474609375,-0.3437042236328125
1761380662463001000,6.5570009765625,-1.964019775390625,-1.374420166015625,-0.481170654296875
1761380662473057000,6.56705712890625,-2.498077392578125,-1.483367919921875,-0.69854736328125
1761380662483113000,6.577113037109375,-2.8023681640625,-1.4011077880859375,-0.653533935546875
1761380662493169200,6.587169189453125,-2.7850799560546875,-1.3341217041015625,-0.385467529296875
1761380662503224000,6.59722412109375,-2.515289306640625,-1.2796630859375,-0.1119384765625
1761380662513280300,6.6072802734375,-2.1938934326171875,-1.1797332763671875,0.138397216796875
1761380662523336000,6.6173359375,-1.8210906982421875,-1.1796417236328125,0.378143310546875
1761380662533396000,6.62739599609375,-1.43792724609375,-1.248046875,0.5344390869140625
1761380662543452000,6.637451904296875,-1.0790863037109375,-1.299713134765625,0.611785888671875
1761380662553507800,6.6475078125,-0.690582275390625,-1.359283447265625,0.665985107421875
1761380662563563800,6.657563720703125,-0.4762115478515625,-1.4194183349609375,0.6087646484375
1761380662573619000,6.667618896484375,-0.5294189453125,-1.2766265869140625,0.560821533203125
1761380662583675000,6.6776748046875,-0.52239990234375,-1.0784912109375,0.5066070556640625
1761380662593730800,6.687730712890625,-0.500885009765625,-0.937774658203125,0.446197509765625
1761380662603787000,6.697787109375,-0.41473388671875,-0.8333740234375,0.4068450927734375
1761380662613843000,6.707843017578125,-0.3516387939453125,-0.756103515625,0.3825836181640625
1761380662623899000,6.71789892578125,-0.3488616943359375,-0.6725616455078125,0.3638763427734375
1761380662633953800,6.727953857421875,-0.3624267578125,-0.5446319580078125,0.3239593505859375
1761380662644009700,6.738009765625,-0.3338165283203125,-0.42529296875,0.278472900390625
1761380662654066000,6.74806591796875,-0.271087646484375,-0.3422393798828125,0.258056640625
1761380662664121900,6.758121826171875,-0.184783935546875,-0.322967529296875,0.30218505859375
1761380662674177800,6.768177734375,-0.108245849609375,-0.33990478515625,0.422454833984375
1761380662684234000,6.77823388671875,-0.0957489013671875,-0.3581390380859375,0.55438232421875
1761380662694289000,6.788288818359375,-0.159515380859375,-0.37933349609375,0.6651153564453125
1761380662704345000,6.798344970703125,-0.2243194580078125,-0.3821258544921875,0.778778076171875
1761380662714401000,6.808401123046875,-0.25836181640625,-0.4137115478515625,0.911041259765625
1761380662724457000,6.81845703125,-0.299713134765625,-0.4896392822265625,1.0042572021484375
1761380662734513000,6.828512939453125,-0.301910400390625,-0.57684326171875,1.0194244384765625
1761380662744568800,6.83856884765625,-0.248138427734375,-0.629302978515625,1.00213623046875
1761380662754624000,6.8486240234375,-0.2314910888671875,-0.645233154296875,0.986724853515625
1761380662764680000,6.858679931640625,-0.298492431640625,-0.60711669921875,0.967498779296875
1761380662774736000,6.86873583984375,-0.36895751953125,-0.5517120361328125,0.8932647705078125
1761380662784792000,6.8787919921875,-0.4920654296875,-0.5432586669921875,0.7752227783203125
1761380662794848000,6.888847900390625,-0.647125244140625,-0.59881591796875,0.670501708984375
1761380662804904000,6.898904052734375,-0.8602142333984375,-0.6752471923828125,0.54888916015625
1761380662814960000,6.908960205078125,-1.0043182373046875,-0.8362274169921875,0.397308349609375
1761380662825014800,6.919014892578125,-0.9908905029296875,-1.0194854736328125,0.2971343994140625
1761380662835071000,6.929071044921875,-1.2103271484375,-1.0670318603515625,0.2694854736328125
1761380662845127000,6.939126953125,-1.5893707275390625,-1.1363067626953125,0.2744903564453125
1761380662855182800,6.949182861328125,-1.7701873779296875,-1.2873077392578125,0.28399658203125
1761380662865238800,6.95923876953125,-1.6713104248046875,-1.300811767578125,0.154632568359375
1761380662875295000,6.969294921875,-1.527862548828125,-1.067657470703125,-0.0637054443359375
1761380662885350000,6.979349853515625,-1.4249267578125,-0.875244140625,-0.1446075439453125
1761380662895406000,6.989406005859375,-1.40679931640625,-0.7897491455078125,-0.1643524169921875
1761380662905462000,6.9994619140625,-1.3509063720703125,-0.75872802734375,-0.206146240234375
1761380662915517700,7.009517578125,-1.1824951171875,-0.791900634765625,-0.2356414794921875
1761380662925574000,7.019573974609375,-0.99835205078125,-0.846893310546875,-0.2354583740234375
1761380662935629800,7.0296298828125,-0.8187103271484375,-0.8780670166015625,-0.20465087890625
1761380662945685000,7.03968505859375,-0.675567626953125,-0.87823486328125,-0.15545654296875
1761380662955741000,7.049740966796875,-0.6454620361328125,-0.844024658203125,-0.108123779296875
1761380662965796900,7.059796875,-0.709991455078125,-0.7612457275390625,-0.0894622802734375
1761380662975853000,7.06985302734375,-0.74298095703125,-0.6697845458984375,-0.1112213134765625
1761380662985909000,7.079908935546875,-0.7154388427734375,-0.6107940673828125,-0.155731201171875
1761380662995965000,7.08996484375,-0.658721923828125,-0.5564422607421875,-0.196380615234375
1761380663006019800,7.100019775390625,-0.60552978515625,-0.5124664306640625,-0.219024658203125
1761380663016075800,7.11007568359375,-0.5391693115234375,-0.4705963134765625,-0.233551025390625
1761380663026132000,7.120132080078125,-0.4551544189453125,-0.4210968017578125,-0.2557830810546875
1761380663036188000,7.13018798828125,-0.3681793212890625,-0.366790771484375,-0.2797393798828125
1761380663046243800,7.140243896484375,-0.297943115234375,-0.2801971435546875,-0.327178955078125
1761380663056299000,7.150299072265625,-0.2543182373046875,-0.2622528076171875,-0.4131011962890625
1761380663066355000,7.16035498046875,-0.227386474609375,-0.304534912109375,-0.4978790283203125
1761380663076411100,7.1704111328125,-0.2599945068359375,-0.3291778564453125,-0.5911865234375
1761380663086467000,7.180467041015625,-0.3461761474609375,-0.357513427734375,-0.653076171875
1761380663096522800,7.190522705078125,-0.416839599609375,-0.3730621337890625,-0.6719970703125
1761380663106579000,7.200578857421875,-0.4792022705078125,-0.3703155517578125,-0.683990478515625
1761380663116633900,7.2106337890625,-0.4892730712890625,-0.366363525390625,-0.702972412109375
1761380663126689800,7.220689697265625,-0.4551544189453125,-0.3599853515625,-0.7138519287109375
1761380663136746000,7.23074609375,-0.4044036865234375,-0.3395233154296875,-0.7003173828125
1761380663146802000,7.240802001953125,-0.4237060546875,-0.3387298583984375,-0.69512939453125
1761380663156857900,7.25085791015625,-0.443756103515625,-0.38232421875,-0.67852783203125
1761380663166914000,7.2609140625,-0.37542724609375,-0.477874755859375,-0.6209716796875
1761380663176970000,7.270969970703125,-0.330108642578125,-0.635986328125,-0.563507080078125
1761380663187025000,7.28102490234375,-0.3833465576171875,-0.7810211181640625,-0.46978759765625
1761380663197080800,7.291080810546875,-0.54742431640625,-0.9434661865234375,-0.352630615234375
1761380663207136800,7.30113671875,-0.8450164794921875,-1.1925201416015625,-0.2802886962890625
1761380663217193000,7.31119287109375,-1.1899871826171875,-1.435272216796875,-0.3247222900390625
1761380663227249000,7.321248779296875,-1.4691009521484375,-1.58184814453125,-0.4354095458984375
1761380663237304000,7.331303955078125,-1.6494598388671875,-1.530487060546875,-0.467315673828125
1761380663247360000,7.341360107421875,-1.6964111328125,-1.3797760009765625,-0.361114501953125
1761380663257416000,7.351416015625,-1.6549224853515625,-1.3026580810546875,-0.235870361328125
1761380663267472100,7.36147216796875,-1.494842529296875,-1.223175048828125,-0.1112823486328125
1761380663277527800,7.37152783203125,-1.25372314453125,-1.118988037109375,-0.0010528564453125
1761380663287583700,7.381583740234375,-1.165252685546875,-1.0314483642578125,0.1091461181640625
1761380663297639000,7.391638916015625,-1.1537017822265625,-1.0141754150390625,0.2220458984375
1761380663307694800,7.40169482421875,-1.0338592529296875,-1.039031982421875,0.2413177490234375
1761380663317751000,7.4117509765625,-0.8683624267578125,-1.0226898193359375,0.1930694580078125
1761380663327807000,7.421806884765625,-0.7602386474609375,-1.01214599609375,0.1819915771484375
1761380663337863000,7.43186279296875,-0.695220947265625,-1.0174560546875,0.22296142578125
1761380663347919000,7.441919189453125,-0.5998077392578125,-0.9814453125,0.2418670654296875
1761380663357973800,7.451973876953125,-0.486602783203125,-0.907440185546875,0.2070159912109375
1761380663368030000,7.462030029296875,-0.400543212890625,-0.799713134765625,0.1656646728515625
1761380663378086000,7.4720859375,-0.42236328125,-0.6898956298828125,0.144134521484375
1761380663388141800,7.482141845703125,-0.5106048583984375,-0.5450439453125,0.1308746337890625
1761380663398198000,7.492197998046875,-0.5467681884765625,-0.41656494140625,0.1447296142578125
1761380663408254000,7.50225390625,-0.5582733154296875,-0.33038330078125,0.151641845703125
1761380663418308900,7.512308837890625,-0.5514984130859375,-0.25738525390625,0.1494140625
1761380663428365000,7.522364990234375,-0.5356292724609375,-0.2164154052734375,0.15106201171875
1761380663438421000,7.5324208984375,-0.5074462890625,-0.2040863037109375,0.1618804931640625
1761380663448477000,7.542476806640625,-0.4496917724609375,-0.2023468017578125,0.1724853515625
1761380663458532900,7.552532958984375,-0.427886962890625,-0.1924591064453125,0.1772003173828125
1761380663468588800,7.5625888671875,-0.3844757080078125,-0.190826416015625,0.209503173828125
1761380663478644000,7.57264404296875,-0.2488861083984375,-0.227569580078125,0.2878570556640625
1761380663488700000,7.582699951171875,-0.1827850341796875,-0.2748870849609375,0.40087890625
1761380663498755800,7.592755859375,-0.2267913818359375,-0.3066864013671875,0.5125885009765625
1761380663508812000,7.60281201171875,-0.29730224609375,-0.344573974609375,0.581451416015625
1761380663518868000,7.612867919921875,-0.362030029296875,-0.38055419921875,0.5632171630859375
1761380663528919800,7.622919921875,-0.3569793701171875,-0.4197998046875,0.4453277587890625
1761380663538975700,7.632975830078125,-0.3428802490234375,-0.4290771484375,0.310699462890625
1761380663549031700,7.64303173828125,-0.3095855712890625,-0.4086761474609375,0.2348785400390625
1761380663559087600,7.653087646484375,-0.220458984375,-0.37030029296875,0.227386474609375
1761380663569143600,7.6631435546875,-0.1768798828125,-0.2941436767578125,0.2235565185546875
1761380663579199500,7.673199462890625,-0.2462310791015625,-0.16912841796875,0.2487335205078125
1761380663589254700,7.683254638671875,-0.4893035888671875,-0.046875,0.3165130615234375
1761380663599310600,7.693310546875,-0.8077392578125,-0.12774658203125,0.34661865234375
1761380663609366500,7.703366455078125,-1.0421905517578125,-0.4319000244140625,0.2875518798828125
1761380663619422700,7.713422607421875,-0.8762359619140625,-0.8022003173828125,0.211212158203125
1761380663629478700,7.723478759765625,-0.5946044921875,-1.0023651123046875,0.127655029296875
1761380663639534600,7.73353466796875,-0.8775787353515625,-1.0684051513671875,0.0412750244140625
1761380663649589500,7.743589599609375,-1.4599609375,-1.1367645263671875,0.15484619140625
1761380663659645400,7.7536455078125,-1.83221435546875,-0.8602142333984375,0.242706298828125
1761380663669701600,7.76370166015625,-1.884857177734375,-0.5736846923828125,0.2263946533203125
1761380663679757600,7.773757568359375,-2.1804046630859375,-0.3899993896484375,0.3644866943359375
1761380663689813500,7.7838134765625,-2.7124481201171875,-0.27703857421875,0.58587646484375
1761380663699869700,7.79386962890625,-2.8249664306640625,-0.3641204833984375,0.6996307373046875
1761380663709924600,7.803924560546875,-2.3962249755859375,-0.521331787109375,0.584014892578125
1761380663719980800,7.813980712890625,-1.8777923583984375,-0.44439697265625,0.356048583984375
1761380663730036700,7.82403662109375,-1.8326263427734375,-0.368011474609375,0.157958984375
1761380663740092400,7.834092529296875,-1.8509521484375,-0.4291229248046875,0.0335845947265625
1761380663750148600,7.844148681640625,-1.7839202880859375,-0.5188446044921875,-0.07452392578125
