time,seconds_elapsed,z,y,x
1761380656023488500,0.117488525390625,-4.742995906355977,-5.803270683452487,3.81112071467936
1761380656033543700,0.127543701171875,-6.441947357174754,-5.3969952368944885,3.9905630895942448
1761380656043599600,0.137599609375,-7.7258064332515,-5.219495228219032,3.7112636253938076
1761380656053655600,0.147655517578125,-7.580200276964902,-5.282557541331649,2.991896335148811
1761380656063711700,0.157711669921875,-6.982456502133608,-5.2768806647390125,2.0968796325311065
1761380656073767700,0.167767578125,-5.877769751858711,-5.152349445185065,1.6111128622375428
1761380656083823600,0.17782373046875,-4.916605337333679,-4.169150308984518,1.2775678669780492
1761380656093878500,0.18787841796875,-4.343142601799965,-3.815235164260864,0.47492871154546734
1761380656103934500,0.1979345703125,-3.0049300042450424,-3.2593747209131716,-0.6005854279980063
1761380656113990700,0.20799072265625,-1.5810621534973381,-2.3954332477778193,-1.826329291975498
1761380656124046600,0.218046630859375,-0.4155851266950369,-1.8320137673527002,-2.649833833043277
1761380656134102500,0.2281025390625,0.45868952440619465,-1.3051754203498362,-2.8572476262062785
1761380656144158700,0.23815869140625,0.8160463340163231,-0.5541027860254049,-2.820010074701905
1761380656154214700,0.248214599609375,1.0003308882653712,0.5962047286957503,-2.7119588653057813
1761380656164269600,0.25826953125,1.594050229886174,1.5993477517724035,-2.9376971274495123
1761380656174325800,0.26832568359375,1.9607576361656187,2.222608245176077,-3.349870399874449
1761380656184381700,0.278381591796875,2.550382401949167,2.6422166360378263,-3.567448736438155
1761380656194437600,0.288437744140625,3.211436327174306,2.9662182885348796,-3.5722125898391006
1761380656204493600,0.29849365234375,3.456894604310393,3.2705297366559503,-3.528745496295392
1761380656214549500,0.308549560546875,3.2638696942448613,3.71108154682517,-3.441558503490686
1761380656224605400,0.31860546875,3.4807191320121285,4.263979633235931,-3.3185631152018904
1761380656234660600,0.32866064453125,3.5666532021462913,4.627735788494348,-3.5122806837067007
1761380656244716500,0.338716552734375,3.4118086773931977,4.859023501458764,-3.724198510290682
1761380656254772700,0.348772705078125,3.5044974824845787,4.838389294230938,-3.758411453276872
1761380656264828700,0.35882861328125,3.9159570536822077,4.388691470053792,-3.6633220167845484
1761380656274884600,0.368884521484375,4.089481144464016,4.127671466648579,-3.4382083162799475
1761380656284940800,0.37894091796875,3.312829832246899,3.8331671267926692,-3.344293184264004
1761380656294996700,0.388996826171875,2.5357225929558274,3.438482164785266,-3.60700537853986
1761380656305051600,0.3990517578125,2.643239549344778,3.2836510840356348,-4.3734021309852595
1761380656315107600,0.409107666015625,2.558773213675618,3.555027061760425,-5.537572166842222
1761380656325163500,0.41916357421875,2.4852315921247006,4.0314404589056965,-6.487935785889626
1761380656335219700,0.4292197265625,2.062929724395275,3.9045220519542694,-6.791425396233796
1761380656345275600,0.439275634765625,1.750074904334545,3.0022447106838226,-6.537800179255008
1761380656355331600,0.44933154296875,1.9995675515532492,2.0639099676042796,-5.866553361317515
1761380656365386800,0.45938671875,1.6712345918536184,1.2255237914860249,-5.408259558230638
1761380656375442700,0.469442626953125,0.49365913097858427,0.18360183268189428,-5.238417370831966
1761380656385498600,0.47949853515625,-1.1433429364055394,-1.1709078196793794,-5.200882882207631
1761380656395554600,0.489554443359375,-2.1766449509024617,-2.8154782764911648,-4.906790045762062
1761380656405610500,0.499610595703125,-3.5202293046236037,-4.356869513857364,-4.490721227203309
1761380656415666700,0.509666748046875,-5.5699289605677125,-5.443173050701618,-4.323889035275578
1761380656425722600,0.51972265625,-7.320889415565133,-5.413544220635295,-4.259267217761278
1761380656435777800,0.52977783203125,-7.632333784306049,-4.094371254593134,-3.8531346868053076
1761380656445833700,0.539833740234375,-6.2450517431557175,-2.3239935669422147,-2.940856760524213
1761380656455889700,0.5498896484375,-3.8736931984484193,-0.9221808961361646,-1.5324379694513977
1761380656465945600,0.559945556640625,-1.1777426341354846,-0.5707698431879281,-0.08430354632288217
1761380656476001800,0.570001708984375,0.16661270395815372,-0.9422674063533544,1.1182890130393206
1761380656486057500,0.580057373046875,-0.16919921332001686,-1.460931799250841,2.0698890420138834
1761380656496113700,0.59011376953125,-0.10176409195065497,-2.4337042339831587,2.0692305781051514
1761380656506168600,0.60016845703125,0.6710702923268079,-3.2573002527266737,1.8394224361740052
1761380656516224500,0.610224609375,0.9555781388252973,-3.6738971868127583,2.08926389683038
1761380656526280000,0.620280029296875,0.9654524671077728,-4.111306607303023,2.6119924704268573
1761380656536336000,0.6303359375,0.46843993404805656,-4.2066789523899555,2.7208608414247633
1761380656546392000,0.64039208984375,-0.21272622035741806,-3.88762352412343,2.8429613267004488
1761380656556448000,0.650447998046875,-0.3239595669209957,-2.6221990994036197,3.105710345855355
1761380656566504000,0.66050390625,-1.1023439865410327,-0.8604594762384891,3.1702795563995836
1761380656576559000,0.67055908203125,-2.0176555814296004,0.24592297203838823,3.4647768819928166
1761380656586615000,0.680614990234375,-1.897982907822728,1.304375794404745,4.15892585209012
1761380656596671200,0.690671142578125,-0.9329799380481243,2.9681483798146244,4.269298490171134
1761380656606727200,0.70072705078125,0.30377953320145606,4.060190752571821,3.9019589234679937
1761380656616783000,0.710783203125,2.2189760261535643,4.413262432208657,3.7049919977784156
1761380656626839000,0.720839111328125,3.7411189576923847,4.791697685682773,4.138435144986212
1761380656636895000,0.73089501953125,4.785826747822761,4.971611769762635,5.014733118608594
1761380656646950000,0.740949951171875,5.490330523195863,4.948877959907055,5.79761251156032
1761380656657006000,0.751006103515625,5.709128172421455,5.093927066832781,6.483641888087988
1761380656667062000,0.76106201171875,5.365948941245675,4.752728195819258,7.250344053220749
1761380656677118000,0.771117919921875,4.925361475241184,4.1685207789093255,8.019327022767067
1761380656687174100,0.781174072265625,4.249719052693248,3.772896490225196,8.843909129938483
1761380656697230000,0.79122998046875,4.286655575424432,3.450903254941106,9.838202491605282
1761380656707285000,0.801284912109375,4.568957436311245,3.24926892196238,10.58487659870982
1761380656717341000,0.8113408203125,4.097842145574092,3.202349349877238,10.963584823906421
1761380656727396900,0.82139697265625,2.849163688471913,2.7865339215576648,10.666257243323326
1761380656737453000,0.831453125,2.079888457980752,1.2394634695112705,9.513765370300412
1761380656747509000,0.841509033203125,1.898018563657999,-1.0926502755224705,7.661168249124288
1761380656757565000,0.85156494140625,1.6166741496264934,-3.2290105623096226,5.393571107664704
1761380656767621000,0.86162109375,0.5782710125982761,-4.740680030629038,3.099514998346567
1761380656777676000,0.871676025390625,-2.6233652205735445,-5.46892357802987,1.9178379473716018
1761380656787732200,0.881732177734375,-5.829096614104509,-5.494421591901779,2.198810605481267
1761380656797788200,0.8917880859375,-9.469266887882352,-6.483475883871317,3.3089731568187473
1761380656807844000,0.901843994140625,-11.680146701341867,-7.934206022581457,3.743481595170498
1761380656817900000,0.911900146484375,-11.952377250069379,-6.912955680406093,2.0356904198139905
1761380656827956000,0.9219560546875,-12.108635148751736,-4.896786538141965,-0.17049319865331053
1761380656838012000,0.932011962890625,-12.392245169627666,-4.997778476676345,-0.8993021979171782
1761380656848067000,0.942067138671875,-11.372903291422128,-6.272849850663542,-0.349325917237252
1761380656858123000,0.952123046875,-9.8874414465487,-6.628468876695632,-0.10063362661600113
1761380656868179200,0.96217919921875,-8.379289046439528,-5.790341643774509,-0.4304906540777534
1761380656878235100,0.972235107421875,-5.831486139589548,-4.800310615727305,-0.4274880381956696
1761380656888291000,0.982291015625,-3.6197330504268406,-3.9024154350638387,-0.3314228154737502
1761380656898347300,0.99234716796875,-2.764675140970945,-2.8961849673658606,-0.5682179667480289
1761380656908403200,1.0024033203125,-2.805800347563624,-1.8169740191310644,-0.9314378231726587
1761380656918458000,1.0124580078125,-2.552587218517065,-1.037993387183547,-1.487845817400515
1761380656928514000,1.02251416015625,-1.4338298573136328,-0.3773217392742634,-2.2131768383555115
1761380656938570000,1.032570068359375,-0.32343992696106433,0.14466799865365026,-2.989582797509432
1761380656948626000,1.0426259765625,0.6469435668081045,0.5513906044572592,-3.5843542785316704
1761380656958682000,1.05268212890625,1.3896750737667083,1.4172884723573922,-3.7640772239536044
1761380656968738000,1.062738037109375,1.8917653484821317,2.3911346738010644,-3.7120921851724384
1761380656978793200,1.072793212890625,2.1106898389577866,3.1968811475992203,-3.6399095770150423
1761380656988849000,1.082848876953125,2.16422736787796,3.768513160574436,-3.604026654990017
1761380656998904800,1.09290478515625,2.1783090847223994,4.401935567030311,-3.4785055476158857
1761380657008961000,1.1029609375,2.381048748594522,5.327337178778648,-3.183207427033782
1761380657019017000,1.113016845703125,2.252766652074456,6.06268617427051,-3.107973030090332
1761380657029073000,1.123072998046875,1.7375614597201345,6.530666089591383,-3.4746649465396997
1761380657039129000,1.133129150390625,1.3678817596316337,6.808775759485363,-4.0263796683847906
1761380657049184000,1.14318408203125,1.3396253869622945,6.493205835247039,-4.49456212054044
1761380657059240200,1.153240234375,1.7505811002910137,5.472148385295272,-4.772191605702043
1761380657069296000,1.163296142578125,3.17720497174859,4.182707709693909,-4.746015546438097
1761380657079352000,1.17335205078125,5.122542920464277,2.967234187579155,-4.964274851003289
1761380657089408300,1.183408203125,6.222457634031772,2.289284072610736,-5.768020506373047
1761380657099464000,1.1934638671875,6.571808247318863,1.9881050772964952,-6.788147397476434
1761380657109520000,1.203519775390625,4.297381552100181,0.5709352628827095,-7.598965767711401
1761380657119575000,1.213574951171875,2.916407086661458,-0.8859037140965461,-7.610631655585766
1761380657129631000,1.223630859375,2.0973288376033303,-1.2512860092520712,-7.960981801304221
1761380657139687200,1.233687255859375,0.8353302956789731,-1.212585983979702,-8.524317110577226
1761380657149743000,1.2437431640625,0.745502725237608,-1.4573404967606067,-9.07623787638843
1761380657159799000,1.253799072265625,-0.3773813605070114,-1.2235866859436035,-9.187980341517925
1761380657169855200,1.263855224609375,-3.0602894878953695,-1.385820736426115,-8.14381148056984
1761380657179911200,1.2739111328125,-4.750094924706221,-3.2521868552356956,-6.237310919770598
1761380657189966000,1.283966064453125,-7.214671851336956,-4.908367670342326,-4.633357427768409
1761380657200022000,1.29402197265625,-10.965641171914339,-5.836658573791384,-4.131422343614697
1761380657210078000,1.304077880859375,-15.159932936418056,-5.756643956834077,-4.675714806504548
1761380657220134100,1.314134033203125,-17.274756514179707,-3.8550422739922996,-5.259911409759521
1761380657230190000,1.324190185546875,-15.9543788485229,-1.0952566586285828,-5.433493368208408
1761380657240246000,1.33424609375,-11.571301711219549,1.4783599039137363,-4.0046845539271825
1761380657250302000,1.344302001953125,-7.1996800339102744,1.297066932696104,-1.5355137236349283
1761380657260357000,1.354357177734375,-5.201387909120321,-0.6387526615679263,0.954517889182642
1761380657270413000,1.3644130859375,-3.4855572196930646,-1.4121651379942892,3.1001912901729343
1761380657280469000,1.374468994140625,-2.195322763365507,-1.2743646870225667,3.948862421201169
1761380657290525000,1.38452490234375,-1.8088228613793849,-1.6923925306946037,4.1618811947643755
1761380657300580900,1.394580810546875,-3.1254262691944836,-3.069484017220139,4.029590447124838
1761380657310637000,1.404636962890625,-4.508858649179339,-4.0073014584273094,4.276633947625756
1761380657320692000,1.41469189453125,-4.610433356037736,-3.237409557342529,4.528900151211023
1761380657330748200,1.424748046875,-4.394001266899704,-1.3629028021752834,4.635041143071652
1761380657340804000,1.43480419921875,-3.399481110739708,0.47087505224049087,4.852800096899271
1761380657350860000,1.444860107421875,-1.0152034632265567,1.9034709838449955,4.521094153635204
1761380657360916200,1.454916259765625,1.0196908377736806,2.9107541754662987,3.001807488310337
1761380657370972200,1.46497216796875,2.0680209100544453,4.172752132868767,1.946729549204558
1761380657381027800,1.47502783203125,3.7149838149607177,4.946420629882812,1.6692057163745164
1761380657391083000,1.4850830078125,4.289299952453375,5.48175675611794,1.8788716723784804
1761380657401139000,1.495138916015625,4.0063820054948325,5.868078378927708,2.8333626004889605
1761380657411195100,1.505195068359375,4.449488176321983,5.55437950925827,4.343428433004021
1761380657421251000,1.5152509765625,5.478487525188923,4.84524807408452,5.6429789992094035
1761380657431307000,1.52530712890625,6.319117096319794,5.021467979821563,6.393287663424014
1761380657441363200,1.53536328125,6.7441288075298065,5.808186512544751,6.709583563849329
1761380657451419100,1.545419189453125,6.479600503742694,6.668732498022914,7.19756114206016
1761380657461474000,1.55547412109375,6.258966286739707,7.072518465852737,8.247751162993907
1761380657471530000,1.565530029296875,6.376562738594412,6.257325533795356,9.755538236922025
1761380657481586000,1.5755859375,5.104713249263167,5.342993013072014,11.037040520739554
1761380657491642000,1.58564208984375,3.7666917903661727,4.5629222478002305,11.54153318042159
1761380657501698000,1.595697998046875,3.821888192409277,3.6632974668651817,11.344908200037478
1761380657511754000,1.60575390625,3.843565186688304,3.3358646708756683,10.440932238155602
1761380657521811200,1.615811279296875,3.935281347355246,3.514657641971111,8.915201511257886
1761380657531866000,1.6258662109375,3.9024177731513974,3.472731055867672,7.211763270413875
1761380657541922000,1.635922119140625,5.136433498650789,3.0557290481120347,5.863862222537398
1761380657551978000,1.64597802734375,5.301979450160265,2.051950065219402,4.295670656529069
1761380657562034200,1.6560341796875,1.910952279511094,0.2824228569179773,3.4206665221095083
1761380657572090000,1.666090087890625,-1.7899305293828247,-3.0590064623475075,3.2592724295824764
1761380657582146000,1.67614599609375,-6.516505462291836,-6.5183268325001,3.0520719869092106
1761380657592202200,1.6862021484375,-8.140241805389524,-9.768200150096416,3.1462156669840216
1761380657602257200,1.696257080078125,-7.358975108331442,-10.931906075572966,2.418030571772158
1761380657612313300,1.706313232421875,-8.14750448986888,-8.50808376865685,1.02079207701385
1761380657622369000,1.716369140625,-10.218702860915661,-7.338302322658896,0.7342616386465728
1761380657632425000,1.726425048828125,-12.84722531812191,-8.297774546313285,1.266274757938832
1761380657642481200,1.736481201171875,-12.972566685014963,-9.421210420721769,1.4454729488342999
1761380657652537000,1.746537109375,-10.337190124130249,-9.77333926655054,0.2633040226891637
1761380657662592300,1.75659228515625,-6.981879579028487,-8.70562586388588,-1.3975953453719616
1761380657672648200,1.766648193359375,-4.09674733607471,-6.948515069565176,-2.395322919271141
1761380657682704100,1.7767041015625,-2.078720583245158,-4.935583009526133,-2.864503296422958
1761380657692760300,1.78676025390625,-0.875215731343627,-3.120984487354755,-2.891357985600829
1761380657702816300,1.796816162109375,0.5568190592467784,-2.028091050726175,-2.3945059037998315
1761380657712872200,1.8068720703125,-1.2137094350516795,-1.4806231726706027,-3.970800989025831
1761380657722928400,1.816928466796875,0.21212387055009602,-0.7874310649067163,-3.885210617762804
1761380657732983000,1.826983154296875,0.5827540032312274,0.6355652637034654,-4.143599103620648
1761380657743039200,1.837039306640625,0.13404957400560377,1.4098188671290874,-4.157769375531375
1761380657753095200,1.84709521484375,0.7985416569858789,2.117160496276617,-4.0443554700583215
1761380657763151000,1.857151123046875,1.1965908347293734,3.4991268953621386,-3.877214942833781
1761380657773207300,1.867207275390625,1.942541595995426,4.6391953401416535,-4.05663042974174
1761380657783263200,1.87726318359375,3.221059311044216,5.386468582183122,-4.398917680513859
1761380657793318100,1.887318115234375,4.138919421371817,6.173885618564486,-4.523699075436592
1761380657803374000,1.8973740234375,4.185939531221986,6.49948944556117,-4.590367304086685
1761380657813430000,1.907429931640625,3.685277828004956,6.252509073424339,-4.948229725131392
1761380657823486200,1.917486328125,3.475491168230772,5.87931990391016,-5.389990326568484
1761380657833542100,1.927542236328125,3.500217028686404,5.641056506714224,-5.734065045279264
1761380657843598000,1.93759814453125,3.2846792580395934,5.442115066081286,-6.282642930403352
1761380657853654300,1.947654296875,3.5689924587488173,5.326175149261951,-7.03754418310523
1761380657863709200,1.957709228515625,3.693754856710136,5.028240250435471,-7.676358803993463
1761380657873765000,1.96776513671875,4.045484474088251,4.653206329837441,-7.9981404423534865
1761380657883821300,1.9778212890625,4.013137032712995,4.618670438507199,-7.939533355084061
1761380657893877200,1.987877197265625,3.196356831464171,4.324017630091309,-7.475962488377093
1761380657903933200,1.99793310546875,2.0724553853705525,3.6000486912697554,-6.789727944666147
1761380657913989000,2.007989013671875,1.4342951367378234,2.5911358526200057,-5.924245087307691
1761380657924045000,2.018045166015625,-0.2074710763081908,1.5810796891540289,-5.605709883522987
1761380657934100200,2.028100341796875,-2.1037389969065785,-0.10711655889451503,-5.651572055509686
1761380657944156200,2.03815625,-2.8229154407545924,-2.949439587691426,-5.980232931989431
1761380657954212000,2.048212158203125,-4.25215709349513,-5.859133440449834,-6.878694514364004
1761380657964268300,2.058268310546875,-7.989514652827381,-7.903627928966284,-7.700643350422382
1761380657974324200,2.06832421875,-11.432075611358881,-9.201599701547622,-8.20218534360528
1761380657984380200,2.078380126953125,-13.256396486121416,-8.954284398368001,-8.012761088380216
1761380657994436400,2.088436279296875,-13.947738582104444,-7.215163434246182,-6.563214021974802
1761380658004491000,2.098490966796875,-13.170017010307312,-4.694371283918619,-3.883369958332181
1761380658014547200,2.108547119140625,-10.492359643054009,-2.8448364729225633,-0.717078010264039
1761380658024603100,2.11860302734375,-6.890923296818137,-2.282127186593413,2.826931982919574
1761380658034659000,2.1286591796875,-3.399956034775078,-3.168393304261565,6.460427601239084
1761380658044715300,2.13871533203125,-2.499697924372554,-3.6341684030145402,9.139988171765207
1761380658054771200,2.148771240234375,-2.512189741677046,-3.030707419580221,10.42234561110735
1761380658064826400,2.158826416015625,-1.1589070007622242,-2.3059242417663333,10.316660546320676
1761380658074882300,2.16888232421875,0.3655342708468437,-1.148554533573985,9.789377378159761
1761380658084938000,2.17893798828125,2.1211118642508984,-0.576290652436018,9.295108006328343
1761380658094994200,2.188994140625,3.2972645988464353,-0.2896300118178129,8.628193080115318
1761380658105050000,2.199050048828125,3.79747826603502,0.06218669932186603,8.278321073302626
1761380658115106000,2.20910595703125,4.006302218256891,0.5959235736668109,7.859538611871003
1761380658125162200,2.219162353515625,3.890781111371517,1.5933745225816964,7.409583598062396
1761380658135217200,2.229217041015625,3.5431370097413657,2.7193343625098465,7.038682831746339
1761380658145273000,2.239273193359375,3.533732929319143,3.8586516966611146,7.0165691996157165
1761380658155329300,2.249329345703125,3.610416940549016,4.523876185569167,7.3411524513930075
1761380658165385200,2.25938525390625,4.0150820293009275,4.230098990944028,7.725816954645514
1761380658175441200,2.269441162109375,4.941269238469005,3.6125720727562904,7.851894234597682
1761380658185497300,2.279497314453125,5.4226382121950385,3.646889937421679,8.224368533840774
1761380658195553000,2.289552978515625,4.797202128317952,4.360221162372827,9.12497063537538
1761380658205608200,2.299608154296875,2.786498265722394,5.1340878123074765,10.560904186969994
1761380658215664000,2.3096640625,2.447460372135043,4.888253103074431,11.980813070958853
1761380658225720000,2.319719970703125,3.118950351178646,4.756292610302567,12.33479602022171
1761380658235776300,2.3297763671875,3.9665392399281263,4.33645508686006,12.306998497235774
1761380658245832200,2.339832275390625,4.400694042536616,3.3856887322306632,12.127954766249657
1761380658255888100,2.34988818359375,4.137228399544954,2.717119024547934,11.426450172692537
1761380658265944300,2.3599443359375,3.211961227831244,2.08640061635375,10.575306806331872
1761380658275999000,2.3699990234375,1.2567086188226937,2.083916982844472,9.525926348215341
1761380658286055200,2.38005517578125,-1.5335907927483319,0.9600111528366804,8.633219968366623
1761380658296111000,2.390111083984375,-5.683254895496368,-1.5210533827364443,8.327199378240108
1761380658306167000,2.4001669921875,-8.46554343456924,-3.7218309043765068,8.188460185113549
1761380658316223200,2.41022314453125,-12.064898882877825,-6.3573360600769515,8.428044601780176
1761380658326279200,2.420279052734375,-17.10251661798954,-9.56471872794628,8.769981139418482
1761380658336334300,2.430334228515625,-20.15707369971275,-11.196993766808509,8.238228132367134
1761380658346390300,2.440390380859375,-19.518621482396124,-10.589885951304435,5.50230854575932
1761380658356446200,2.4504462890625,-17.996303194290398,-7.608160297036171,0.39631446290537714
1761380658366502400,2.46050244140625,-16.43833140900135,-3.213821176484227,-3.317260508170724
1761380658376558000,2.47055810546875,-15.116142894530295,-0.6291437062233686,-5.05683213866949
1761380658386614000,2.480614013671875,-12.752878808951378,-0.006360767203569412,-6.021392625373601
1761380658396670200,2.490670166015625,-8.21637753508687,-0.27088556385934354,-7.5179510338008395
1761380658406725000,2.50072509765625,-3.095111794951558,-0.002393032616376877,-9.440553419095277
1761380658416781300,2.51078125,1.3753817599982023,0.7571896559000015,-10.425242501592635
1761380658426837200,2.520837158203125,3.9409807280406355,0.9561170680075883,-11.067405263864993
1761380658436893200,2.53089306640625,4.240936026778817,0.9389853159427642,-11.533951931512355
1761380658446949000,2.54094921875,4.646321831020712,1.571987451159954,-11.101141529250144
1761380658457005300,2.55100537109375,4.940163907575607,2.567204941934347,-10.15367012451291
1761380658467061200,2.561061279296875,4.462118525314331,3.463737602072954,-8.554940796899794
1761380658477116200,2.5711162109375,2.7283418448299166,3.7004736435711383,-6.6488803810834884
1761380658487172000,2.581172119140625,1.361230192787945,3.371660206878185,-5.337291586560011
1761380658497228000,2.59122802734375,0.4145549068644643,3.4993659648150204,-4.8051104172244665
1761380658507284200,2.6012841796875,0.03357143021225929,3.566241698735952,-4.8057662507846945
1761380658517340200,2.611340087890625,-0.37643326600193977,3.270118233245611,-5.127579161065817
1761380658527399000,2.62139892578125,-0.5571493141144513,3.1993408157110212,-5.418575785061717
1761380658537454800,2.631454833984375,-0.49950785700678824,3.7029695520401,-5.585545047372579
1761380658547510000,2.641510009765625,-0.29746260513961315,4.160167961105704,-5.860654950928688
1761380658557566000,2.65156591796875,0.5891232460021972,4.427258808857203,-6.392749903285503
1761380658567622000,2.661621826171875,1.560683382335305,4.779952887353301,-7.205010873544215
1761380658577678000,2.671677978515625,2.685171980667114,4.766570258688926,-8.160713515532017
1761380658587734000,2.681734130859375,3.494998417255282,4.733470537641645,-8.752263696420192
1761380658597790000,2.6917900390625,3.7268724056750533,4.715166819187998,-8.925007450479269
1761380658607844900,2.701844970703125,3.3762469501465557,3.941434609287977,-8.656168882277607
1761380658617900800,2.71190087890625,2.7323276995956896,2.61667770563364,-7.689786440843343
1761380658627957000,2.72195703125,1.1425059010595082,0.5871458084493875,-6.395423506408929
1761380658638013000,2.732012939453125,-0.6998579953938722,-1.6597107427984474,-5.140863005530834
1761380658648068900,2.74206884765625,-1.764180002054572,-3.373918799459934,-4.709593402969837
1761380658658124800,2.752124755859375,-3.307051248845458,-3.309503318172693,-4.964286541441083
1761380658668181000,2.762180908203125,-5.620902191957831,-3.86496336402595,-4.713486611016094
1761380658678236000,2.77223583984375,-6.565414746889472,-5.981985328614711,-4.124007391183078
1761380658688292000,2.7822919921875,-7.8526108584344385,-8.120430604982376,-3.744482296645641
1761380658698347800,2.79234765625,-10.275004009330273,-10.029518844187258,-3.2519702898755667
1761380658708403700,2.80240380859375,-12.300687998914718,-10.94047984265089,-1.472254280515015
1761380658718460000,2.8124599609375,-13.440847044587134,-9.70582815733552,1.5029416797235606
1761380658728515800,2.822515869140625,-13.609771532618998,-7.21712567422986,3.7232387253478167
1761380658738571800,2.83257177734375,-12.287101372110843,-4.728942831084132,5.188294618791342
1761380658748627000,2.842626953125,-9.447306985008716,-3.2680420114934443,5.5255958978444335
1761380658758683000,2.852682861328125,-5.805653194674849,-2.4423364532500504,4.948929982355237
1761380658768739000,2.862739013671875,-3.8530952315777536,-1.8117723588347434,4.511589535447955
1761380658778795000,2.872794921875,-3.5931904959380625,-1.20289168843925,4.69724070187509
1761380658788851000,2.882850830078125,-3.0193004749029875,-0.9246575153827666,4.964022922068834
1761380658798907000,2.892906982421875,-1.4551286659300326,-0.9044956018418073,4.995693487095832
1761380658808961800,2.9029619140625,0.0376969857096672,-0.7756102787315845,5.0235518003582955
1761380658819018000,2.91301806640625,0.7353548407107591,-0.6564192511618137,5.2149324503481385
1761380658829074000,2.923073974609375,1.5950450861424206,-0.3133890730679035,5.028834709197283
1761380658839129900,2.9331298828125,3.0412890193492172,0.6468173100799322,4.325986007554829
1761380658849186000,2.94318603515625,4.098646447694302,1.9281115041047334,3.778314131359756
1761380658859242000,2.953241943359375,4.174107639130949,3.2896588000178335,3.596601765686273
1761380658869298000,2.9632978515625,3.882873699247837,4.422403185519576,3.4271433169081806
1761380658879352800,2.973352783203125,4.072600152289867,5.3575318260341875,3.4364047739893198
1761380658889408800,2.98340869140625,4.561192063006758,5.954928394863009,3.5206270717695354
1761380658899465000,2.99346484375,4.728315639096498,6.607838761121034,3.7888679663389917
1761380658909521000,3.00352099609375,4.640291318684816,7.004203639039397,4.185106003007292
1761380658919576800,3.013576904296875,4.324543699792027,6.798007697233557,4.783997486568987
1761380658929633000,3.023633056640625,3.7701106588989495,6.44009033113122,5.648336726850271
1761380658939689000,3.03368896484375,4.140105416285992,5.8770344233214855,6.784731451553106
1761380658949743900,3.043743896484375,5.597632375529408,4.724080778005719,8.020609463793038
1761380658959800000,3.053800048828125,7.094574230316281,3.917057123878598,8.999299013614655
1761380658969856000,3.06385595703125,8.631037948152422,3.264952228784561,9.933198989117145
1761380658979911700,3.07391162109375,10.091852258503437,2.0213532669037577,10.821391690933703
1761380658989968000,3.0839677734375,10.137190114355088,0.7575701796501875,11.113810456687212
1761380659000023800,3.09402392578125,8.392650047793984,-1.0245797788590192,10.914622932338714
1761380659010079000,3.104078857421875,5.734696328920125,-2.7994425029695034,10.558700539445876
1761380659020135000,3.114135009765625,1.9138532616496085,-3.2841789073020218,10.238991615706682
1761380659030190800,3.12419091796875,-2.1772867559373377,-3.865741947183013,9.175841575434804
1761380659040247000,3.1342470703125,-3.4255686149373648,-3.4016730678260325,7.371497905296087
1761380659050303000,3.144302978515625,-3.77283277733922,-2.5834359457671643,5.257155973571539
1761380659060359000,3.15435888671875,-6.214692845249176,-3.8504789115995166,4.612971934604644
1761380659070415000,3.1644150390625,-11.466631376433371,-8.146746364977956,7.380653856176138
1761380659080469800,3.1744697265625,-16.09619671844244,-12.609127340620756,10.704599541199206
1761380659090526000,3.18452587890625,-15.372308443641662,-14.492703537428378,10.218526335304976
1761380659100582000,3.194581787109375,-14.111202466642856,-12.591203561395407,5.715228827384114
1761380659110637800,3.204637939453125,-13.605495170474052,-8.316791965994238,2.0676110140793025
1761380659120694000,3.214694091796875,-12.666002489531039,-4.041369147723913,0.6164205643810331
1761380659130750000,3.22475,-10.462000745147465,-2.5105022269815205,-0.8276448557429015
1761380659140806000,3.234805908203125,-6.9924033111304045,-1.6115297724753617,-2.2465201589003203
1761380659150861000,3.244861083984375,-3.5006256094872947,0.4962637605190277,-3.5479765587270258
1761380659160916700,3.254916748046875,-0.8077543064892292,1.9602584544718265,-4.591551253174245
1761380659170973000,3.264972900390625,0.7569567239269613,2.203545817309618,-5.451420654565095
1761380659181028900,3.27502880859375,0.3548401506140828,2.3282599922150373,-5.800197851878404
1761380659191084800,3.285084716796875,-1.4017784762755034,3.0952690313398836,-5.260123591205478
1761380659201141000,3.29514111328125,-2.6574682734444734,4.229109395384788,-4.567500807762146
1761380659211196000,3.30519580078125,-2.621763630595803,5.408314503288269,-4.4556858619183295
1761380659221251800,3.315251953125,-1.6192758565574883,6.6323220449924465,-4.8534044925332065
1761380659231308000,3.32530810546875,-0.04715133501440286,7.765261660805344,-5.19775276748836
1761380659241364000,3.335364013671875,1.3073404894292353,8.678310571458935,-5.054473008322716
1761380659251420000,3.345419921875,2.1134937904626128,9.30171777985692,-4.719888294751942
1761380659261475800,3.355475830078125,2.9540342220053075,9.608197219666838,-4.6245624191552395
1761380659271531800,3.36553173828125,3.5990015203043817,9.867744227910041,-4.898505032497644
1761380659281587000,3.3755869140625,3.6949011041358113,10.070374586188793,-5.543257226741313
1761380659291643000,3.385642822265625,3.5356235653713344,9.814697697377204,-6.153780403646826
1761380659301698800,3.39569873046875,3.023698125340044,9.143524529197812,-6.6283642472773785
1761380659311755000,3.405755126953125,2.2128455605745314,8.439596507886051,-7.135113745975494
1761380659321811000,3.41581103515625,1.4434478727474809,7.541230202579498,-7.5787325424999
1761380659331867000,3.425866943359375,1.1606032832860946,6.250050574356317,-7.7876967799752945
1761380659341923000,3.435923095703125,1.2306845352500677,4.538284065628051,-7.640728103163838
1761380659351977700,3.445977783203125,0.9488681197926402,2.938618918469548,-7.084813883802294
1761380659362034000,3.456033935546875,0.5132818230763078,1.8070289636999368,-6.561508971622586
1761380659372089900,3.46608984375,0.3586602934241295,0.9264777165472506,-6.543272473186254
1761380659382145800,3.476145751953125,0.2860007154047489,-0.11769114440083503,-6.82746993856132
1761380659392202000,3.486201904296875,-0.8637100024670362,-1.0727677634447812,-7.308282447448373
1761380659402258000,3.4962578125,-2.146355611100793,-1.6939093649983405,-7.579326416739821
1761380659412313000,3.50631298828125,-2.185426807773113,-1.7434844200283288,-7.078382973971962
1761380659422369000,3.516369140625,-2.438959085771441,-2.3974229602903128,-5.294013001325726
1761380659432425000,3.526425048828125,-2.2356483440130948,-4.987694305035472,-3.108940413817763
1761380659442481000,3.53648095703125,-3.3841678062736986,-8.421357671362161,-2.2455407924741504
1761380659452536800,3.546536865234375,-6.748421536287665,-11.330682106286286,-2.4485990207761525
1761380659462592800,3.5565927734375,-11.018235282504557,-12.65971771017313,-2.077710237158835
1761380659472649000,3.56664892578125,-15.68764748173356,-11.995165421438216,-0.6506712820943444
1761380659482704000,3.576703857421875,-17.604647809237242,-9.92642087328434,1.1506507021356374
1761380659492760000,3.586760009765625,-15.951335827565192,-7.30571405826509,2.927298775292933
1761380659502816000,3.59681591796875,-11.012283680623769,-4.9392345177710055,4.35449167881012
1761380659512872000,3.606871826171875,-6.139646079832315,-3.734738316744566,4.784664133784174
1761380659522924800,3.6169248046875,-2.3969980128765105,-3.057089815071225,5.188182975110411
1761380659532981000,3.62698095703125,0.36473347585797306,-2.6955314621180295,5.524457249203324
1761380659543036000,3.637035888671875,2.0552637198120354,-3.056400079241395,5.804108887842297
1761380659553092000,3.647092041015625,3.5038358037054538,-3.2387364220321175,5.591052997139096
1761380659563148000,3.65714794921875,4.748026886260509,-2.863076478490233,5.245657843479514
1761380659573203700,3.66720361328125,5.511107353764772,-2.304899574893713,4.8986225213974715
1761380659583260000,3.677260009765625,5.277032055908442,-1.5624854633212089,4.659211707732081
1761380659593315800,3.68731591796875,4.675615145522356,-0.1969125651538372,4.6290918792784215
1761380659603371800,3.697371826171875,4.1052997681036585,1.6054694495230912,4.696708786955475
1761380659613427000,3.707427001953125,3.7692800532937047,3.1887375886321068,4.9358524741172785
1761380659623483000,3.71748291015625,3.5849861466944217,4.598241398462653,5.368433159276843
1761380659633539000,3.7275390625,3.9616204882264134,5.724799788805842,5.622065975040197
1761380659643595000,3.737594970703125,4.7573996947616335,6.4141550948858255,6.078101185545325
1761380659653651000,3.74765087890625,6.7069158059448,6.346220207300782,6.73587945010066
1761380659663707100,3.75770703125,5.9208899316608905,6.4752756262809035,6.89701576847434
1761380659673763000,3.76776318359375,5.22874820973277,6.947077730238437,7.357496267950534
1761380659683818000,3.77781787109375,4.6653743220150465,7.129528639319538,7.977118112590909
1761380659693874000,3.7878740234375,2.8788971479564904,8.196469888567924,8.375190963470935
1761380659703929900,3.797929931640625,1.350631934145093,9.27342458230853,9.461894897809625
1761380659713985800,3.80798583984375,2.2773878831118344,8.893837236189842,10.570410850983858
1761380659724042000,3.8180419921875,2.678642871159315,8.968873480212688,11.06375667822957
1761380659734098000,3.828097900390625,2.0837106466174125,9.295844503909349,10.516429085427522
1761380659744153000,3.838153076171875,1.1327268498450518,9.012125761961936,9.251776814123987
1761380659754208800,3.848208740234375,-0.7619932567894458,8.186421957284212,7.716880199474096
1761380659764264700,3.8582646484375,-3.316957725831866,6.697531307005882,6.460356289568543
1761380659774321000,3.86832080078125,-4.987793673756719,4.306898152986169,5.617291600245237
1761380659784376800,3.878376953125,-5.795637412095069,1.5825094296962021,4.470209477311372
1761380659794432800,3.888432861328125,-6.466133119404316,-1.4177859004855156,3.2477406894817946
1761380659804489000,3.898489013671875,-7.615222490507364,-5.151423562511801,2.0508827282488347
1761380659814544000,3.9085439453125,-8.474684187880158,-8.162856957301496,0.492627997832559
1761380659824600000,3.91860009765625,-10.391989051288366,-10.219565615224838,-1.9319608730092643
1761380659834656000,3.928656005859375,-11.938513559889794,-9.520271098932623,-4.801299042242765
1761380659844712000,3.9387119140625,-12.763259917712212,-6.582238455918431,-6.914954745268822
1761380659854767900,3.948767822265625,-13.000650623726845,-4.3189276134759185,-8.530718209791184
1761380659864823800,3.95882373046875,-12.064634678983687,-4.1224405802577735,-9.033183747559786
1761380659874879000,3.96887890625,-10.124899957102537,-4.5054257521212095,-7.565556834584474
1761380659884935000,3.978934814453125,-8.726694370877743,-4.799707389137149,-5.719222865456342
1761380659894990800,3.988990966796875,-6.10925561774373,-5.404316373562812,-5.055590614175796
1761380659905047000,3.999047119140625,-1.460577578985691,-5.607358235251903,-5.106065832915902
1761380659915103000,4.00910302734375,1.880297029006481,-5.023181213480234,-4.9817631614208215
1761380659925156900,4.019156982421875,2.5067723928034304,-4.056487806400656,-4.517583515165746
1761380659935212800,4.029212890625,2.209756070126593,-3.203803640338778,-3.8961230569213625
1761380659945268000,4.03926806640625,2.0053823753118514,-2.324830602288246,-3.5687729707792397
1761380659955324000,4.049323974609375,2.287256366175413,-1.232795243793726,-3.6197701675668355
1761380659965379800,4.0593798828125,2.686190217798948,-0.22090485063791274,-3.7524379318252206
1761380659975436000,4.06943603515625,2.3213448059991,0.7891875531852245,-3.9195825507029887
1761380659985492000,4.079491943359375,1.6391232973217964,1.9959791716724633,-4.071453904864192
1761380659995548000,4.0895478515625,0.9263178498104214,3.191478411772847,-4.144401067653298
1761380660005604000,4.09960400390625,0.42910979417860506,3.7088486732065675,-3.931630715893209
1761380660015658800,4.10965869140625,0.4169651828765869,3.3828234059274194,-3.778207456114888
1761380660025715000,4.11971484375,1.3912053520739078,3.562051261308789,-4.1574566563203925
1761380660035771000,4.12977099609375,2.5498022639736533,4.37700103226006,-5.098834712618589
1761380660045826800,4.139826904296875,3.3435943883448838,5.232295673081278,-6.435422923842072
1761380660055883000,4.149883056640625,3.0675328831523654,5.77700460781753,-8.06336899358928
1761380660065939000,4.15993896484375,2.7740046948522328,6.593198825871944,-8.983073855000734
1761380660075994000,4.169994140625,1.597416491448879,7.985013834276795,-8.536082367172837
1761380660086050000,4.180050048828125,1.6013281119346618,8.974412994161248,-7.112394549167155
1761380660096105700,4.190105712890625,1.6919219905734062,8.897903170454502,-5.630193167394399
1761380660106162000,4.200161865234375,1.6244135117068885,8.17661543354094,-5.212272875750065
1761380660116217900,4.2102177734375,1.3604483947604893,6.453412754040956,-6.07130378049016
1761380660126273800,4.220273681640625,1.3824895461767912,4.226389615032077,-7.651663923197984
1761380660136330000,4.230330078125,2.4480568767234683,2.9009377148509023,-8.74618876042068
1761380660146385000,4.240385009765625,3.9474873334556815,3.230114139637351,-8.233302950924635
1761380660156441000,4.250441162109375,3.3237384720131753,4.920019529691338,-6.144760061845183
1761380660166497000,4.2604970703125,2.3204560404658316,4.643519048559665,-3.128446786059439
1761380660176553000,4.270552978515625,1.3826656333960592,1.1922095509052275,-1.4176345093160867
1761380660186609200,4.280609130859375,-1.9333388833642005,-3.4624072302520275,-2.1800509599536655
1761380660196664800,4.290664794921875,-5.891711767971516,-6.894253318023681,-4.295342739748954
1761380660206720800,4.300720703125,-9.583059271278977,-8.072755246093868,-4.732585571500659
1761380660216776000,4.31077587890625,-13.321087861740589,-8.897972144037485,-2.92052445885241
1761380660226832000,4.320831787109375,-15.621189680963754,-8.767367157527804,-1.1861370260585098
1761380660236887800,4.3308876953125,-14.601760124474763,-6.669510496658086,-0.10394896170906721
1761380660246944000,4.340944091796875,-11.768955450129509,-4.779863455504179,0.5022794406119734
1761380660257000000,4.351,-9.649066990193724,-3.880786371579766,1.8433571452744304
1761380660267055900,4.361055908203125,-7.490383227917552,-2.984151420110464,2.9685853099271653
1761380660277110800,4.37111083984375,-4.626268638551235,-1.905150315234065,4.010235758313536
1761380660287166700,4.381166748046875,-2.4839985431984064,-1.5753560508102178,5.1675113584816454
1761380660297223000,4.391222900390625,-1.0358788792476057,-1.2474357635647058,5.719086087334156
1761380660307278800,4.40127880859375,0.2184323230445385,-0.14700433264672755,5.2778649996012446
1761380660317334800,4.411334716796875,0.8211988944739103,0.7849123600840568,4.253654054054618
1761380660327391000,4.421390869140625,0.983557448118925,1.375063195568323,3.4332740747481583
1761380660337446000,4.43144580078125,0.877084447824955,2.0742945834964512,3.046722442574799
1761380660347502000,4.441502197265625,0.2174102865204215,3.3278257413268086,3.0958588139265775
1761380660357558000,4.45155810546875,-0.4885995095014572,4.37767264791131,3.7692172171905636
1761380660367614000,4.461614013671875,0.313511238142848,5.051057062399387,4.359112616609036
1761380660377670000,4.471669921875,1.2114733465626835,5.621248813438415,5.168023984178901
1761380660387725800,4.481725830078125,2.1447502217307686,5.785693525707721,6.300389599496126
1761380660397781800,4.49178173828125,2.5762901656657458,4.934415719312429,7.719820929101109
1761380660407837000,4.5018369140625,1.5802122586697338,3.162728702628612,9.877750073617696
1761380660417892900,4.511892822265625,0.9344774831295013,1.5477917520582676,12.433905213749409
1761380660427949000,4.521948974609375,0.8072703223645686,0.5630874719917773,14.064640621954203
1761380660438005000,4.5320048828125,0.41603053237497806,-0.32993045802414417,14.934125116169453
1761380660448061000,4.54206103515625,0.9028992725610733,-1.0982020644307136,15.357841526871919
1761380660458117000,4.5521171875,2.132102629342675,-1.5434458318084479,14.958198065674305
1761380660468173000,4.562173095703125,3.908627149185538,-1.4751064550757407,14.280029924041031
1761380660478228000,4.57222802734375,5.1842503118366,-1.0011363594293594,12.845274184054135
1761380660488284000,4.582283935546875,4.7556169029980895,-0.526804444733262,11.103957755714655
1761380660498339800,4.59233984375,2.894410943430662,-0.8108470118075609,9.948905092293023
1761380660508396000,4.60239599609375,-0.2323743391573429,-2.0783529189765453,8.885984769123793
1761380660518452000,4.612451904296875,-2.414307751856744,-3.094302816656232,7.448617385333776
1761380660528507400,4.62250732421875,-2.4580823039144275,-1.8095277947783468,6.561732843506336
1761380660538562600,4.6325625,-4.2718566502213475,-1.2591688714563847,6.939751917394995
1761380660548618500,4.642618408203125,-8.019698194167017,-2.90959565308094,6.334985112059116
1761380660558674700,4.6526748046875,-12.955727778416872,-4.970191381570697,4.560806278559565
1761380660568730600,4.662730712890625,-16.971581376612185,-7.7726079319149255,3.973243998263776
1761380660578786600,4.67278662109375,-17.70078529347777,-9.07611045061648,4.268135583871603
1761380660588842500,4.682842529296875,-16.79297837513089,-5.741738648647069,1.5998158076755702
1761380660598898400,4.6928984375,-15.94272348204255,-1.877699413728714,-0.5286293220728635
1761380660608953600,4.70295361328125,-14.127238240164518,-0.8480921620965004,-0.8710258784383534
1761380660619009500,4.713009521484375,-11.665422594940662,-0.07245967153310776,-1.075900289316848
1761380660629065500,4.7230654296875,-8.570591955018044,0.7102467029392718,-1.1179122886814177
1761380660639121400,4.733121337890625,-6.126814070788026,0.8736497972011565,-0.9204247001186012
1761380660649177600,4.743177490234375,-4.178904810279607,0.16398293997645377,-1.4219143785923718
1761380660659233500,4.753233642578125,-4.385400611814856,0.23903964226543903,-1.971115364050865
1761380660669288400,4.763288330078125,-4.932151281511783,0.6264297710895538,-2.4950667574405667
1761380660679344400,4.773344482421875,-5.078389305961132,0.7797609686702489,-3.55852484074831
1761380660689400300,4.783400390625,-5.043340788933635,1.6310978117763995,-4.8563379156365984
1761380660699456500,4.79345654296875,-3.803960613791644,2.769865695351362,-5.73420357696712
1761380660709512400,4.803512451171875,-1.700777204941213,3.8382512981891628,-6.7176160636574025
1761380660719568400,4.813568359375,1.0946621998667716,4.411736245554685,-7.6513599718153475
1761380660729624600,4.82362451171875,3.193358818691969,4.874444942474365,-8.080590762025118
1761380660739679500,4.833679443359375,3.9156758986532685,5.31595595306456,-8.045210821086167
1761380660749735700,4.843735595703125,3.8541517548933624,5.419504005822539,-7.631907083326578
1761380660759791600,4.85379150390625,3.4331378811478612,5.067213247430324,-7.311023855111002
1761380660769847300,4.863847412109375,3.00745338524282,4.481733326366544,-7.041673245733976
1761380660779903500,4.873903564453125,2.4806734904289245,3.614621406501531,-7.333253222575784
1761380660789959400,4.88395947265625,1.83141697050333,3.8322096799373626,-8.064924406337738
1761380660800015400,4.894015380859375,1.4786580100774764,4.4308629708290095,-8.435615913817285
1761380660810070500,4.904070556640625,2.1915251246482135,4.357654526755214,-8.553325178396701
1761380660820126500,4.91412646484375,2.457114043404162,6.249176714131235,-8.988053396978973
1761380660830182700,4.9241826171875,2.6772838577657936,6.747431940728426,-9.439943762764335
1761380660840238600,4.934238525390625,3.560328090777993,5.8439750342845915,-9.275665054711698
1761380660850294500,4.94429443359375,4.590285471022129,4.44373005118668,-8.731161287158727
1761380660860350700,4.954350830078125,4.969788645988703,3.960893927517533,-8.549740890169144
1761380660870405400,4.9644052734375,4.2104087865680455,4.30327820892334,-8.777375925844908
1761380660880461600,4.974461669921875,2.6759634228169915,4.5450738718986505,-8.822195895302295
1761380660890517500,4.984517578125,0.9113713328301906,4.435725023907422,-8.364815699928998
1761380660900573400,4.994573486328125,-0.0890361278027296,3.792963711220026,-7.179523965588212
1761380660910629600,5.004629638671875,-0.9628238721698522,3.4100837532967327,-5.031149415880441
1761380660920685600,5.014685546875,-2.043919903498888,2.7928362365722657,-2.770233359619975
1761380660930741500,5.024741455078125,-1.836771775534749,1.0325713621348143,-2.2702710368439556
1761380660940796700,5.034796630859375,-4.0826422383546825,-1.4024497996658085,-3.5323633945316075
1761380660950852400,5.044852294921875,-7.818765287455916,-3.8742303740650414,-5.353542464137077
1761380660960908300,5.054908203125,-11.3333790902853,-3.9185143369495865,-6.095478436803817
1761380660970964500,5.064964599609375,-14.304625436115264,-2.5488801806926724,-5.415002018228173
1761380660981020400,5.0750205078125,-15.056974081724881,-1.7111457464814186,-3.6444019199982285
1761380660991076400,5.085076416015625,-12.88202541334629,-1.4513275200814009,-1.0669126076757907
1761380661001131500,5.095131591796875,-9.814583131086826,-2.713667422789335,1.8023329148381948
1761380661011187500,5.1051875,-6.854613966074585,-5.508448363688588,4.590187563605606
1761380661021243600,5.11524365234375,-4.956908121627569,-7.752469983771443,6.85277798281908
1761380661031299600,5.125299560546875,-3.3160388574212787,-8.039717484366893,8.046701936426759
1761380661041355500,5.13535546875,-1.515145619997382,-7.485783040645718,8.264011977443099
1761380661051411500,5.145411376953125,-0.3627338264733553,-6.402159536665677,8.255192711171507
1761380661061467400,5.15546728515625,-0.07075315987616777,-4.523480464249849,7.638982136279344
1761380661071522600,5.1655224609375,0.3455307627379894,-1.9420973593592643,6.99351214915514
1761380661081578500,5.17557861328125,0.45352731933742757,0.472639139303565,6.467832324537635
1761380661091634400,5.185634521484375,0.47876375966370105,2.371155715611577,5.721582580325007
1761380661101690600,5.195690673828125,0.6203548350900411,4.530125309091806,4.756369182670116
1761380661111746600,5.20574658203125,1.2126537885189055,6.487047897139191,4.155287203326821
1761380661121802500,5.215802490234375,2.1315295056298376,7.3482555613964795,4.141113132023811
1761380661131858700,5.225858642578125,3.771902510751784,7.498952318820357,4.501020210638642
1761380661141913300,5.235913330078125,4.2888104153707625,7.092814819428324,4.775999181291461
1761380661151969500,5.245969482421875,4.051201390430331,7.09737350564599,5.375775923255086
1761380661162025500,5.256025390625,3.471502098594606,6.792169492599368,6.5589002504289144
1761380661172081400,5.266081298828125,2.259258352181315,6.554461391198635,8.385769640630484
1761380661182137600,5.2761376953125,0.4342421886309981,6.424276675927639,10.384192698323726
1761380661192193500,5.286193603515625,-0.2815066188558936,6.5545081529498095,12.14353928887248
1761380661202248400,5.29624853515625,0.3036766573488712,7.4262605920970435,13.44674837758541
1761380661212304600,5.3063046875,0.5789446740761399,7.3683707131862635,14.141754256772995
1761380661222360600,5.316360595703125,1.0235106883227825,6.792459415456652,14.119122738248109
1761380661232416500,5.32641650390625,1.2515016978293656,6.320488969194889,13.497816886043548
1761380661242472400,5.336472412109375,1.2982301312565803,5.033422621509432,12.403699460577965
1761380661252528400,5.3465283203125,0.9660212069064378,3.5074838048189876,11.063277370280026
1761380661262584300,5.356584228515625,0.00324555779248476,1.9760253479242325,9.553298339265584
1761380661272639500,5.366639404296875,-0.2706146379634738,1.2954624201089142,8.063310541400313
1761380661282695400,5.3766953125,0.7081877245828508,2.0514707572698594,7.043976846501231
1761380661292751600,5.386751708984375,-1.0839333005815743,2.222003849542141,7.244474868926406
1761380661302807600,5.3968076171875,-6.166321320790052,-1.1079974822580814,7.58872845133543
1761380661312863500,5.406863525390625,-11.13527643856406,-7.864365593636036,7.863088413307071
1761380661322919700,5.416919677734375,-15.825293034404515,-14.23607621602416,8.461592066594958
1761380661332974300,5.426974365234375,-20.977571752440927,-16.51968165847659,7.709158665311336
1761380661343030500,5.437030517578125,-23.776342055237293,-15.603325522971152,5.143287017807364
1761380661353086500,5.44708642578125,-25.491546721720695,-12.260603825807571,0.6822041191510856
1761380661363142400,5.457142333984375,-23.691270739412307,-5.613951057645679,-5.190770653516054
1761380661373198600,5.467198486328125,-17.429498163080215,-0.33309447501301764,-10.4414594769001
1761380661383254500,5.477254638671875,-11.00818033695817,1.275106445300579,-12.916346200621128
1761380661393310500,5.487310546875,-6.830083335930109,0.7938648973464966,-11.764819373238087
1761380661403365600,5.49736572265625,-0.966216729478538,-0.19711597877144812,-9.816326175361871
1761380661413421300,5.50742138671875,4.217584085024893,-0.9583288988381624,-9.418806282189488
1761380661423477500,5.5174775390625,6.343626683676242,-0.7691279309749602,-9.422990289875864
1761380661433533400,5.527533447265625,5.287472201380133,-0.9289204335242509,-9.523045239821077
1761380661443589400,5.53758935546875,4.6814366912826895,-1.1757879929363726,-9.58758463974893
1761380661453645600,5.5476455078125,5.257998854136467,0.05044073194861412,-9.27271497273445
1761380661463700500,5.557700439453125,4.691959838862717,1.756188418778777,-8.642669933757185
1761380661473756700,5.567756591796875,3.3579812256157395,2.6532366272240875,-7.122497425508499
1761380661483812600,5.5778125,1.8956708314880728,3.197289728400111,-4.987413150006533
1761380661493868500,5.58786865234375,0.8410627018511295,3.6695793236136436,-4.202195377235114
1761380661503924700,5.5979248046875,0.8222609707474708,3.9375130519300696,-4.747325459992886
1761380661513980400,5.60798046875,0.6791349408388138,4.600151031476259,-5.234020597177744
1761380661524036400,5.618036376953125,0.2423871991276741,5.26476235692203,-5.899243917042017
1761380661534091000,5.628091064453125,0.3054547729372978,6.17251666829884,-6.362166548973321
1761380661544147000,5.63814697265625,0.3153387458309531,6.692931119734048,-6.200078044441342
1761380661554203100,5.648203125,0.33594957218319177,6.229599907001853,-5.687712459427118
1761380661564259000,5.658259033203125,1.5513371695801614,5.8809057117968795,-5.646589590921998
1761380661574315000,5.66831494140625,3.538592936570942,6.219438578471541,-6.131894150531291
1761380661584371200,5.67837109375,5.516375649556517,6.507465831267833,-6.49883711913228
1761380661594426000,5.688426025390625,7.28174807626605,6.49203094624877,-6.845072815269232
1761380661604482000,5.69848193359375,8.423779930073023,6.0651651316046715,-7.338188925412297
1761380661614538000,5.7085380859375,8.096827611076831,5.23954783616662,-7.744149314671755
1761380661624594000,5.718593994140625,7.040029570180177,4.538537163606286,-7.986611917123198
1761380661634650000,5.728650146484375,4.707758296497166,3.8651509955525394,-8.432246145123242
1761380661644706000,5.7387060546875,1.8142153680726885,3.659591598084569,-9.049154639151691
1761380661654762000,5.748761962890625,0.44359716921448705,3.296217135620117,-9.208499397933483
1761380661664817200,5.758817138671875,-1.3938058899611234,2.8958009364843367,-8.388008359467984
1761380661674873000,5.768873046875,-3.220654237374663,1.140747659215331,-7.463114697241783
1761380661684929000,5.778928955078125,-3.8240611525341865,-2.0450696580559016,-7.6234554813235995
1761380661694985200,5.788985107421875,-5.765321768808365,-5.056592484694719,-8.264107254511117
1761380661705041000,5.799041015625,-9.292751214069128,-7.870687782394886,-8.362677518856525
1761380661715096800,5.809096923828125,-11.3283463568151,-8.961210982760786,-6.8871344259291885
1761380661725152000,5.819152099609375,-11.833266886520384,-7.96102096427083,-4.734598957149684
1761380661735208000,5.8292080078125,-13.048753268116712,-7.095311312419176,-2.7935189581394195
1761380661745264000,5.83926416015625,-13.293934481877088,-6.580388444137573,0.08309164978247136
1761380661755320000,5.849320068359375,-13.502957171541452,-6.671166447171569,3.0675667854219673
1761380661765376000,5.8593759765625,-12.315497445511816,-6.134724990043043,5.262721206483245
1761380661775432200,5.86943212890625,-9.498683536502718,-4.797352350443601,6.506899429556727
1761380661785488100,5.879488037109375,-7.604854241228103,-4.299149146294593,7.027730060577392
1761380661795543000,5.88954296875,-6.218268950170279,-3.9822050110936162,7.137823589456081
1761380661805599000,5.899598876953125,-4.557007178537547,-3.062856708034873,6.6994964695990085
1761380661815655000,5.909655029296875,-2.8447186917617917,-1.933919898122549,5.500878220695257
1761380661825711000,5.919711181640625,-1.6450106017947197,-1.1263707588165999,3.8335593409806488
1761380661835767000,5.92976708984375,-1.022073641256988,0.20816227344274518,2.537864281159639
1761380661845823000,5.939822998046875,-0.8754434026196598,1.5503163020998239,1.900611648891121
1761380661855878100,5.949878173828125,-1.1293138265311717,2.17791687053442,1.736137856657803
1761380661865934000,5.95993408203125,-0.35920097617208957,2.9475252785027024,2.2864707687556742
1761380661875990300,5.969990234375,0.2512918055951595,4.278747578778863,3.288420782655477
1761380661886046000,5.9800458984375,1.3236129943162203,4.591366251996159,4.332416040602326
1761380661896102000,5.990101806640625,2.27875741789937,4.940779993647337,5.706253493767976
1761380661906158000,6.000157958984375,2.8251398388057947,5.567194567167759,7.2180211617648595
1761380661916214000,6.010214111328125,3.806676594752073,5.424111791878938,8.625390882176161
1761380661926269000,6.02026904296875,5.163139719268679,4.790613397577404,9.91187329249382
1761380661936325000,6.0303251953125,5.563065504539012,4.239454263788462,10.606184759676456
1761380661946381000,6.040381103515625,5.792102223706245,3.9608535955071447,11.777933706355094
1761380661956437000,6.05043701171875,5.319378328728676,3.8195395834565162,13.582378498780727
1761380661966493200,6.0604931640625,5.138070159941911,3.106543874070048,15.22975056900978
1761380661976549000,6.070549072265625,6.163656485494971,1.7301655042499302,16.176423516845702
1761380661986605000,6.08060498046875,6.288337342652678,0.4163642943739891,16.205658963680268
1761380661996660000,6.090659912109375,5.848385251942276,-0.5703127470701933,15.756525203126667
1761380662006716000,6.1007158203125,5.252652816933393,-0.44649873587489125,14.973407325243949
1761380662016772000,6.110772216796875,4.208087942405045,0.4143739973396063,13.760290595388412
1761380662026828000,6.120828125,2.701089973028004,0.7459872938841581,12.311624403470754
1761380662036884000,6.130884033203125,0.16340017165243625,0.7638304090887308,11.025386323302984
1761380662046940200,6.140940185546875,-2.1165555161207914,0.2242617598503828,10.733460894024372
1761380662056995000,6.1509951171875,-4.046164565306902,-0.9958137031018733,9.764129539656638
1761380662067051000,6.161051025390625,-6.13754823077023,-1.815409838554263,7.835819298109412
1761380662077107000,6.17110693359375,-10.194131898760794,-3.497670851334929,5.545263305866718
1761380662087163000,6.181162841796875,-13.173378011173009,-6.626611266130209,2.5501877561599016
1761380662097219000,6.191218994140625,-12.647245182090996,-8.047770442441106,0.05905831990195438
1761380662107275000,6.20127490234375,-12.999192826133966,-5.893248476019501,-1.865308134189248
1761380662117331000,6.2113310546875,-13.938890089738369,-2.0787404569894075,-2.8984233939424153
1761380662127386000,6.22138623046875,-15.13745105549693,-0.20943536211848257,-2.4507934620805085
1761380662137442000,6.231442138671875,-15.159692113399505,-0.01285071374475956,-1.7536074623748659
1761380662147498200,6.241498291015625,-13.891276105648279,0.4003343660712242,-1.4993040538735687
1761380662157554200,6.25155419921875,-11.426149728441239,1.1797282549947499,-2.3631448431134223
1761380662167609900,6.26160986328125,-7.0876365400075905,1.8715578422337769,-4.005704836885631
1761380662177666000,6.271666015625,-3.1645301990926265,2.828818819579482,-5.030432792043686
1761380662187721000,6.281720947265625,-0.9019418257057666,1.8795114315867423,-6.8296811848700045
1761380662197777200,6.291777099609375,-0.6484297137126326,2.232447502145171,-6.251791280543804
1761380662207833000,6.3018330078125,-0.20989012014865874,4.3165538700819015,-5.237129084587097
1761380662217889000,6.311888916015625,-1.4231518114328383,6.099755383470654,-4.81928711887598
1761380662227945200,6.3219453125,-1.4296899810299277,6.603082506504655,-4.956086283850669
1761380662238001200,6.332001220703125,-0.4144634291887283,6.08150368746519,-5.449093088400364
1761380662248055800,6.342055908203125,0.1942351626381278,6.110968266880512,-5.579359052214026
1761380662258112000,6.352112060546875,1.2960405122578142,6.41856823515296,-5.6822986176848405
1761380662268168000,6.36216796875,2.2257751847743985,6.765301943939924,-6.2786167436271905
1761380662278224000,6.372223876953125,3.3833120662271976,7.2119304436743255,-6.684532709223031
1761380662288280000,6.382280029296875,4.140482140643894,7.258574705949425,-6.915756709301471
1761380662298336000,6.3923359375,4.099675790742039,7.269679452809691,-7.202163082897663
1761380662308392000,6.402391845703125,3.557940903380513,7.431343009927868,-7.408131061166524
1761380662318447000,6.412447021484375,2.8063328470051285,7.155398993635178,-7.634791114330291
1761380662328503000,6.4225029296875,2.8855361475795505,6.658175448173284,-7.622397496703266
1761380662338559200,6.432559326171875,2.4879618938714265,6.660131842938065,-7.3148168176531785
1761380662348615000,6.442614990234375,2.0239666642725465,6.5528615547865625,-7.107092351105809
1761380662358670800,6.4526708984375,2.414406828317046,5.715642084360122,-7.164342178547382
1761380662368727000,6.46272705078125,2.7949045672789214,4.515213571164011,-7.154737899377942
1761380662378782000,6.472781982421875,3.0200182677835223,3.480283663204312,-7.1802984570920465
1761380662388838100,6.482838134765625,3.417781906583905,2.5708354073911903,-7.399626267671585
1761380662398894000,6.49289404296875,3.3256142027571793,1.9561112716645002,-8.107877997401356
1761380662408950000,6.502949951171875,2.960105943134427,2.045021727260947,-8.643937761735916
1761380662419006200,6.513006103515625,2.9010312383532524,1.618165264967084,-8.56869459696412
1761380662429062100,6.523062255859375,2.2887898593530056,0.8607295253515242,-7.3628797145545475
1761380662439118000,6.5331181640625,0.4779772854611277,-0.9545189851611852,-5.620838479071855
1761380662449173000,6.543173095703125,-3.2627170170783995,-2.989554155936837,-4.018370549452305
1761380662459229000,6.55322900390625,-9.190803582245112,-4.123549418282509,-3.767558344067633
1761380662469285000,6.56328515625,-15.738034437668322,-5.47951745275855,-5.499448480153084
1761380662479341000,6.573341064453125,-20.079004956126212,-6.277710150176286,-7.286930447340011
1761380662489397000,6.58339697265625,-22.301670484447477,-5.353144404730201,-5.999006606042385
1761380662499453200,6.593453125,-21.137990277934072,-4.982010414180159,-3.242381792797148
1761380662509508000,6.603508056640625,-18.280715179198978,-4.2622079473882915,-0.6504974598973989
1761380662519564000,6.61356396484375,-15.092304922825097,-3.377112042543292,1.804059300239384
1761380662529624000,6.6236240234375,-11.448672525894642,-3.5700276470154524,4.040057480603457
1761380662539680000,6.633679931640625,-7.829763651332259,-4.183164221289753,5.411896453428268
1761380662549736000,6.64373583984375,-4.4711400361597535,-4.5504082186639305,6.259764159119129
1761380662559791900,6.6537919921875,-0.6580372077524662,-5.26058477897644,6.7402002359092235
1761380662569846800,6.6638466796875,0.41776773143112655,-5.449224021303653,6.29404052273035
1761380662579903000,6.673903076171875,0.017287234887480733,-3.731508248782158,6.123591601610183
1761380662589959000,6.683958984375,0.19617840566039085,-1.9890210230976342,5.800850178307295
1761380662600014800,6.694014892578125,0.6282265913784504,-0.8115893546074628,5.498417383539676
1761380662610071000,6.704071044921875,1.6337807672500608,0.048669630622863766,5.38617398315072
1761380662620127000,6.714126953125,2.157295522788167,0.661027037218213,5.345410595607757
1761380662630182100,6.72418212890625,2.1595254737973213,1.5262971286088227,5.269272527822852
1761380662640237800,6.73423779296875,2.1737042212754485,2.7387586094260215,4.91596996203959
1761380662650293800,6.744293701171875,2.602655025500059,3.790421040999889,4.535742564451694
1761380662660350000,6.754349853515625,3.373778514206409,4.418297503766417,4.417909381231666
1761380662670406000,6.764406005859375,4.321681296098232,4.412454038435221,4.980255094945431
1761380662680461800,6.7744619140625,5.06410768263042,4.196946662926674,6.098706166678666
1761380662690518000,6.78451806640625,5.098312734571099,3.9448786122620105,7.16320820608139
1761380662700573000,6.794572998046875,4.458451819500326,3.7381665376275777,8.011889566242694
1761380662710628900,6.80462890625,4.0047710631668565,3.6765298734039065,9.01027341209352
1761380662720685000,6.81468505859375,3.6756682881385085,3.240140443611145,10.110724132233857
1761380662730741000,6.824740966796875,3.2830805906713008,2.4632114834964276,10.728444527167081
1761380662740797000,6.834796875,3.370026468196511,1.7102713017344473,10.636673421442508
1761380662750852900,6.844852783203125,3.869323897323012,1.3538473890602587,10.420338362938166
1761380662760907800,6.85490771484375,3.7118612990260123,1.3610323321282862,10.24494438663125
1761380662770964000,6.8649638671875,2.9800954227179286,1.8659464320927857,9.965208576840162
1761380662781020000,6.87502001953125,2.201969946295023,2.3646347894102333,9.07228241676092
1761380662791075800,6.885075927734375,0.8439742053836583,2.28519183486104,7.893315209266543
1761380662801132000,6.895132080078125,-0.7322370009511708,1.6580343340188264,6.849455560398101
1761380662811188000,6.90518798828125,-2.984596825790405,0.8396247780025005,5.501463327106833
1761380662821243000,6.915242919921875,-3.886004983010888,-0.9431570486694574,4.003138493528962
1761380662831298800,6.925298828125,-4.0826550978362555,-2.368866727891564,3.1806378688067194
1761380662841354800,6.935354736328125,-6.9594292622894045,-2.657161107191443,2.9772084691047667
1761380662851411000,6.945410888671875,-10.510918213051557,-3.607581424862146,3.0873037515491246
1761380662861467000,6.955466796875,-11.39013032055497,-5.05539655290842,3.0030805769860742
1761380662871522800,6.965522705078125,-10.147428599774837,-4.509301132249832,1.2555635404407977
1761380662881578000,6.975577880859375,-8.705093948966264,-2.0566256558150053,-0.7182838789224624
1761380662891634000,6.985634033203125,-7.980067025524377,-0.49363399653732776,-1.3421234873883425
1761380662901690000,6.995690185546875,-7.847153762072324,0.22090017446279525,-1.69489896055758
1761380662911746000,7.00574609375,-7.070977666151523,0.407792865383625,-2.2391177736893293
1761380662921801700,7.0158017578125,-5.345804563361406,0.008693009543418884,-2.577624921400845
1761380662931858000,7.02585791015625,-3.6140596809655428,-0.4560153367608785,-2.598990365512669
1761380662941912800,7.035912841796875,-1.9498942968457935,-0.6565203734487295,-2.333693707701564
1761380662951969000,7.045968994140625,-0.7540805839687585,-0.5789098950237035,-1.9208979194641111
1761380662962025000,7.05602490234375,-0.7805699469655751,-0.1371037008792162,-1.572343424990773
1761380662972081000,7.066080810546875,-1.3898235423266887,0.7223883916318417,-1.5454600942403076
1761380662982137000,7.07613720703125,-1.5024959817826746,1.5086790543317794,-1.8740481977447867
1761380662992193000,7.086193115234375,-1.0835714815318584,2.0098808557748793,-2.352057631909847
1761380663002248000,7.096248046875,-0.48869595561325546,2.515494043919444,-2.7256702875331045
1761380663012304000,7.106303955078125,0.0520054970473051,2.89823780824244,-2.9352631783008576
1761380663022359800,7.11635986328125,0.7666559879034757,3.340083749875426,-3.0878152082026005
1761380663032415700,7.126415771484375,1.60399820792675,3.794235046330094,-3.3499598317235706
1761380663042472000,7.136471923828125,2.4508663811862466,4.452055980983376,-3.576784720060229
1761380663052527900,7.14652783203125,3.0274522171765565,5.2317123202353715,-4.1779058623701335
1761380663062583000,7.1565830078125,3.444015248993039,5.182968455332517,-5.002177588418125
1761380663072639000,7.166638916015625,3.561647356683016,4.798263620069623,-5.832800144797563
1761380663082695000,7.17669482421875,3.0714211227625605,4.597916404291987,-6.6562687377691265
1761380663092751000,7.186751220703125,2.187114906990528,4.318446551960706,-7.095689498081803
1761380663102806800,7.196806884765625,1.5293927565366028,4.251110799312591,-7.146466330116986
1761380663112862700,7.20686279296875,0.964312649422884,4.302790133145451,-7.2113739788353435
1761380663122918000,7.21691796875,0.982539210987091,4.376778913941979,-7.314282564646005
1761380663132973800,7.226973876953125,1.3257733872205018,4.50122946947515,-7.293472416329384
1761380663143030000,7.237030029296875,1.6656313650190828,4.772919335454702,-7.059508762153983
1761380663153086000,7.2470859375,1.215318039292097,4.721693006086349,-6.968063235121965
1761380663163142000,7.257141845703125,1.1547767690896986,4.277462799665331,-6.593913111621141
1761380663173198000,7.267197998046875,1.7845640339136122,3.2202935873687264,-5.9343450410395855
1761380663183252700,7.277252685546875,1.8962918859958648,1.7066724004596472,-5.249516856995225
1761380663193309000,7.287308837890625,1.030757006189227,0.3936152869492769,-4.1577322583913805
1761380663203364900,7.29736474609375,-0.9578133505314588,-1.3841501728653907,-2.974613484175503
1761380663213420800,7.3074208984375,-4.045097812858224,-3.9577322486162183,-2.4751824917972085
1761380663223477000,7.31747705078125,-7.2649290434122085,-6.248393454799055,-3.113304454246163
1761380663233533000,7.327532958984375,-9.603166239762306,-7.370220724967122,-4.135400015074015
1761380663243588000,7.337588134765625,-10.919317812156677,-6.510272705382108,-4.006178591877222
1761380663253644000,7.34764404296875,-10.97397528501749,-5.2616836801290505,-2.786589451137185
1761380663263700000,7.357699951171875,-10.252418083512783,-4.66952793456316,-1.5286879692681132
1761380663273756000,7.367755859375,-8.241314992466569,-3.8621523982584476,-0.292438310704194
1761380663283811800,7.377811767578125,-6.016357553815841,-2.8902006322592495,0.7635834485903382
1761380663293867800,7.38786767578125,-5.520080349293351,-2.1938322325468063,1.9576893346361814
1761380663303923000,7.3979228515625,-5.159741893523931,-2.255655943775177,2.9849577680572867
1761380663313979000,7.407978759765625,-3.721593003967404,-2.469838792681694,3.011839052981138
1761380663324034800,7.418034912109375,-2.1373072122484444,-2.298217320650816,2.609727155843377
1761380663334091000,7.428091064453125,-1.155994328185916,-2.331007829618454,2.7238164763599633
1761380663344147000,7.43814697265625,-0.4477466901093721,-2.3873691837877034,3.1730627573773265
1761380663354202000,7.4482021484375,0.6888894421339035,-1.9978888046860694,3.2285274549677965
1761380663364257800,7.4582578125,1.8515508269935845,-1.2450468226015567,2.7950398840963837
1761380663374313700,7.468313720703125,2.6119945162534712,-0.2548398534655571,2.4106343240410086
1761380663384370000,7.478369873046875,2.199406817808747,0.8029916221320629,2.159329512833804
1761380663394425900,7.48842578125,1.5058178196817635,2.1782103005230424,2.0443217622980474
1761380663404481800,7.498481689453125,1.3524766852289438,3.2243910858154297,2.1468308273971077
1761380663414537000,7.508536865234375,1.365104111611843,3.954568231627345,2.1225169087432323
1761380663424593000,7.518593017578125,1.564909475597739,4.517849180364609,2.033614344192296
1761380663434649000,7.528649169921875,1.8041946170568466,4.762700723779202,2.016735543975234
1761380663444705000,7.538705078125,2.246383088517189,4.753148467057943,2.0742750020131466
1761380663454761000,7.548760986328125,2.837408953270316,4.7460827664554115,2.120973917084932
1761380663464817000,7.55881689453125,3.0242963834941383,4.779928921955824,2.136510947304219
1761380663474871800,7.568871826171875,3.736177409636974,4.711923307222127,2.51075503269881
1761380663484928000,7.578927978515625,5.10015807017684,4.231761955720186,3.294643018171191
1761380663494984000,7.58898388671875,5.4232940457552665,3.8170606261223554,4.367826084418595
1761380663505040000,7.599039794921875,4.884795071575045,3.481759580975771,5.334366054502129
1761380663515096000,7.609095947265625,4.155561344093084,3.123122083905339,5.825456211775541
1761380663525152000,7.619152099609375,3.6549592621088025,2.768970792338252,5.388102320864796
1761380663535203600,7.62920361328125,3.7678129033505914,2.4592028323769566,4.14084571325928
1761380663545259800,7.639259765625,3.8442029000699516,2.498776717874408,2.9778707324057816
1761380663555315700,7.649315673828125,4.277002780938148,2.8081407732099293,2.5054198091506956
1761380663565371400,7.659371337890625,5.06906676634252,3.3280075276345014,2.5609338988408443
1761380663575427600,7.669427490234375,5.1813317940413945,4.273423753407597,2.5851047557622193
1761380663585482500,7.679482421875,3.999695075076818,5.705588892379403,3.0525360972896216
1761380663595538700,7.68953857421875,1.2172247496962547,6.656961980730295,3.78002210432142
1761380663605594600,7.6995947265625,-1.9500006798297165,5.267471615880727,3.972160586941242
1761380663615650600,7.709650634765625,-3.635937750774622,2.0113953519910575,3.426124202993512
1761380663625706800,7.719706787109375,-1.0664619412988423,-1.4210451945424079,2.760941507400572
1761380663635762700,7.7297626953125,0.7220107904911041,-2.780973949342966,1.9349482182569802
1761380663645817600,7.739817626953125,-3.3939725764513016,-3.6819606662809847,1.4661366744175552
1761380663655873500,7.74987353515625,-8.629981717097758,-3.799969790589809,2.883414333119988
1761380663665929500,7.759929443359375,-11.495742904627322,-0.7965262255102395,3.2739906907647844
1761380663675985700,7.769985595703125,-11.242670645356178,1.6381348708063364,3.238038210634887
1761380663686041600,7.78004150390625,-15.744851131945847,3.0238229207634926,4.710791965104639
1761380663696097500,7.79009765625,-19.9639196103096,3.8849721328318116,6.843287100896239
1761380663706152700,7.800152587890625,-19.834272655177116,2.3559639916986224,7.422869196093082
1761380663716208600,7.810208740234375,-14.572643920105694,1.3314561090320347,5.998257248979806
1761380663726264800,7.820264892578125,-10.53200425570011,2.3255945723980664,3.7693884821042416
1761380663736320800,7.83032080078125,-10.695782613015174,2.6814392238795755,2.0734135628782213
1761380663746376400,7.84037646484375,-10.487360811853408,1.7769453756034372,0.9019479631856083
