time,seconds_elapsed,z,y,x
1761380655982008600,0.076008544921875,-0.8596148490905762,2.245850086212158,0.03358485922217369
1761380655992064800,0.086064697265625,-0.6558244228363037,2.3540842533111572,-0.014431137591600418
1761380656002120700,0.09612060546875,-0.4116283059120178,2.503399133682251,-0.17256298661231995
1761380656012176600,0.1061767578125,-0.2324385643005371,2.4951367378234863,-0.32305529713630676
1761380656022232600,0.116232666015625,-0.1462821066379547,2.3281126022338867,-0.39382052421569824
1761380656032287500,0.12628759765625,-0.0452289953827858,2.0211215019226074,-0.2690298557281494
1761380656042343700,0.13634375,0.09313181042671204,1.8491510152816772,0.04736378788948059
1761380656052399600,0.146399658203125,0.23364418745040894,1.8658559322357178,0.2293969690799713
1761380656062455600,0.15645556640625,0.26628628373146057,1.7424277067184448,0.526309072971344
1761380656072511700,0.16651171875,0.2541225552558899,1.6036874055862427,0.9090061187744141
1761380656082567700,0.176567626953125,0.440457820892334,1.439409852027893,1.1110588312149048
1761380656092622600,0.18662255859375,0.6494768261909485,1.1710947751998901,1.2491897344589233
1761380656102678500,0.196678466796875,0.771902859210968,0.9446421265602112,1.2711560726165771
1761380656112734500,0.206734375,0.8231077194213867,0.8046871423721313,1.136836051940918
1761380656122790700,0.216790771484375,0.8051607012748718,0.6893799901008606,0.9098037481307983
1761380656132846600,0.2268466796875,0.7892967462539673,0.5557423233985901,0.6704840660095215
1761380656142902500,0.236902587890625,0.8159483671188354,0.3503931760787964,0.49728062748908997
1761380656152958700,0.246958740234375,0.8751804828643799,0.23671559989452362,0.39556756615638733
1761380656163013600,0.257013671875,0.9174669981002808,0.17856894433498383,0.29771292209625244
1761380656173069800,0.26706982421875,0.9198870062828064,0.18819068372249603,0.18612459301948547
1761380656183125800,0.277125732421875,0.9070939421653748,0.3086766004562378,0.031023696064949036
1761380656193181400,0.287181396484375,0.9093784093856812,0.4578557014465332,-0.14882463216781616
1761380656203237600,0.297237548828125,0.920884370803833,0.47554922103881836,-0.27696263790130615
1761380656213293600,0.30729345703125,0.9557225108146667,0.45053228735923767,-0.28848400712013245
1761380656223349500,0.317349609375,0.9771758317947388,0.43750783801078796,-0.21885643899440765
1761380656233404700,0.32740478515625,0.9721227884292603,0.37890735268592834,-0.06936495751142502
1761380656243460600,0.337460693359375,0.9470027685165405,0.23218822479248047,0.07540261000394821
1761380656253516800,0.347516845703125,0.9474259614944458,0.13603267073631287,0.0786207765340805
1761380656263572700,0.35757275390625,0.95264732837677,0.010293384082615376,-0.03302985429763794
1761380656273628700,0.367628662109375,0.9552082419395447,-0.32717278599739075,-0.2258874624967575
1761380656283684600,0.3776845703125,0.9620687961578369,-0.8451901078224182,-0.40339672565460205
1761380656293740500,0.387740478515625,0.9150280356407166,-1.151239275932312,-0.3957497179508209
1761380656303795500,0.39779541015625,0.7781199812889099,-1.3870164155960083,-0.11134516447782516
1761380656313851600,0.4078515625,0.5550227165222168,-1.4858028888702393,0.3277429938316345
1761380656323907600,0.417907470703125,0.31389373540878296,-1.5494824647903442,0.771461546421051
1761380656333963500,0.427963623046875,0.18417996168136597,-1.6332231760025024,1.11955988407135
1761380656344019700,0.438019775390625,0.14585573971271515,-1.6140508651733398,1.3295801877975464
1761380656354075600,0.44807568359375,0.08543580770492554,-1.5866855382919312,1.3694192171096802
1761380656364130800,0.458130859375,-0.09147745370864868,-1.6350547075271606,1.1614937782287598
1761380656374186500,0.4681865234375,-0.30124959349632263,-1.8154345750808716,0.6503865718841553
1761380656384242400,0.478242431640625,-0.4792563319206238,-1.9429248571395874,-0.038168422877788544
1761380656394298600,0.488298583984375,-0.6052781939506531,-2.014404296875,-0.7089662551879883
1761380656404354600,0.4983544921875,-0.6683753728866577,-2.2424156665802,-1.1515953540802002
1761380656414410500,0.508410400390625,-0.6837990880012512,-2.7348766326904297,-1.2453700304031372
1761380656424466700,0.518466796875,-0.6834614276885986,-3.247816801071167,-1.016323208808899
1761380656434521600,0.528521484375,-0.7130722999572754,-3.4528675079345703,-0.5777027606964111
1761380656444577800,0.538577880859375,-0.8277072906494141,-3.3598458766937256,-0.09040366858243942
1761380656454633700,0.5486337890625,-0.9305769205093384,-2.971897602081299,0.22888165712356567
1761380656464689700,0.558689697265625,-0.9980220198631287,-2.451662063598633,0.18221187591552734
1761380656474745600,0.56874560546875,-1.167617917060852,-2.2659027576446533,-0.021466942504048347
1761380656484801500,0.578801513671875,-1.2398223876953125,-2.199995279312134,-0.36221253871917725
1761380656494857500,0.588857421875,-1.2565230131149292,-2.163419723510742,-0.7382168173789978
1761380656504912600,0.59891259765625,-1.2540314197540283,-2.2562859058380127,-1.1207714080810547
1761380656514968600,0.608968505859375,-1.1640466451644897,-2.45369029045105,-1.5132560729980469
1761380656525024000,0.61902392578125,-0.937330424785614,-2.742117404937744,-1.890044093132019
1761380656535080000,0.629079833984375,-0.6627297401428223,-3.1279232501983643,-2.2299344539642334
1761380656545135900,0.639135986328125,-0.42731910943984985,-3.415724039077759,-2.4022412300109863
1761380656555192000,0.649192138671875,-0.29381775856018066,-3.6752755641937256,-2.402257204055786
1761380656565248000,0.659248046875,-0.18929722905158997,-3.9248642921447754,-2.2696049213409424
1761380656575303200,0.66930322265625,-0.09863336384296417,-4.158588409423828,-1.9901126623153687
1761380656585359000,0.679359130859375,-0.1273403763771057,-4.150353908538818,-1.6755887269973755
1761380656595415000,0.6894150390625,-0.3408244252204895,-3.824398994445801,-1.4860031604766846
1761380656605471200,0.69947119140625,-0.6134862899780273,-3.1883389949798584,-1.3343278169631958
1761380656615527200,0.709527099609375,-0.8679819703102112,-2.3568668365478516,-1.1687772274017334
1761380656625582800,0.719582763671875,-1.0296227931976318,-1.4738324880599976,-0.95310378074646
1761380656635639000,0.72963916015625,-0.9911150932312012,-0.5816375613212585,-0.7497725486755371
1761380656645694000,0.73969384765625,-0.7971323132514954,0.22996528446674347,-0.5753591656684875
1761380656655750100,0.749750244140625,-0.5016990900039673,0.8799059987068176,-0.4740690290927887
1761380656665806000,0.75980615234375,-0.1939590871334076,1.416193962097168,-0.44493138790130615
1761380656675862000,0.769862060546875,0.0696515142917633,1.764510154724121,-0.4663456082344055
1761380656685918200,0.779918212890625,0.2694077789783478,2.012439012527466,-0.4624730944633484
1761380656695974100,0.78997412109375,0.4051658809185028,2.3323464393615723,-0.40078017115592957
1761380656706029000,0.800029052734375,0.4022899270057678,2.6279373168945312,-0.2789781093597412
1761380656716085000,0.8100849609375,0.2831134498119354,2.654254198074341,-0.07923489809036255
1761380656726141000,0.820140869140625,0.18643219769001007,2.6171600818634033,0.10898027569055557
1761380656736197000,0.830197021484375,0.15926554799079895,2.6611194610595703,0.31784772872924805
1761380656746253000,0.840253173828125,0.10631711781024933,2.733370065689087,0.47377875447273254
1761380656756309000,0.85030908203125,0.07144462317228317,2.964329481124878,0.4115939438343048
1761380656766365000,0.860364990234375,0.17081142961978912,3.002391815185547,0.07289391756057739
1761380656776420000,0.870420166015625,0.5166942477226257,3.126957654953003,-0.42636409401893616
1761380656786476000,0.88047607421875,0.9604264497756958,3.2121992111206055,-0.8573479652404785
1761380656796532200,0.8905322265625,1.3419181108474731,3.30584716796875,-0.9305872917175293
1761380656806588000,0.900587890625,1.4724843502044678,3.537994384765625,-0.5239721536636353
1761380656816643800,0.910643798828125,1.256739854812622,3.764932155609131,0.18071597814559937
1761380656826700000,0.920699951171875,1.016840934753418,3.762131690979004,0.8394294381141663
1761380656836756000,0.930755859375,1.0733412504196167,3.732536554336548,1.267803430557251
1761380656846811100,0.94081103515625,1.3610748052597046,3.6716463565826416,1.430835247039795
1761380656856867000,0.9508671875,1.6709457635879517,3.398750066757202,1.3678301572799683
1761380656866923000,0.960923095703125,1.9251245260238647,3.2491393089294434,1.1698864698410034
1761380656876979200,0.970979248046875,2.0591089725494385,3.294182538986206,0.9284189343452454
1761380656887035100,0.98103515625,2.028172731399536,3.279956817626953,0.6901693940162659
1761380656897091000,0.991091064453125,1.8414198160171509,3.0541138648986816,0.46415409445762634
1761380656907147000,1.00114697265625,1.5207035541534424,2.7044365406036377,0.26979073882102966
1761380656917202000,1.011201904296875,1.1243301630020142,2.466874599456787,0.17333875596523285
1761380656927258000,1.021258056640625,0.7257007360458374,2.3596928119659424,0.16313299536705017
1761380656937314000,1.03131396484375,0.4040539860725403,2.3712711334228516,0.16487842798233032
1761380656947370000,1.041369873046875,0.13216975331306458,2.479625940322876,0.052263736724853516
1761380656957426200,1.05142626953125,-0.1294807642698288,2.6407458782196045,-0.20368415117263794
1761380656967482000,1.061482177734375,-0.3294053375720978,2.781165361404419,-0.5666669011116028
1761380656977537300,1.071537353515625,-0.401309072971344,2.8608250617980957,-0.9707576036453247
1761380656987593000,1.081593017578125,-0.3511281907558441,2.8115835189819336,-1.3286664485931396
1761380656997649000,1.09164892578125,-0.26142120361328125,2.6862399578094482,-1.5348238945007324
1761380657007705000,1.101705078125,-0.17708663642406464,2.459705114364624,-1.5428574085235596
1761380657017761000,1.111760986328125,-0.12081856280565262,2.0845091342926025,-1.411710500717163
1761380657027817000,1.12181689453125,-0.1524830162525177,1.5915225744247437,-1.1897906064987183
1761380657037873200,1.131873046875,-0.28720512986183167,1.0855283737182617,-0.9807655215263367
1761380657047928000,1.141927978515625,-0.44963425397872925,0.5768625140190125,-0.8109090924263
1761380657057984000,1.15198388671875,-0.5657843351364136,0.16917784512043,-0.6047011017799377
1761380657068040200,1.162040283203125,-0.5437365174293518,0.03922037407755852,-0.30250421166419983
1761380657078096100,1.17209619140625,-0.3542528748512268,0.10030556470155716,0.054358046501874924
1761380657088151800,1.18215185546875,-0.054313838481903076,0.21909719705581665,0.45339491963386536
1761380657098208000,1.1922080078125,0.2781141698360443,-0.218119278550148,0.8844602704048157
1761380657108264000,1.202263916015625,0.6444224119186401,-0.7757441997528076,1.1731797456741333
1761380657118319000,1.212319091796875,0.9150682687759399,-1.1687082052230835,1.3117666244506836
1761380657128375000,1.222375,0.830327033996582,-1.3851497173309326,1.248962640762329
1761380657138431000,1.232430908203125,0.34482210874557495,-1.185083031654358,1.1193974018096924
1761380657148487200,1.242487060546875,-0.41704437136650085,-1.0092328786849976,0.9666555523872375
1761380657158543000,1.252543212890625,-1.006973385810852,-1.4011766910552979,0.681650698184967
1761380657168599000,1.26259912109375,-1.0568245649337769,-2.0226058959960938,0.2907034754753113
1761380657178655200,1.2726552734375,-0.583013653755188,-2.548265218734741,-0.16019286215305328
1761380657188710000,1.2827099609375,0.03858733922243118,-2.967045783996582,-0.49939435720443726
1761380657198766000,1.29276611328125,0.3989945352077484,-3.468050956726074,-0.5570323467254639
1761380657208822000,1.302822021484375,0.21799278259277344,-4.057360649108887,-0.2097465693950653
1761380657218878000,1.3128779296875,-0.3656719923019409,-4.3213324546813965,0.3504621386528015
1761380657228934100,1.32293408203125,-1.0867524147033691,-4.051218509674072,1.2028210163116455
1761380657238990000,1.332989990234375,-1.5449298620224,-3.388038396835327,2.0653622150421143
1761380657249046000,1.3430458984375,-1.5383204221725464,-3.041282892227173,2.584263324737549
1761380657259101200,1.35310107421875,-1.2059669494628906,-2.929487943649292,2.652099609375
1761380657269156900,1.363156982421875,-0.7267300486564636,-2.8363418579101562,2.3037362098693848
1761380657279213000,1.373213134765625,-0.2667243778705597,-2.8533096313476562,1.641994833946228
1761380657289269000,1.38326904296875,0.12531743943691254,-3.3446106910705566,0.8011270761489868
1761380657299325000,1.393324951171875,0.4326387643814087,-4.206183910369873,-0.100644052028656
1761380657309381000,1.403381103515625,0.5375902056694031,-4.956198215484619,-0.8679798245429993
1761380657319436000,1.41343603515625,0.3728686571121216,-5.461796283721924,-1.4094960689544678
1761380657329492000,1.423491943359375,0.05561026558279991,-5.622920989990234,-1.7626392841339111
1761380657339548200,1.433548095703125,-0.28945550322532654,-5.248177528381348,-1.9039100408554077
1761380657349604000,1.44360400390625,-0.5554288625717163,-4.487019062042236,-1.7225192785263062
1761380657359660000,1.453659912109375,-0.7804729342460632,-3.720505714416504,-1.2952464818954468
1761380657369716000,1.463716064453125,-0.9978598356246948,-2.8534297943115234,-0.6938618421554565
1761380657379772000,1.47377197265625,-1.2165311574935913,-2.0617353916168213,-0.03464879095554352
1761380657389827000,1.4838271484375,-1.4038922786712646,-1.5327661037445068,0.4708700478076935
1761380657399883000,1.493883056640625,-1.4806618690490723,-1.050981879234314,0.7305626273155212
1761380657409939000,1.50393896484375,-1.421188235282898,-0.42537447810173035,0.7676774859428406
1761380657419995100,1.5139951171875,-1.3399220705032349,0.3248862028121948,0.6396945118904114
1761380657430051000,1.524051025390625,-1.3383737802505493,1.121120810508728,0.4341639578342438
1761380657440107000,1.53410693359375,-1.4190877676010132,1.7251893281936646,0.26847806572914124
1761380657450163200,1.5441630859375,-1.4274200201034546,2.045625925064087,0.31497764587402344
1761380657460217900,1.5542177734375,-1.187997579574585,2.21455979347229,0.6574676036834717
1761380657470274000,1.564274169921875,-0.7927993535995483,2.013392925262451,1.105658769607544
1761380657480330000,1.574330078125,-0.3764689862728119,1.379636526107788,1.4245786666870117
1761380657490386000,1.584385986328125,-0.019108446314930916,0.7126238346099854,1.5313698053359985
1761380657500442000,1.594442138671875,0.2460409253835678,0.19518014788627625,1.412820816040039
1761380657510498000,1.604498046875,0.3927254378795624,-0.0036671727430075407,1.1763323545455933
1761380657520555300,1.61455517578125,0.3739730715751648,-0.02604624815285206,1.1491038799285889
1761380657530610200,1.624610107421875,0.35468271374702454,0.37757179141044617,1.3791863918304443
1761380657540666000,1.634666015625,0.3746790587902069,1.3115147352218628,1.668669581413269
1761380657550722000,1.64472216796875,0.25532791018486023,1.8935461044311523,1.665600299835205
1761380657560778200,1.6547783203125,0.1048332080245018,2.44088077545166,1.20854651927948
1761380657570834200,1.664834228515625,-0.11811146140098572,2.8977320194244385,0.32952597737312317
1761380657580890000,1.67489013671875,-0.4529150128364563,3.615532398223877,-0.5043222904205322
1761380657590946300,1.6849462890625,-0.7493187189102173,4.681893825531006,-0.727681040763855
1761380657601001200,1.695001220703125,-0.9844428300857544,5.514514923095703,-0.43647798895835876
1761380657611057400,1.705057373046875,-0.9745646119117737,5.765519618988037,0.06488499045372009
1761380657621113000,1.715113037109375,-0.6332658529281616,5.11573600769043,0.4231022596359253
1761380657631169000,1.7251689453125,-0.08797406405210495,3.8941948413848877,0.5493749976158142
1761380657641225200,1.73522509765625,0.48782798647880554,2.7203614711761475,0.577267050743103
1761380657651281200,1.74528125,0.937261700630188,1.9789459705352783,0.5855303406715393
1761380657661336000,1.755336181640625,1.2321921586990356,1.6504871845245361,0.6332637667655945
1761380657671392300,1.765392333984375,1.3914127349853516,1.5772004127502441,0.7099257707595825
1761380657681448200,1.7754482421875,1.4094429016113281,1.557861089706421,0.734999418258667
1761380657691504000,1.785504150390625,1.3661017417907715,1.8904262781143188,0.640619695186615
1761380657701560300,1.795560302734375,1.2354590892791748,1.769007921218872,0.5210964679718018
1761380657711616300,1.8056162109375,0.7260525226593018,1.5287902355194092,0.5148209929466248
1761380657721672000,1.815671875,0.38829368352890015,1.524764060974121,0.33819907903671265
1761380657731727000,1.82572705078125,0.11829175800085068,1.3590805530548096,-0.020058929920196533
1761380657741783000,1.835782958984375,-0.15188327431678772,1.082412838935852,-0.4164036214351654
1761380657751839200,1.845839111328125,-0.3942285180091858,0.7629016637802124,-0.8241362571716309
1761380657761895200,1.855895263671875,-0.5089519023895264,0.41642412543296814,-1.1663165092468262
1761380657771951000,1.865951171875,-0.40768760442733765,0.07306542247533798,-1.3111772537231445
1761380657782007300,1.87600732421875,-0.1161005049943924,-0.25004419684410095,-1.2219328880310059
1761380657792062200,1.886062255859375,0.20990076661109924,-0.4866407513618469,-0.9883009195327759
1761380657802118100,1.8961181640625,0.43884608149528503,-0.7169274687767029,-0.7440195679664612
1761380657812174000,1.906174072265625,0.5331954956054688,-0.8820751905441284,-0.5664423704147339
1761380657822230000,1.91622998046875,0.5058959126472473,-0.8593400120735168,-0.45294004678726196
1761380657832286200,1.9262861328125,0.3827897310256958,-0.8009803295135498,-0.36420246958732605
1761380657842342100,1.936342041015625,0.2124347686767578,-0.7410096526145935,-0.2411889135837555
1761380657852398000,1.946398193359375,0.02834056131541729,-0.8616841435432434,-0.07327794283628464
1761380657862453200,1.956453369140625,-0.1236947774887085,-1.0581415891647339,0.07442070543766022
1761380657872509200,1.96650927734375,-0.28394651412963867,-1.2716865539550781,0.1543930321931839
1761380657882565400,1.9765654296875,-0.4494912624359131,-1.4877344369888306,0.13138306140899658
1761380657892621300,1.986621337890625,-0.55403071641922,-1.6568374633789062,0.06276005506515503
1761380657902677000,1.996677001953125,-0.6266676187515259,-1.761525273323059,0.14935673773288727
1761380657912733200,2.006733154296875,-0.6933097839355469,-2.073547601699829,0.36317765712738037
1761380657922789000,2.0167890625,-0.7615751028060913,-2.7163593769073486,0.5636261105537415
1761380657932844300,2.02684423828125,-0.7279458045959473,-3.3207168579101562,0.6666579246520996
1761380657942900200,2.036900146484375,-0.5555327534675598,-3.4819767475128174,0.5524693131446838
1761380657952956200,2.0469560546875,-0.38867849111557007,-3.359203577041626,0.13035348057746887
1761380657963012000,2.05701220703125,-0.37770894169807434,-3.178576707839966,-0.3411698341369629
1761380657973068300,2.067068359375,-0.5565180778503418,-3.1335721015930176,-0.5130854249000549
1761380657983124200,2.077124267578125,-0.8897003531455994,-3.2965850830078125,-0.3133975863456726
1761380657993180200,2.08718017578125,-1.1896694898605347,-3.3483498096466064,0.0833074077963829
1761380658003235000,2.097235107421875,-1.379196047782898,-3.0696487426757812,0.5112869739532471
1761380658013291000,2.107291015625,-1.4163310527801514,-2.693675994873047,0.9333556890487671
1761380658023347200,2.11734716796875,-1.0831300020217896,-2.3953189849853516,1.265331745147705
1761380658033403100,2.127403076171875,-0.4035421311855316,-2.501824140548706,1.3099154233932495
1761380658043459000,2.137458984375,0.2763596773147583,-2.9456467628479004,0.9898921847343445
1761380658053515300,2.147515380859375,0.7994247674942017,-3.3588032722473145,0.584659993648529
1761380658063570200,2.157570068359375,1.1038140058517456,-3.711317300796509,0.29606735706329346
1761380658073626400,2.16762646484375,1.2378559112548828,-3.819988489151001,0.07885699719190598
1761380658083682000,2.17768212890625,1.2205349206924438,-3.6576266288757324,-0.23331448435783386
1761380658093738000,2.187738037109375,1.0430320501327515,-3.3457553386688232,-0.6691461205482483
1761380658103794200,2.197794189453125,0.8421804904937744,-2.9388561248779297,-1.1204895973205566
1761380658113850000,2.20785009765625,0.5828136205673218,-2.485508441925049,-1.4721165895462036
1761380658123906000,2.217906005859375,0.2377670258283615,-2.0522620677948,-1.6812858581542969
1761380658133961200,2.227961181640625,-0.1639532446861267,-1.578541874885559,-1.7262277603149414
1761380658144017200,2.23801708984375,-0.5211989879608154,-1.033423900604248,-1.5900429487228394
1761380658154073300,2.2480732421875,-0.7134730815887451,-0.3896678686141968,-1.21115243434906
1761380658164129300,2.25812939453125,-0.701518714427948,0.4344422519207001,-0.6329689621925354
1761380658174185200,2.268185302734375,-0.6163838505744934,1.275505781173706,-0.024490961804986
1761380658184241200,2.2782412109375,-0.598776638507843,1.9408468008041382,0.43208590149879456
1761380658194297000,2.288297119140625,-0.707881510257721,1.9998626708984375,0.6001771688461304
1761380658204352300,2.298352294921875,-0.7502771615982056,1.8198779821395874,0.5916710495948792
1761380658214408200,2.308408203125,-0.6560598611831665,1.6546642780303955,0.5405170321464539
1761380658224464100,2.318464111328125,-0.4415755271911621,1.590142846107483,0.4873883128166199
1761380658234520300,2.328520263671875,-0.10157696157693863,1.662105679512024,0.4179895222187042
1761380658244576300,2.338576171875,0.3023494780063629,1.9704656600952148,0.3299243748188019
1761380658254632200,2.348632080078125,0.58854740858078,2.615453004837036,0.29200202226638794
1761380658264688000,2.358688232421875,0.539983868598938,3.563549757003784,0.3109560012817383
1761380658274743000,2.368742919921875,0.22073610126972198,4.743390083312988,0.3347020745277405
1761380658284799000,2.378799072265625,-0.22782650589942932,5.483360290527344,0.3764524757862091
1761380658294855200,2.388855224609375,-0.5781365633010864,5.672259330749512,0.41775622963905334
1761380658304911000,2.3989111328125,-0.43583136796951294,5.4085001945495605,0.2188817411661148
1761380658314967000,2.408967041015625,0.3186086118221283,4.752037048339844,-0.34994176030158997
1761380658325023200,2.419023193359375,1.242032527923584,4.2108473777771,-0.8803044557571411
1761380658335078100,2.429078125,1.7279199361801147,4.330031871795654,-0.8626207709312439
1761380658345134300,2.43913427734375,1.6356128454208374,4.799376487731934,-0.33701637387275696
1761380658355190300,2.449190185546875,1.1042499542236328,5.20642614364624,0.27728912234306335
1761380658365246000,2.459245849609375,0.5557175874710083,5.100310802459717,0.6997833847999573
1761380658375302100,2.46930224609375,0.22072093188762665,4.311452388763428,0.9322608113288879
1761380658385358000,2.479358154296875,0.15571875870227814,3.3724234104156494,1.110445261001587
1761380658395414000,2.4894140625,0.2395060658454895,2.7140591144561768,1.2824054956436157
1761380658405469200,2.49946923828125,0.34518003463745117,2.4258434772491455,1.4435940980911255
1761380658415525000,2.509525146484375,0.43197405338287354,2.4402852058410645,1.3740653991699219
1761380658425581300,2.519581298828125,0.5177664756774902,2.471043348312378,0.8593759536743164
1761380658435637200,2.52963720703125,0.5083114504814148,2.542691469192505,0.02400227263569832
1761380658445693200,2.539693115234375,0.26951828598976135,2.5547935962677,-0.9060324430465698
1761380658455749400,2.549749267578125,-0.11399554461240768,2.4499473571777344,-1.7129113674163818
1761380658465805000,2.55980517578125,-0.3910931944847107,2.095583438873291,-2.295535087585449
1761380658475860200,2.569860107421875,-0.43140387535095215,1.6072204113006592,-2.557943344116211
1761380658485916200,2.579916259765625,-0.2740456759929657,1.0350538492202759,-2.511713981628418
1761380658495972000,2.58997216796875,-0.007823036052286625,0.4736647605895996,-2.225231885910034
1761380658506028300,2.6000283203125,0.3248254954814911,-0.030338730663061142,-1.8202972412109375
1761380658516084200,2.610084228515625,0.7043786644935608,-0.4610605537891388,-1.3565157651901245
1761380658526142700,2.620142822265625,0.9989528059959412,-0.7881596088409424,-0.8805217146873474
1761380658536199000,2.630198974609375,1.1332658529281616,-1.0709518194198608,-0.4414897859096527
1761380658546253800,2.64025390625,1.1661624908447266,-1.2266008853912354,-0.1063445508480072
1761380658556310000,2.65031005859375,1.0750411748886108,-1.2531461715698242,0.03773725777864456
1761380658566366000,2.660365966796875,0.8411533236503601,-1.2359917163848877,0.08952508866786957
1761380658576422000,2.670421875,0.5630873441696167,-1.3091870546340942,0.1835908740758896
1761380658586478000,2.68047802734375,0.3262486755847931,-1.4867544174194336,0.32419857382774353
1761380658596534000,2.690533935546875,0.19298863410949707,-1.7528291940689087,0.48044782876968384
1761380658606589000,2.7005888671875,0.21782606840133667,-2.030261993408203,0.5281394720077515
1761380658616644900,2.710644775390625,0.3939584791660309,-2.448293685913086,0.39062073826789856
1761380658626700800,2.72070068359375,0.6019399166107178,-2.8940608501434326,0.09315710514783859
1761380658636757000,2.730757080078125,0.76996910572052,-3.0410749912261963,-0.204279363155365
1761380658646813000,2.74081298828125,0.6704409718513489,-2.968515157699585,-0.3585973083972931
1761380658656868900,2.750868896484375,0.34750550985336304,-3.0567421913146973,-0.4020041525363922
1761380658666925000,2.760925048828125,-0.007873103022575378,-2.9513425827026367,-0.37530064582824707
1761380658676980000,2.77097998046875,-0.4001524746417999,-2.517174243927002,-0.36932238936424255
1761380658687036200,2.7810361328125,-0.7950198650360107,-2.2163779735565186,-0.4010624587535858
1761380658697091800,2.791091796875,-1.0189485549926758,-2.306800127029419,-0.3147810995578766
1761380658707147800,2.801147705078125,-1.0075217485427856,-2.6981377601623535,-0.04638507589697838
1761380658717204000,2.811203857421875,-0.8328689932823181,-3.216970682144165,0.2184513807296753
1761380658727260000,2.821260009765625,-0.6655367612838745,-3.6863276958465576,0.3402758240699768
1761380658737315800,2.83131591796875,-0.5379257798194885,-3.8514528274536133,0.33162692189216614
1761380658747371000,2.84137109375,-0.48369449377059937,-3.4775032997131348,0.27251195907592773
1761380658757427000,2.851427001953125,-0.4845011830329895,-2.8962905406951904,0.23091363906860352
1761380658767483000,2.86148291015625,-0.41617217659950256,-2.4572551250457764,0.16183443367481232
1761380658777539000,2.8715390625,-0.21282944083213806,-2.183981418609619,0.07266408205032349
1761380658787595000,2.881594970703125,0.02605104073882103,-1.9991508722305298,0.0334455743432045
1761380658797650700,2.891650634765625,0.22764913737773895,-1.884591817855835,0.04271524026989937
1761380658807705900,2.901705810546875,0.41798099875450134,-1.876531720161438,0.03412734344601631
1761380658817761800,2.91176171875,0.5610350966453552,-1.8554887771606445,0.006579339504241943
1761380658827818000,2.92181787109375,0.5427317023277283,-1.6764785051345825,-0.05976612865924835
1761380658837874000,2.9318740234375,0.3516262173652649,-1.355018973350525,-0.1891171932220459
1761380658847929900,2.941929931640625,0.05992512032389641,-1.0220415592193604,-0.3860829770565033
1761380658857986000,2.951986083984375,-0.24290905892848969,-0.7856450080871582,-0.610669732093811
1761380658868042000,2.9620419921875,-0.5462881326675415,-0.6381099224090576,-0.8012604713439941
1761380658878097000,2.972096923828125,-0.840125560760498,-0.47725310921669006,-0.8992426991462708
1761380658888152800,2.98215283203125,-1.1199390888214111,-0.2973403334617615,-0.8823683857917786
1761380658898208800,2.992208740234375,-1.3842607736587524,-0.06196403503417969,-0.714752733707428
1761380658908265000,3.002264892578125,-1.5791621208190918,0.23396189510822296,-0.40118417143821716
1761380658918321000,3.01232080078125,-1.6766098737716675,0.48594194650650024,0.05096171796321869
1761380658928376800,3.022376953125,-1.6801360845565796,0.6673106551170349,0.5963951945304871
1761380658938433000,3.03243310546875,-1.533575415611267,0.8489336967468262,1.1635116338729858
1761380658948488000,3.042488037109375,-1.2207669019699097,0.9612027406692505,1.6067346334457397
1761380658958544100,3.052544189453125,-0.802914023399353,1.0919485092163086,1.8123679161071777
1761380658968600000,3.06260009765625,-0.29809027910232544,1.2829493284225464,1.7816070318222046
1761380658978655700,3.07265576171875,0.22373083233833313,1.5158851146697998,1.4850140810012817
1761380658988712000,3.0827119140625,0.6992512941360474,1.8767585754394531,0.8777469992637634
1761380658998767900,3.092767822265625,0.9539560079574585,2.381074905395508,0.22968938946723938
1761380659008823000,3.102822998046875,0.7472803592681885,2.8669393062591553,-0.21899519860744476
1761380659018879000,3.11287890625,0.2136816531419754,3.1727681159973145,-0.24416713416576385
1761380659028935000,3.122934814453125,-0.39144206047058105,3.708918571472168,0.29396718740463257
1761380659038990800,3.132990966796875,-0.9615561366081238,4.599120140075684,1.1444154977798462
1761380659049047000,3.143047119140625,-1.2579073905944824,5.242311954498291,1.7938355207443237
1761380659059103000,3.15310302734375,-0.9076952934265137,5.212198734283447,1.871439814567566
1761380659069159000,3.163158935546875,-0.07954142987728119,4.486579895019531,1.3835281133651733
1761380659079213800,3.1732138671875,0.7361821532249451,3.8556008338928223,0.8848986625671387
1761380659089269800,3.183269775390625,0.9961873292922974,3.448617935180664,0.7363107800483704
1761380659099326000,3.193325927734375,0.8591016530990601,3.209416389465332,0.9211623668670654
1761380659109382000,3.2033818359375,0.7806854248046875,3.132528305053711,1.1900564432144165
1761380659119437800,3.213437744140625,0.7604552507400513,2.9002978801727295,1.4422138929367065
1761380659129494000,3.223493896484375,0.635613203048706,2.624006986618042,1.556886911392212
1761380659139550000,3.233550048828125,0.36358779668807983,2.4299476146698,1.4621238708496094
1761380659149605000,3.243605224609375,0.08207782357931137,2.3884379863739014,1.2134379148483276
1761380659159660800,3.253660888671875,-0.06727251410484314,2.624268054962158,0.826078474521637
1761380659169716700,3.263716796875,-0.09851725399494171,2.8505823612213135,0.39152461290359497
1761380659179773000,3.27377294921875,-0.07116126269102097,2.736588716506958,-0.0033076461404561996
1761380659189828900,3.283828857421875,-0.042641203850507736,2.2470862865448,-0.28911730647087097
1761380659199884800,3.293884765625,-0.07117830961942673,1.6169179677963257,-0.4255654215812683
1761380659209940000,3.30393994140625,-0.14980573952198029,1.0812498331069946,-0.46360599994659424
1761380659219996000,3.313995849609375,-0.21970438957214355,0.7160091996192932,-0.4779612421989441
1761380659230052000,3.324052001953125,-0.23972603678703308,0.42420241236686707,-0.5358471870422363
1761380659240108000,3.33410791015625,-0.14313745498657227,0.10955605655908585,-0.7056530117988586
1761380659250164000,3.3441640625,0.11230044066905975,-0.20453210175037384,-0.8987481594085693
1761380659260220000,3.354219970703125,0.4288874566555023,-0.35830968618392944,-1.0434821844100952
1761380659270275800,3.36427587890625,0.6640293598175049,-0.3034416437149048,-1.1683160066604614
1761380659280331000,3.3743310546875,0.7440770864486694,-0.06293369084596634,-1.3248395919799805
1761380659290387000,3.384386962890625,0.6818989515304565,0.21200093626976013,-1.4692862033843994
1761380659300443000,3.39444287109375,0.513306200504303,0.3730500042438507,-1.5477482080459595
1761380659310499000,3.4044990234375,0.29295703768730164,0.3032594919204712,-1.4964240789413452
1761380659320555000,3.414554931640625,0.09001591056585312,0.01091683004051447,-1.2930688858032227
1761380659330611000,3.42461083984375,-0.050456516444683075,-0.43102890253067017,-0.9786757230758667
1761380659340667100,3.434667236328125,-0.0754375010728836,-1.0011893510818481,-0.6713021993637085
1761380659350721800,3.4447216796875,0.012044412083923817,-1.6123554706573486,-0.5069097876548767
1761380659360777700,3.45477783203125,0.16199396550655365,-2.1105785369873047,-0.5235177874565125
1761380659370834000,3.464833984375,0.31250011920928955,-2.3476579189300537,-0.6109419465065002
1761380659380889900,3.474889892578125,0.4103161692619324,-2.3175668716430664,-0.6348885297775269
1761380659390945800,3.48494580078125,0.31264179944992065,-2.1065242290496826,-0.42056533694267273
1761380659401002000,3.495001953125,-0.05862762778997421,-1.8341361284255981,0.11773435771465302
1761380659411057000,3.505056884765625,-0.5535404086112976,-1.8949419260025024,0.6634277701377869
1761380659421113000,3.515113037109375,-0.7938909530639648,-1.9795864820480347,0.7581841349601746
1761380659431169000,3.5251689453125,-0.6922258734703064,-1.698981761932373,0.1560007780790329
1761380659441224700,3.535224609375,-0.5986130833625793,-1.3687937259674072,-0.78237384557724
1761380659451281000,3.545281005859375,-0.5855534672737122,-1.254815697669983,-1.4405895471572876
1761380659461336800,3.5553369140625,-0.5618218183517456,-1.6052600145339966,-1.5409952402114868
1761380659471392800,3.565392822265625,-0.5862727761268616,-2.154924154281616,-1.0380687713623047
1761380659481448000,3.575447998046875,-0.6934413313865662,-2.651987075805664,-0.13278573751449585
1761380659491503900,3.58550390625,-0.8177075982093811,-2.8940701484680176,0.8779773712158203
1761380659501560000,3.59556005859375,-0.8338384032249451,-3.0240983963012695,1.578112244606018
1761380659511616000,3.605615966796875,-0.7633290886878967,-2.9648337364196777,1.6493934392929077
1761380659521668900,3.6156689453125,-0.5926193594932556,-2.8772053718566895,1.3032116889953613
1761380659531725000,3.62572509765625,-0.3732209801673889,-2.7954001426696777,0.7028518915176392
1761380659541780000,3.635780029296875,-0.14383067190647125,-2.7044856548309326,0.06564692407846451
1761380659551836000,3.6458359375,0.038113564252853394,-2.5589823722839355,-0.509491503238678
1761380659561892000,3.65589208984375,0.1734687238931656,-2.259047746658325,-0.990965723991394
1761380659571947800,3.66594775390625,0.23591957986354828,-1.919494390487671,-1.3556057214736938
1761380659582003700,3.676003662109375,0.24168746173381805,-1.595197319984436,-1.5815496444702148
1761380659592060000,3.686059814453125,0.22091293334960938,-1.3141515254974365,-1.6428254842758179
1761380659602115800,3.69611572265625,0.1897696703672409,-1.0763753652572632,-1.5541417598724365
1761380659612171000,3.7061708984375,0.14221999049186707,-0.8496626019477844,-1.4003510475158691
1761380659622227000,3.71622705078125,0.07455333322286606,-0.5326423048973083,-1.227141261100769
1761380659632283000,3.726282958984375,-0.030818631872534752,-0.22139470279216766,-1.2061760425567627
1761380659642339000,3.736339111328125,-0.21813899278640747,0.5421814918518066,-1.1774476766586304
1761380659652395000,3.74639501953125,-0.4210186004638672,1.1608638763427734,-1.1987899541854858
1761380659662451000,3.756450927734375,-0.592214047908783,1.707580804824829,-1.2210299968719482
1761380659672507000,3.7665068359375,-0.6292831301689148,2.2934491634368896,-1.1438404321670532
1761380659682561800,3.776561767578125,-0.5574344992637634,2.6609582901000977,-0.945104718208313
1761380659692618000,3.786617919921875,-0.42657768726348877,2.6815569400787354,-0.7197080850601196
1761380659702674000,3.796673828125,-0.07686708122491837,2.833087205886841,-0.38492557406425476
1761380659712729900,3.806729736328125,0.40938591957092285,3.0303609371185303,0.05461584031581879
1761380659722786000,3.8167861328125,0.8324783444404602,3.1337435245513916,0.47748905420303345
1761380659732842000,3.826842041015625,1.0939304828643799,3.128831624984741,0.813444197177887
1761380659742897200,3.836897216796875,1.1904041767120361,3.047563314437866,0.973111093044281
1761380659752952800,3.846952880859375,1.239557147026062,2.7100062370300293,0.9624879956245422
1761380659763008800,3.8570087890625,1.3651877641677856,2.1075618267059326,0.8300868272781372
1761380659773065000,3.86706494140625,1.5899149179458618,1.4153763055801392,0.497694730758667
1761380659783121000,3.877120849609375,1.8350434303283691,0.8900028467178345,-0.14476917684078217
1761380659793176800,3.8871767578125,2.136415481567383,0.6791188716888428,-0.9985791444778442
1761380659803233000,3.89723291015625,2.432598114013672,0.9496406316757202,-1.8094712495803833
1761380659813288000,3.907287841796875,2.59155535697937,1.6132614612579346,-2.374234199523926
1761380659823343900,3.91734375,2.4693124294281006,2.439587354660034,-2.3289859294891357
1761380659833400000,3.927400146484375,1.9955692291259766,3.0979268550872803,-1.5949746370315552
1761380659843456000,3.9374560546875,1.3552368879318237,3.4488813877105713,-0.531393826007843
1761380659853512000,3.947511962890625,0.8093364834785461,3.5589656829833984,0.5887538194656372
1761380659863568000,3.95756787109375,0.5092038512229919,3.4475135803222656,1.6794312000274658
1761380659873622800,3.967622802734375,0.5199329257011414,2.844067096710205,2.4955978393554688
1761380659883679000,3.977678955078125,0.7270472049713135,1.9258912801742554,2.9240312576293945
1761380659893735000,3.98773486328125,0.9543429613113403,1.4535024166107178,2.9059019088745117
1761380659903790800,3.997790771484375,1.0553542375564575,1.4372409582138062,2.5471553802490234
1761380659913847000,4.007846923828125,1.0464763641357422,1.3504894971847534,1.9653664827346802
1761380659923900000,4.01789990234375,1.0384429693222046,1.0727993249893188,1.242906093597412
1761380659933955800,4.027955810546875,1.032070517539978,0.6934610605239868,0.547758162021637
1761380659944011000,4.038010986328125,1.0149197578430176,0.45750710368156433,0.016760071739554405
1761380659954067000,4.04806689453125,0.9241235256195068,0.40819495916366577,-0.2822705805301666
1761380659964123100,4.058123046875,0.7773489952087402,0.34268996119499207,-0.36823660135269165
1761380659974179000,4.068178955078125,0.6444224119186401,0.24367977678775787,-0.34779924154281616
1761380659984234800,4.07823486328125,0.5692285895347595,-0.007269097957760096,-0.33263707160949707
1761380659994291000,4.088291015625,0.6985064148902893,-0.45218023657798767,-0.33957594633102417
1761380660004347000,4.098346923828125,1.0708293914794922,-1.0103029012680054,-0.3450852334499359
1761380660014401800,4.10840185546875,1.4784713983535767,-1.4901065826416016,-0.2196386158466339
1761380660024458000,4.1184580078125,1.6942574977874756,-1.8378418684005737,0.09977293014526367
1761380660034514000,4.128513916015625,1.6209276914596558,-2.0044686794281006,0.4993773102760315
1761380660044569900,4.13856982421875,1.2815519571304321,-2.0811545848846436,0.8140867948532104
1761380660054626000,4.1486259765625,0.7587966322898865,-1.9167779684066772,1.0774366855621338
1761380660064682000,4.158681884765625,0.12105904519557953,-1.9191346168518066,1.3050943613052368
1761380660074737000,4.16873681640625,-0.5515835285186768,-2.131981134414673,1.5794066190719604
1761380660084792800,4.178792724609375,-1.0754971504211426,-2.5819716453552246,1.9235306978225708
1761380660094848800,4.188848876953125,-1.4213786125183105,-3.147273302078247,2.2382588386535645
1761380660104905000,4.198905029296875,-1.5810226202011108,-3.646665334701538,2.4335126876831055
1761380660114961000,4.2089609375,-1.4654669761657715,-3.8519697189331055,2.44748592376709
1761380660125016800,4.219016845703125,-1.1680805683135986,-3.5270752906799316,2.2971084117889404
1761380660135073000,4.229072998046875,-0.9428386688232422,-2.609276294708252,2.111677646636963
1761380660145128000,4.2391279296875,-0.904907763004303,-1.9338107109069824,1.8816518783569336
1761380660155184000,4.24918408203125,-1.0552277565002441,-1.832061529159546,1.5201911926269531
1761380660165239800,4.25923974609375,-1.1855205297470093,-1.925703525543213,0.9227677583694458
1761380660175295700,4.269295654296875,-1.2768776416778564,-2.0057990550994873,-0.07401750236749649
1761380660185352000,4.27935205078125,-1.470049500465393,-2.2092204093933105,-1.1246901750564575
1761380660195408000,4.289407958984375,-1.5395662784576416,-2.775843620300293,-1.8404091596603394
1761380660205463800,4.2994638671875,-1.1299006938934326,-3.67549204826355,-2.1195640563964844
1761380660215519000,4.30951904296875,-0.48278290033340454,-4.763271331787109,-2.0685365200042725
1761380660225575000,4.319574951171875,-0.008265652693808079,-5.321714401245117,-1.8071388006210327
1761380660235631000,4.329631103515625,0.13231223821640015,-5.2001543045043945,-1.4028626680374146
1761380660245687000,4.33968701171875,0.12546098232269287,-4.863156795501709,-1.131382703781128
1761380660255743000,4.349742919921875,0.11744567006826401,-4.440322399139404,-1.1020642518997192
1761380660265799000,4.359798828125,0.08713516592979431,-4.115695476531982,-1.1279666423797607
1761380660275853800,4.369853759765625,0.13873711228370667,-3.964454174041748,-1.1752349138259888
1761380660285910000,4.379909912109375,0.33126288652420044,-3.9711315631866455,-1.2045341730117798
1761380660295966000,4.389966064453125,0.5107202529907227,-3.8452231884002686,-1.1922516822814941
1761380660306022000,4.40002197265625,0.576827883720398,-3.505953311920166,-1.2298070192337036
1761380660316077800,4.410077880859375,0.5580528974533081,-3.0351202487945557,-1.3948253393173218
1761380660326134000,4.420134033203125,0.46438711881637573,-2.537160873413086,-1.6736211776733398
1761380660336190000,4.43018994140625,0.2669360935688019,-2.14813232421875,-1.9933278560638428
1761380660346246000,4.440245849609375,-0.03946804627776146,-1.9054174423217773,-2.2863733768463135
1761380660356302000,4.450302001953125,-0.4303330183029175,-1.547230839729309,-2.5280966758728027
1761380660366357800,4.460357666015625,-0.8831287026405334,-1.1473134756088257,-2.7402849197387695
1761380660376413700,4.47041357421875,-1.320020318031311,-0.7002196311950684,-2.8633294105529785
1761380660386470000,4.480469970703125,-1.5642428398132324,-0.2501336634159088,-2.8125007152557373
1761380660396525800,4.49052587890625,-1.4790719747543335,-0.027628164738416672,-2.546666145324707
1761380660406581000,4.5005810546875,-1.2093642950057983,0.1335415542125702,-2.001516819000244
1761380660416637000,4.510636962890625,-0.9917510747909546,0.3347513675689697,-1.2106980085372925
1761380660426692900,4.52069287109375,-0.9368654489517212,0.439748615026474,-0.3318043053150177
1761380660436749000,4.5307490234375,-0.9170451164245605,0.5889394283294678,0.4222162365913391
1761380660446805000,4.540804931640625,-0.7727801203727722,0.8847575187683105,0.9322336912155151
1761380660456861000,4.55086083984375,-0.5163461565971375,1.1500424146652222,1.3180559873580933
1761380660466916900,4.560916748046875,-0.16765983402729034,1.4695650339126587,1.4826704263687134
1761380660476971800,4.5709716796875,0.11197926849126816,1.7999922037124634,1.351925253868103
1761380660487028000,4.581028076171875,0.2634718418121338,2.1071255207061768,1.052461862564087
1761380660497084000,4.591083984375,0.33247649669647217,2.414287567138672,0.5598968863487244
1761380660507139800,4.601139892578125,0.2987813651561737,2.75642466545105,0.2697795331478119
1761380660517196000,4.611196044921875,0.09290596842765808,3.394789934158325,0.39179494976997375
1761380660527251500,4.62125146484375,-0.05873282253742218,4.024914741516113,0.5831044316291809
1761380660537306600,4.631306640625,0.10522682219743729,4.300355434417725,0.550818920135498
1761380660547362600,4.641362548828125,0.5171682834625244,4.249455451965332,0.17113952338695526
1761380660557418500,4.65141845703125,1.099605679512024,4.09439754486084,-0.20396165549755096
1761380660567474700,4.661474609375,1.6451070308685303,4.245957374572754,-0.3412516117095947
1761380660577530400,4.6715302734375,1.6046298742294312,4.59401798248291,0.013760020956397057
1761380660587586300,4.68158642578125,1.1023963689804077,5.057594299316406,0.5953373908996582
1761380660597642500,4.691642578125,0.7072229385375977,5.459449291229248,1.1494648456573486
1761380660607697400,4.701697509765625,0.6101248860359192,5.560062885284424,1.462285041809082
1761380660617753600,4.711753662109375,0.7313826084136963,5.4122114181518555,1.454372525215149
1761380660627809500,4.7218095703125,0.9756280183792114,5.076754093170166,1.1877468824386597
1761380660637865500,4.731865478515625,1.306748390197754,4.581836700439453,0.7744626998901367
1761380660647921700,4.741921630859375,1.6053346395492554,3.7122609615325928,0.2680623531341553
1761380660657977600,4.7519775390625,1.8023943901062012,2.667644500732422,-0.24195164442062378
1761380660668032500,4.762032470703125,1.9533718824386597,1.7142325639724731,-0.6374156475067139
1761380660678088400,4.77208837890625,1.9860649108886719,0.8620838522911072,-0.846394956111908
1761380660688144400,4.782144287109375,1.8723583221435547,0.20934896171092987,-0.87620609998703
1761380660698200600,4.79220068359375,1.6163246631622314,-0.1382707953453064,-0.8006604909896851
1761380660708256500,4.802256591796875,1.3194972276687622,-0.034499652683734894,-0.6627654433250427
1761380660718312400,4.8123125,1.05747652053833,0.38235217332839966,-0.5652466416358948
1761380660728368600,4.82236865234375,0.8791360855102539,0.7357499003410339,-0.5099953413009644
1761380660738423600,4.832423583984375,0.8169363737106323,0.9148387312889099,-0.4563544988632202
1761380660748479500,4.8424794921875,0.8192424178123474,0.908420741558075,-0.39700353145599365
1761380660758535400,4.852535400390625,0.8001531362533569,0.7494518756866455,-0.36871013045310974
1761380660768591400,4.86259130859375,0.8551692366600037,0.4410761892795563,-0.333347350358963
1761380660778647300,4.872647216796875,0.8943288922309875,-0.034262366592884064,-0.33728349208831787
1761380660788703500,4.882703369140625,0.8284257650375366,-0.629938006401062,-0.2903791069984436
1761380660798759400,4.892759521484375,0.793880045413971,-1.02745521068573,-0.058632154017686844
1761380660808814600,4.902814697265625,0.40438663959503174,-1.4079402685165405,0.3223887085914612
1761380660818870500,4.91287060546875,-0.025890985503792763,-1.7933106422424316,0.6559315323829651
1761380660828926500,4.922926513671875,-0.37816646695137024,-2.1000285148620605,0.9274394512176514
1761380660838982700,4.932982666015625,-0.5954748392105103,-2.140373945236206,1.0957086086273193
1761380660849038600,4.94303857421875,-0.7502257823944092,-1.9994877576828003,1.1075788736343384
1761380660859094500,4.953094482421875,-0.9683296084403992,-1.8119854927062988,0.887649416923523
1761380660869149400,4.9631494140625,-1.270293951034546,-1.706024408340454,0.5066418647766113
1761380660879205400,4.973205322265625,-1.6084893941879272,-1.6383260488510132,0.14205753803253174
1761380660889261600,4.983261474609375,-1.925781011581421,-1.638026237487793,0.09867784380912781
1761380660899317500,4.9933173828125,-2.163881778717041,-2.0018084049224854,0.40120095014572144
1761380660909373400,5.00337353515625,-2.254491090774536,-2.6782212257385254,0.6068055033683777
1761380660919429600,5.0134296875,-2.0332374572753906,-2.9070565700531006,0.36797401309013367
1761380660929485600,5.023485595703125,-1.7224383354187012,-2.89247727394104,-0.31070300936698914
1761380660939540500,5.03354052734375,-1.5889111757278442,-3.026702880859375,-1.0823246240615845
1761380660949596400,5.043596435546875,-1.6113711595535278,-3.18312406539917,-1.6193734407424927
1761380660959652400,5.05365234375,-1.7254234552383423,-3.3849756717681885,-1.6755088567733765
1761380660969708500,5.06370849609375,-1.9021116495132446,-3.5249738693237305,-1.1600308418273926
1761380660979764500,5.073764404296875,-2.106135845184326,-3.3591060638427734,-0.2771836817264557
1761380660989820400,5.0838203125,-2.2383062839508057,-3.1084840297698975,0.5913517475128174
1761380660999875600,5.09387548828125,-2.131392002105713,-3.0018808841705322,1.1589443683624268
1761380661009931500,5.103931640625,-1.7038990259170532,-3.130725145339966,1.1575959920883179
1761380661019987500,5.113987548828125,-1.1193854808807373,-3.47112774848938,0.634505033493042
1761380661030043600,5.124043701171875,-0.537140429019928,-3.82192063331604,-0.09222100675106049
1761380661040099600,5.134099609375,-0.00515774404630065,-4.100575923919678,-0.7418091297149658
1761380661050155500,5.144155517578125,0.3947257399559021,-4.320509433746338,-1.1549738645553589
1761380661060211500,5.15421142578125,0.5920295119285583,-4.411006450653076,-1.2730977535247803
1761380661070266400,5.164266357421875,0.6256905198097229,-4.361290454864502,-1.1199588775634766
1761380661080322600,5.174322509765625,0.5555468797683716,-3.9903295040130615,-0.6878356337547302
1761380661090378500,5.18437841796875,0.3150881826877594,-3.4334895610809326,-0.030844464898109436
1761380661100434400,5.194434326171875,-0.09536486864089966,-2.7343246936798096,0.6669210195541382
1761380661110490600,5.20449072265625,-0.6176515221595764,-1.9705828428268433,1.2304078340530396
1761380661120546600,5.214546630859375,-1.1613444089889526,-0.9907518625259399,1.5075323581695557
1761380661130602500,5.2246025390625,-1.5379635095596313,-0.005313006229698658,1.401314616203308
1761380661140657400,5.234657470703125,-1.7177120447158813,0.9091445803642273,1.0139151811599731
1761380661150713300,5.24471337890625,-1.7378175258636475,1.7371666431427002,0.5576545000076294
1761380661160769500,5.25476953125,-1.6574044227600098,2.3313632011413574,0.3240550458431244
1761380661170825500,5.264825439453125,-1.483354091644287,2.5152997970581055,0.38020059466362
1761380661180881400,5.27488134765625,-1.2587676048278809,2.455009698867798,0.6840153336524963
1761380661190937600,5.2849375,-1.0717977285385132,2.3757565021514893,1.1621246337890625
1761380661200992500,5.294992431640625,-0.783855676651001,2.2324934005737305,1.634505033493042
1761380661211048700,5.305048583984375,-0.33017924427986145,2.097423791885376,1.8955358266830444
1761380661221104400,5.3151044921875,0.11561208218336105,1.9012941122055054,1.8738142251968384
1761380661231160300,5.325160400390625,0.5989555716514587,1.7058167457580566,1.598293662071228
1761380661241216500,5.335216552734375,1.1562989950180054,1.7277930974960327,1.1013332605361938
1761380661251272400,5.3452724609375,1.7015902996063232,1.9398316144943237,0.5878906846046448
1761380661261328400,5.355328369140625,1.946308970451355,2.3390231132507324,0.4173937737941742
1761380661271383600,5.365383544921875,1.7915090322494507,3.3491477966308594,0.4676830470561981
1761380661281439500,5.375439453125,1.0783445835113525,4.599055290222168,0.26978379487991333
1761380661291495700,5.38549560546875,0.1527104526758194,5.1974945068359375,-0.413862943649292
1761380661301551600,5.395551513671875,-0.1902168095111847,5.155092239379883,-1.4029783010482788
1761380661311607600,5.405607666015625,0.2574078440666199,4.939446926116943,-2.368004083633423
1761380661321663700,5.415663818359375,1.0317786931991577,4.536264419555664,-2.962898015975952
1761380661331718400,5.425718505859375,1.7253237962722778,4.269092082977295,-2.8321609497070312
1761380661341774300,5.4357744140625,2.1516828536987305,3.9680328369140625,-1.8760744333267212
1761380661351830500,5.44583056640625,2.078565835952759,3.785871744155884,-0.332416832447052
1761380661361886500,5.455886474609375,1.5299642086029053,3.840670108795166,1.2422541379928589
1761380661371942400,5.4659423828125,0.8009023070335388,3.7323882579803467,2.1720361709594727
1761380661381998600,5.47599853515625,0.22697296738624573,3.076540946960449,2.242046594619751
1761380661392054500,5.486054443359375,-0.08678123354911804,2.576429843902588,1.8103207349777222
1761380661402109400,5.496109375,-0.18029147386550903,2.4599757194519043,1.2047078609466553
1761380661412165400,5.506165283203125,-0.2265513837337494,2.6302900314331055,0.36724352836608887
1761380661422221300,5.51622119140625,-0.16303712129592896,2.6014814376831055,-0.6540877819061279
1761380661432277500,5.526277587890625,0.1250135749578476,2.3998708724975586,-1.6304492950439453
1761380661442333400,5.53633349609375,0.37687990069389343,2.408203125,-2.291820526123047
1761380661452389400,5.546389404296875,0.44526320695877075,2.415632963180542,-2.563992500305176
1761380661462444500,5.556444580078125,0.5247614979743958,2.2160451412200928,-2.5375168323516846
1761380661472500500,5.56650048828125,0.7124930620193481,1.7535139322280884,-2.1876065731048584
1761380661482556700,5.576556640625,0.8976426720619202,1.2405531406402588,-1.8908363580703735
1761380661492612600,5.586612548828125,1.1023821830749512,0.8129491209983826,-1.6544853448867798
1761380661502668500,5.59666845703125,1.2475652694702148,0.4491591453552246,-1.4458093643188477
1761380661512724500,5.606724365234375,1.2924145460128784,0.04857765510678291,-1.2448829412460327
1761380661522780400,5.616780517578125,1.1895195245742798,-0.28606849908828735,-0.9404969215393066
1761380661532835000,5.6268349609375,0.942862868309021,-0.5736725926399231,-0.4536300599575043
1761380661542891000,5.63689111328125,0.7740547060966492,-0.9477391242980957,0.1889275759458542
1761380661552947000,5.646947021484375,0.8128449320793152,-1.3314154148101807,0.8789547681808472
1761380661563003100,5.657003173828125,0.8830424547195435,-1.6363838911056519,1.432868242263794
1761380661573059000,5.66705908203125,0.8956932425498962,-1.8326689004898071,1.733088493347168
1761380661583115000,5.677114990234375,0.7997384667396545,-1.978803277015686,1.728054165840149
1761380661593170000,5.687169921875,0.5646274089813232,-2.1181893348693848,1.367039442062378
1761380661603225900,5.697225830078125,0.2563430964946747,-2.307217597961426,0.681862473487854
1761380661613282000,5.707281982421875,-0.10448459535837173,-2.4060986042022705,-0.08240566402673721
1761380661623338000,5.717337890625,-0.4994676113128662,-2.366712808609009,-0.7079318761825562
1761380661633394000,5.727393798828125,-0.9203671813011169,-2.286684036254883,-0.9274706244468689
1761380661643450000,5.7374501953125,-1.234860897064209,-2.0243654251098633,-0.5157679915428162
1761380661653506000,5.747506103515625,-1.4345329999923706,-2.013756275177002,0.3278505802154541
1761380661663561200,5.757561279296875,-1.550462245941162,-2.358370065689087,1.0536255836486816
1761380661673617200,5.7676171875,-1.6441611051559448,-2.3532960414886475,1.2510346174240112
1761380661683673000,5.777673095703125,-1.842828392982483,-1.937430500984192,0.8170034885406494
1761380661693729300,5.787729248046875,-2.1198878288269043,-1.6326982975006104,0.000966993800830096
1761380661703785000,5.797784912109375,-2.2294600009918213,-1.5828287601470947,-0.6989836692810059
1761380661713841000,5.8078408203125,-2.1149821281433105,-1.4538865089416504,-0.9653961658477783
1761380661723896000,5.81789599609375,-1.9130444526672363,-1.5351754426956177,-0.8062517642974854
1761380661733952000,5.827951904296875,-1.5792685747146606,-1.78752601146698,-0.3690701723098755
1761380661744008200,5.83800830078125,-1.0908619165420532,-2.3391799926757812,0.12477415800094604
1761380661754064100,5.848064208984375,-0.5957416892051697,-3.1572799682617188,0.4955176115036011
1761380661764120000,5.8581201171875,-0.17163033783435822,-3.838454246520996,0.5943730473518372
1761380661774176000,5.868176025390625,0.15095409750938416,-4.416086196899414,0.31515875458717346
1761380661784232200,5.878232177734375,0.35494983196258545,-4.839463710784912,-0.20783361792564392
1761380661794286800,5.888286865234375,0.46721938252449036,-5.033195495605469,-0.7058330178260803
1761380661804343000,5.898343017578125,0.5203111171722412,-4.925788879394531,-0.9935436248779297
1761380661814399000,5.90839892578125,0.5519753098487854,-4.441619396209717,-1.1315944194793701
1761380661824455000,5.918454833984375,0.3930612802505493,-3.7671334743499756,-1.0972617864608765
1761380661834511000,5.928510986328125,0.08611224591732025,-3.0001330375671387,-0.9048691391944885
1761380661844567000,5.938567138671875,-0.2230471968650818,-2.3532559871673584,-0.7600523233413696
1761380661854622200,5.948622314453125,-0.49348774552345276,-1.7547703981399536,-0.6732420325279236
1761380661864678100,5.95867822265625,-0.7756288647651672,-1.3108805418014526,-0.6871240735054016
1761380661874733800,5.96873388671875,-1.0077537298202515,-0.8964745998382568,-0.8236643075942993
1761380661884790000,5.9787900390625,-1.154093623161316,-0.4715973436832428,-0.969677209854126
1761380661894846000,5.988845947265625,-1.277441143989563,-0.18742635846138,-1.0192437171936035
1761380661904902000,5.99890185546875,-1.3166545629501343,-0.013558685779571533,-0.9172717928886414
1761380661914958000,6.0089580078125,-1.2670838832855225,0.3726409375667572,-0.688222348690033
1761380661925013000,6.019012939453125,-1.2094250917434692,0.9445971250534058,-0.4727345108985901
1761380661935069200,6.029069091796875,-1.2215949296951294,1.6469895839691162,-0.32810303568840027
1761380661945125000,6.039125,-1.3039236068725586,2.229004144668579,-0.23230594396591187
1761380661955181000,6.04918115234375,-1.4127933979034424,2.4743456840515137,-0.13449177145957947
1761380661965237200,6.0592373046875,-1.424467921257019,2.5884268283843994,0.027480892837047577
1761380661975293200,6.069293212890625,-1.2005109786987305,2.420243978500366,0.15080176293849945
1761380661985348900,6.079348876953125,-0.6508118510246277,2.10050368309021,0.10297165811061859
1761380661995404000,6.089404052734375,0.08550531417131424,1.8502277135849,-0.022234199568629265
1761380662005460000,6.0994599609375,0.7827030420303345,1.8569068908691406,-0.2227952629327774
1761380662015516200,6.10951611328125,1.3329784870147705,2.1969425678253174,-0.4155098497867584
1761380662025572000,6.119572021484375,1.6827534437179565,2.5044548511505127,-0.45754972100257874
1761380662035628000,6.1296279296875,1.895815134048462,2.6396148204803467,-0.29280710220336914
1761380662045684200,6.139684326171875,2.0828607082366943,2.6310501098632812,-0.04729214683175087
1761380662055739000,6.14973876953125,2.1357507705688477,2.539638042449951,-0.06067293509840965
1761380662065795000,6.159795166015625,2.0673768520355225,2.222226619720459,-0.6025585532188416
1761380662075851000,6.16985107421875,2.031266450881958,2.0519542694091797,-1.4468722343444824
1761380662085907000,6.179906982421875,1.9160938262939453,2.7913200855255127,-2.0072457790374756
1761380662095963000,6.189962890625,1.6163477897644043,3.957972764968872,-2.0662004947662354
1761380662106019000,6.20001904296875,1.1706044673919678,4.996056079864502,-1.7993764877319336
1761380662116075000,6.210074951171875,0.672012209892273,5.568151950836182,-1.3109580278396606
1761380662126130200,6.220130126953125,0.40431952476501465,5.682434558868408,-0.6366230845451355
1761380662136186000,6.23018603515625,0.4063347280025482,5.343043804168701,0.061711832880973816
1761380662146242000,6.240241943359375,0.5485089421272278,4.658267021179199,0.5901303887367249
1761380662156298200,6.25029833984375,0.76503986120224,4.070804119110107,0.9443976879119873
1761380662166354000,6.26035400390625,1.0616375207901,3.740729808807373,1.0097638368606567
1761380662176409900,6.270409912109375,1.5197017192840576,3.7316784858703613,0.5414746999740601
1761380662186465000,6.280465087890625,1.8345022201538086,3.289626359939575,0.15645991265773773
1761380662196521000,6.29052099609375,1.9929014444351196,2.9791553020477295,-0.1760788857936859
1761380662206577200,6.3005771484375,1.9356893301010132,2.407942533493042,-0.40780824422836304
1761380662216633000,6.310633056640625,1.6498357057571411,1.7586075067520142,-0.5340002775192261
1761380662226689000,6.32068896484375,1.235901117324829,1.3750401735305786,-0.617759108543396
1761380662236745200,6.3307451171875,0.8730087280273438,1.1199595928192139,-0.6926966905593872
1761380662246800000,6.3407998046875,0.6548430919647217,0.9602245688438416,-0.7290584444999695
1761380662256856000,6.35085595703125,0.6164261698722839,0.767720639705658,-0.7105050086975098
1761380662266912000,6.360912109375,0.6756575703620911,0.589814305305481,-0.6405978202819824
1761380662276968000,6.370968017578125,0.7650244235992432,0.4542098343372345,-0.5443807244300842
1761380662287024000,6.381024169921875,0.8475307822227478,0.3102457523345947,-0.4843459129333496
1761380662297080000,6.391080078125,0.8418886065483093,0.12169607728719711,-0.43419593572616577
1761380662307136000,6.401135986328125,0.7832396626472473,-0.17220212519168854,-0.37287983298301697
1761380662317191200,6.411191162109375,0.7097699642181396,-0.4192774295806885,-0.17201490700244904
1761380662327247000,6.4212470703125,0.6305220127105713,-0.6144381165504456,0.08728936314582825
1761380662337303000,6.431302978515625,0.49681803584098816,-0.8504682183265686,0.3229825794696808
1761380662347359000,6.44135888671875,0.3692784309387207,-1.0653845071792603,0.52144855260849
1761380662357415000,6.451414794921875,0.286655455827713,-1.3277485370635986,0.6262468695640564
1761380662367471000,6.46147119140625,0.2524402439594269,-1.719156265258789,0.622771143913269
1761380662377526000,6.471526123046875,0.22688321769237518,-2.005164623260498,0.4772469997406006
1761380662387582000,6.48158203125,0.1612727791070938,-2.0436577796936035,0.2150055170059204
1761380662397638100,6.49163818359375,-0.06571110337972641,-1.781764268875122,-0.07420285791158676
1761380662407694000,6.501694091796875,-0.36499741673469543,-1.2448259592056274,-0.16275615990161896
1761380662417750000,6.51175,-0.6394467949867249,-0.777594804763794,0.014966432936489582
1761380662427806200,6.52180615234375,-0.8034930229187012,-0.6482344269752502,0.23837555944919586
1761380662437862100,6.531862060546875,-0.7563310861587524,-0.8257474303245544,0.18268725275993347
1761380662447917000,6.5419169921875,-0.6993157267570496,-1.2438360452651978,-0.4526521563529968
1761380662457973000,6.551972900390625,-0.8961079120635986,-1.9470572471618652,-1.464229941368103
1761380662468029000,6.56202880859375,-1.233220100402832,-2.563281536102295,-2.317254066467285
1761380662478085000,6.572085205078125,-1.675406575202942,-3.097123861312866,-2.5010170936584473
1761380662488141000,6.58214111328125,-1.9800949096679688,-3.286205530166626,-1.8975176811218262
1761380662498197000,6.592197021484375,-2.1739845275878906,-3.1159725189208984,-0.8148345947265625
1761380662508252200,6.602252197265625,-2.2760093212127686,-2.9957821369171143,0.3205798864364624
1761380662518307800,6.612307861328125,-2.1399118900299072,-3.0834505558013916,1.1411919593811035
1761380662528367900,6.622367919921875,-1.7031508684158325,-3.3930535316467285,1.4798208475112915
1761380662538424000,6.632424072265625,-1.1350163221359253,-3.780244827270508,1.3778241872787476
1761380662548480000,6.64247998046875,-0.49926599860191345,-3.692786455154419,0.9741134643554688
1761380662558536000,6.652535888671875,0.1690577268600464,-3.4388771057128906,0.376650869846344
1761380662568590800,6.6625908203125,0.6448703408241272,-3.429830312728882,-0.3118220865726471
1761380662578646800,6.672646728515625,0.8847785592079163,-3.4977285861968994,-0.9278202652931213
1761380662588703000,6.682702880859375,0.9090631008148193,-3.4952828884124756,-1.3757938146591187
1761380662598759000,6.692759033203125,0.7909364700317383,-3.2560136318206787,-1.6008460521697998
1761380662608814800,6.70281494140625,0.5780708193778992,-2.8800604343414307,-1.6198773384094238
1761380662618871000,6.71287109375,0.25652313232421875,-2.515592575073242,-1.4945542812347412
1761380662628925700,6.72292578125,-0.11709199845790863,-2.193542957305908,-1.333182454109192
1761380662638982000,6.73298193359375,-0.500092625617981,-1.8138179779052734,-1.2173943519592285
1761380662649037800,6.743037841796875,-0.8898134827613831,-1.3266472816467285,-1.1703170537948608
1761380662659093800,6.75309375,-1.2362010478973389,-0.7272408604621887,-1.179489254951477
1761380662669150000,6.76314990234375,-1.5116733312606812,-0.014824486337602139,-1.2460983991622925
1761380662679206000,6.773205810546875,-1.6885015964508057,0.6560587882995605,-1.282974123954773
1761380662689261800,6.78326171875,-1.694076657295227,1.1105866432189941,-1.197642207145691
1761380662699317000,6.79331689453125,-1.502994418144226,1.3596282005310059,-0.8979071378707886
1761380662709373000,6.803373046875,-1.137192726135254,1.4807647466659546,-0.40740397572517395
1761380662719429000,6.81342919921875,-0.6865650415420532,1.5109529495239258,0.1334853619337082
1761380662729485000,6.823485107421875,-0.22042424976825714,1.4670344591140747,0.6277281045913696
1761380662739540700,6.833540771484375,0.22216010093688965,1.4521654844284058,0.9421616792678833
1761380662749597000,6.843596923828125,0.650865912437439,1.4920098781585693,0.9849461317062378
1761380662759651800,6.85365185546875,0.9754155278205872,1.5152028799057007,0.7994287610054016
1761380662769708000,6.8637080078125,1.175746202468872,1.5934650897979736,0.5399356484413147
1761380662779764000,6.873763916015625,1.305908441543579,1.7899430990219116,0.3000982999801636
1761380662789820000,6.88381982421875,1.3500173091888428,2.127044200897217,0.19498786330223083
1761380662799876000,6.8938759765625,1.2997936010360718,2.379913091659546,0.32546117901802063
1761380662809932000,6.90393212890625,1.2294025421142578,2.426825761795044,0.7493584156036377
1761380662819987000,6.913987060546875,1.2324899435043335,2.5824670791625977,1.1475547552108765
1761380662830043000,6.92404296875,1.3660818338394165,2.628624200820923,1.009419322013855
1761380662840098800,6.934098876953125,1.6039608716964722,2.482235908508301,0.3955358862876892
1761380662850154800,6.94415478515625,1.8235409259796143,2.423520088195801,-0.21037746965885162
1761380662860211000,6.9542109375,1.8598777055740356,2.598973512649536,-0.4033122956752777
1761380662870267000,6.964266845703125,1.6074888706207275,2.9160900115966797,-0.2633804976940155
1761380662880322000,6.974322021484375,1.281173825263977,3.253772258758545,0.0034115093294531107
1761380662890378000,6.9843779296875,1.0318717956542969,3.4053194522857666,0.24585850536823273
1761380662900434000,6.994433837890625,0.8656445145606995,3.308692216873169,0.4490608870983124
1761380662910490000,7.004489990234375,0.7689459323883057,3.116018533706665,0.641669511795044
1761380662920545800,7.0145458984375,0.7112419009208679,2.8823163509368896,0.7224168181419373
1761380662930601700,7.024601806640625,0.6963026523590088,2.713697671890259,0.6128362417221069
1761380662940657000,7.034656982421875,0.7387840747833252,2.65175199508667,0.32191944122314453
1761380662950712800,7.044712890625,0.7883814573287964,2.5670228004455566,-0.07469820231199265
1761380662960769000,7.05476904296875,0.8256353139877319,2.3285112380981445,-0.47343626618385315
1761380662970825000,7.064824951171875,0.8600226044654846,2.028926134109497,-0.731639564037323
1761380662980881000,7.074880859375,0.8699713349342346,1.7515062093734741,-0.7695134878158569
1761380662990937000,7.08493701171875,0.8214107751846313,1.519081711769104,-0.629937469959259
1761380663000991700,7.09499169921875,0.7033038139343262,1.261295199394226,-0.41125011444091797
1761380663011048000,7.1050478515625,0.5470678806304932,0.9930791854858398,-0.21323131024837494
1761380663021103900,7.115103759765625,0.4298091530799866,0.785344123840332,-0.11255983263254166
1761380663031159800,7.125159912109375,0.3513772189617157,0.6077919602394104,-0.04225610941648483
1761380663041216000,7.135216064453125,0.28543388843536377,0.4193703830242157,0.0604870468378067
1761380663051272000,7.14527197265625,0.38472822308540344,0.3421245813369751,0.11738787591457367
1761380663061327000,7.1553271484375,0.5616289973258972,0.35195645689964294,0.1506989598274231
1761380663071383000,7.165383056640625,0.6831610202789307,0.28975406289100647,0.1647529900074005
1761380663081439000,7.17543896484375,0.7429423332214355,0.12664875388145447,0.15493738651275635
1761380663091495000,7.185494873046875,0.7359778881072998,-0.07081665098667145,0.1624877154827118
1761380663101550800,7.19555078125,0.697785496711731,-0.3145827054977417,0.21600820124149323
1761380663111606800,7.205606689453125,0.6124732494354248,-0.5279602408409119,0.3449326157569885
1761380663121662000,7.215661865234375,0.47878044843673706,-0.7233648896217346,0.5674341320991516
1761380663131718000,7.2257177734375,0.2544157803058624,-0.9049456119537354,0.8432111144065857
1761380663141773800,7.23577392578125,0.038188133388757706,-1.2398476600646973,1.0708751678466797
1761380663151830000,7.245830078125,-0.0786290317773819,-1.610248327255249,1.203613519668579
1761380663161886000,7.255885986328125,-0.11590103805065155,-1.7396152019500732,1.2941490411758423
1761380663171942000,7.26594189453125,-0.16056278347969055,-1.7392489910125732,1.3828620910644531
1761380663181996800,7.275996826171875,-0.25983238220214844,-1.8162513971328735,1.3328412771224976
1761380663192052700,7.286052734375,-0.3666541576385498,-1.9157321453094482,0.9117622375488281
1761380663202109000,7.29610888671875,-0.5232624411582947,-2.016770124435425,0.08537082374095917
1761380663212164900,7.306164794921875,-0.7722658514976501,-2.168691635131836,-0.9097321033477783
1761380663222220800,7.316220703125,-0.986338198184967,-2.3113250732421875,-1.6773747205734253
1761380663232277000,7.326277099609375,-1.1319375038146973,-2.428506374359131,-2.0185322761535645
1761380663242332000,7.336331787109375,-1.1483920812606812,-2.4576401710510254,-1.9124865531921387
1761380663252388000,7.34638818359375,-1.090482473373413,-2.3674018383026123,-1.6064506769180298
1761380663262444000,7.356444091796875,-1.0540019273757935,-2.061068534851074,-1.2952648401260376
1761380663272499700,7.366499755859375,-1.035811424255371,-1.7088301181793213,-1.0219049453735352
1761380663282556000,7.376555908203125,-1.0062503814697266,-1.8273875713348389,-0.8258297443389893
1761380663292611800,7.38661181640625,-0.9779244661331177,-2.319591999053955,-0.731632649898529
1761380663302667000,7.3966669921875,-0.9729430079460144,-2.676532506942749,-0.7150664925575256
1761380663312723000,7.406722900390625,-1.0091180801391602,-2.6283743381500244,-0.7941541075706482
1761380663322779000,7.41677880859375,-1.040651798248291,-2.3291983604431152,-0.9587936401367188
1761380663332835000,7.4268349609375,-1.0363816022872925,-2.007174015045166,-1.1260955333709717
1761380663342891000,7.43689111328125,-1.0434843301773071,-1.6408536434173584,-1.2389038801193237
1761380663352946000,7.44694580078125,-1.0488686561584473,-1.2196236848831177,-1.3053004741668701
1761380663363001900,7.457001953125,-1.0817129611968994,-0.806568443775177,-1.3171131610870361
1761380663373057800,7.467057861328125,-1.1114736795425415,-0.5584307909011841,-1.3419082164764404
1761380663383114000,7.477114013671875,-1.1503678560256958,-0.49993792176246643,-1.3797401189804077
1761380663393170000,7.487169921875,-1.2182649374008179,-0.531767725944519,-1.385567307472229
1761380663403225900,7.497225830078125,-1.3286385536193848,-0.5929791927337646,-1.37225341796875
1761380663413281000,7.507281005859375,-1.4816070795059204,-0.644208550453186,-1.3551934957504272
1761380663423337000,7.5173369140625,-1.6173709630966187,-0.6987668871879578,-1.3274403810501099
1761380663433393000,7.527392822265625,-1.6506844758987427,-0.7743034362792969,-1.215512752532959
1761380663443449000,7.537448974609375,-1.602108120918274,-0.8209095597267151,-1.0212706327438354
1761380663453504800,7.5475048828125,-1.5431585311889648,-0.7974156737327576,-0.8222110271453857
1761380663463560700,7.557560791015625,-1.4808293581008911,-0.6404276490211487,-0.6367706060409546
1761380663473616000,7.567615966796875,-1.3279032707214355,-0.2305501252412796,-0.4458951950073242
1761380663483671800,7.577671875,-1.06093168258667,0.19827447831630707,-0.28578487038612366
1761380663493728000,7.58772802734375,-0.6912447810173035,0.40229684114456177,-0.14745976030826569
1761380663503784000,7.597783935546875,-0.259793221950531,0.3672911822795868,-0.0252225324511528
1761380663513839900,7.60783984375,0.1536089926958084,0.20674093067646027,0.11890428513288498
1761380663523896000,7.61789599609375,0.5150111317634583,0.09232407063245773,0.30778446793556213
1761380663533947600,7.62794775390625,0.7882741093635559,-0.00797297153621912,0.5153392553329468
1761380663544003800,7.63800390625,1.0220240354537964,0.007108775898814201,0.7185051441192627
1761380663554059800,7.648059814453125,1.2391546964645386,0.20809674263000488,0.9635908007621765
1761380663564115500,7.658115478515625,1.383298635482788,0.4093874990940094,1.243073582649231
1761380663574171600,7.668171630859375,1.3637562990188599,0.4904663860797882,1.4031809568405151
1761380663584226600,7.6782265625,1.1284992694854736,0.18714778125286102,1.3091650009155273
1761380663594282800,7.68828271484375,0.9176728129386902,-0.3694606125354767,0.9987096190452576
1761380663604338700,7.698338623046875,0.894583523273468,-0.9937777519226074,0.7459996342658997
1761380663614394600,7.70839453125,1.0087883472442627,-0.8721905946731567,0.7422837018966675
1761380663624450600,7.718450439453125,1.2920818328857422,0.27154043316841125,0.5524525046348572
1761380663634506800,7.7285068359375,1.8189400434494019,1.265040397644043,-0.14299364387989044
1761380663644561400,7.7385615234375,2.3680405616760254,1.992802381515503,-1.1501108407974243
1761380663654617600,7.74861767578125,2.5744547843933105,2.742102861404419,-1.9638620615005493
1761380663664673500,7.758673583984375,2.301727533340454,3.588388681411743,-1.8817634582519531
1761380663674729500,7.7687294921875,1.6892303228378296,3.821960926055908,-1.463040828704834
1761380663684785700,7.77878564453125,1.2520055770874023,2.945967674255371,-1.0577926635742188
1761380663694841600,7.788841552734375,1.4665676355361938,1.2909801006317139,-0.6305640935897827
1761380663704896800,7.798896728515625,2.0153770446777344,0.40437811613082886,-0.3116859793663025
1761380663714952700,7.80895263671875,2.283393383026123,0.7090386748313904,-0.22797457873821259
1761380663725008600,7.819008544921875,2.1216351985931396,1.1389641761779785,-0.4345541298389435
1761380663735064800,7.82906494140625,1.6912486553192139,1.353053092956543,-0.7261952757835388
1761380663745120500,7.83912060546875,1.0806907415390015,1.3305964469909668,-0.895860493183136
1761380663755176400,7.849176513671875,0.611565351486206,1.3335696458816528,-0.9961743354797363
