time,seconds_elapsed,z,y,x
1761380656023488500,0.117488525390625,-0.1294327676296234,2.290464162826538,-0.3941885232925415
1761380656033543700,0.127543701171875,-0.02210693061351776,1.9832402467727661,-0.24235282838344574
1761380656043599600,0.137599609375,0.11699849367141724,1.8369040489196777,0.08163589239120483
1761380656053655600,0.147655517578125,0.25290319323539734,1.856439232826233,0.24511051177978516
1761380656063711700,0.157711669921875,0.2681199908256531,1.7177540063858032,0.569709062576294
1761380656073767700,0.167767578125,0.27732640504837036,1.5839499235153198,0.9360715746879578
1761380656083823600,0.17782373046875,0.4765108823776245,1.4039918184280396,1.1239509582519531
1761380656093878500,0.18787841796875,0.6750134825706482,1.1332086324691772,1.2549009323120117
1761380656103934500,0.1979345703125,0.7925100326538086,0.9200040102005005,1.2560352087020874
1761380656113990700,0.20799072265625,0.828823983669281,0.7831349968910217,1.106630563735962
1761380656124046600,0.218046630859375,0.8082470893859863,0.672608494758606,0.8732508420944214
1761380656134102500,0.2281025390625,0.7979506254196167,0.5245439410209656,0.6377972364425659
1761380656144158700,0.23815869140625,0.8288773894309998,0.3258069157600403,0.4755198657512665
1761380656154214700,0.248214599609375,0.8918107151985168,0.22247913479804993,0.3779933750629425
1761380656164269600,0.25826953125,0.9249966740608215,0.17068704962730408,0.27729979157447815
1761380656174325800,0.26832568359375,0.9252029657363892,0.19283726811408997,0.16409143805503845
1761380656184381700,0.278381591796875,0.9148656725883484,0.3227875530719757,0.0021163802593946457
1761380656194437600,0.288437744140625,0.9175626635551453,0.46456390619277954,-0.17699508368968964
1761380656204493600,0.29849365234375,0.932680070400238,0.4648541808128357,-0.29228493571281433
1761380656214549500,0.308549560546875,0.9669668674468994,0.4400004744529724,-0.2893681228160858
1761380656224605400,0.31860546875,0.9883996844291687,0.43394580483436584,-0.21076999604701996
1761380656234660600,0.32866064453125,0.9755555391311646,0.35452714562416077,-0.051343318074941635
1761380656244716500,0.338716552734375,0.9551405310630798,0.21406295895576477,0.07643861323595047
1761380656254772700,0.348772705078125,0.9532851576805115,0.12114473432302475,0.061069224029779434
1761380656264828700,0.35882861328125,0.9593420028686523,-0.021134108304977417,-0.05849365517497063
1761380656274884600,0.368884521484375,0.9641643762588501,-0.39239728450775146,-0.2577193081378937
1761380656284940800,0.37894091796875,0.9690139889717102,-0.9040089249610901,-0.42140331864356995
1761380656294996700,0.388996826171875,0.9080350995063782,-1.1930006742477417,-0.38200312852859497
1761380656305051600,0.3990517578125,0.7614070773124695,-1.4090123176574707,-0.06520334631204605
1761380656315107600,0.409107666015625,0.530159592628479,-1.5005625486373901,0.3780573904514313
1761380656325163500,0.41916357421875,0.2985799312591553,-1.5660630464553833,0.8155460357666016
1761380656335219700,0.4292197265625,0.18417593836784363,-1.6373286247253418,1.1500962972640991
1761380656345275600,0.439275634765625,0.15132984519004822,-1.6130815744400024,1.3365087509155273
1761380656355331600,0.44933154296875,0.0732627585530281,-1.5916157960891724,1.3533529043197632
1761380656365386800,0.45938671875,-0.11171534657478333,-1.6545675992965698,1.1074888706207275
1761380656375442700,0.469442626953125,-0.31993287801742554,-1.8433641195297241,0.5655092597007751
1761380656385498600,0.47949853515625,-0.4923962652683258,-1.956496000289917,-0.13355109095573425
1761380656395554600,0.489554443359375,-0.6093814969062805,-2.032710313796997,-0.7868321537971497
1761380656405610500,0.499610595703125,-0.6651880145072937,-2.294274091720581,-1.190725564956665
1761380656415666700,0.509666748046875,-0.6818487644195557,-2.809209108352661,-1.2386350631713867
1761380656425722600,0.51972265625,-0.6764316558837891,-3.298208713531494,-0.9748327136039734
1761380656435777800,0.52977783203125,-0.7157359719276428,-3.45904278755188,-0.5192853808403015
1761380656445833700,0.539833740234375,-0.8355894088745117,-3.3333840370178223,-0.04269751161336899
1761380656455889700,0.5498896484375,-0.9301249980926514,-2.9054994583129883,0.23390932381153107
1761380656465945600,0.559945556640625,-1.008216381072998,-2.417012929916382,0.1573927104473114
1761380656476001800,0.570001708984375,-1.176568865776062,-2.2595303058624268,-0.06262940168380737
1761380656486057500,0.580057373046875,-1.2336788177490234,-2.1947431564331055,-0.4167685806751251
1761380656496113700,0.59011376953125,-1.250272512435913,-2.168462038040161,-0.7921719551086426
1761380656506168600,0.60016845703125,-1.239967703819275,-2.285191774368286,-1.1735848188400269
1761380656516224500,0.610224609375,-1.1335636377334595,-2.4866082668304443,-1.5670961141586304
1761380656526280000,0.620280029296875,-0.8964522480964661,-2.790235996246338,-1.9449554681777954
1761380656536336000,0.6303359375,-0.6214805245399475,-3.1766357421875,-2.269167900085449
1761380656546392000,0.64039208984375,-0.40068498253822327,-3.452707529067993,-2.4183716773986816
1761380656556448000,0.650447998046875,-0.27296414971351624,-3.710707187652588,-2.399038791656494
1761380656566504000,0.66050390625,-0.16983218491077423,-3.962857961654663,-2.248086452484131
1761380656576559000,0.67055908203125,-0.08692359179258347,-4.178302764892578,-1.9538547992706299
1761380656586615000,0.680614990234375,-0.13823284208774567,-4.1291399002075195,-1.648977279663086
1761380656596671200,0.690671142578125,-0.36915168166160583,-3.767566680908203,-1.4725877046585083
1761380656606727200,0.70072705078125,-0.6384886503219604,-3.0947229862213135,-1.3211324214935303
1761380656616783000,0.710783203125,-0.8882305026054382,-2.2514002323150635,-1.1506123542785645
1761380656626839000,0.720839111328125,-1.0307247638702393,-1.363115906715393,-0.9326598048210144
1761380656636895000,0.73089501953125,-0.9675387740135193,-0.4763459265232086,-0.7320070266723633
1761380656646950000,0.740949951171875,-0.7579288482666016,0.31679242849349976,-0.565107524394989
1761380656657006000,0.751006103515625,-0.4597277045249939,0.953379213809967,-0.47278037667274475
1761380656667062000,0.76106201171875,-0.149989053606987,1.4629384279251099,-0.45342132449150085
1761380656677118000,0.771117919921875,0.10532046109437943,1.7926392555236816,-0.4748476445674896
1761380656687174100,0.781174072265625,0.2976060211658478,2.0436956882476807,-0.4614141285419464
1761380656697230000,0.79122998046875,0.4209533631801605,2.3718905448913574,-0.39693841338157654
1761380656707285000,0.801284912109375,0.39985689520835876,2.639383316040039,-0.2618945837020874
1761380656717341000,0.8113408203125,0.27224060893058777,2.6444475650787354,-0.06212686747312546
1761380656727396900,0.82139697265625,0.19107677042484283,2.6173653602600098,0.12641561031341553
1761380656737453000,0.831453125,0.1615571528673172,2.661738395690918,0.33730942010879517
1761380656747509000,0.841509033203125,0.10566272586584091,2.762531280517578,0.47240811586380005
1761380656757565000,0.85156494140625,0.07833096385002136,2.965548276901245,0.3760377764701843
1761380656767621000,0.86162109375,0.20702342689037323,3.0111513137817383,0.007823022082448006
1761380656777676000,0.871676025390625,0.5785897374153137,3.135136842727661,-0.4944276213645935
1761380656787732200,0.881732177734375,1.0203125476837158,3.215392827987671,-0.8943513035774231
1761380656797788200,0.8917880859375,1.3845380544662476,3.3214168548583984,-0.9117105007171631
1761380656807844000,0.901843994140625,1.4682241678237915,3.5701141357421875,-0.45357540249824524
1761380656817900000,0.911900146484375,1.2276519536972046,3.7710676193237305,0.2661258578300476
1761380656827956000,0.9219560546875,1.0112642049789429,3.7479610443115234,0.9010977745056152
1761380656838012000,0.932011962890625,1.1042085886001587,3.728234052658081,1.2976746559143066
1761380656848067000,0.942067138671875,1.4079937934875488,3.6466267108917236,1.4273442029953003
1761380656858123000,0.952123046875,1.7126039266586304,3.362060785293579,1.3427335023880005
1761380656868179200,0.96217919921875,1.9568620920181274,3.2436599731445312,1.1348180770874023
1761380656878235100,0.972235107421875,2.070323944091797,3.2954392433166504,0.8910908102989197
1761380656888291000,0.982291015625,2.018113136291504,3.261892795562744,0.6522327065467834
1761380656898347300,0.99234716796875,1.8137481212615967,3.0037014484405518,0.42930322885513306
1761380656908403200,1.0024033203125,1.479201078414917,2.659837007522583,0.2491006702184677
1761380656918458000,1.0124580078125,1.0790390968322754,2.4428436756134033,0.16005413234233856
1761380656928514000,1.02251416015625,0.6877480149269104,2.350674629211426,0.1567651331424713
1761380656938570000,1.032570068359375,0.37660279870033264,2.376707077026367,0.15148437023162842
1761380656948626000,1.0426259765625,0.10336808860301971,2.4948995113372803,0.020614774897694588
1761380656958682000,1.05268212890625,-0.154393270611763,2.6570801734924316,-0.250992089509964
1761380656968738000,1.062738037109375,-0.3396635353565216,2.7911336421966553,-0.6210391521453857
1761380656978793200,1.072793212890625,-0.39295366406440735,2.85353684425354,-1.0269540548324585
1761380656988849000,1.082848876953125,-0.3336144983768463,2.7964909076690674,-1.3718812465667725
1761380656998904800,1.09290478515625,-0.24330192804336548,2.657491683959961,-1.5527888536453247
1761380657008961000,1.1029609375,-0.15986402332782745,2.4154582023620605,-1.5389997959136963
1761380657019017000,1.113016845703125,-0.11222654581069946,2.0224223136901855,-1.3936892747879028
1761380657029073000,1.123072998046875,-0.15660226345062256,1.5228217840194702,-1.1680601835250854
1761380657039129000,1.133129150390625,-0.2992726266384125,1.016140103340149,-0.9644661545753479
1761380657049184000,1.14318408203125,-0.45923563838005066,0.5139179229736328,-0.7962251901626587
1761380657059240200,1.153240234375,-0.5670995712280273,0.13068023324012756,-0.5776752829551697
1761380657069296000,1.163296142578125,-0.5210649371147156,0.035414423793554306,-0.26506751775741577
1761380657079352000,1.17335205078125,-0.31553009152412415,0.11191535741090775,0.0959935337305069
1761380657089408300,1.183408203125,-0.007375969551503658,0.20187348127365112,0.5010731220245361
1761380657099464000,1.1934638671875,0.3279464542865753,-0.3077647089958191,0.9245970845222473
1761380657109520000,1.203519775390625,0.6982899308204651,-0.8307456374168396,1.1900192499160767
1761380657119575000,1.213574951171875,0.9318122863769531,-1.2172545194625854,1.3057929277420044
1761380657129631000,1.223630859375,0.8008829951286316,-1.387878179550171,1.2270681858062744
1761380657139687200,1.233687255859375,0.2616080045700073,-1.1441375017166138,1.099175214767456
1761380657149743000,1.2437431640625,-0.5032110810279846,-1.0322716236114502,0.9295452237129211
1761380657159799000,1.253799072265625,-1.039966344833374,-1.4808470010757446,0.6313430666923523
1761380657169855200,1.263855224609375,-1.0141408443450928,-2.1000165939331055,0.2296406626701355
1761380657179911200,1.2739111328125,-0.4991646111011505,-2.611804485321045,-0.2205449789762497
1761380657189966000,1.283966064453125,0.11019593477249146,-3.022629737854004,-0.5312139391899109
1761380657200022000,1.29402197265625,0.41705265641212463,-3.5495402812957764,-0.5416044592857361
1761380657210078000,1.304077880859375,0.16515782475471497,-4.116938591003418,-0.1512862592935562
1761380657220134100,1.314134033203125,-0.44907861948013306,-4.327821731567383,0.43646499514579773
1761380657230190000,1.324190185546875,-1.1587507724761963,-3.9769980907440186,1.311113953590393
1761380657240246000,1.33424609375,-1.5656012296676636,-3.3281667232513428,2.147104024887085
1761380657250302000,1.344302001953125,-1.500443458557129,-3.0266239643096924,2.6111273765563965
1761380657260357000,1.354357177734375,-1.143903374671936,-2.92368745803833,2.6235790252685547
1761380657270413000,1.3644130859375,-0.6607728600502014,-2.8310160636901855,2.227302312850952
1761380657280469000,1.374468994140625,-0.20534342527389526,-2.8866539001464844,1.5371142625808716
1761380657290525000,1.38452490234375,0.1773935705423355,-3.44681453704834,0.6799640655517578
1761380657300580900,1.394580810546875,0.4669533967971802,-4.314936637878418,-0.21230292320251465
1761380657310637000,1.404636962890625,0.5379915833473206,-5.0370049476623535,-0.9552326798439026
1761380657320692000,1.41469189453125,0.34520596265792847,-5.506296157836914,-1.470131516456604
1761380657330748200,1.424748046875,0.01678146794438362,-5.61673641204834,-1.8012127876281738
1761380657340804000,1.43480419921875,-0.3213079273700714,-5.154919147491455,-1.9048194885253906
1761380657350860000,1.444860107421875,-0.5773258209228516,-4.401644229888916,-1.686182975769043
1761380657360916200,1.454916259765625,-0.8013057112693787,-3.6231143474578857,-1.2354719638824463
1761380657370972200,1.46497216796875,-1.0202600955963135,-2.7436399459838867,-0.6156625151634216
1761380657381027800,1.47502783203125,-1.237809658050537,-1.9865078926086426,0.03606652095913887
1761380657391083000,1.4850830078125,-1.4122445583343506,-1.4793826341629028,0.5110391974449158
1761380657401139000,1.495138916015625,-1.4755526781082153,-0.9846201539039612,0.739464521408081
1761380657411195100,1.505195068359375,-1.4008808135986328,-0.3422679007053375,0.7533614635467529
1761380657421251000,1.5152509765625,-1.325098991394043,0.4199737310409546,0.6083440780639648
1761380657431307000,1.52530712890625,-1.3397653102874756,1.2058123350143433,0.4015810489654541
1761380657441363200,1.53536328125,-1.4211735725402832,1.7746955156326294,0.2526044249534607
1761380657451419100,1.545419189453125,-1.4055967330932617,2.0692074298858643,0.3365453779697418
1761380657461474000,1.55547412109375,-1.134629249572754,2.2129058837890625,0.7055444717407227
1761380657471530000,1.565530029296875,-0.7332902550697327,1.943770170211792,1.1507861614227295
1761380657481586000,1.5755859375,-0.32081106305122375,1.2902826070785522,1.4416615962982178
1761380657491642000,1.58564208984375,0.027286704629659653,0.6295679807662964,1.52247953414917
1761380657501698000,1.595697998046875,0.2784833014011383,0.14619426429271698,1.379465103149414
1761380657511754000,1.60575390625,0.40425586700439453,-0.013394322246313095,1.151865839958191
1761380657521811200,1.615811279296875,0.37690141797065735,-0.024169526994228363,1.1574265956878662
1761380657531866000,1.6258662109375,0.3690091371536255,0.5040982961654663,1.414691686630249
1761380657541922000,1.635922119140625,0.37422290444374084,1.3919885158538818,1.6827510595321655
1761380657551978000,1.64597802734375,0.2412043958902359,1.9552587270736694,1.6290851831436157
1761380657562034200,1.6560341796875,0.09420434385538101,2.5028512477874756,1.1114851236343384
1761380657572090000,1.666090087890625,-0.1490999311208725,2.9575836658477783,0.2036215364933014
1761380657582146000,1.67614599609375,-0.48958832025527954,3.7355785369873047,-0.5752468109130859
1761380657592202200,1.6862021484375,-0.7786201238632202,4.808289527893066,-0.7199690937995911
1761380657602257200,1.696257080078125,-0.9935895204544067,5.584074020385742,-0.38408124446868896
1761380657612313300,1.706313232421875,-0.9426642656326294,5.725942134857178,0.11753660440444946
1761380657622369000,1.716369140625,-0.5638390183448792,4.977377414703369,0.44515863060951233
1761380657632425000,1.726425048828125,-0.00673343101516366,3.72739315032959,0.5494049191474915
1761380657642481200,1.736481201171875,0.5596836805343628,2.5943562984466553,0.5736936330795288
1761380657652537000,1.746537109375,0.9889165163040161,1.910671353340149,0.5824644565582275
1761380657662592300,1.75659228515625,1.266430377960205,1.6283234357833862,0.6373761296272278
1761380657672648200,1.766648193359375,1.4106274843215942,1.5659018754959106,0.711251437664032
1761380657682704100,1.7767041015625,1.4074152708053589,1.5648475885391235,0.7236552238464355
1761380657692760300,1.78676025390625,1.3817673921585083,1.9501441717147827,0.6129654049873352
1761380657702816300,1.796816162109375,1.1804509162902832,1.6962929964065552,0.5154587030410767
1761380657712872200,1.8068720703125,0.6804232597351074,1.526869297027588,0.4993817210197449
1761380657722928400,1.816928466796875,0.36151623725891113,1.507677435874939,0.29670873284339905
1761380657732983000,1.826983154296875,0.09058567136526108,1.3264222145080566,-0.07583342492580414
1761380657743039200,1.837039306640625,-0.17955777049064636,1.040044903755188,-0.47351711988449097
1761380657753095200,1.84709521484375,-0.41564032435417175,0.7163493633270264,-0.8779346346855164
1761380657763151000,1.857151123046875,-0.5040073990821838,0.3696606159210205,-1.203482747077942
1761380657773207300,1.867207275390625,-0.3714176416397095,0.02449018694460392,-1.3172357082366943
1761380657783263200,1.87726318359375,-0.06717489659786224,-0.2884787619113922,-1.2042489051818848
1761380657793318100,1.887318115234375,0.2555978298187256,-0.5214190483093262,-0.9602406024932861
1761380657803374000,1.8973740234375,0.46539995074272156,-0.7476670742034912,-0.7237070798873901
1761380657813430000,1.907429931640625,0.5434140563011169,-0.8923683762550354,-0.5557958483695984
1761380657823486200,1.917486328125,0.5009634494781494,-0.854504406452179,-0.4471498429775238
1761380657833542100,1.927542236328125,0.36881503462791443,-0.7937449216842651,-0.3576819896697998
1761380657843598000,1.93759814453125,0.1944151073694229,-0.7522211670875549,-0.22852274775505066
1761380657853654300,1.947654296875,0.01842143014073372,-0.890584409236908,-0.05887644737958908
1761380657863709200,1.957709228515625,-0.1354677528142929,-1.0889015197753906,0.08216367661952972
1761380657873765000,1.96776513671875,-0.2997286021709442,-1.3026992082595825,0.15073713660240173
1761380657883821300,1.9778212890625,-0.4592244625091553,-1.5166014432907104,0.11438494920730591
1761380657893877200,1.987877197265625,-0.559421956539154,-1.6764944791793823,0.057015396654605865
1761380657903933200,1.99793310546875,-0.6246289610862732,-1.7847267389297485,0.16646325588226318
1761380657913989000,2.007989013671875,-0.6976650953292847,-2.1415374279022217,0.38568800687789917
1761380657924045000,2.018045166015625,-0.7568479776382446,-2.811023712158203,0.5770183801651001
1761380657934100200,2.028100341796875,-0.7052199244499207,-3.3714611530303955,0.6633612513542175
1761380657944156200,2.03815625,-0.5223098993301392,-3.478177070617676,0.5124498009681702
1761380657954212000,2.048212158203125,-0.37226602435112,-3.345555067062378,0.05879122018814087
1761380657964268300,2.058268310546875,-0.3796873390674591,-3.1639275550842285,-0.38843175768852234
1761380657974324200,2.06832421875,-0.5859499573707581,-3.1442975997924805,-0.512742280960083
1761380657984380200,2.078380126953125,-0.9278335571289062,-3.3251888751983643,-0.27607303857803345
1761380657994436400,2.088436279296875,-1.2117204666137695,-3.334242582321167,0.1299426555633545
1761380658004491000,2.098490966796875,-1.388630986213684,-3.025782823562622,0.5586470365524292
1761380658014547200,2.108547119140625,-1.3938889503479004,-2.65385365486145,0.9758442640304565
1761380658024603100,2.11860302734375,-1.0043036937713623,-2.382201671600342,1.28569495677948
1761380658034659000,2.1286591796875,-0.3044171929359436,-2.555382013320923,1.2810876369476318
1761380658044715300,2.13871533203125,0.35893234610557556,-3.008746385574341,0.9312494993209839
1761380658054771200,2.148771240234375,0.8579972386360168,-3.414888381958008,0.5350515246391296
1761380658064826400,2.158826416015625,1.1362947225570679,-3.747159957885742,0.2636704742908478
1761380658074882300,2.16888232421875,1.253064513206482,-3.8166356086730957,0.04225233569741249
1761380658084938000,2.17893798828125,1.2110809087753296,-3.6312575340270996,-0.2913750410079956
1761380658094994200,2.188994140625,1.0255060195922852,-3.3015060424804688,-0.7338483333587646
1761380658105050000,2.199050048828125,0.820047914981842,-2.887392044067383,-1.176076889038086
1761380658115106000,2.20910595703125,0.5519837141036987,-2.437593460083008,-1.5138410329818726
1761380658125162200,2.219162353515625,0.1941322237253189,-2.0030999183654785,-1.7022409439086914
1761380658135217200,2.229217041015625,-0.20594169199466705,-1.519171953201294,-1.7271523475646973
1761380658145273000,2.239273193359375,-0.5507270097732544,-0.9672126770019531,-1.561670184135437
1761380658155329300,2.249329345703125,-0.7170264720916748,-0.29882341623306274,-1.1528525352478027
1761380658165385200,2.25938525390625,-0.6847081184387207,0.5320151448249817,-0.5610880851745605
1761380658175441200,2.269441162109375,-0.5990267992019653,1.3748468160629272,0.038749244064092636
1761380658185497300,2.279497314453125,-0.600282609462738,1.979209065437317,0.46402454376220703
1761380658195553000,2.289552978515625,-0.7143585681915283,1.97563636302948,0.5999844670295715
1761380658205608200,2.299608154296875,-0.7384886145591736,1.794143557548523,0.5768342018127441
1761380658215664000,2.3096640625,-0.628849446773529,1.6338790655136108,0.5279644131660461
1761380658225720000,2.319719970703125,-0.4005160927772522,1.5855129957199097,0.4717199504375458
1761380658235776300,2.3297763671875,-0.04507223889231682,1.6819710731506348,0.40257176756858826
1761380658245832200,2.339832275390625,0.35666021704673767,2.0284299850463867,0.31453898549079895
1761380658255888100,2.34988818359375,0.6072580814361572,2.7170886993408203,0.2850591242313385
1761380658265944300,2.3599443359375,0.5165694355964661,3.694896697998047,0.3076157867908478
1761380658275999000,2.3699990234375,0.17770670354366302,4.8742876052856445,0.3302246928215027
1761380658286055200,2.38005517578125,-0.2786446511745453,5.521637439727783,0.37831470370292664
1761380658296111000,2.390111083984375,-0.5889719128608704,5.665993690490723,0.40683236718177795
1761380658306167000,2.4001669921875,-0.3632158935070038,5.33462381362915,0.1603376567363739
1761380658316223200,2.41022314453125,0.4454857409000397,4.661257743835449,-0.43807438015937805
1761380658326279200,2.420279052734375,1.341092824935913,4.179925918579102,-0.9198558926582336
1761380658336334300,2.430334228515625,1.755700945854187,4.381495475769043,-0.8231187462806702
1761380658346390300,2.440390380859375,1.5912408828735352,4.855024337768555,-0.2615688145160675
1761380658356446200,2.4504462890625,1.0371822118759155,5.228557109832764,0.33507832884788513
1761380658366502400,2.46050244140625,0.5061493515968323,5.030605316162109,0.7290256023406982
1761380658376558000,2.47055810546875,0.20605503022670746,4.186101913452148,0.9501270651817322
1761380658386614000,2.480614013671875,0.16891717910766602,3.2661795616149902,1.1226540803909302
1761380658396670200,2.490670166015625,0.2597144544124603,2.647176504135132,1.2972575426101685
1761380658406725000,2.50072509765625,0.36362290382385254,2.413895606994629,1.4476830959320068
1761380658416781300,2.51078125,0.4485529661178589,2.4371564388275146,1.3281502723693848
1761380658426837200,2.520837158203125,0.5327754616737366,2.474656581878662,0.7622055411338806
1761380658436893200,2.53089306640625,0.5002020597457886,2.546013593673706,-0.09770731627941132
1761380658446949000,2.54094921875,0.23069842159748077,2.54468035697937,-1.024242877960205
1761380658457005300,2.55100537109375,-0.15262579917907715,2.4182260036468506,-1.806464672088623
1761380658467061200,2.561061279296875,-0.40529951453208923,2.0341551303863525,-2.3536009788513184
1761380658477116200,2.5711162109375,-0.4151121973991394,1.5336076021194458,-2.576958417892456
1761380658487172000,2.581172119140625,-0.23825667798519135,0.9587481021881104,-2.4916741847991943
1761380658497228000,2.59122802734375,0.03426726162433624,0.40582022070884705,-2.183302879333496
1761380658507284200,2.6012841796875,0.3791123032569885,-0.09459266811609268,-1.772265911102295
1761380658517340200,2.611340087890625,0.7532528638839722,-0.5135143399238586,-1.3019356727600098
1761380658527399000,2.62139892578125,1.031653642654419,-0.8331350088119507,-0.8290951251983643
1761380658537454800,2.631454833984375,1.1478638648986816,-1.1020886898040771,-0.3979749083518982
1761380658547510000,2.641510009765625,1.1696916818618774,-1.2406469583511353,-0.08434388041496277
1761380658557566000,2.65156591796875,1.0592479705810547,-1.2525187730789185,0.03871147334575653
1761380658567622000,2.661621826171875,0.8124802708625793,-1.2410681247711182,0.09158232808113098
1761380658577678000,2.671677978515625,0.5382484793663025,-1.3349589109420776,0.1944381296634674
1761380658587734000,2.681734130859375,0.3083021640777588,-1.5210458040237427,0.33948013186454773
1761380658597790000,2.6917900390625,0.19318224489688873,-1.7906222343444824,0.4892461895942688
1761380658607844900,2.701844970703125,0.24070127308368683,-2.073732852935791,0.5164409279823303
1761380658617900800,2.71190087890625,0.4283023178577423,-2.515657901763916,0.3540560007095337
1761380658627957000,2.72195703125,0.634960412979126,-2.9413013458251953,0.043784357607364655
1761380658638013000,2.732012939453125,0.7842446565628052,-3.035083293914795,-0.23791709542274475
1761380658648068900,2.74206884765625,0.6425419449806213,-2.9768967628479004,-0.37597960233688354
1761380658658124800,2.752124755859375,0.3096856474876404,-3.070077896118164,-0.4073029160499573
1761380658668181000,2.762180908203125,-0.0447687953710556,-2.9106409549713135,-0.37869584560394287
1761380658678236000,2.77223583984375,-0.44779348373413086,-2.4659154415130615,-0.3781333863735199
1761380658688292000,2.7822919921875,-0.8288750648498535,-2.2117676734924316,-0.40721315145492554
1761380658698347800,2.79234765625,-1.02339768409729,-2.3464791774749756,-0.2964232563972473
1761380658708403700,2.80240380859375,-0.984559178352356,-2.761949300765991,-0.015373431146144867
1761380658718460000,2.8124599609375,-0.8013305068016052,-3.288288116455078,0.23527823388576508
1761380658728515800,2.822515869140625,-0.6426548361778259,-3.7332067489624023,0.34037283062934875
1761380658738571800,2.83257177734375,-0.5166342854499817,-3.8371903896331787,0.319469153881073
1761380658748627000,2.842626953125,-0.47767290472984314,-3.4084548950195312,0.2596876323223114
1761380658758683000,2.852682861328125,-0.4755663573741913,-2.837207555770874,0.21731939911842346
1761380658768739000,2.862739013671875,-0.38846468925476074,-2.4206833839416504,0.14330877363681793
1761380658778795000,2.872794921875,-0.17524750530719757,-2.161012649536133,0.05821411311626434
1761380658788851000,2.882850830078125,0.05712025985121727,-1.9835342168807983,0.026878997683525085
1761380658798907000,2.892906982421875,0.2587455213069916,-1.8836835622787476,0.03637636452913284
1761380658808961800,2.9029619140625,0.446822851896286,-1.8813105821609497,0.027297668159008026
1761380658819018000,2.91301806640625,0.5757201313972473,-1.8497989177703857,-0.0035481289960443974
1761380658829074000,2.923073974609375,0.5363712906837463,-1.648911714553833,-0.07978121936321259
1761380658839129900,2.9331298828125,0.3247112035751343,-1.31415593624115,-0.21596330404281616
1761380658849186000,2.94318603515625,0.028118496760725975,-0.9937058687210083,-0.42134299874305725
1761380658859242000,2.953241943359375,-0.2730509340763092,-0.7688727974891663,-0.6468597650527954
1761380658869298000,2.9632978515625,-0.5786281824111938,-0.6224574446678162,-0.8262128233909607
1761380658879352800,2.973352783203125,-0.867090106010437,-0.46033403277397156,-0.9102855920791626
1761380658889408800,2.98340869140625,-1.1462711095809937,-0.2766435146331787,-0.8747740983963013
1761380658899465000,2.99346484375,-1.4079771041870117,-0.033546432852745056,-0.6882804036140442
1761380658909521000,3.00352099609375,-1.5893586874008179,0.26675763726234436,-0.3560428023338318
1761380658919576800,3.013576904296875,-1.6759772300720215,0.5017344951629639,0.10815097391605377
1761380658929633000,3.023633056640625,-1.664111614227295,0.6861035823822021,0.6607745289802551
1761380658939689000,3.03368896484375,-1.4943747520446777,0.8591304421424866,1.221816062927246
1761380658949743900,3.043743896484375,-1.1686607599258423,0.972063422203064,1.6399999856948853
1761380658959800000,3.053800048828125,-0.7345336675643921,1.1053897142410278,1.8133597373962402
1761380658969856000,3.06385595703125,-0.22668007016181946,1.307556390762329,1.7532691955566406
1761380658979911700,3.07391162109375,0.29426485300064087,1.5457407236099243,1.4172240495681763
1761380658989968000,3.0839677734375,0.7558780908584595,1.930327296257019,0.787203311920166
1761380659000023800,3.09402392578125,0.9634829759597778,2.441570520401001,0.1520572453737259
1761380659010079000,3.104078857421875,0.698428750038147,2.916269063949585,-0.2565311789512634
1761380659020135000,3.114135009765625,0.1480143815279007,3.2048423290252686,-0.21173971891403198
1761380659030190800,3.12419091796875,-0.4614480435848236,3.8108913898468018,0.38776320219039917
1761380659040247000,3.1342470703125,-1.0156196355819702,4.697875022888184,1.239566445350647
1761380659050303000,3.144302978515625,-1.2445366382598877,5.280454635620117,1.8333780765533447
1761380659060359000,3.15435888671875,-0.8155359625816345,5.142604827880859,1.826339602470398
1761380659070415000,3.1644150390625,0.043915629386901855,4.386282444000244,1.3013135194778442
1761380659080469800,3.1744697265625,0.8117771148681641,3.7921204566955566,0.8339571952819824
1761380659090526000,3.18452587890625,0.9956436157226562,3.3985302448272705,0.7415038347244263
1761380659100582000,3.194581787109375,0.850125789642334,3.193981647491455,0.9475446343421936
1761380659110637800,3.204637939453125,0.7874089479446411,3.1097476482391357,1.2171634435653687
1761380659120694000,3.214694091796875,0.7578547596931458,2.8551974296569824,1.4603811502456665
1761380659130750000,3.22475,0.6137263774871826,2.5894041061401367,1.547971487045288
1761380659140806000,3.234805908203125,0.3328329622745514,2.4088687896728516,1.431126356124878
1761380659150861000,3.244861083984375,0.060380902141332626,2.3982129096984863,1.1645817756652832
1761380659160916700,3.254916748046875,-0.0692945346236229,2.657667398452759,0.7662522196769714
1761380659170973000,3.264972900390625,-0.09243624657392502,2.8551907539367676,0.3304597735404968
1761380659181028900,3.27502880859375,-0.057764820754528046,2.687528371810913,-0.05366075783967972
1761380659191084800,3.285084716796875,-0.03666640818119049,2.1654245853424072,-0.3208402991294861
1761380659201141000,3.29514111328125,-0.07502631098031998,1.535963535308838,-0.4418279826641083
1761380659211196000,3.30519580078125,-0.15201228857040405,1.021489143371582,-0.47107961773872375
1761380659221251800,3.315251953125,-0.21887467801570892,0.6723611950874329,-0.4873390197753906
1761380659231308000,3.32530810546875,-0.23016677796840668,0.38473621010780334,-0.5576581358909607
1761380659241364000,3.335364013671875,-0.11167048662900925,0.060798343271017075,-0.7395904064178467
1761380659251420000,3.345419921875,0.15905733406543732,-0.23697668313980103,-0.9255675673484802
1761380659261475800,3.355475830078125,0.47312551736831665,-0.36790940165519714,-1.0639214515686035
1761380659271531800,3.36553173828125,0.6907511949539185,-0.28449538350105286,-1.191872477531433
1761380659281587000,3.3755869140625,0.7524757981300354,-0.031823985278606415,-1.347994089126587
1761380659291643000,3.385642822265625,0.6740211248397827,0.2359474003314972,-1.4899325370788574
1761380659301698800,3.39569873046875,0.49542391300201416,0.37441766262054443,-1.5541032552719116
1761380659311755000,3.405755126953125,0.27347272634506226,0.26978302001953125,-1.4854742288589478
1761380659321811000,3.41581103515625,0.07262086123228073,-0.04102811589837074,-1.2625205516815186
1761380659331867000,3.425866943359375,-0.05412163585424423,-0.4989495575428009,-0.9410372972488403
1761380659341923000,3.435923095703125,-0.06514686346054077,-1.0857187509536743,-0.6459747552871704
1761380659351977700,3.445977783203125,0.03756394237279892,-1.6857928037643433,-0.5100281238555908
1761380659362034000,3.456033935546875,0.186591237783432,-2.1623754501342773,-0.540269672870636
1761380659372089900,3.46608984375,0.33590397238731384,-2.360866069793701,-0.6271898150444031
1761380659382145800,3.476145751953125,0.417931467294693,-2.304319143295288,-0.6311622262001038
1761380659392202000,3.486201904296875,0.28775089979171753,-2.0744402408599854,-0.37397557497024536
1761380659402258000,3.4962578125,-0.11252141743898392,-1.8228875398635864,0.18911653757095337
1761380659412313000,3.50631298828125,-0.597917914390564,-1.9247350692749023,0.7014176249504089
1761380659422369000,3.516369140625,-0.7869362831115723,-1.9669257402420044,0.7128114104270935
1761380659432425000,3.526425048828125,-0.6673228144645691,-1.6554055213928223,0.03518595173954964
1761380659442481000,3.53648095703125,-0.5901193618774414,-1.346828818321228,-0.8939493894577026
1761380659452536800,3.546536865234375,-0.5741098523139954,-1.2776250839233398,-1.4957855939865112
1761380659462592800,3.5565927734375,-0.5532181262969971,-1.6753426790237427,-1.5147711038589478
1761380659472649000,3.56664892578125,-0.5891475081443787,-2.2261252403259277,-0.9480917453765869
1761380659482704000,3.576703857421875,-0.701046347618103,-2.70338773727417,-0.011035080999135971
1761380659492760000,3.586760009765625,-0.8198213577270508,-2.9187686443328857,0.9853678941726685
1761380659502816000,3.59681591796875,-0.8187159299850464,-3.0208373069763184,1.6099414825439453
1761380659512872000,3.606871826171875,-0.7403829097747803,-2.963261604309082,1.6207141876220703
1761380659522924800,3.6169248046875,-0.5608983635902405,-2.8671035766601562,1.231076717376709
1761380659532981000,3.62698095703125,-0.33668917417526245,-2.7879741191864014,0.6139274835586548
1761380659543036000,3.637035888671875,-0.10974310338497162,-2.6959149837493896,-0.017578337341547012
1761380659553092000,3.647092041015625,0.0670926570892334,-2.5336978435516357,-0.5819588899612427
1761380659563148000,3.65714794921875,0.19230109453201294,-2.2216641902923584,-1.0496768951416016
1761380659573203700,3.66720361328125,0.24549618363380432,-1.883373737335205,-1.3983629941940308
1761380659583260000,3.677260009765625,0.24702458083629608,-1.560051679611206,-1.6063910722732544
1761380659593315800,3.68731591796875,0.22495771944522858,-1.2836169004440308,-1.645185947418213
1761380659603371800,3.697371826171875,0.1924959123134613,-1.0520566701889038,-1.5451643466949463
1761380659613427000,3.707427001953125,0.14364922046661377,-0.8207893371582031,-1.3872888088226318
1761380659623483000,3.71748291015625,0.06603483855724335,-0.49754148721694946,-1.2224425077438354
1761380659633539000,3.7275390625,-0.045199599117040634,-0.13922607898712158,-1.2045856714248657
1761380659643595000,3.737594970703125,-0.2348150610923767,0.6248106360435486,-1.1853018999099731
1761380659653651000,3.74765087890625,-0.43892601132392883,1.229658603668213,-1.2090530395507812
1761380659663707100,3.75770703125,-0.5966994166374207,1.7667518854141235,-1.2271077632904053
1761380659673763000,3.76776318359375,-0.61762535572052,2.365699291229248,-1.127399206161499
1761380659683818000,3.77781787109375,-0.5408650636672974,2.6634018421173096,-0.9268646240234375
1761380659693874000,3.7878740234375,-0.38850781321525574,2.6875150203704834,-0.689483642578125
1761380659703929900,3.797929931640625,-0.009833208285272121,2.851956605911255,-0.33936750888824463
1761380659713985800,3.80798583984375,0.4756779372692108,3.0491068363189697,0.10413971543312073
1761380659724042000,3.8180419921875,0.879831850528717,3.133025646209717,0.520250141620636
1761380659734098000,3.828097900390625,1.1227093935012817,3.1215872764587402,0.8408072590827942
1761380659744153000,3.838153076171875,1.2037885189056396,3.016885995864868,0.9738180637359619
1761380659754208800,3.848208740234375,1.25765860080719,2.6421799659729004,0.9487471580505371
1761380659764264700,3.8582646484375,1.3976471424102783,2.0138909816741943,0.7967384457588196
1761380659774321000,3.86832080078125,1.6278560161590576,1.3327209949493408,0.4290165603160858
1761380659784376800,3.878376953125,1.8760881423950195,0.8409010171890259,-0.2512839436531067
1761380659794432800,3.888432861328125,2.1815438270568848,0.6742640137672424,-1.112902283668518
1761380659804489000,3.898489013671875,2.468600034713745,1.0176538228988647,-1.9079607725143433
1761380659814544000,3.9085439453125,2.6023130416870117,1.7088316679000854,-2.413879632949829
1761380659824600000,3.91860009765625,2.434156894683838,2.5310781002044678,-2.2759974002838135
1761380659834656000,3.928656005859375,1.9267131090164185,3.159278154373169,-1.4772064685821533
1761380659844712000,3.9387119140625,1.282760500907898,3.464768171310425,-0.3975982367992401
1761380659854767900,3.948767822265625,0.7667022347450256,3.558682918548584,0.7234333753585815
1761380659864823800,3.95882373046875,0.5009579062461853,3.4018590450286865,1.7944095134735107
1761380659874879000,3.96887890625,0.5467052459716797,2.7309675216674805,2.5682363510131836
1761380659884935000,3.978934814453125,0.7589315176010132,1.8229318857192993,2.9388463497161865
1761380659894990800,3.988990966796875,0.9849668145179749,1.4372234344482422,2.870732069015503
1761380659905047000,3.999047119140625,1.067441463470459,1.431761622428894,2.478245735168457
1761380659915103000,4.00910302734375,1.0511114597320557,1.321260929107666,1.8765969276428223
1761380659925156900,4.019156982421875,1.0461896657943726,1.0216705799102783,1.1467763185501099
1761380659935212800,4.029212890625,1.0381481647491455,0.6474701166152954,0.4648319184780121
1761380659945268000,4.03926806640625,1.0156891345977783,0.4419310986995697,-0.038564108312129974
1761380659955324000,4.049323974609375,0.9141939878463745,0.3986954391002655,-0.3094499707221985
1761380659965379800,4.0593798828125,0.7667909264564514,0.3307347893714905,-0.3737722337245941
1761380659975436000,4.06943603515625,0.6374945044517517,0.21924743056297302,-0.3518117666244507
1761380659985492000,4.079491943359375,0.5770692229270935,-0.057730115950107574,-0.33906614780426025
1761380659995548000,4.0895478515625,0.7383753061294556,-0.5229255557060242,-0.34765446186065674
1761380660005604000,4.09960400390625,1.1335381269454956,-1.0829089879989624,-0.34540942311286926
1761380660015658800,4.10965869140625,1.5259461402893066,-1.544962763786316,-0.19549225270748138
1761380660025715000,4.11971484375,1.7072639465332031,-1.8720903396606445,0.14347462356090546
1761380660035771000,4.12977099609375,1.5966334342956543,-2.020799398422241,0.540529727935791
1761380660045826800,4.139826904296875,1.231539011001587,-2.072486400604248,0.8420895338058472
1761380660055883000,4.149883056640625,0.6923728585243225,-1.9109317064285278,1.100839614868164
1761380660065939000,4.15993896484375,0.041716255247592926,-1.938869833946228,1.3277108669281006
1761380660075994000,4.169994140625,-0.6204549074172974,-2.1803154945373535,1.6137843132019043
1761380660086050000,4.180050048828125,-1.1215323209762573,-2.6548190116882324,1.9582021236419678
1761380660096105700,4.190105712890625,-1.4465000629425049,-3.2206764221191406,2.268754005432129
1761380660106162000,4.200161865234375,-1.5732028484344482,-3.7017898559570312,2.4374985694885254
1761380660116217900,4.2102177734375,-1.4269894361495972,-3.8468289375305176,2.429133892059326
1761380660126273800,4.220273681640625,-1.1265190839767456,-3.440187692642212,2.266686201095581
1761380660136330000,4.230330078125,-0.9185423254966736,-2.5011096000671387,2.0794925689697266
1761380660146385000,4.240385009765625,-0.909781813621521,-1.8922394514083862,1.8385992050170898
1761380660156441000,4.250441162109375,-1.0696790218353271,-1.8506461381912231,1.4573113918304443
1761380660166497000,4.2604970703125,-1.1916717290878296,-1.9432586431503296,0.812503457069397
1761380660176553000,4.270552978515625,-1.2861390113830566,-2.0131142139434814,-0.22051706910133362
1761380660186609200,4.280609130859375,-1.4915622472763062,-2.2715635299682617,-1.2434483766555786
1761380660196664800,4.290664794921875,-1.509743094444275,-2.8658509254455566,-1.904942274093628
1761380660206720800,4.300720703125,-1.048952579498291,-3.820147752761841,-2.1330454349517822
1761380660216776000,4.31077587890625,-0.3992236852645874,-4.8766961097717285,-2.0530295372009277
1761380660226832000,4.320831787109375,0.03200864791870117,-5.324731349945068,-1.7663655281066895
1761380660236887800,4.3308876953125,0.13698628544807434,-5.174607753753662,-1.3605504035949707
1761380660246944000,4.340944091796875,0.1335577368736267,-4.815682888031006,-1.1215999126434326
1761380660257000000,4.351,0.12313254922628403,-4.392969131469727,-1.1133242845535278
1761380660267055900,4.361055908203125,0.09066195785999298,-4.086726188659668,-1.1363835334777832
1761380660277110800,4.37111083984375,0.16494770348072052,-3.969160556793213,-1.1883347034454346
1761380660287166700,4.381166748046875,0.36670905351638794,-3.9714019298553467,-1.2109888792037964
1761380660297223000,4.391222900390625,0.5298982262611389,-3.819169521331787,-1.1982576847076416
1761380660307278800,4.40127880859375,0.585854709148407,-3.4593350887298584,-1.2505472898483276
1761380660317334800,4.411334716796875,0.5544776320457458,-2.978336811065674,-1.4318839311599731
1761380660327391000,4.421390869140625,0.45333078503608704,-2.4823014736175537,-1.7172794342041016
1761380660337446000,4.43144580078125,0.24372869729995728,-2.1189959049224854,-2.0390374660491943
1761380660347502000,4.441502197265625,-0.07804613560438156,-1.8706387281417847,-2.325120210647583
1761380660357558000,4.45155810546875,-0.47610601782798767,-1.5021774768829346,-2.561929225921631
1761380660367614000,4.461614013671875,-0.9352709650993347,-1.1020567417144775,-2.7708351612091064
1761380660377670000,4.471669921875,-1.3570611476898193,-0.6445427536964417,-2.8735976219177246
1761380660387725800,4.481725830078125,-1.5631216764450073,-0.21269921958446503,-2.797757863998413
1761380660397781800,4.49178173828125,-1.444042682647705,-0.01153680682182312,-2.500613212585449
1761380660407837000,4.5018369140625,-1.1651731729507446,0.15303349494934082,-1.9212143421173096
1761380660417892900,4.511892822265625,-0.9697129130363464,0.3483176529407501,-1.1078983545303345
1761380660427949000,4.521948974609375,-0.9271451830863953,0.445158988237381,-0.23186804354190826
1761380660438005000,4.5320048828125,-0.8995087742805481,0.6194220781326294,0.49502766132354736
1761380660448061000,4.54206103515625,-0.7400631904602051,0.9123229384422302,0.9774635434150696
1761380660458117000,4.5521171875,-0.47051915526390076,1.182509183883667,1.348715901374817
1761380660468173000,4.562173095703125,-0.11747612804174423,1.507773995399475,1.472801685333252
1761380660478228000,4.57222802734375,0.14397482573986053,1.8355697393417358,1.3185789585113525
1761380660488284000,4.582283935546875,0.2839348614215851,2.1356334686279297,0.9945059418678284
1761380660498339800,4.59233984375,0.34387409687042236,2.4470839500427246,0.4968090057373047
1761380660508396000,4.60239599609375,0.2866579592227936,2.8141188621520996,0.2628862261772156
1761380660518452000,4.612451904296875,0.06941088289022446,3.481863260269165,0.412596195936203
1761380660528507400,4.62250732421875,-0.050535764545202255,4.075530052185059,0.5883749127388
1761380660538562600,4.6325625,0.15228137373924255,4.305363178253174,0.5164016485214233
1761380660548618500,4.642618408203125,0.5901140570640564,4.224031925201416,0.1120467558503151
1761380660558674700,4.6526748046875,1.1850500106811523,4.0968708992004395,-0.2472817599773407
1761380660568730600,4.662730712890625,1.6879807710647583,4.276729106903076,-0.3310698866844177
1761380660578786600,4.67278662109375,1.5609382390975952,4.643945217132568,0.07598916441202164
1761380660588842500,4.682842529296875,1.0420078039169312,5.108149528503418,0.6640681028366089
1761380660598898400,4.6928984375,0.6901598572731018,5.488960266113281,1.200812816619873
1761380660608953600,4.70295361328125,0.6210479140281677,5.546728134155273,1.4721747636795044
1761380660619009500,4.713009521484375,0.770263135433197,5.37340784072876,1.4308245182037354
1761380660629065500,4.7230654296875,1.0132957696914673,5.017070770263672,1.1332170963287354
1761380660639121400,4.733121337890625,1.3584450483322144,4.497618675231934,0.7096439003944397
1761380660649177600,4.743177490234375,1.640974998474121,3.578949213027954,0.19649964570999146
1761380660659233500,4.753233642578125,1.8330907821655273,2.534641742706299,-0.30686745047569275
1761380660669288400,4.763288330078125,1.975361704826355,1.5988415479660034,-0.681663453578949
1761380660679344400,4.773344482421875,1.9846709966659546,0.7604002356529236,-0.8646398782730103
1761380660689400300,4.783400390625,1.8552706241607666,0.14239108562469482,-0.8794662356376648
1761380660699456500,4.79345654296875,1.5866981744766235,-0.1628718227148056,-0.7913216948509216
1761380660709512400,4.803512451171875,1.291736364364624,0.005605614278465509,-0.6527190804481506
1761380660719568400,4.813568359375,1.034456491470337,0.4331783652305603,-0.5663462281227112
1761380660729624600,4.82362451171875,0.8747656345367432,0.7643930315971375,-0.5089724063873291
1761380660739679500,4.833679443359375,0.8183034658432007,0.9216344952583313,-0.4549978971481323
1761380660749735700,4.843735595703125,0.8260833024978638,0.8908483386039734,-0.40003663301467896
1761380660759791600,4.85379150390625,0.8087671399116516,0.7144635319709778,-0.3682977557182312
1761380660769847300,4.863847412109375,0.872099757194519,0.3850169777870178,-0.33765462040901184
1761380660779903500,4.873903564453125,0.8942664861679077,-0.10791623592376709,-0.34591150283813477
1761380660789959400,4.88395947265625,0.8302499055862427,-0.7071900367736816,-0.28052079677581787
1761380660800015400,4.894015380859375,0.7704765200614929,-1.0686540603637695,-0.017045192420482635
1761380660810070500,4.904070556640625,0.3549312353134155,-1.4674485921859741,0.36177241802215576
1761380660820126500,4.91412646484375,-0.06762095540761948,-1.8431215286254883,0.6879144906997681
1761380660830182700,4.9241826171875,-0.4061420261859894,-2.125932216644287,0.948836088180542
1761380660840238600,4.934238525390625,-0.6118629574775696,-2.1321277618408203,1.100999355316162
1761380660850294500,4.94429443359375,-0.7625624537467957,-1.9810423851013184,1.0864975452423096
1761380660860350700,4.954350830078125,-0.9955853819847107,-1.8003110885620117,0.8385782241821289
1761380660870405400,4.9644052734375,-1.3045363426208496,-1.6969977617263794,0.450915664434433
1761380660880461600,4.974461669921875,-1.6465373039245605,-1.6360362768173218,0.10736792534589767
1761380660890517500,4.984517578125,-1.9524083137512207,-1.662522554397583,0.11910713464021683
1761380660900573400,4.994573486328125,-2.1819639205932617,-2.077702522277832,0.435977578163147
1761380660910629600,5.004629638671875,-2.2388954162597656,-2.748739719390869,0.5985121726989746
1761380660920685600,5.014685546875,-1.9848692417144775,-2.9070286750793457,0.2957177460193634
1761380660930741500,5.024741455078125,-1.6865832805633545,-2.905499219894409,-0.41548076272010803
1761380660940796700,5.034796630859375,-1.577250599861145,-3.053913116455078,-1.170620083808899
1761380660950852400,5.044852294921875,-1.6136634349822998,-3.2094104290008545,-1.662602424621582
1761380660960908300,5.054908203125,-1.7384966611862183,-3.417011260986328,-1.6441072225570679
1761380660970964500,5.064964599609375,-1.9200291633605957,-3.52752685546875,-1.0698997974395752
1761380660981020400,5.0750205078125,-2.121795177459717,-3.3285646438598633,-0.16437938809394836
1761380660991076400,5.085076416015625,-2.2376012802124023,-3.0892539024353027,0.6796684861183167
1761380661001131500,5.095131591796875,-2.087602138519287,-3.0067126750946045,1.186438798904419
1761380661011187500,5.1051875,-1.6255669593811035,-3.1722750663757324,1.1097270250320435
1761380661021243600,5.11524365234375,-1.0374326705932617,-3.513533592224121,0.5399907231330872
1761380661031299600,5.125299560546875,-0.4620668292045593,-3.8711609840393066,-0.18802033364772797
1761380661041355500,5.13535546875,0.06155660003423691,-4.138399124145508,-0.8126694560050964
1761380661051411500,5.145411376953125,0.43835365772247314,-4.343092441558838,-1.1933015584945679
1761380661061467400,5.15546728515625,0.6085906028747559,-4.420886993408203,-1.275437355041504
1761380661071522600,5.1655224609375,0.6308716535568237,-4.337578773498535,-1.0880600214004517
1761380661081578500,5.17557861328125,0.5445353984832764,-3.932732582092285,-0.6205803155899048
1761380661091634400,5.185634521484375,0.2812286615371704,-3.3536722660064697,0.05288974195718765
1761380661101690600,5.195690673828125,-0.14851614832878113,-2.649696111679077,0.7433358430862427
1761380661111746600,5.20574658203125,-0.6804229617118835,-1.85771906375885,1.277934193611145
1761380661121802500,5.215802490234375,-1.215212345123291,-0.86707603931427,1.5065757036209106
1761380661131858700,5.225858642578125,-1.5622919797897339,0.11115018278360367,1.3613008260726929
1761380661141913300,5.235913330078125,-1.7210713624954224,1.0096508264541626,0.945743203163147
1761380661151969500,5.245969482421875,-1.7309266328811646,1.8260612487792969,0.5091672539710999
1761380661162025500,5.256025390625,-1.634678840637207,2.3723526000976562,0.30721619725227356
1761380661172081400,5.266081298828125,-1.4464240074157715,2.5089640617370605,0.40033629536628723
1761380661182137600,5.2761376953125,-1.2299669981002808,2.4402406215667725,0.7323809266090393
1761380661192193500,5.286193603515625,-1.0382447242736816,2.3584721088409424,1.221889853477478
1761380661202248400,5.29624853515625,-0.7258768081665039,2.2096874713897705,1.6756986379623413
1761380661212304600,5.3063046875,-0.26727041602134705,2.075826406478882,1.9007210731506348
1761380661222360600,5.316360595703125,0.1782139390707016,1.867038369178772,1.8466578722000122
1761380661232416500,5.32641650390625,0.6702843904495239,1.6888145208358765,1.5394855737686157
1761380661242472400,5.336472412109375,1.237673044204712,1.7452784776687622,1.0248209238052368
1761380661252528400,5.3465283203125,1.7589701414108276,1.9677187204360962,0.5375620722770691
1761380661262584300,5.356584228515625,1.9565168619155884,2.420341730117798,0.4088727831840515
1761380661272639500,5.366639404296875,1.7397373914718628,3.5078346729278564,0.45877936482429504
1761380661282695400,5.3766953125,0.9647352695465088,4.714216709136963,0.20490987598896027
1761380661292751600,5.386751708984375,0.0729919970035553,5.210657119750977,-0.5327359437942505
1761380661302807600,5.3968076171875,-0.16458088159561157,5.1297197341918945,-1.5400792360305786
1761380661312863500,5.406863525390625,0.3531179428100586,4.890634059906006,-2.476491928100586
1761380661322919700,5.416919677734375,1.135253667831421,4.48807430267334,-2.999621868133545
1761380661332974300,5.426974365234375,1.8070400953292847,4.229899883270264,-2.762953519821167
1761380661343030500,5.437030517578125,2.180332899093628,3.9288532733917236,-1.7152818441390991
1761380661353086500,5.44708642578125,2.0410478115081787,3.777930736541748,-0.12901391088962555
1761380661363142400,5.457142333984375,1.44766104221344,3.8452630043029785,1.398381233215332
1761380661373198600,5.467198486328125,0.7234079837799072,3.6762797832489014,2.2180895805358887
1761380661383254500,5.477254638671875,0.1776696890592575,2.9852454662323,2.198368787765503
1761380661393310500,5.487310546875,-0.10153026878833771,2.535329818725586,1.738690733909607
1761380661403365600,5.49736572265625,-0.1781558394432068,2.4671876430511475,1.107296347618103
1761380661413421300,5.50742138671875,-0.2192305624485016,2.6440911293029785,0.2405298352241516
1761380661423477500,5.5174775390625,-0.1318352371454239,2.567018985748291,-0.7946529984474182
1761380661433533400,5.527533447265625,0.1725289225578308,2.3852505683898926,-1.743835210800171
1761380661443589400,5.53758935546875,0.3977473974227905,2.4109761714935303,-2.349458932876587
1761380661453645600,5.5476455078125,0.4576980769634247,2.4003758430480957,-2.582552909851074
1761380661463700500,5.557700439453125,0.552064836025238,2.1664068698883057,-2.516587495803833
1761380661473756700,5.567756591796875,0.7384067177772522,1.6877611875534058,-2.153625249862671
1761380661483812600,5.5778125,0.9284085631370544,1.178419828414917,-1.8676393032073975
1761380661493868500,5.58786865234375,1.1308335065841675,0.7596500515937805,-1.6315826177597046
1761380661503924700,5.5979248046875,1.2672337293624878,0.3964300751686096,-1.4283143281936646
1761380661513980400,5.60798046875,1.2945146560668945,-0.004257152322679758,-1.2194972038269043
1761380661524036400,5.618036376953125,1.1692047119140625,-0.3247183859348297,-0.8947873711585999
1761380661534091000,5.628091064453125,0.9175247550010681,-0.6206480860710144,-0.38807010650634766
1761380661544147000,5.63814697265625,0.779147207736969,-1.001567006111145,0.2701178193092346
1761380661554203100,5.648203125,0.8296806812286377,-1.3816502094268799,0.9547789692878723
1761380661564259000,5.658259033203125,0.8956946134567261,-1.6703118085861206,1.4799646139144897
1761380661574315000,5.66831494140625,0.8967135548591614,-1.8564164638519287,1.7435933351516724
1761380661584371200,5.67837109375,0.7831344604492188,-1.9973275661468506,1.6959975957870483
1761380661594426000,5.688426025390625,0.5345012545585632,-2.1436030864715576,1.2863205671310425
1761380661604482000,5.69848193359375,0.22034510970115662,-2.332124948501587,0.5802279114723206
1761380661614538000,5.7085380859375,-0.14707978069782257,-2.4111995697021484,-0.18180790543556213
1761380661624594000,5.718593994140625,-0.5453502535820007,-2.362107753753662,-0.7706078290939331
1761380661634650000,5.728650146484375,-0.960459291934967,-2.2673871517181396,-0.9195552468299866
1761380661644706000,5.7387060546875,-1.2585073709487915,-1.997785210609436,-0.4305345416069031
1761380661654762000,5.748761962890625,-1.4458370208740234,-2.0556111335754395,0.4309839606285095
1761380661664817200,5.758817138671875,-1.551073431968689,-2.393460512161255,1.1063907146453857
1761380661674873000,5.768873046875,-1.6529382467269897,-2.317328453063965,1.2237099409103394
1761380661684929000,5.778928955078125,-1.8691266775131226,-1.882686734199524,0.7234273552894592
1761380661694985200,5.788985107421875,-2.1385045051574707,-1.6282671689987183,-0.10659954696893692
1761380661705041000,5.799041015625,-2.2170000076293945,-1.5709235668182373,-0.7657073140144348
1761380661715096800,5.809096923828125,-2.086251974105835,-1.4524738788604736,-0.9754728078842163
1761380661725152000,5.819152099609375,-1.871989369392395,-1.5615965127944946,-0.771772563457489
1761380661735208000,5.8292080078125,-1.5168447494506836,-1.8348079919815063,-0.3108944296836853
1761380661745264000,5.83926416015625,-1.0212262868881226,-2.4453890323638916,0.17193731665611267
1761380661755320000,5.849320068359375,-0.5297960638999939,-3.2518460750579834,0.520514726638794
1761380661765376000,5.8593759765625,-0.11896930634975433,-3.922682762145996,0.5739358067512512
1761380661775432200,5.86943212890625,0.18872326612472534,-4.479361057281494,0.2519553303718567
1761380661785488100,5.879488037109375,0.3793606162071228,-4.882795333862305,-0.28370344638824463
1761380661795543000,5.88954296875,0.4836318790912628,-5.041803359985352,-0.7620039582252502
1761380661805599000,5.899598876953125,0.53318852186203,-4.8888068199157715,-1.0206568241119385
1761380661815655000,5.909655029296875,0.5527383089065552,-4.366456985473633,-1.1502469778060913
1761380661825711000,5.919711181640625,0.3655661940574646,-3.6778757572174072,-1.082809329032898
1761380661835767000,5.92976708984375,0.05097950994968414,-2.9156320095062256,-0.889366626739502
1761380661845823000,5.939822998046875,-0.2502053678035736,-2.2777583599090576,-0.7518947720527649
1761380661855878100,5.949878173828125,-0.5181393623352051,-1.6908308267593384,-0.6744047999382019
1761380661865934000,5.95993408203125,-0.8081057071685791,-1.2659231424331665,-0.7059137225151062
1761380661875990300,5.969990234375,-1.0198272466659546,-0.8438364267349243,-0.8509311079978943
1761380661886046000,5.9800458984375,-1.1659009456634521,-0.43138763308525085,-0.989115297794342
1761380661896102000,5.990101806640625,-1.2796317338943481,-0.16707101464271545,-1.0207761526107788
1761380661906158000,6.000157958984375,-1.3051574230194092,0.01367129571735859,-0.9000681042671204
1761380661916214000,6.010214111328125,-1.250252366065979,0.4320805072784424,-0.666086733341217
1761380661926269000,6.02026904296875,-1.200614094734192,1.0214686393737793,-0.458467572927475
1761380661936325000,6.0303251953125,-1.2234132289886475,1.7342530488967896,-0.3217560648918152
1761380661946381000,6.040381103515625,-1.3123588562011719,2.267498731613159,-0.22817254066467285
1761380661956437000,6.05043701171875,-1.41337251663208,2.491175889968872,-0.12573324143886566
1761380661966493200,6.0604931640625,-1.4069430828094482,2.5838704109191895,0.042204003781080246
1761380661976549000,6.070549072265625,-1.1429457664489746,2.3770008087158203,0.14937280118465424
1761380661986605000,6.08060498046875,-0.5544454455375671,2.056405544281006,0.08348169922828674
1761380661996660000,6.090659912109375,0.18480943143367767,1.8299171924591064,-0.05144495889544487
1761380662006716000,6.1007158203125,0.8664727210998535,1.879800796508789,-0.2540799081325531
1761380662016772000,6.110772216796875,1.3951679468154907,2.2478890419006348,-0.4377376139163971
1761380662026828000,6.120828125,1.7189280986785889,2.5224976539611816,-0.4556860029697418
1761380662036884000,6.130884033203125,1.9250959157943726,2.641960620880127,-0.26733899116516113
1761380662046940200,6.140940185546875,2.104175329208374,2.620898485183716,-0.032750796526670456
1761380662056995000,6.1509951171875,2.136112689971924,2.511403799057007,-0.10318181663751602
1761380662067051000,6.161051025390625,2.0656585693359375,2.166046142578125,-0.7098787426948547
1761380662077107000,6.17110693359375,2.0320944786071777,2.092174768447876,-1.549971342086792
1761380662087163000,6.181162841796875,1.8953094482421875,2.924262762069702,-2.044494152069092
1761380662097219000,6.191218994140625,1.5774095058441162,4.095317840576172,-2.0549094676971436
1761380662107275000,6.20127490234375,1.1133158206939697,5.1030449867248535,-1.7564209699630737
1761380662117331000,6.2113310546875,0.6277211904525757,5.595105171203613,-1.2407463788986206
1761380662127386000,6.22138623046875,0.39986345171928406,5.667957305908203,-0.5504332780838013
1761380662137442000,6.231442138671875,0.4239432215690613,5.263376235961914,0.1318264901638031
1761380662147498200,6.241498291015625,0.5805109739303589,4.569522380828857,0.6356799006462097
1761380662157554200,6.25155419921875,0.8049989342689514,4.002907752990723,0.9679936766624451
1761380662167609900,6.26160986328125,1.1129225492477417,3.7357451915740967,0.9644842743873596
1761380662177666000,6.271666015625,1.5797487497329712,3.680480718612671,0.4844076931476593
1761380662187721000,6.281720947265625,1.869937539100647,3.245201587677002,0.10094166547060013
1761380662197777200,6.291777099609375,2.003802537918091,2.9154350757598877,-0.21800675988197327
1761380662207833000,6.3018330078125,1.9219049215316772,2.3157544136047363,-0.43628883361816406
1761380662217889000,6.311888916015625,1.604836344718933,1.6901931762695312,-0.552099883556366
1761380662227945200,6.3219453125,1.193961501121521,1.332634687423706,-0.6360087990760803
1761380662238001200,6.332001220703125,0.8443899154663086,1.0940519571304321,-0.7080321311950684
1761380662248055800,6.342055908203125,0.6476728320121765,0.9322724938392639,-0.7363625168800354
1761380662258112000,6.352112060546875,0.6269848942756653,0.7362518310546875,-0.7109495401382446
1761380662268168000,6.36216796875,0.6956067085266113,0.5666084289550781,-0.6319478154182434
1761380662278224000,6.372223876953125,0.7824281454086304,0.4327894151210785,-0.5433968901634216
1761380662288280000,6.382280029296875,0.861214280128479,0.2887066900730133,-0.48284590244293213
1761380662298336000,6.3923359375,0.8432888388633728,0.08477060496807098,-0.43678146600723267
1761380662308392000,6.402391845703125,0.7790842652320862,-0.2133137583732605,-0.3617022633552551
1761380662318447000,6.412447021484375,0.7083061933517456,-0.44584792852401733,-0.14632606506347656
1761380662328503000,6.4225029296875,0.6235153079032898,-0.6463260650634766,0.11165046691894531
1761380662338559200,6.432559326171875,0.4848937392234802,-0.8847545981407166,0.34516069293022156
1761380662348615000,6.442614990234375,0.36328649520874023,-1.0987743139266968,0.5316795110702515
1761380662358670800,6.4526708984375,0.28787481784820557,-1.3757507801055908,0.6265338659286499
1761380662368727000,6.46272705078125,0.25479182600975037,-1.77212655544281,0.6057006120681763
1761380662378782000,6.472781982421875,0.2297450453042984,-2.029689311981201,0.44650140404701233
1761380662388838100,6.482838134765625,0.14714555442333221,-2.0313644409179688,0.17019380629062653
1761380662398894000,6.49289404296875,-0.09717896580696106,-1.7311961650848389,-0.10663194209337234
1761380662408950000,6.502949951171875,-0.39175528287887573,-1.1771278381347656,-0.15876583755016327
1761380662419006200,6.513006103515625,-0.6650928258895874,-0.7461369037628174,0.042912423610687256
1761380662429062100,6.523062255859375,-0.801690399646759,-0.6554843187332153,0.24529564380645752
1761380662439118000,6.5331181640625,-0.7343525886535645,-0.8709912896156311,0.1302795708179474
1761380662449173000,6.543173095703125,-0.7005720734596252,-1.3123704195022583,-0.5773542523384094
1761380662459229000,6.55322900390625,-0.9257327318191528,-2.046128988265991,-1.5944101810455322
1761380662469285000,6.56328515625,-1.2794773578643799,-2.6306040287017822,-2.3889379501342773
1761380662479341000,6.573341064453125,-1.7176536321640015,-3.1505331993103027,-2.4737961292266846
1761380662489397000,6.58339697265625,-2.002319097518921,-3.2802774906158447,-1.7857959270477295
1761380662499453200,6.593453125,-2.186857223510742,-3.09273624420166,-0.6755298376083374
1761380662509508000,6.603508056640625,-2.267902374267578,-2.999924898147583,0.440258264541626
1761380662519564000,6.61356396484375,-2.092669725418091,-3.1160402297973633,1.2060105800628662
1761380662529624000,6.6236240234375,-1.6284688711166382,-3.445342540740967,1.4836424589157104
1761380662539680000,6.633679931640625,-1.055172085762024,-3.811497688293457,1.3355395793914795
1761380662549736000,6.64373583984375,-0.40685388445854187,-3.65092134475708,0.9031400680541992
1761380662559791900,6.6537919921875,0.2512715458869934,-3.4334182739257812,0.2865533232688904
1761380662569846800,6.6638466796875,0.6941074132919312,-3.4366793632507324,-0.4007261395454407
1761380662579903000,6.673903076171875,0.9031964540481567,-3.510150194168091,-0.9995828866958618
1761380662589959000,6.683958984375,0.9081428647041321,-3.4839060306549072,-1.422087550163269
1761380662600014800,6.694014892578125,0.7770338654518127,-3.217266798019409,-1.6185898780822754
1761380662610071000,6.704071044921875,0.551123321056366,-2.8330705165863037,-1.616246223449707
1761380662620127000,6.714126953125,0.2141607403755188,-2.4791104793548584,-1.4803285598754883
1761380662630182100,6.72418212890625,-0.15747720003128052,-2.151735782623291,-1.3209452629089355
1761380662640237800,6.73423779296875,-0.5400784015655518,-1.7631686925888062,-1.2156966924667358
1761380662650293800,6.744293701171875,-0.9290834069252014,-1.2643691301345825,-1.1726925373077393
1761380662660350000,6.754349853515625,-1.2676732540130615,-0.6459205746650696,-1.1911509037017822
1761380662670406000,6.764406005859375,-1.5329391956329346,0.0713721364736557,-1.2618809938430786
1761380662680461800,6.7744619140625,-1.6923978328704834,0.7234444618225098,-1.2851471900939941
1761380662690518000,6.78451806640625,-1.673396110534668,1.146186351776123,-1.1786781549453735
1761380662700573000,6.794572998046875,-1.4598276615142822,1.3742552995681763,-0.8484049439430237
1761380662710628900,6.80462890625,-1.0778955221176147,1.488385558128357,-0.34548524022102356
1761380662720685000,6.81468505859375,-0.6197284460067749,1.5023993253707886,0.19464027881622314
1761380662730741000,6.824740966796875,-0.15645651519298553,1.4547863006591797,0.6732057332992554
1761380662740797000,6.834796875,0.2834486961364746,1.4518070220947266,0.9609313011169434
1761380662750852900,6.844852783203125,0.7055501341819763,1.4899046421051025,0.9638830423355103
1761380662760907800,6.85490771484375,1.014138102531433,1.5149544477462769,0.7616987824440002
1761380662770964000,6.8649638671875,1.2019810676574707,1.606144905090332,0.5028532147407532
1761380662781020000,6.87502001953125,1.3219791650772095,1.8153561353683472,0.2703059911727905
1761380662791075800,6.885075927734375,1.355652093887329,2.1702027320861816,0.19123303890228271
1761380662801132000,6.895132080078125,1.2956688404083252,2.3861188888549805,0.35354524850845337
1761380662811188000,6.90518798828125,1.2325100898742676,2.433664560317993,0.8087138533592224
1761380662821243000,6.915242919921875,1.2484898567199707,2.599065065383911,1.1603589057922363
1761380662831298800,6.925298828125,1.3987606763839722,2.611029624938965,0.9461769461631775
1761380662841354800,6.935354736328125,1.642633318901062,2.457263231277466,0.2998775839805603
1761380662851411000,6.945410888671875,1.8489018678665161,2.4348807334899902,-0.26730823516845703
1761380662861467000,6.955466796875,1.849737286567688,2.6265103816986084,-0.4038642346858978
1761380662871522800,6.965522705078125,1.5729198455810547,2.959322690963745,-0.2384314090013504
1761380662881578000,6.975577880859375,1.2500044107437134,3.2812447547912598,0.029044775292277336
1761380662891634000,6.985634033203125,1.0130455493927002,3.3986217975616455,0.2648777365684509
1761380662901690000,6.995690185546875,0.855920672416687,3.284613847732544,0.4663648009300232
1761380662911746000,7.00574609375,0.7676687836647034,3.081162691116333,0.6537270545959473
1761380662921801700,7.0158017578125,0.7149096727371216,2.85155987739563,0.7144471406936646
1761380662931858000,7.02585791015625,0.7056728005409241,2.697023630142212,0.5792683362960815
1761380662941912800,7.035912841796875,0.7537492513656616,2.64103364944458,0.27034246921539307
1761380662951969000,7.045968994140625,0.8009863495826721,2.536806344985962,-0.13099202513694763
1761380662962025000,7.05602490234375,0.8368988037109375,2.291048526763916,-0.5201429724693298
1761380662972081000,7.066080810546875,0.8713446855545044,1.9888678789138794,-0.7537362575531006
1761380662982137000,7.07613720703125,0.8772318363189697,1.7179304361343384,-0.7650123834609985
1761380662992193000,7.086193115234375,0.8172348737716675,1.4851202964782715,-0.613564133644104
1761380663002248000,7.096248046875,0.691443145275116,1.2212966680526733,-0.3880809545516968
1761380663012304000,7.106303955078125,0.5359793305397034,0.9577114582061768,-0.20201362669467926
1761380663022359800,7.11635986328125,0.42982012033462524,0.7581589818000793,-0.10766609013080597
1761380663032415700,7.126415771484375,0.346860408782959,0.5807300209999084,-0.035031143575906754
1761380663042472000,7.136471923828125,0.2908290922641754,0.395353764295578,0.0681636855006218
1761380663052527900,7.14652783203125,0.414145290851593,0.3398776054382324,0.11585825681686401
1761380663062583000,7.1565830078125,0.5899812579154968,0.34170639514923096,0.14712058007717133
1761380663072639000,7.166638916015625,0.7005481719970703,0.27287617325782776,0.1557842493057251
1761380663082695000,7.17669482421875,0.750100314617157,0.09414026141166687,0.1484331339597702
1761380663092751000,7.186751220703125,0.7395327091217041,-0.10105627030134201,0.16134130954742432
1761380663102806800,7.196806884765625,0.6967277526855469,-0.347709983587265,0.2219732254743576
1761380663112862700,7.20686279296875,0.6058973670005798,-0.5592007637023926,0.3601749837398529
1761380663122918000,7.21691796875,0.46179720759391785,-0.7503044009208679,0.5964357256889343
1761380663132973800,7.226973876953125,0.23097151517868042,-0.9390419721603394,0.8694502711296082
1761380663143030000,7.237030029296875,0.0263760294765234,-1.2957780361175537,1.087058186531067
1761380663153086000,7.2470859375,-0.08093687891960144,-1.6427806615829468,1.2086968421936035
1761380663163142000,7.257141845703125,-0.11567169427871704,-1.7471920251846313,1.29774010181427
1761380663173198000,7.267197998046875,-0.16430427134037018,-1.7471235990524292,1.3836177587509155
1761380663183252700,7.277252685546875,-0.26681122183799744,-1.8346755504608154,1.2982767820358276
1761380663193309000,7.287308837890625,-0.37516462802886963,-1.9328951835632324,0.8207250237464905
1761380663203364900,7.29736474609375,-0.5423699021339417,-2.0344440937042236,-0.04777175188064575
1761380663213420800,7.3074208984375,-0.7962527275085449,-2.1933071613311768,-1.0302320718765259
1761380663223477000,7.31747705078125,-1.0032477378845215,-2.336472511291504,-1.7498667240142822
1761380663233533000,7.327532958984375,-1.1351909637451172,-2.4377167224884033,-2.0324034690856934
1761380663243588000,7.337588134765625,-1.1374759674072266,-2.461361885070801,-1.8856528997421265
1761380663253644000,7.34764404296875,-1.0767112970352173,-2.3469326496124268,-1.573622703552246
1761380663263700000,7.357699951171875,-1.0470125675201416,-2.0122437477111816,-1.2658350467681885
1761380663273756000,7.367755859375,-1.0262595415115356,-1.6944375038146973,-0.9985446929931641
1761380663283811800,7.377811767578125,-0.9946047067642212,-1.887360692024231,-0.8165019154548645
1761380663293867800,7.38786767578125,-0.9652038812637329,-2.3858284950256348,-0.7317149043083191
1761380663303923000,7.3979228515625,-0.9674409031867981,-2.6960833072662354,-0.7273737192153931
1761380663313979000,7.407978759765625,-1.0035746097564697,-2.6044723987579346,-0.8176491260528564
1761380663324034800,7.418034912109375,-1.034338355064392,-2.2947027683258057,-0.9858351945877075
1761380663334091000,7.428091064453125,-1.0295130014419556,-1.9704214334487915,-1.1514588594436646
1761380663344147000,7.43814697265625,-1.0364222526550293,-1.5966590642929077,-1.2575664520263672
1761380663354202000,7.4482021484375,-1.0432960987091064,-1.170925259590149,-1.3150323629379272
1761380663364257800,7.4582578125,-1.0792813301086426,-0.766740620136261,-1.3248916864395142
1761380663374313700,7.468313720703125,-1.1082202196121216,-0.5498252511024475,-1.3544203042984009
1761380663384370000,7.478369873046875,-1.1514768600463867,-0.5038052797317505,-1.3894779682159424
1761380663394425900,7.48842578125,-1.2215943336486816,-0.5449100732803345,-1.3916285037994385
1761380663404481800,7.498481689453125,-1.3387467861175537,-0.6056199669837952,-1.377131700515747
1761380663414537000,7.508536865234375,-1.4947932958602905,-0.6555853486061096,-1.3603284358978271
1761380663424593000,7.518593017578125,-1.619398593902588,-0.7115039825439453,-1.3266600370407104
1761380663434649000,7.528649169921875,-1.6390166282653809,-0.7846417427062988,-1.2010533809661865
1761380663444705000,7.538705078125,-1.588857650756836,-0.8273804187774658,-1.0003868341445923
1761380663454761000,7.548760986328125,-1.530535340309143,-0.7917668223381042,-0.8040923476219177
1761380663464817000,7.55881689453125,-1.4607988595962524,-0.6061567068099976,-0.6214913725852966
1761380663474871800,7.568871826171875,-1.2929954528808594,-0.17520567774772644,-0.43014422059059143
1761380663484928000,7.578927978515625,-1.0141183137893677,0.2358015775680542,-0.27157536149024963
1761380663494984000,7.58898388671875,-0.6299583911895752,0.40417301654815674,-0.13874834775924683
1761380663505040000,7.599039794921875,-0.2004304677248001,0.3437051475048065,-0.01582588069140911
1761380663515096000,7.609095947265625,0.20801392197608948,0.18611344695091248,0.1350885033607483
1761380663525152000,7.619152099609375,0.558745265007019,0.07568279653787613,0.3250153064727783
1761380663535203600,7.62920361328125,0.8258390426635742,-0.021529169753193855,0.5356573462486267
1761380663545259800,7.639259765625,1.0568139553070068,0.019800692796707153,0.7387327551841736
1761380663555315700,7.649315673828125,1.2657599449157715,0.23302404582500458,0.9927279949188232
1761380663565371400,7.659371337890625,1.4004613161087036,0.42543157935142517,1.268053650856018
1761380663575427600,7.669427490234375,1.349371075630188,0.4714505076408386,1.3978078365325928
1761380663585482500,7.679482421875,1.1014643907546997,0.12731017172336578,1.2740230560302734
1761380663595538700,7.68953857421875,0.9135643839836121,-0.4533346891403198,0.9516685009002686
1761380663605594600,7.6995947265625,0.9086617231369019,-1.0480469465255737,0.7288588285446167
1761380663615650600,7.709650634765625,1.0395221710205078,-0.7780516743659973,0.7319070100784302
1761380663625706800,7.719706787109375,1.3508480787277222,0.42275112867355347,0.4884070158004761
1761380663635762700,7.7297626953125,1.9012519121170044,1.3501185178756714,-0.26339635252952576
1761380663645817600,7.739817626953125,2.4268667697906494,2.082043170928955,-1.2819374799728394
1761380663655873500,7.74987353515625,2.5747954845428467,2.8328299522399902,-2.031435966491699
1761380663665929500,7.759929443359375,2.224086046218872,3.6803581714630127,-1.8107990026474
1761380663675985700,7.769985595703125,1.6218554973602295,3.76875376701355,-1.4178732633590698
1761380663686041600,7.78004150390625,1.2479349374771118,2.7558422088623047,-1.0138239860534668
1761380663696097500,7.79009765625,1.5364688634872437,1.1011210680007935,-0.5891106724739075
1761380663706152700,7.800152587890625,2.0787336826324463,0.3901299834251404,-0.2923344075679779
1761380663716208600,7.810208740234375,2.2898433208465576,0.7683877348899841,-0.24667015671730042
1761380663726264800,7.820264892578125,2.085446357727051,1.1729562282562256,-0.4771249294281006
1761380663736320800,7.83032080078125,1.6368390321731567,1.362822413444519,-0.7641782760620117
1761380663746376400,7.84037646484375,1.016906976699829,1.3194019794464111,-0.9129440784454346
