time,seconds_elapsed,z,y,x
1761392249684714500,0.083714599609375,-0.9262847900390625,-0.1859588623046875,-0.134368896484375
1761392249694796500,0.093796630859375,-0.8904876708984375,-0.194305419921875,-0.154296875
1761392249704878600,0.103878662109375,-0.839630126953125,-0.1919708251953125,-0.1676788330078125
1761392249714961400,0.11396142578125,-0.81390380859375,-0.2000579833984375,-0.1628570556640625
1761392249725043500,0.12404345703125,-0.823211669921875,-0.2186737060546875,-0.12457275390625
1761392249735125500,0.13412548828125,-0.8266448974609375,-0.2397308349609375,-0.064544677734375
1761392249745207600,0.14420751953125,-0.853179931640625,-0.2373046875,-0.0147705078125
1761392249755289600,0.15428955078125,-0.9567108154296875,-0.19476318359375,0.0184326171875
1761392249765371600,0.16437158203125,-1.040924072265625,-0.16839599609375,0.09246826171875
1761392249775453400,0.174453369140625,-0.8611297607421875,-0.16644287109375,0.056488037109375
1761392249785536500,0.18453662109375,-0.6861572265625,-0.243438720703125,0.0224456787109375
1761392249795621600,0.19462158203125,-0.5983123779296875,-0.1962890625,-0.019989013671875
1761392249805703700,0.20470361328125,-0.657135009765625,-0.1224365234375,-0.0389404296875
1761392249815785700,0.21478564453125,-0.765594482421875,-0.08807373046875,-0.0504608154296875
1761392249825867800,0.22486767578125,-0.819305419921875,-0.027801513671875,-0.0821990966796875
1761392249835949600,0.234949462890625,-0.77984619140625,0.0247802734375,-0.072509765625
1761392249846031600,0.245031494140625,-0.8683929443359375,0.1063995361328125,0.0216217041015625
1761392249856114700,0.25511474609375,-1.1052398681640625,0.2102813720703125,0.0323486328125
1761392249866196700,0.26519677734375,-1.11834716796875,0.120147705078125,0.0349273681640625
1761392249876278500,0.275278564453125,-1.0773468017578125,-0.06524658203125,0.0425262451171875
1761392249886360600,0.285360595703125,-1.105712890625,-0.1385345458984375,-0.00213623046875
1761392249896442600,0.295442626953125,-1.125152587890625,-0.1487579345703125,-0.035308837890625
1761392249906524700,0.305524658203125,-1.0836639404296875,-0.1218719482421875,-0.0712432861328125
1761392249916606700,0.315606689453125,-0.9881744384765625,-0.1352386474609375,-0.10662841796875
1761392249926689500,0.325689453125,-0.9467010498046875,-0.1683349609375,-0.099212646484375
1761392249936771600,0.335771484375,-0.951568603515625,-0.1601715087890625,-0.0699615478515625
1761392249946853600,0.345853515625,-0.9509735107421875,-0.1204071044921875,-0.0063934326171875
1761392249956935700,0.355935791015625,-0.9590911865234375,-0.0750274658203125,0.0857696533203125
1761392249967017700,0.366017822265625,-0.9683685302734375,-0.019378662109375,0.0945892333984375
1761392249977099800,0.376099853515625,-0.99639892578125,-0.0179901123046875,0.0760955810546875
1761392249987181600,0.386181640625,-1.0429840087890625,-0.0542755126953125,0.09368896484375
1761392249997264600,0.3962646484375,-1.081146240234375,-0.0545806884765625,0.1302642822265625
1761392250007346700,0.4063466796875,-1.0824127197265625,-0.0259246826171875,0.1884307861328125
1761392250017428700,0.4164287109375,-1.0526275634765625,0.0110321044921875,0.240814208984375
1761392250027510500,0.426510498046875,-1.0653533935546875,0.022857666015625,0.2686920166015625
1761392250037592600,0.436592529296875,-1.0813751220703125,0.0196533203125,0.265838623046875
1761392250047674600,0.446674560546875,-1.0982818603515625,0.016448974609375,0.2492218017578125
1761392250057756700,0.456756591796875,-1.122528076171875,0.027252197265625,0.265869140625
1761392250067839700,0.46683984375,-1.0695953369140625,0.0441131591796875,0.2800445556640625
1761392250077921500,0.476921630859375,-1.0139007568359375,0.014892578125,0.253387451171875
1761392250088003600,0.487003662109375,-1.017547607421875,0.029388427734375,0.2182159423828125
1761392250098085600,0.497085693359375,-1.12347412109375,0.1194915771484375,0.206451416015625
1761392250108167700,0.507167724609375,-1.090087890625,0.117919921875,0.1605377197265625
1761392250118249700,0.517249755859375,-1.0611419677734375,0.0250244140625,0.171905517578125
1761392250128332500,0.52733251953125,-1.0680389404296875,-0.0377655029296875,0.2212371826171875
1761392250138414600,0.53741455078125,-1.050506591796875,-0.02099609375,0.2221221923828125
1761392250148496600,0.54749658203125,-1.0707550048828125,0.023223876953125,0.19580078125
1761392250158578700,0.55757861328125,-1.0823822021484375,0.03515625,0.17095947265625
1761392250168660700,0.56766064453125,-1.1233062744140625,0.0221405029296875,0.14501953125
1761392250178742500,0.577742431640625,-1.1470947265625,0.0411376953125,0.0863494873046875
1761392250188824600,0.587824462890625,-1.097900390625,0.0692901611328125,0.04791259765625
1761392250198907600,0.59790771484375,-1.0141754150390625,0.075286865234375,0.0632171630859375
1761392250208989700,0.60798974609375,-0.909881591796875,0.065338134765625,0.0803070068359375
1761392250219071700,0.61807177734375,-0.7968902587890625,0.0614776611328125,0.1300201416015625
1761392250229153500,0.628153564453125,-0.7640228271484375,0.0673065185546875,0.1627044677734375
1761392250239235600,0.638235595703125,-0.7503814697265625,0.0725860595703125,0.1409912109375
1761392250249317600,0.648317626953125,-0.708740234375,0.05145263671875,0.0884246826171875
1761392250259399700,0.658399658203125,-0.7097320556640625,0.0660400390625,0.05462646484375
1761392250269482500,0.668482421875,-0.72015380859375,0.0622406005859375,0.0332489013671875
1761392250279564500,0.678564453125,-0.7587890625,0.0362091064453125,0.020416259765625
1761392250289646600,0.688646484375,-0.80157470703125,0.0097198486328125,0.04522705078125
1761392250299728600,0.698728759765625,-0.8236236572265625,-0.00848388671875,0.048309326171875
1761392250309810700,0.708810791015625,-0.826995849609375,0.0370025634765625,0.0137176513671875
1761392250319892700,0.718892822265625,-0.8597259521484375,0.0871734619140625,-0.0198974609375
1761392250329974500,0.728974609375,-0.89398193359375,0.0687103271484375,-0.03973388671875
1761392250340057600,0.7390576171875,-0.9238739013671875,0.052490234375,-0.0357513427734375
1761392250350139600,0.7491396484375,-0.9993896484375,0.0548553466796875,-0.0644683837890625
1761392250360221700,0.7592216796875,-1.066162109375,0.0242919921875,-0.094757080078125
1761392250370303700,0.7693037109375,-1.075286865234375,-0.019500732421875,-0.0967559814453125
1761392250380385500,0.779385498046875,-1.0467987060546875,-0.08837890625,-0.087738037109375
1761392250390467600,0.789467529296875,-1.001434326171875,-0.165863037109375,-0.0656280517578125
1761392250400550700,0.799550537109375,-0.993804931640625,-0.22259521484375,-0.0552978515625
1761392250410632700,0.8096328125,-1.0088043212890625,-0.282073974609375,-0.083221435546875
1761392250420714500,0.819714599609375,-1.02655029296875,-0.3325042724609375,-0.0799407958984375
1761392250430796500,0.829796630859375,-1.071746826171875,-0.3845062255859375,-0.0504302978515625
1761392250440878600,0.839878662109375,-1.1147613525390625,-0.4482574462890625,-0.041961669921875
1761392250450960600,0.849960693359375,-1.1320343017578125,-0.5076446533203125,-0.06097412109375
1761392250461042700,0.860042724609375,-1.1060028076171875,-0.5488739013671875,-0.09942626953125
1761392250471125500,0.87012548828125,-1.0680694580078125,-0.5888214111328125,-0.1162872314453125
1761392250481207600,0.88020751953125,-1.08154296875,-0.6392974853515625,-0.0835418701171875
1761392250491289600,0.89028955078125,-1.1002349853515625,-0.6797637939453125,-0.0660858154296875
1761392250501371600,0.90037158203125,-1.1338043212890625,-0.661407470703125,-0.120849609375
1761392250511453700,0.91045361328125,-1.1739501953125,-0.639007568359375,-0.135467529296875
1761392250521535700,0.92053564453125,-1.1947479248046875,-0.703094482421875,-0.1333465576171875
1761392250531618600,0.93061865234375,-1.1402740478515625,-0.7520599365234375,-0.116119384765625
1761392250541700600,0.94070068359375,-1.077789306640625,-0.790435791015625,-0.0731353759765625
1761392250551782700,0.95078271484375,-1.043975830078125,-0.8307342529296875,-0.0568084716796875
1761392250561864700,0.96086474609375,-1.0370635986328125,-0.8219146728515625,-0.0681915283203125
1761392250571946500,0.970946533203125,-1.0434112548828125,-0.80401611328125,-0.06170654296875
1761392250582028500,0.981028564453125,-1.04571533203125,-0.804412841796875,-0.0452117919921875
1761392250592110600,0.991110595703125,-1.0290374755859375,-0.8105010986328125,-0.0316009521484375
1761392250602193700,1.001193603515625,-1.0294952392578125,-0.850860595703125,-0.011962890625
1761392250612275700,1.011275634765625,-1.0160064697265625,-0.8619537353515625,0.045135498046875
1761392250622357500,1.021357421875,-1.0299072265625,-0.848876953125,0.10003662109375
1761392250632439600,1.031439453125,-1.0284271240234375,-0.8542327880859375,0.1315460205078125
1761392250642521600,1.041521484375,-1.0039825439453125,-0.8806610107421875,0.1629791259765625
1761392250652603600,1.051603759765625,-0.9549407958984375,-0.9090728759765625,0.1805877685546875
1761392250662686500,1.0616865234375,-0.9208984375,-0.9271240234375,0.1925506591796875
1761392250672768500,1.0717685546875,-0.9534149169921875,-0.939361572265625,0.2163848876953125
1761392250682850600,1.0818505859375,-1.064971923828125,-0.964111328125,0.21661376953125
1761392250692932600,1.0919326171875,-1.209991455078125,-1.011444091796875,0.2444305419921875
1761392250703014700,1.1020146484375,-1.3385009765625,-1.05255126953125,0.3074951171875
1761392250713096700,1.1120966796875,-1.4962615966796875,-1.0305023193359375,0.3931884765625
1761392250723179800,1.1221796875,-1.60943603515625,-0.9608001708984375,0.4780426025390625
1761392250733261600,1.132261474609375,-1.6675872802734375,-0.821075439453125,0.5159759521484375
1761392250743343600,1.142343505859375,-1.6893310546875,-0.7043609619140625,0.512786865234375
1761392250753425700,1.15242578125,-1.683441162109375,-0.6736907958984375,0.5030059814453125
1761392250763507700,1.1625078125,-1.7075347900390625,-0.67132568359375,0.4904937744140625
1761392250773589500,1.172589599609375,-1.8037109375,-0.6752471923828125,0.4393157958984375
1761392250783671600,1.182671630859375,-1.9586944580078125,-0.6327056884765625,0.39068603515625
1761392250793755000,1.1927548828125,-2.0539093017578125,-0.528778076171875,0.3001708984375
1761392250803837200,1.202837158203125,-2.0688018798828125,-0.420501708984375,0.167755126953125
1761392250813919200,1.212919189453125,-2.020965576171875,-0.3816070556640625,0.0318756103515625
1761392250824001300,1.223001220703125,-1.9152679443359375,-0.3721160888671875,-0.114349365234375
1761392250834083300,1.233083251953125,-1.8283843994140625,-0.371734619140625,-0.22991943359375
1761392250844165000,1.2431650390625,-1.72052001953125,-0.353668212890625,-0.3236236572265625
1761392250854248200,1.253248291015625,-1.5978851318359375,-0.3164215087890625,-0.401397705078125
1761392250864330200,1.263330322265625,-1.4401397705078125,-0.2707366943359375,-0.46478271484375
1761392250874412300,1.273412353515625,-1.3120574951171875,-0.2122344970703125,-0.48193359375
1761392250884494300,1.283494384765625,-1.219635009765625,-0.1472015380859375,-0.4785308837890625
1761392250894576400,1.293576416015625,-1.1603546142578125,-0.0905609130859375,-0.466461181640625
1761392250904658400,1.303658447265625,-1.1174163818359375,-0.044525146484375,-0.45928955078125
1761392250914741200,1.3137412109375,-1.0670928955078125,0.0053863525390625,-0.4647216796875
1761392250924823300,1.3238232421875,-0.977508544921875,0.031890869140625,-0.4697113037109375
1761392250934905300,1.3339052734375,-0.86328125,0.027099609375,-0.448638916015625
1761392250944987400,1.3439873046875,-0.7481842041015625,0.003814697265625,-0.4400787353515625
1761392250955069200,1.354069091796875,-0.6298370361328125,-0.01611328125,-0.44415283203125
1761392250965151200,1.364151123046875,-0.5789947509765625,-0.0297088623046875,-0.4351043701171875
1761392250975234300,1.374234375,-0.6047515869140625,-0.0246124267578125,-0.419647216796875
1761392250985316400,1.38431640625,-0.663726806640625,-0.01654052734375,-0.422698974609375
1761392250995398400,1.3943984375,-0.731475830078125,-0.018646240234375,-0.4341888427734375
1761392251005480200,1.404480224609375,-0.7715911865234375,-0.0227508544921875,-0.43572998046875
1761392251015562200,1.414562255859375,-0.7827911376953125,-0.03857421875,-0.4566192626953125
1761392251025645300,1.424645263671875,-0.77734375,-0.0823211669921875,-0.498992919921875
1761392251035727400,1.434727294921875,-0.78607177734375,-0.1129150390625,-0.5607147216796875
1761392251045809200,1.44480908203125,-0.7873687744140625,-0.1142730712890625,-0.6553497314453125
1761392251055891200,1.45489111328125,-0.7784423828125,-0.1032562255859375,-0.7554779052734375
1761392251065973200,1.46497314453125,-0.7557525634765625,-0.06292724609375,-0.84649658203125
1761392251076055300,1.47505517578125,-0.69659423828125,-0.0221099853515625,-0.9244842529296875
1761392251086138400,1.485138427734375,-0.599578857421875,0.008056640625,-1.0016937255859375
1761392251096220200,1.49522021484375,-0.4876861572265625,0.0173492431640625,-1.0078277587890625
1761392251106302200,1.50530224609375,-0.4323272705078125,-0.0426483154296875,-0.942535400390625
1761392251116384300,1.51538427734375,-0.4574127197265625,-0.1168975830078125,-0.87896728515625
1761392251126466300,1.52546630859375,-0.5327301025390625,-0.1717376708984375,-0.84490966796875
1761392251136548400,1.53554833984375,-0.6503143310546875,-0.240509033203125,-0.852630615234375
1761392251146631200,1.545631103515625,-0.7617340087890625,-0.2780303955078125,-0.86834716796875
1761392251156713200,1.555713134765625,-0.8076629638671875,-0.304779052734375,-0.8717498779296875
1761392251166795300,1.565795166015625,-0.766571044921875,-0.3533172607421875,-0.862823486328125
1761392251176877300,1.575877197265625,-0.678985595703125,-0.4176177978515625,-0.8296356201171875
1761392251186959400,1.58595947265625,-0.5766143798828125,-0.5018310546875,-0.78875732421875
1761392251197042200,1.596042236328125,-0.496978759765625,-0.591094970703125,-0.757843017578125
1761392251207124200,1.606124267578125,-0.4705657958984375,-0.6678009033203125,-0.72137451171875
1761392251217206300,1.616206298828125,-0.4951629638671875,-0.736297607421875,-0.6828765869140625
1761392251227288300,1.626288330078125,-0.5515289306640625,-0.7831268310546875,-0.6711578369140625
1761392251237370400,1.636370361328125,-0.6202850341796875,-0.8294830322265625,-0.678619384765625
1761392251247452200,1.6464521484375,-0.6864471435546875,-0.875030517578125,-0.69110107421875
1761392251257535200,1.65653515625,-0.6993255615234375,-0.9012451171875,-0.686126708984375
1761392251267617300,1.6666171875,-0.721923828125,-0.9205169677734375,-0.6604156494140625
1761392251277699300,1.67669921875,-0.7371673583984375,-0.92633056640625,-0.5886077880859375
1761392251287781000,1.686781005859375,-0.7570343017578125,-0.9382781982421875,-0.468170166015625
1761392251297863200,1.69686328125,-0.7701568603515625,-0.9593353271484375,-0.34515380859375
1761392251307946200,1.7069462890625,-0.7840118408203125,-0.9926910400390625,-0.2659912109375
1761392251318028300,1.7170283203125,-0.829498291015625,-1.019683837890625,-0.2173919677734375
1761392251328110300,1.7271103515625,-0.9273681640625,-1.0211944580078125,-0.1826934814453125
1761392251338192100,1.737192138671875,-1.0699462890625,-0.9704132080078125,-0.166656494140625
1761392251348274200,1.747274169921875,-1.1656951904296875,-0.8298492431640625,-0.2058868408203125
1761392251358356200,1.757356201171875,-1.1641998291015625,-0.674102783203125,-0.2563018798828125
1761392251368439300,1.767439208984375,-1.084686279296875,-0.6228790283203125,-0.2803497314453125
1761392251378521000,1.77752099609375,-0.9888916015625,-0.6398468017578125,-0.2920989990234375
1761392251388603100,1.78760302734375,-0.913360595703125,-0.7108306884765625,-0.300140380859375
1761392251398685200,1.797685302734375,-1.0027923583984375,-0.760467529296875,-0.306671142578125
1761392251408767200,1.807767333984375,-1.2672576904296875,-0.7376251220703125,-0.3432769775390625
1761392251418850300,1.817850341796875,-1.557586669921875,-0.6558685302734375,-0.4228057861328125
1761392251428932000,1.82793212890625,-1.767364501953125,-0.582305908203125,-0.5411376953125
1761392251439014100,1.83801416015625,-1.8166961669921875,-0.5568389892578125,-0.6912994384765625
1761392251449096200,1.84809619140625,-1.7410888671875,-0.570281982421875,-0.79608154296875
1761392251459178200,1.85817822265625,-1.603057861328125,-0.5801849365234375,-0.834625244140625
1761392251469261000,1.868260986328125,-1.4671783447265625,-0.555419921875,-0.814697265625
1761392251479343000,1.878343017578125,-1.3848114013671875,-0.5099639892578125,-0.726104736328125
1761392251489425200,1.888425048828125,-1.3223114013671875,-0.454986572265625,-0.5951385498046875
1761392251499507200,1.898507080078125,-1.2640838623046875,-0.41937255859375,-0.4606781005859375
1761392251509589200,1.90858935546875,-1.256072998046875,-0.380889892578125,-0.3403472900390625
1761392251519671300,1.91867138671875,-1.319915771484375,-0.330291748046875,-0.2717437744140625
1761392251529754000,1.928754150390625,-1.3537445068359375,-0.2503662109375,-0.2737884521484375
1761392251539836200,1.938836181640625,-1.339599609375,-0.1850128173828125,-0.3042144775390625
1761392251549918200,1.948918212890625,-1.2760467529296875,-0.1708984375,-0.3607635498046875
1761392251560000300,1.959000244140625,-1.1926727294921875,-0.1831512451171875,-0.4410552978515625
1761392251570082300,1.969082275390625,-1.1225738525390625,-0.2019500732421875,-0.4857940673828125
1761392251580165000,1.9791650390625,-1.0788421630859375,-0.2213592529296875,-0.49957275390625
1761392251590247200,1.9892470703125,-1.0650787353515625,-0.215911865234375,-0.488250732421875
1761392251600329200,1.9993291015625,-1.064300537109375,-0.194732666015625,-0.4862060546875
1761392251610411300,2.009411376953125,-1.050262451171875,-0.132904052734375,-0.516876220703125
1761392251620493000,2.0194931640625,-0.9850311279296875,-0.0620269775390625,-0.5714263916015625
1761392251630576000,2.029576171875,-0.828704833984375,-0.0401458740234375,-0.60015869140625
1761392251640658200,2.039658203125,-0.632781982421875,-0.1395416259765625,-0.542022705078125
1761392251650740200,2.049740234375,-0.52752685546875,-0.3148956298828125,-0.4048919677734375
1761392251660822300,2.059822265625,-0.5912933349609375,-0.4702301025390625,-0.3121185302734375
1761392251670904000,2.069904052734375,-0.7899169921875,-0.532440185546875,-0.2708740234375
1761392251680987100,2.079987060546875,-1.026702880859375,-0.5122222900390625,-0.28955078125
1761392251691069200,2.090069091796875,-1.144866943359375,-0.476959228515625,-0.3491058349609375
1761392251701151200,2.100151123046875,-1.1235198974609375,-0.4586944580078125,-0.408203125
1761392251711233000,2.11023291015625,-1.0121307373046875,-0.50469970703125,-0.454986572265625
1761392251721315000,2.120315185546875,-0.886199951171875,-0.5652618408203125,-0.485015869140625
1761392251731398100,2.130398193359375,-0.7927398681640625,-0.632232666015625,-0.489654541015625
1761392251741480200,2.140480224609375,-0.780242919921875,-0.6996307373046875,-0.471527099609375
1761392251751562200,2.150562255859375,-0.82037353515625,-0.722564697265625,-0.443939208984375
1761392251761644000,2.16064404296875,-0.886932373046875,-0.70440673828125,-0.412139892578125
1761392251771726000,2.17072607421875,-0.93743896484375,-0.681884765625,-0.381378173828125
1761392251781809200,2.18080908203125,-0.9530029296875,-0.6560211181640625,-0.34637451171875
1761392251791891200,2.19089111328125,-0.9503021240234375,-0.6219329833984375,-0.31768798828125
1761392251801969400,2.200969482421875,-0.9039154052734375,-0.593902587890625,-0.2974395751953125
1761392251812051200,2.21105126953125,-0.8580169677734375,-0.602264404296875,-0.23028564453125
1761392251822133200,2.22113330078125,-0.869659423828125,-0.635833740234375,-0.111328125
1761392251832216300,2.23121630859375,-0.9057769775390625,-0.6612091064453125,-0.0258331298828125
1761392251842298400,2.24129833984375,-0.965484619140625,-0.667266845703125,0.01422119140625
1761392251852380200,2.251380126953125,-1.0095672607421875,-0.655517578125,0.028411865234375
1761392251862462200,2.261462158203125,-1.015045166015625,-0.6288299560546875,-0.001861572265625
1761392251872544300,2.271544189453125,-1.053070068359375,-0.60345458984375,-0.0475006103515625
1761392251882627300,2.28162744140625,-1.0906982421875,-0.588348388671875,-0.09344482421875
1761392251892709400,2.29170947265625,-1.121856689453125,-0.5606689453125,-0.1355438232421875
1761392251902791200,2.301791259765625,-1.1409454345703125,-0.5227813720703125,-0.1743316650390625
1761392251912873200,2.311873291015625,-1.151458740234375,-0.429901123046875,-0.2235107421875
1761392251922955300,2.321955322265625,-1.1363983154296875,-0.2961273193359375,-0.30023193359375
1761392251933038300,2.332038330078125,-1.088134765625,-0.2338104248046875,-0.3276519775390625
1761392251943120100,2.3421201171875,-1.0794830322265625,-0.26446533203125,-0.3118133544921875
1761392251953202200,2.3522021484375,-1.1222381591796875,-0.3074951171875,-0.322296142578125
1761392251963284200,2.3622841796875,-1.2200927734375,-0.3161468505859375,-0.3638763427734375
1761392251973366300,2.3723662109375,-1.3254852294921875,-0.26776123046875,-0.4292755126953125
1761392251983449300,2.382449462890625,-1.3698883056640625,-0.1768035888671875,-0.5074920654296875
1761392251993531100,2.39253125,-1.33111572265625,-0.128875732421875,-0.5476226806640625
1761392252003613200,2.40261328125,-1.27960205078125,-0.152984619140625,-0.58233642578125
1761392252013695200,2.4126953125,-1.246795654296875,-0.1776885986328125,-0.6235504150390625
1761392252023777300,2.42277734375,-1.2185516357421875,-0.177947998046875,-0.6956024169921875
1761392252033860000,2.432860107421875,-1.1395416259765625,-0.165924072265625,-0.77099609375
1761392252043942100,2.442942138671875,-1.0204620361328125,-0.1668243408203125,-0.80401611328125
1761392252054024200,2.453024169921875,-0.910919189453125,-0.193603515625,-0.80859375
1761392252064106200,2.463106201171875,-0.859405517578125,-0.2230224609375,-0.8084259033203125
1761392252074189300,2.473189208984375,-0.874847412109375,-0.2313232421875,-0.813690185546875
1761392252084271000,2.48327099609375,-0.9207916259765625,-0.24365234375,-0.83673095703125
1761392252094353200,2.493353271484375,-0.944610595703125,-0.240325927734375,-0.86968994140625
1761392252104435200,2.503435302734375,-0.935821533203125,-0.2313232421875,-0.9122314453125
1761392252114517200,2.513517333984375,-0.8916473388671875,-0.2188720703125,-0.9724273681640625
1761392252124600000,2.52360009765625,-0.835968017578125,-0.2049713134765625,-1.0344696044921875
1761392252134682000,2.53368212890625,-0.77398681640625,-0.2094268798828125,-1.0818939208984375
1761392252144764200,2.54376416015625,-0.7087249755859375,-0.216156005859375,-1.1042633056640625
1761392252154846200,2.55384619140625,-0.6559906005859375,-0.238189697265625,-1.1031494140625
1761392252164928300,2.56392822265625,-0.6390838623046875,-0.2830810546875,-1.078277587890625
1761392252175011000,2.574010986328125,-0.6346893310546875,-0.323974609375,-1.0576019287109375
1761392252185093000,2.584093017578125,-0.6121826171875,-0.339324951171875,-1.0818634033203125
1761392252195175200,2.594175048828125,-0.569244384765625,-0.33966064453125,-1.13189697265625
1761392252205257200,2.60425732421875,-0.528411865234375,-0.365509033203125,-1.161590576171875
1761392252215340000,2.614340087890625,-0.5507354736328125,-0.417816162109375,-1.194793701171875
1761392252225422000,2.624422119140625,-0.5873565673828125,-0.4364166259765625,-1.255126953125
1761392252235504000,2.634504150390625,-0.5865325927734375,-0.4423980712890625,-1.34014892578125
1761392252245586200,2.644586181640625,-0.516357421875,-0.4602813720703125,-1.3886871337890625
1761392252255668200,2.654668212890625,-0.41046142578125,-0.498077392578125,-1.3412933349609375
1761392252265751300,2.664751220703125,-0.3771820068359375,-0.585540771484375,-1.2162933349609375
1761392252275833000,2.6748330078125,-0.4286651611328125,-0.5989990234375,-1.1063079833984375
1761392252285915100,2.6849150390625,-0.49029541015625,-0.6104736328125,-1.041900634765625
1761392252295997200,2.6949970703125,-0.5322418212890625,-0.6912994384765625,-1.0126800537109375
1761392252306079200,2.705079345703125,-0.5276641845703125,-0.78570556640625,-1.0101776123046875
1761392252316162300,2.715162353515625,-0.5006256103515625,-0.8620758056640625,-1.01666259765625
1761392252326244400,2.725244384765625,-0.490509033203125,-0.903167724609375,-1.039764404296875
1761392252336326400,2.735326416015625,-0.5276031494140625,-0.9108734130859375,-1.0193939208984375
1761392252346408200,2.745408203125,-0.6183624267578125,-0.888275146484375,-1.0096588134765625
1761392252356491300,2.7554912109375,-0.666961669921875,-0.83203125,-1.013427734375
1761392252366573300,2.7655732421875,-0.6506500244140625,-0.8093414306640625,-0.976531982421875
1761392252376655400,2.7756552734375,-0.6008758544921875,-0.7469329833984375,-0.9210662841796875
1761392252386737400,2.7857373046875,-0.529693603515625,-0.6891326904296875,-0.8463134765625
1761392252396820200,2.7958203125,-0.534149169921875,-0.694305419921875,-0.7367706298828125
1761392252406902300,2.80590234375,-0.6289825439453125,-0.73681640625,-0.66943359375
1761392252416984300,2.815984375,-0.737152099609375,-0.7035064697265625,-0.6666259765625
1761392252427066400,2.82606640625,-0.7848663330078125,-0.6246490478515625,-0.699554443359375
1761392252437148400,2.8361484375,-0.753631591796875,-0.5464935302734375,-0.732818603515625
1761392252447231200,2.846231201171875,-0.6511077880859375,-0.5247344970703125,-0.6915740966796875
1761392252457313300,2.856313232421875,-0.528106689453125,-0.5637664794921875,-0.5820465087890625
1761392252467395300,2.866395263671875,-0.422393798828125,-0.592864990234375,-0.4757232666015625
1761392252477477400,2.876477294921875,-0.3758087158203125,-0.6139984130859375,-0.3465118408203125
1761392252487559400,2.886559326171875,-0.41082763671875,-0.641937255859375,-0.265106201171875
1761392252497642200,2.896642333984375,-0.4895172119140625,-0.6322021484375,-0.2291107177734375
1761392252507724300,2.906724365234375,-0.592041015625,-0.6138763427734375,-0.1965484619140625
1761392252517806300,2.916806396484375,-0.682342529296875,-0.609710693359375,-0.1431884765625
1761392252527888400,2.926888427734375,-0.7083740234375,-0.6116790771484375,-0.0859527587890625
1761392252537971200,2.93697119140625,-0.6820068359375,-0.6044921875,-0.0581512451171875
1761392252548053200,2.94705322265625,-0.7378082275390625,-0.599273681640625,-0.04339599609375
1761392252558135300,2.95713525390625,-0.8239898681640625,-0.548431396484375,-0.0408172607421875
1761392252568217300,2.96721728515625,-0.90606689453125,-0.47723388671875,-0.030609130859375
1761392252578299400,2.97729931640625,-1.0011138916015625,-0.43011474609375,-0.0123291015625
1761392252588382200,2.98738232421875,-1.0488433837890625,-0.3835296630859375,-0.0125885009765625
1761392252598464300,2.99746435546875,-1.089447021484375,-0.3465118408203125,0.0062713623046875
1761392252608546300,3.00754638671875,-1.111968994140625,-0.3306427001953125,0.0377044677734375
1761392252618628400,3.01762841796875,-1.1321868896484375,-0.335235595703125,0.085357666015625
1761392252628711200,3.027711181640625,-1.2097320556640625,-0.3499603271484375,0.12103271484375
1761392252638793200,3.037793212890625,-1.2618560791015625,-0.3423309326171875,0.1064300537109375
1761392252648875300,3.047875244140625,-1.27996826171875,-0.3304595947265625,0.0676422119140625
1761392252658957300,3.057957275390625,-1.27593994140625,-0.3303375244140625,0.029205322265625
1761392252669039400,3.068039306640625,-1.21136474609375,-0.333587646484375,0.0081634521484375
1761392252679122200,3.0781220703125,-1.170562744140625,-0.346527099609375,-0.0027313232421875
1761392252689204200,3.088204345703125,-1.124176025390625,-0.3646240234375,-0.034515380859375
1761392252699286300,3.098286376953125,-1.111053466796875,-0.3388519287109375,-0.101226806640625
1761392252709368300,3.108368408203125,-1.1695709228515625,-0.2925262451171875,-0.1462249755859375
1761392252719451100,3.118451171875,-1.266876220703125,-0.2341156005859375,-0.1578369140625
1761392252729533200,3.128533203125,-1.3384552001953125,-0.1837005615234375,-0.146270751953125
1761392252739615200,3.138615234375,-1.3465728759765625,-0.149810791015625,-0.107269287109375
1761392252749697300,3.148697265625,-1.3289337158203125,-0.1142425537109375,-0.0584259033203125
1761392252759780000,3.158780029296875,-1.2906036376953125,-0.091339111328125,-0.0066070556640625
1761392252769862100,3.168862060546875,-1.2432098388671875,-0.076446533203125,0.045623779296875
1761392252779944200,3.178944091796875,-1.20977783203125,-0.03558349609375,0.0966644287109375
1761392252790026200,3.189026123046875,-1.214080810546875,0.001617431640625,0.15411376953125
1761392252800108500,3.199108642578125,-1.2377471923828125,0.0697784423828125,0.200439453125
1761392252810191400,3.20919140625,-1.2700653076171875,0.1438751220703125,0.2591705322265625
1761392252820273400,3.2192734375,-1.3678131103515625,0.18902587890625,0.3574676513671875
1761392252830355500,3.22935546875,-1.517822265625,0.3274383544921875,0.4042510986328125
1761392252840437500,3.2394375,-1.559356689453125,0.442901611328125,0.3729705810546875
1761392252850520300,3.249520263671875,-1.6053009033203125,0.484771728515625,0.3050689697265625
1761392252860602400,3.259602294921875,-1.6065216064453125,0.4789581298828125,0.2751007080078125
1761392252870684400,3.269684326171875,-1.575836181640625,0.41510009765625,0.2884368896484375
1761392252880766500,3.279766357421875,-1.56036376953125,0.318695068359375,0.30084228515625
1761392252890848500,3.2898486328125,-1.580718994140625,0.2535552978515625,0.3094940185546875
1761392252900931300,3.299931396484375,-1.61749267578125,0.209228515625,0.3495025634765625
1761392252911013400,3.310013427734375,-1.625152587890625,0.11749267578125,0.4407806396484375
1761392252921095400,3.320095458984375,-1.6290740966796875,-0.0453643798828125,0.5468597412109375
1761392252931177500,3.330177490234375,-1.5965576171875,-0.1763916015625,0.5801239013671875
1761392252941260300,3.34026025390625,-1.5065460205078125,-0.2456207275390625,0.52752685546875
1761392252951342300,3.35034228515625,-1.3793182373046875,-0.2757415771484375,0.44635009765625
1761392252961424400,3.36042431640625,-1.2433624267578125,-0.267547607421875,0.355865478515625
1761392252971506400,3.37050634765625,-1.13458251953125,-0.2446136474609375,0.2736663818359375
1761392252981589200,3.38058935546875,-1.0562896728515625,-0.211944580078125,0.212646484375
1761392252991671300,3.39067138671875,-1.0074462890625,-0.159698486328125,0.1606292724609375
1761392253001753300,3.40075341796875,-0.991485595703125,-0.0950927734375,0.131103515625
1761392253011835400,3.41083544921875,-0.9736175537109375,-0.0343017578125,0.1382598876953125
1761392253021917400,3.42091748046875,-0.9528350830078125,0.00421142578125,0.1798858642578125
1761392253032000300,3.431000244140625,-0.940093994140625,0.0283203125,0.27301025390625
1761392253042082300,3.441082275390625,-0.9990692138671875,-0.00274658203125,0.4434967041015625
1761392253052164400,3.451164306640625,-1.06573486328125,-0.0424346923828125,0.5817413330078125
1761392253062246400,3.461246337890625,-1.0771331787109375,-0.0194549560546875,0.62249755859375
1761392253072329200,3.4713291015625,-1.065277099609375,-0.03204345703125,0.6432342529296875
1761392253082411300,3.481411376953125,-1.066619873046875,-0.0254974365234375,0.6182708740234375
1761392253092493300,3.491493408203125,-1.042633056640625,0.013275146484375,0.562255859375
1761392253102575400,3.501575439453125,-0.99017333984375,0.0596771240234375,0.49285888671875
1761392253112658200,3.511658203125,-0.8793182373046875,0.0754241943359375,0.413970947265625
1761392253122740200,3.521740234375,-0.74896240234375,0.0734100341796875,0.3635406494140625
1761392253132822300,3.531822265625,-0.62359619140625,0.0716400146484375,0.357635498046875
1761392253142904300,3.541904296875,-0.5359649658203125,0.0672454833984375,0.3815765380859375
1761392253152986400,3.551986328125,-0.5051727294921875,0.0374603271484375,0.4165802001953125
1761392253163069200,3.562069091796875,-0.536956787109375,0.002166748046875,0.4535980224609375
1761392253173151200,3.572151123046875,-0.639556884765625,-0.0304718017578125,0.4677886962890625
1761392253183233300,3.5822333984375,-0.74493408203125,-0.047882080078125,0.45782470703125
1761392253193315300,3.5923154296875,-0.8481292724609375,-0.057403564453125,0.4411163330078125
1761392253203398100,3.602398193359375,-0.9226837158203125,-0.0585174560546875,0.421478271484375
1761392253213480200,3.612480224609375,-0.932525634765625,-0.06640625,0.405670166015625
1761392253223562200,3.622562255859375,-0.902801513671875,-0.0774993896484375,0.3839111328125
1761392253233644300,3.632644287109375,-0.8915252685546875,-0.0744476318359375,0.346710205078125
1761392253243727400,3.642727294921875,-0.884765625,-0.0553741455078125,0.280609130859375
1761392253253809200,3.65280908203125,-0.8720245361328125,-0.0271453857421875,0.1950836181640625
1761392253263891200,3.66289111328125,-0.8722686767578125,0.0119476318359375,0.0947723388671875
1761392253273973200,3.67297314453125,-0.8735198974609375,0.0426025390625,-0.002532958984375
1761392253284055300,3.68305517578125,-0.86688232421875,0.0797271728515625,-0.0854034423828125
1761392253294138400,3.693138427734375,-0.8599700927734375,0.1158294677734375,-0.1287994384765625
1761392253304220400,3.703220458984375,-0.8732147216796875,0.134857177734375,-0.121368408203125
1761392253314302500,3.713302490234375,-0.8595733642578125,0.1509857177734375,-0.08453369140625
1761392253324384300,3.72338427734375,-0.83770751953125,0.1308441162109375,-0.0171356201171875
1761392253334467300,3.73346728515625,-0.8522796630859375,0.0872039794921875,0.05267333984375
1761392253344549400,3.74354931640625,-0.890655517578125,0.0534210205078125,0.081024169921875
1761392253354631400,3.75363134765625,-0.9426727294921875,0.0370025634765625,0.053985595703125
1761392253364713500,3.76371337890625,-1.003814697265625,0.022735595703125,0.0004425048828125
1761392253374796300,3.77379638671875,-1.0693817138671875,0.0194549560546875,-0.067657470703125
1761392253384878300,3.78387841796875,-1.1501312255859375,0.024261474609375,-0.1275634765625
1761392253394960400,3.79396044921875,-1.2142791748046875,-0.003173828125,-0.138519287109375
1761392253405042400,3.80404248046875,-1.2371368408203125,-0.0249481201171875,-0.1060943603515625
1761392253415125200,3.814125244140625,-1.240325927734375,-0.073944091796875,-0.0296783447265625
1761392253425207300,3.824207275390625,-1.2896270751953125,-0.1474456787109375,0.08306884765625
1761392253435289300,3.834289306640625,-1.3552398681640625,-0.218658447265625,0.16217041015625
1761392253445371400,3.844371337890625,-1.4630889892578125,-0.311492919921875,0.220703125
1761392253455453400,3.854453369140625,-1.5040130615234375,-0.4251251220703125,0.25946044921875
1761392253465536300,3.864536376953125,-1.44317626953125,-0.514404296875,0.2470855712890625
1761392253475618300,3.874618408203125,-1.351043701171875,-0.6095428466796875,0.21563720703125
1761392253485700400,3.884700439453125,-1.2652435302734375,-0.7120819091796875,0.1880035400390625
1761392253495782400,3.894782470703125,-1.186370849609375,-0.796142578125,0.1797027587890625
1761392253505865200,3.904865234375,-1.1441650390625,-0.8672027587890625,0.2004547119140625
1761392253515947300,3.914947265625,-1.1022491455078125,-0.9376678466796875,0.247833251953125
1761392253526029300,3.925029296875,-1.0733184814453125,-1.01727294921875,0.294189453125
1761392253536111400,3.935111328125,-1.06500244140625,-1.1347503662109375,0.36248779296875
1761392253546194400,3.9451943359375,-1.0592041015625,-1.247314453125,0.461334228515625
1761392253556276200,3.955276123046875,-1.0742645263671875,-1.310760498046875,0.528167724609375
1761392253566358300,3.965358154296875,-1.142181396484375,-1.337921142578125,0.5643768310546875
1761392253576440300,3.9754404296875,-1.2891845703125,-1.3285369873046875,0.59271240234375
1761392253586522400,3.9855224609375,-1.4642791748046875,-1.3391571044921875,0.6199951171875
1761392253596605200,3.995605224609375,-1.6397857666015625,-1.29754638671875,0.6358642578125
1761392253606687200,4.005687255859375,-1.7288360595703125,-1.2164764404296875,0.64849853515625
1761392253616769300,4.015769287109375,-1.7160186767578125,-1.189239501953125,0.663818359375
1761392253626851300,4.025851318359375,-1.6331634521484375,-1.1925506591796875,0.6490325927734375
1761392253636934400,4.035934326171875,-1.518402099609375,-1.236175537109375,0.607177734375
1761392253647016200,4.04601611328125,-1.4005126953125,-1.255035400390625,0.522216796875
1761392253657098200,4.05609814453125,-1.3818359375,-1.2074737548828125,0.406707763671875
1761392253667180300,4.06618017578125,-1.41851806640625,-0.9888916015625,0.217926025390625
1761392253677263400,4.076263427734375,-1.374786376953125,-0.7402801513671875,0.0735015869140625
1761392253687345200,4.08634521484375,-1.311431884765625,-0.642120361328125,-0.02215576171875
1761392253697427200,4.09642724609375,-1.170379638671875,-0.7296295166015625,-0.0782012939453125
1761392253707509200,4.10650927734375,-1.0537261962890625,-0.8428955078125,-0.1529998779296875
1761392253717592300,4.11659228515625,-1.035125732421875,-0.869049072265625,-0.2663116455078125
1761392253727674400,4.12667431640625,-1.0840301513671875,-0.8000030517578125,-0.408233642578125
1761392253737756200,4.136756103515625,-1.1402587890625,-0.7138671875,-0.5158538818359375
1761392253747838200,4.146838134765625,-1.1540069580078125,-0.618804931640625,-0.6297760009765625
1761392253757920300,4.156920166015625,-1.0945587158203125,-0.5753173828125,-0.71466064453125
1761392253768003300,4.16700341796875,-0.990478515625,-0.605560302734375,-0.7381744384765625
1761392253778085000,4.177085205078125,-0.8509674072265625,-0.6081695556640625,-0.7372589111328125
1761392253788167200,4.187167236328125,-0.7230072021484375,-0.59063720703125,-0.725341796875
1761392253798252800,4.197252685546875,-0.6092376708984375,-0.5839080810546875,-0.7448577880859375
1761392253808336000,4.2073359375,-0.4791107177734375,-0.5842437744140625,-0.764862060546875
1761392253818417700,4.217417724609375,-0.4053497314453125,-0.5797271728515625,-0.784088134765625
1761392253828499700,4.227499755859375,-0.377105712890625,-0.5485687255859375,-0.820526123046875
1761392253838581800,4.237581787109375,-0.3938140869140625,-0.4897308349609375,-0.83740234375
1761392253848664800,4.247664794921875,-0.4163970947265625,-0.4375152587890625,-0.8180694580078125
1761392253858747000,4.257746826171875,-0.43975830078125,-0.399383544921875,-0.763885498046875
1761392253868828700,4.26782861328125,-0.4550933837890625,-0.37042236328125,-0.692626953125
1761392253878910700,4.27791064453125,-0.4615020751953125,-0.3518218994140625,-0.6191558837890625
1761392253888992800,4.28799267578125,-0.4805755615234375,-0.31256103515625,-0.5858306884765625
1761392253899075800,4.298075927734375,-0.471282958984375,-0.26904296875,-0.57757568359375
1761392253909157600,4.30815771484375,-0.461761474609375,-0.2396392822265625,-0.5829925537109375
1761392253919239700,4.31823974609375,-0.4299774169921875,-0.2195281982421875,-0.5635528564453125
1761392253929321700,4.32832177734375,-0.345703125,-0.181121826171875,-0.582550048828125
1761392253939404800,4.33840478515625,-0.2059783935546875,-0.1533050537109375,-0.6673126220703125
1761392253949486800,4.34848681640625,-0.0626220703125,-0.2291412353515625,-0.7494964599609375
1761392253959568600,4.358568603515625,-0.06402587890625,-0.33233642578125,-0.7920684814453125
1761392253969650700,4.368650634765625,-0.210205078125,-0.454559326171875,-0.802093505859375
1761392253979733800,4.378733642578125,-0.472076416015625,-0.48504638671875,-0.853729248046875
1761392253989815800,4.38881591796875,-0.6296844482421875,-0.4146728515625,-0.9484710693359375
1761392253999897600,4.398897705078125,-0.6410980224609375,-0.4207611083984375,-0.967742919921875
1761392254009979600,4.408979736328125,-0.5959320068359375,-0.460357666015625,-0.9221038818359375
1761392254020062700,4.419062744140625,-0.5155487060546875,-0.49591064453125,-0.8420562744140625
1761392254030144800,4.429144775390625,-0.456787109375,-0.5607147216796875,-0.76318359375
1761392254040226800,4.439226806640625,-0.371063232421875,-0.64617919921875,-0.75018310546875
1761392254050308600,4.44930859375,-0.3019561767578125,-0.70758056640625,-0.7957611083984375
1761392254060391700,4.4593916015625,-0.210723876953125,-0.7662200927734375,-0.9001617431640625
1761392254070473700,4.4694736328125,-0.1539154052734375,-0.7797393798828125,-1.0093841552734375
1761392254080555800,4.4795556640625,-0.1391448974609375,-0.796539306640625,-1.056488037109375
1761392254090637600,4.489637451171875,-0.1784515380859375,-0.8155517578125,-1.07305908203125
1761392254100719600,4.4997197265625,-0.246826171875,-0.8114166259765625,-1.045501708984375
1761392254110802700,4.509802734375,-0.2831878662109375,-0.82977294921875,-0.9745635986328125
1761392254120884700,4.519884765625,-0.273284912109375,-0.84747314453125,-0.9023895263671875
1761392254130966800,4.529966796875,-0.2213897705078125,-0.865936279296875,-0.8450469970703125
1761392254141048600,4.540048583984375,-0.151763916015625,-0.88763427734375,-0.8038482666015625
1761392254151131600,4.550131591796875,-0.1222991943359375,-0.89508056640625,-0.7914581298828125
1761392254161213700,4.560213623046875,-0.1001129150390625,-0.87615966796875,-0.7986907958984375
1761392254171295700,4.570295654296875,-0.0967864990234375,-0.808929443359375,-0.7968292236328125
1761392254181377500,4.58037744140625,-0.146514892578125,-0.7410125732421875,-0.7744140625
1761392254191460600,4.590460693359375,-0.2318572998046875,-0.67578125,-0.7422332763671875
1761392254201542700,4.600542724609375,-0.3329010009765625,-0.572235107421875,-0.7003021240234375
1761392254211624700,4.610624755859375,-0.4337615966796875,-0.43890380859375,-0.63134765625
1761392254221706800,4.620706787109375,-0.5264739990234375,-0.2562713623046875,-0.5853271484375
1761392254231788500,4.63078857421875,-0.5888824462890625,-0.09991455078125,-0.5365142822265625
1761392254241871600,4.64087158203125,-0.6064300537109375,0.01678466796875,-0.509796142578125
1761392254251953700,4.65095361328125,-0.6036224365234375,0.1009674072265625,-0.572174072265625
1761392254262035700,4.66103564453125,-0.576019287109375,0.05908203125,-0.6660919189453125
1761392254272117500,4.671117431640625,-0.57135009765625,-0.010040283203125,-0.79400634765625
1761392254282200800,4.681200927734375,-0.6139678955078125,0.009552001953125,-0.9766693115234375
1761392254292283000,4.691282958984375,-0.6395416259765625,0.098968505859375,-1.1425323486328125
1761392254302364700,4.70136474609375,-0.65570068359375,0.1678009033203125,-1.2257537841796875
1761392254312446700,4.71144677734375,-0.6561126708984375,0.2234344482421875,-1.2646026611328125
1761392254322529800,4.72152978515625,-0.64910888671875,0.260162353515625,-1.27349853515625
1761392254332611800,4.73161181640625,-0.627349853515625,0.24755859375,-1.2146148681640625
1761392254342694000,4.74169384765625,-0.56658935546875,0.2284088134765625,-1.143646240234375
1761392254352776000,4.75177587890625,-0.504669189453125,0.2216644287109375,-1.1076202392578125
1761392254362858800,4.761858642578125,-0.4627838134765625,0.285552978515625,-1.1385650634765625
1761392254372940800,4.77194091796875,-0.3887176513671875,0.3531951904296875,-1.182525634765625
1761392254383022800,4.78202294921875,-0.2779541015625,0.3753662109375,-1.206939697265625
1761392254393105000,4.79210498046875,-0.197265625,0.428955078125,-1.1959075927734375
1761392254403187700,4.802187744140625,-0.1239166259765625,0.437774658203125,-1.145721435546875
1761392254413269800,4.812269775390625,-0.093780517578125,0.4039459228515625,-1.0760955810546875
1761392254423351800,4.822351806640625,-0.0951080322265625,0.3487548828125,-1.0002288818359375
1761392254433433900,4.832433837890625,-0.160919189453125,0.3279266357421875,-0.9721221923828125
1761392254443516000,4.842515869140625,-0.26226806640625,0.3299407958984375,-0.9926300048828125
1761392254453598700,4.8525986328125,-0.3226776123046875,0.370086669921875,-1.0681304931640625
1761392254463680800,4.8626806640625,-0.2719879150390625,0.41510009765625,-1.16729736328125
1761392254473762800,4.8727626953125,-0.10552978515625,0.4860382080078125,-1.25732421875
1761392254483844900,4.882844970703125,0.1347808837890625,0.490447998046875,-1.279052734375
1761392254493927700,4.892927734375,0.3651580810546875,0.446502685546875,-1.277130126953125
1761392254504009700,4.903009765625,0.4575042724609375,0.341400146484375,-1.23529052734375
1761392254514091800,4.913091796875,0.3636627197265625,0.2705841064453125,-1.2024383544921875
1761392254524173800,4.923173828125,0.15643310546875,0.2587890625,-1.2185516357421875
1761392254534256600,4.933256591796875,-0.035614013671875,0.2823333740234375,-1.2382049560546875
1761392254544338700,4.943338623046875,-0.1816558837890625,0.2830810546875,-1.223968505859375
1761392254554420700,4.953420654296875,-0.230194091796875,0.2568511962890625,-1.2143096923828125
1761392254564502800,4.963502685546875,-0.184356689453125,0.2106781005859375,-1.197357177734375
1761392254574585600,4.973585693359375,-0.1071014404296875,0.132293701171875,-1.173614501953125
1761392254584667600,4.983667724609375,-0.0380859375,0.0582275390625,-1.1449737548828125
1761392254594749700,4.993749755859375,-0.0318450927734375,-0.014984130859375,-1.1183013916015625
1761392254604831700,5.003831787109375,-0.1127471923828125,-0.0555267333984375,-1.106475830078125
1761392254614913800,5.013913818359375,-0.2577667236328125,-0.070526123046875,-1.099365234375
1761392254624996600,5.02399658203125,-0.4093780517578125,-0.07513427734375,-1.0741119384765625
1761392254635078700,5.03407861328125,-0.5252838134765625,-0.072021484375,-1.0373382568359375
1761392254645160700,5.04416064453125,-0.54852294921875,-0.07391357421875,-0.9884185791015625
1761392254655242800,5.05424267578125,-0.5175018310546875,-0.0833892822265625,-0.9145050048828125
1761392254665325600,5.06432568359375,-0.455169677734375,-0.090545654296875,-0.8389892578125
1761392254675407600,5.07440771484375,-0.3895721435546875,-0.1058502197265625,-0.7669677734375
1761392254685489700,5.08448974609375,-0.3567352294921875,-0.1457672119140625,-0.712646484375
1761392254695571700,5.09457177734375,-0.3722686767578125,-0.1856689453125,-0.7498016357421875
1761392254705654500,5.104654541015625,-0.3924560546875,-0.2075347900390625,-0.857879638671875
1761392254715736600,5.114736572265625,-0.4145355224609375,-0.2490386962890625,-1.00177001953125
1761392254725818600,5.124818603515625,-0.333831787109375,-0.277496337890625,-1.1640472412109375
1761392254735900700,5.134900634765625,-0.2728424072265625,-0.295379638671875,-1.342041015625
1761392254745982700,5.144982666015625,-0.265411376953125,-0.319091796875,-1.5150146484375
1761392254756065500,5.1550654296875,-0.241851806640625,-0.30340576171875,-1.6185455322265625
1761392254766147600,5.165147705078125,-0.212188720703125,-0.26812744140625,-1.6737823486328125
1761392254776229600,5.175229736328125,-0.214752197265625,-0.2977294921875,-1.7145538330078125
1761392254786311700,5.185311767578125,-0.314483642578125,-0.393310546875,-1.7295074462890625
1761392254796394500,5.19539453125,-0.5256500244140625,-0.4294586181640625,-1.8003387451171875
1761392254806473700,5.2054736328125,-0.729888916015625,-0.305877685546875,-1.940521240234375
1761392254816555800,5.2155556640625,-0.8775787353515625,-0.1312255859375,-2.0688323974609375
1761392254826637800,5.225637939453125,-0.9462738037109375,0.0494384765625,-2.149627685546875
1761392254836720600,5.235720703125,-0.9050445556640625,0.144256591796875,-2.16973876953125
1761392254846802700,5.245802734375,-0.7669830322265625,0.1156463623046875,-2.15985107421875
1761392254856884700,5.255884765625,-0.5897979736328125,0.042327880859375,-2.064239501953125
1761392254866966800,5.265966796875,-0.4108428955078125,-0.0127410888671875,-1.9434051513671875
1761392254877049600,5.276049560546875,-0.2637786865234375,-0.0500640869140625,-1.8557586669921875
1761392254887131600,5.286131591796875,-0.1952362060546875,-0.0648345947265625,-1.801483154296875
1761392254897213700,5.296213623046875,-0.1627044677734375,-0.05712890625,-1.712982177734375
1761392254907295700,5.306295654296875,-0.15325927734375,-0.045135498046875,-1.6094818115234375
1761392254917377800,5.316377685546875,-0.15765380859375,0.0110321044921875,-1.541961669921875
1761392254927460600,5.326460693359375,-0.1728973388671875,0.05322265625,-1.4381866455078125
1761392254937542700,5.336542724609375,-0.1966400146484375,0.044097900390625,-1.3226470947265625
1761392254947624700,5.346624755859375,-0.26483154296875,0.002197265625,-1.2613067626953125
1761392254957706800,5.356706787109375,-0.377105712890625,-0.09539794921875,-1.2498626708984375
1761392254967789600,5.36678955078125,-0.475128173828125,-0.246856689453125,-1.2917633056640625
1761392254977871600,5.37687158203125,-0.54351806640625,-0.409423828125,-1.37152099609375
1761392254987953700,5.38695361328125,-0.548492431640625,-0.52685546875,-1.427886962890625
1761392254998035700,5.39703564453125,-0.56085205078125,-0.5666351318359375,-1.5190582275390625
1761392255008118500,5.407118408203125,-0.6055450439453125,-0.532379150390625,-1.654998779296875
1761392255018200600,5.41720068359375,-0.6650238037109375,-0.4781494140625,-1.7424774169921875
1761392255028282600,5.42728271484375,-0.7972412109375,-0.427734375,-1.7913818359375
1761392255038364700,5.43736474609375,-0.9272613525390625,-0.3826904296875,-1.7499542236328125
1761392255048447500,5.447447509765625,-1.018768310546875,-0.3103179931640625,-1.641387939453125
1761392255058529500,5.457529541015625,-1.05426025390625,-0.1191253662109375,-1.5174713134765625
1761392255068611600,5.467611572265625,-1.0548553466796875,0.15252685546875,-1.377777099609375
1761392255078693600,5.477693603515625,-1.030487060546875,0.3992767333984375,-1.201873779296875
1761392255088775700,5.487775634765625,-0.98895263671875,0.5776824951171875,-0.9108428955078125
1761392255098858500,5.4978583984375,-1.0058746337890625,0.5496063232421875,-0.6251220703125
1761392255108940500,5.5079404296875,-1.0213775634765625,0.4776153564453125,-0.4194488525390625
1761392255119022600,5.518022705078125,-1.0694732666015625,0.4588623046875,-0.2044830322265625
1761392255129104600,5.528104736328125,-1.1186981201171875,0.4661102294921875,0.0499114990234375
1761392255139187700,5.538187744140625,-1.0958709716796875,0.46160888671875,0.298583984375
1761392255149269800,5.548269775390625,-1.102447509765625,0.4241485595703125,0.5179595947265625
1761392255159351600,5.5583515625,-1.1772308349609375,0.3979339599609375,0.65557861328125
1761392255169433600,5.56843359375,-1.245849609375,0.4108734130859375,0.7165374755859375
1761392255179516700,5.5785166015625,-1.25799560546875,0.414642333984375,0.765167236328125
1761392255189598700,5.5885986328125,-1.2574462890625,0.4134674072265625,0.7586669921875
1761392255199680800,5.5986806640625,-1.22296142578125,0.3366851806640625,0.74237060546875
1761392255209762800,5.6087626953125,-1.1665496826171875,0.2381439208984375,0.7293853759765625
1761392255219844900,5.618844970703125,-1.134368896484375,0.188873291015625,0.71258544921875
1761392255229927700,5.628927734375,-1.173065185546875,0.1484832763671875,0.7259521484375
1761392255240009700,5.639009765625,-1.266693115234375,0.14471435546875,0.7318115234375
1761392255250091800,5.649091796875,-1.376190185546875,0.1435699462890625,0.750457763671875
1761392255260173800,5.659173828125,-1.42694091796875,0.1639556884765625,0.7303924560546875
1761392255270256600,5.669256591796875,-1.4107666015625,0.212310791015625,0.675872802734375
1761392255280338700,5.679338623046875,-1.3076629638671875,0.214691162109375,0.64910888671875
1761392255290420700,5.689420654296875,-1.1532440185546875,0.201995849609375,0.6025238037109375
1761392255300502800,5.699502685546875,-1.0670013427734375,0.17510986328125,0.5424041748046875
1761392255310585900,5.7095859375,-1.1218109130859375,0.1262054443359375,0.5483551025390625
1761392255320667600,5.719667724609375,-1.20184326171875,0.0440673828125,0.6615753173828125
1761392255330749700,5.729749755859375,-1.22137451171875,-0.024993896484375,0.748138427734375
1761392255340831700,5.739831787109375,-1.2306365966796875,-0.076507568359375,0.80352783203125
1761392255350913800,5.749913818359375,-1.2151031494140625,-0.1492767333984375,0.8725128173828125
1761392255360996600,5.75999658203125,-1.166259765625,-0.1572113037109375,0.8720703125
1761392255371078700,5.77007861328125,-1.08837890625,-0.1022796630859375,0.784393310546875
1761392255381160700,5.78016064453125,-0.98406982421875,-0.035919189453125,0.656341552734375
1761392255391242800,5.79024267578125,-0.861175537109375,-0.0215301513671875,0.54302978515625
1761392255401325800,5.800325927734375,-0.7157135009765625,-0.058197021484375,0.4640350341796875
1761392255411407600,5.81040771484375,-0.5389404296875,-0.1411285400390625,0.4291839599609375
1761392255421489700,5.82048974609375,-0.4517059326171875,-0.2402801513671875,0.4102020263671875
1761392255431571700,5.83057177734375,-0.5568695068359375,-0.3027496337890625,0.382080078125
1761392255441654800,5.84065478515625,-0.748626708984375,-0.3095550537109375,0.3364410400390625
1761392255451736600,5.850736572265625,-0.98492431640625,-0.2836456298828125,0.292633056640625
1761392255461818600,5.860818603515625,-1.23211669921875,-0.2997589111328125,0.252716064453125
1761392255471900700,5.870900634765625,-1.388885498046875,-0.3712158203125,0.25445556640625
1761392255481982700,5.880982666015625,-1.354034423828125,-0.444244384765625,0.245849609375
1761392255492065800,5.891065673828125,-1.2342071533203125,-0.4774169921875,0.1971588134765625
1761392255502147600,5.901147705078125,-1.087738037109375,-0.4778594970703125,0.1121826171875
1761392255512229600,5.911229736328125,-0.95355224609375,-0.4469146728515625,0.032318115234375
1761392255522311700,5.921311767578125,-0.834381103515625,-0.4291534423828125,-0.036163330078125
1761392255532394800,5.931394775390625,-0.7245330810546875,-0.421600341796875,-0.059173583984375
1761392255542476500,5.9414765625,-0.6844024658203125,-0.39013671875,-0.013275146484375
1761392255552558600,5.95155859375,-0.67626953125,-0.3597412109375,0.106781005859375
1761392255562640600,5.961640625,-0.6994781494140625,-0.4160003662109375,0.2493133544921875
1761392255572723700,5.9717236328125,-0.8094482421875,-0.544952392578125,0.3780059814453125
1761392255582805800,5.9818056640625,-0.9893798828125,-0.6402587890625,0.406829833984375
1761392255592887600,5.991887451171875,-1.205413818359375,-0.6523895263671875,0.3343048095703125
1761392255602969600,6.001969482421875,-1.362457275390625,-0.6058197021484375,0.1802215576171875
1761392255613051600,6.0120517578125,-1.378509521484375,-0.487640380859375,-0.0335540771484375
1761392255623134700,6.022134765625,-1.222930908203125,-0.4239044189453125,-0.1795501708984375
1761392255633216500,6.032216552734375,-1.0381927490234375,-0.3817596435546875,-0.2346038818359375
1761392255643298600,6.042298583984375,-0.8368072509765625,-0.34991455078125,-0.208709716796875
1761392255653380600,6.052380615234375,-0.7745208740234375,-0.4010009765625,-0.1094970703125
1761392255663463700,6.062463623046875,-0.8694000244140625,-0.4738616943359375,0.0033416748046875
1761392255673545500,6.07254541015625,-1.0375213623046875,-0.5189208984375,0.0980072021484375
1761392255683627500,6.08262744140625,-1.1588592529296875,-0.55181884765625,0.150634765625
1761392255693709600,6.09270947265625,-1.1950531005859375,-0.5441131591796875,0.188812255859375
1761392255703793000,6.10279296875,-1.16912841796875,-0.5310516357421875,0.256134033203125
1761392255713875000,6.112875,-1.1050567626953125,-0.5587921142578125,0.36669921875
1761392255723956500,6.12295654296875,-1.02435302734375,-0.6297149658203125,0.4881439208984375
1761392255734038500,6.13303857421875,-0.92138671875,-0.678009033203125,0.5710296630859375
1761392255744120600,6.14312060546875,-0.786712646484375,-0.71026611328125,0.630889892578125
1761392255754204000,6.153203857421875,-0.6590576171875,-0.7248077392578125,0.650909423828125
1761392255764285700,6.16328564453125,-0.537506103515625,-0.6946868896484375,0.6310882568359375
1761392255774367700,6.17336767578125,-0.473419189453125,-0.681732177734375,0.6237640380859375
1761392255784449800,6.18344970703125,-0.452239990234375,-0.64715576171875,0.6067962646484375
1761392255794532900,6.193532958984375,-0.4429931640625,-0.5876007080078125,0.615325927734375
1761392255804615200,6.203615234375,-0.4708251953125,-0.5557861328125,0.6453399658203125
1761392255814697200,6.213697265625,-0.51947021484375,-0.5628814697265625,0.7004852294921875
1761392255824779300,6.223779296875,-0.631195068359375,-0.56768798828125,0.78668212890625
1761392255834862300,6.2338623046875,-0.780364990234375,-0.5916900634765625,0.854583740234375
1761392255844944100,6.243944091796875,-0.85302734375,-0.579803466796875,0.8914947509765625
1761392255855026200,6.254026123046875,-0.94647216796875,-0.541961669921875,0.85992431640625
1761392255865108200,6.264108154296875,-1.051971435546875,-0.524810791015625,0.761810302734375
1761392255875190300,6.274190185546875,-1.0191497802734375,-0.5229339599609375,0.6707000732421875
1761392255885273300,6.2842734375,-1.005218505859375,-0.495391845703125,0.5919647216796875
1761392255895355100,6.294355224609375,-0.9646453857421875,-0.5035552978515625,0.555572509765625
1761392255905437200,6.304437255859375,-0.974639892578125,-0.5177001953125,0.534210205078125
1761392255915519200,6.314519287109375,-1.0294036865234375,-0.452789306640625,0.3817138671875
1761392255925602300,6.324602294921875,-1.0270538330078125,-0.3533935546875,0.1384124755859375
1761392255935684000,6.33468408203125,-1.029266357421875,-0.303619384765625,-0.074310302734375
1761392255945766100,6.34476611328125,-0.93511962890625,-0.4349365234375,-0.1352691650390625
1761392255955848200,6.35484814453125,-0.80120849609375,-0.6390228271484375,-0.0881805419921875
1761392255965930200,6.36493017578125,-0.7400665283203125,-0.7162933349609375,-0.00823974609375
1761392255976013000,6.375012939453125,-0.721405029296875,-0.7191925048828125,0.046966552734375
1761392255986095000,6.38509521484375,-0.8004608154296875,-0.7046966552734375,0.0758819580078125
1761392255996177200,6.39517724609375,-0.945037841796875,-0.67413330078125,0.0431671142578125
1761392256006259200,6.40525927734375,-1.1304931640625,-0.6683197021484375,-0.023773193359375
1761392256016342300,6.41534228515625,-1.2310943603515625,-0.655303955078125,-0.170135498046875
1761392256026424000,6.425424072265625,-1.1851959228515625,-0.613739013671875,-0.325408935546875
1761392256036506000,6.435506103515625,-1.1697235107421875,-0.5657958984375,-0.3965911865234375
1761392256046588200,6.445588134765625,-1.045013427734375,-0.563385009765625,-0.4163665771484375
1761392256056671200,6.455671142578125,-0.9042510986328125,-0.5202484130859375,-0.4106292724609375
1761392256066753000,6.4657529296875,-0.805267333984375,-0.4510955810546875,-0.3652496337890625
1761392256076835000,6.4758349609375,-0.7060699462890625,-0.4442596435546875,-0.3306732177734375
1761392256086917000,6.485917236328125,-0.6358642578125,-0.4357452392578125,-0.3174896240234375
1761392256096999200,6.495999267578125,-0.551544189453125,-0.3971099853515625,-0.30328369140625
1761392256107082200,6.506082275390625,-0.5012664794921875,-0.3728790283203125,-0.2848052978515625
1761392256117164000,6.5161640625,-0.47265625,-0.3266754150390625,-0.215423583984375
1761392256127246000,6.52624609375,-0.4642791748046875,-0.324066162109375,-0.17041015625
1761392256137328000,6.536328125,-0.49139404296875,-0.327484130859375,-0.176177978515625
1761392256147411500,6.546411376953125,-0.4286346435546875,-0.3162841796875,-0.1840972900390625
1761392256157493200,6.5564931640625,-0.399444580078125,-0.360748291015625,-0.1988525390625
1761392256167575300,6.5665751953125,-0.470306396484375,-0.416778564453125,-0.20440673828125
1761392256177657000,6.576656982421875,-0.6195831298828125,-0.4716339111328125,-0.217681884765625
1761392256187740400,6.586740478515625,-0.8230438232421875,-0.4180755615234375,-0.3169403076171875
1761392256197822200,6.596822265625,-1.0185089111328125,-0.2046051025390625,-0.3512420654296875
1761392256207904300,6.606904296875,-1.0124969482421875,-0.02734375,-0.30352783203125
1761392256217986300,6.616986328125,-1.0920257568359375,0.054595947265625,-0.2203369140625
1761392256228068400,6.627068359375,-1.174560546875,-0.00006103515625,-0.1095733642578125
1761392256238151400,6.6371513671875,-1.196136474609375,-0.120880126953125,-0.0065155029296875
1761392256248233200,6.647233154296875,-1.2884521484375,-0.1893310546875,0.0418701171875
1761392256258315300,6.657315185546875,-1.402252197265625,-0.245025634765625,0.0418701171875
1761392256268397300,6.667397216796875,-1.4320526123046875,-0.3110504150390625,-0.0265045166015625
1761392256278480400,6.67748046875,-1.33599853515625,-0.4073028564453125,-0.1009368896484375
1761392256288562200,6.687562255859375,-1.453033447265625,-0.3871917724609375,-0.1718597412109375
1761392256298644200,6.697644287109375,-1.425994873046875,-0.294464111328125,-0.2604217529296875
1761392256308726300,6.707726318359375,-1.3955230712890625,-0.2208251953125,-0.3311309814453125
1761392256318808300,6.717808349609375,-1.422271728515625,-0.159271240234375,-0.3543853759765625
1761392256328891400,6.727891357421875,-1.517913818359375,-0.1168670654296875,-0.300567626953125
1761392256338973200,6.73797314453125,-1.57061767578125,-0.1257476806640625,-0.2306365966796875
1761392256349055200,6.74805517578125,-1.6133880615234375,-0.170318603515625,-0.1715240478515625
1761392256359137300,6.75813720703125,-1.5617218017578125,-0.212677001953125,-0.1375885009765625
1761392256369220400,6.768220458984375,-1.532501220703125,-0.224945068359375,-0.098175048828125
1761392256379302100,6.77830224609375,-1.5463104248046875,-0.2187652587890625,-0.050201416015625
1761392256389384200,6.78838427734375,-1.4398193359375,-0.21710205078125,-0.0301666259765625
1761392256399466200,6.79846630859375,-1.2797088623046875,-0.22662353515625,-0.0132904052734375
1761392256409548300,6.80854833984375,-1.1453094482421875,-0.2400970458984375,-0.0069427490234375
1761392256419631400,6.81863134765625,-1.0175323486328125,-0.246795654296875,-0.0274505615234375
1761392256429713200,6.828713134765625,-0.8776702880859375,-0.2337493896484375,-0.0655975341796875
1761392256439795200,6.838795166015625,-0.75439453125,-0.229400634765625,-0.1058502197265625
1761392256449877200,6.848877197265625,-0.732391357421875,-0.24462890625,-0.1330108642578125
1761392256459960300,6.858960205078125,-0.8135223388671875,-0.2486724853515625,-0.1035308837890625
1761392256470042000,6.8690419921875,-0.9508056640625,-0.22161865234375,-0.059814453125
1761392256480124200,6.879124267578125,-1.029388427734375,-0.1704559326171875,-0.043731689453125
1761392256490206200,6.889206298828125,-1.0182342529296875,-0.105621337890625,-0.04205322265625
1761392256500289300,6.899289306640625,-1.0010833740234375,-0.0563812255859375,-0.027618408203125
1761392256510371300,6.909371337890625,-1.02447509765625,-0.0502166748046875,-0.0089874267578125
1761392256520453000,6.919453125,-1.0619964599609375,-0.0709228515625,-0.0092620849609375
1761392256530535200,6.92953515625,-1.101898193359375,-0.111846923828125,-0.027801513671875
1761392256540617200,6.9396171875,-1.105499267578125,-0.180816650390625,-0.0393218994140625
1761392256550700300,6.9497001953125,-1.2084197998046875,-0.18463134765625,-0.0787811279296875
1761392256560782000,6.959781982421875,-1.35125732421875,-0.1245269775390625,-0.1543731689453125
1761392256570864000,6.969864013671875,-1.397064208984375,-0.042449951171875,-0.2628936767578125
1761392256580946200,6.9799462890625,-1.3493499755859375,0.01910400390625,-0.353668212890625
1761392256591028200,6.9900283203125,-1.3036041259765625,0.0328216552734375,-0.392364501953125
1761392256601111300,7.000111328125,-1.253509521484375,0.0235137939453125,-0.4075469970703125
1761392256611193000,7.010193115234375,-1.10723876953125,-0.0618896484375,-0.365692138671875
1761392256621275100,7.020275146484375,-1.02484130859375,-0.1655120849609375,-0.307769775390625
1761392256631357200,7.030357177734375,-0.987060546875,-0.23724365234375,-0.275665283203125
1761392256641440300,7.040440185546875,-0.9651947021484375,-0.279754638671875,-0.250946044921875
1761392256651522000,7.05052197265625,-0.939605712890625,-0.2812652587890625,-0.2546234130859375
1761392256661604000,7.06060400390625,-0.9167938232421875,-0.2564697265625,-0.2778472900390625
1761392256671686100,7.07068603515625,-0.8954620361328125,-0.2409210205078125,-0.3183746337890625
1761392256681769200,7.080769287109375,-0.8392486572265625,-0.20709228515625,-0.3385772705078125
1761392256691851300,7.090851318359375,-0.809661865234375,-0.1353759765625,-0.299896240234375
1761392256701933000,7.10093310546875,-0.7599029541015625,-0.0305938720703125,-0.196502685546875
1761392256712015000,7.11101513671875,-1.254302978515625,-0.147369384765625,-0.1390533447265625
1761392256722097200,7.12109716796875,-1.1319427490234375,-0.385955810546875,-0.1218719482421875
1761392256732180500,7.131180419921875,-0.903076171875,-0.3305816650390625,-0.0618896484375
1761392256742262300,7.14126220703125,-0.888702392578125,-0.258209228515625,-0.1572418212890625
1761392256752344000,7.151343994140625,-0.8261566162109375,-0.2628326416015625,-0.22088623046875
1761392256762426000,7.161426025390625,-0.879608154296875,-0.252105712890625,-0.20635986328125
1761392256772509400,7.171509521484375,-1.046142578125,-0.225433349609375,-0.197235107421875
